"rt","url","trial_type","trial_index","time_elapsed","internal_node_id","participant_id","stimulus","button_pressed","Name","responses","response","key_press","variableName","fixationTime","condition","trial","photo","subjectRating","subjectResponse","agentsNames","agent_1_Response","agent_2_Response","agent_3_Response","agent_4_Response","agent_5_Response","agent_6_Response","kept_1_name","kept_1_response","kept_2_name","kept_2_response","kept_3_name","kept_3_response","errorCounter"
"318054","external_page_harvard.html","external-html","0","318109","0.0-0.0","ATUA5M7PLS8W3","","","","","","","","","","","","","","","","","","","","","","","","","","",""
"2389","","image-button-response","1","320499","0.0-1.0","ATUA5M7PLS8W3","","0","","","","","","","","","","","","","","","","","","","","","","","","",""
"1788","","image-button-response","2","322291","0.0-2.0-0.0","ATUA5M7PLS8W3","","1","phone","","","","","","","","","","","","","","","","","","","","","","","",""
"4976","","survey-text","3","327268","0.0-3.0-0.0","ATUA5M7PLS8W3","","","","{""Q0"":""ATUA5M7PLS8W3""}","","","","","","","","","","","","","","","","","","","","","","",""
"4302","","image-button-response_instructions","4","331572","0.0-4.0","ATUA5M7PLS8W3","","0","instructions","","","","","","","","","","","","","","","","","","","","","","","",""
"8622","","image-button-response_instructions","5","340195","0.0-5.0","ATUA5M7PLS8W3","img_art/ins/popularity/ins1.png","0","instructions","","","","","","","","","","","","","","","","","","","","","","","",""
"285070","","image-button-response_instructions","6","625267","0.0-6.0","ATUA5M7PLS8W3","img_art/ins/popularity/ins2.png","0","instructions","","","","","","","","","","","","","","","","","","","","","","","",""
"24287","","image-button-response_instructions","7","649555","0.0-7.0","ATUA5M7PLS8W3","img_art/ins/popularity/ins2Extreme.png","0","instructions","","","","","","","","","","","","","","","","","","","","","","","",""
"2375","","image-button-response_instructions","8","651932","0.0-8.0","ATUA5M7PLS8W3","img_art/ins/popularity/ins3KEEPpop.PNG","0","instructions","","","","","","","","","","","","","","","","","","","","","","","",""
"19790","","image-button-response_instructions","9","671723","0.0-9.0","ATUA5M7PLS8W3","img_art/ins/popularity/ins3ANamepop.PNG","0","instructions","","","","","","","","","","","","","","","","","","","","","","","",""
"37328","","image-button-response_instructions","10","709051","0.0-10.0","ATUA5M7PLS8W3","img_art/ins/popularity/ins3ARatingpop.png","0","instructions","","","","","","","","","","","","","","","","","","","","","","","",""
"767","","image-button-response_instructions","11","709819","0.0-11.0","ATUA5M7PLS8W3","img_art/ins/popularity/ins3ATextpop.png","0","instructions","","","","","","","","","","","","","","","","","","","","","","","",""
"1086","","image-button-response_instructions","12","710907","0.0-12.0","ATUA5M7PLS8W3","img_art/ins/popularity/ins3ALikespop.png","0","instructions","","","","","","","","","","","","","","","","","","","","","","","",""
"727","","image-button-response_instructions","13","711636","0.0-13.0","ATUA5M7PLS8W3","img_art/ins/popularity/ins3KEEPpop.PNG","0","instructions","","","","","","","","","","","","","","","","","","","","","","","",""
"606","","image-button-response_instructions","14","712243","0.0-14.0","ATUA5M7PLS8W3","img_art/ins/popularity/ins3_5RED.png","0","instructions","","","","","","","","","","","","","","","","","","","","","","","",""
"528","","image-button-response_instructions","15","712772","0.0-15.0","ATUA5M7PLS8W3","img_art/ins/popularity/ins3KEEPpop.PNG","0","instructions","","","","","","","","","","","","","","","","","","","","","","","",""
"527","","image-button-response_instructions","16","713300","0.0-16.0","ATUA5M7PLS8W3","img_art/ins/popularity/ins4KEEPpop.PNG","0","instructions","","","","","","","","","","","","","","","","","","","","","","","",""
"454","","image-button-response_instructions","17","713755","0.0-17.0","ATUA5M7PLS8W3","img_art/ins/popularity/ins5KEEPpop.PNG","0","instructions","","","","","","","","","","","","","","","","","","","","","","","",""
"446","","image-button-response_instructions","18","714203","0.0-18.0","ATUA5M7PLS8W3","","0","instructions","","","","","","","","","","","","","","","","","","","","","","","",""
"6099","","survey-text","19","720323","0.0-19.0-0.0","ATUA5M7PLS8W3","","","","{""Q0"":""but""}","","","","","","","","","","","","","","","","","","","","","","",""
"694278","","survey-text","20","1414603","0.0-20.0-0.0","ATUA5M7PLS8W3","","","","{""Q0"":""I love this art because there is something about the blue that seems calming. ""}","","","","","","","","","","","","","","","","","","","","","","",""
"3430.2999999523163","","image-slider-response","21","1418036","0.0-21.0","ATUA5M7PLS8W3","","","","","15","","","","","","","","","","","","","","","","","","","","","",""
"4413","","image-button-response","22","1423041","0.0-22.0","ATUA5M7PLS8W3","img_art/ins/1.jpg","0","","","","","","","","","","","","","","","","","","","","","","","","",""
"2960","","image-button-response","23","1426005","0.0-23.0","ATUA5M7PLS8W3","img_art/ins/1.jpg","5","","","","","","","","","","","","","","","","","","","","","","","","",""
"531","","image-button-response","24","1426539","0.0-24.0-0.0","ATUA5M7PLS8W3","img_art/ins/1.jpg","4","","","","","","","","","","","","","","","","","","","","","","","","",""
"1006","","image-button-response","25","1427548","0.0-25.0-0.0","ATUA5M7PLS8W3","img_art/ins/1.jpg","5","","","","","","","","","","","","","","","","","","","","","","","","",""
"942","","image-button-response","26","1432011","0.0-25.1-0.1","ATUA5M7PLS8W3","img_art/ins/1.jpg","1","","","","","","","","","","","","","","","","","","","","","","","","",""
"null","","html-keyboard-response","27","1433012","0.0-26.0","ATUA5M7PLS8W3","<p style=""font-size: 48px;"">+</p>","","","","","null","allTrialResponses","1000","1","-2","img_art/ins/1.jpg","15","I love this art because there is something about the blue that seems calming. ","Adam,Alex,Ben,Carl,Daniel,Jack","Seems like doodles,-20,20,20","very creative work.,36,40,20","This color reminds me of poo,-46,60,20","very calming artwork,42,80,20","It looks like a murder scene.,-48,100,20","I like the sophisticated brushwork,40,120,20","Jack","I like the sophisticated brushwork,40,120,20","Daniel","It looks like a murder scene.,-48,100,20","Alex","very creative work.,36,40,20","2"
"14052","","survey-text","28","1447074","0.0-27.0-0.0","ATUA5M7PLS8W3","","","","{""Q0"":""I love this art because there is something about the blue that seems calming. ""}","","","","","","","","","","","","","","","","","","","","","","",""
"3614.2000000476837","","image-slider-response","29","1450690","0.0-28.0","ATUA5M7PLS8W3","","","","","21","","","","","","","","","","","","","","","","","","","","","",""
"null","","image-button-response","30","1455693","0.0-29.0","ATUA5M7PLS8W3","img_art/ins/2.jpg","null","","","","","","","","","","","","","","","","","","","","","","","","",""
"4691","","image-button-response","31","1460386","0.0-30.0","ATUA5M7PLS8W3","img_art/ins/2.jpg","5","","","","","","","","","","","","","","","","","","","","","","","","",""
"823","","image-button-response","32","1461212","0.0-31.0-0.0","ATUA5M7PLS8W3","img_art/ins/2.jpg","2","","","","","","","","","","","","","","","","","","","","","","","","",""
"358","","image-button-response","33","1461572","0.0-32.0-0.0","ATUA5M7PLS8W3","img_art/ins/2.jpg","1","","","","","","","","","","","","","","","","","","","","","","","","",""
"null","","html-keyboard-response","34","1463074","0.0-33.0","ATUA5M7PLS8W3","<p style=""font-size: 48px;"">+</p>","","","","","null","allTrialResponses","1500","1","-1","img_art/ins/2.jpg","21","I love this art because there is something about the blue that seems calming. ","John,Alex,Kyle,James,Daniel,Jack","love the texture of paint,48,160,20","I like the blocks of color arrangements,30,40,20","Idk, it is just annoying,-32,180,20","looks too angry,-50,140,20","One of my pet peevs,-48,100,20","I would never be able to compose a sophisticated pallete like this,48,120,20","Jack","I would never be able to compose a sophisticated pallete like this,48,120,20","Kyle","Idk, it is just annoying,-32,180,20","Alex","I like the blocks of color arrangements,30,40,20","2"
"4845","","survey-text","35","1467923","0.0-34.0-0.0","ATUA5M7PLS8W3","","","","{""Q0"":""I love this art because there is something about the blue that seems calming. ""}","","","","","","","","","","","","","","","","","","","","","","",""
"3213.800000190735","","image-slider-response","36","1471138","0.0-35.0","ATUA5M7PLS8W3","","","","","13","","","","","","","","","","","","","","","","","","","","","",""
"null","","image-button-response","37","1476146","0.0-36.0","ATUA5M7PLS8W3","img_art/ins/3.jpg","null","","","","","","","","","","","","","","","","","","","","","","","","",""
"25166","","image-button-response","38","1501314","0.0-37.0","ATUA5M7PLS8W3","img_art/ins/3.jpg","5","","","","","","","","","","","","","","","","","","","","","","","","",""
"383","","image-button-response","39","1501699","0.0-38.0-0.0","ATUA5M7PLS8W3","img_art/ins/3.jpg","4","","","","","","","","","","","","","","","","","","","","","","","","",""
"350","","image-button-response","40","1502050","0.0-39.0-0.0","ATUA5M7PLS8W3","img_art/ins/3.jpg","3","","","","","","","","","","","","","","","","","","","","","","","","",""
"null","","html-keyboard-response","41","1503562","0.0-40.0","ATUA5M7PLS8W3","<p style=""font-size: 48px;"">+</p>","","","","","null","allTrialResponses","1500","1","0","img_art/ins/3.jpg","13","I love this art because there is something about the blue that seems calming. ","Sam,Alex,Kyle,Mike,Ron,Jack","I can feel a rainy day from this painting,18,240,20","calming blue is very nice,36,40,20","It looks like a playground for bats,-36,180,20","enjoy the different shades of blue,22,200,20","It looks depressing,-26,220,20","I feel connected to the artist,40,120,20","Jack","I feel connected to the artist,40,120,20","Ron","It looks depressing,-26,220,20","Mike","enjoy the different shades of blue,22,200,20","2"
"4045","","image-button-response_instructions","42","1507611","0.0-41.0","ATUA5M7PLS8W3","","0","instructions","","","","","","","","","","","","","","","","","","","","","","","",""
"13693","","survey-likert","43","1521307","0.0-42.0-0.0","ATUA5M7PLS8W3","","","","{""Q0"":"""",""Q1"":0,""Q2"":1}","","","","","","","","","","","","","","","","","","","","","","",""
"4951","","survey-text","44","1526266","0.0-43.0-0.0","ATUA5M7PLS8W3","","","","{""Q0"":""rock""}","","","","","","","","","","","","","","","","","","","","","","",""
"36776","","survey-text","45","1563043","0.0-44.0-0.0","ATUA5M7PLS8W3","","","","{""Q0"":""I like this art it seems calm""}","","","","","","","","","","","","","","","","","","","","","","",""
"6365.799999952316","","image-slider-response","46","1569411","0.0-45.0","ATUA5M7PLS8W3","","","","","36","","","","","","","","","","","","","","","","","","","","","",""
"null","","image-button-response","47","1574450","0.0-46.0","ATUA5M7PLS8W3","img_art/17.jpg","null","","","","","","","","","","","","","","","","","","","","","","","","",""
"10753","","image-button-response","48","1585205","0.0-47.0","ATUA5M7PLS8W3","img_art/17.jpg","5","","","","","","","","","","","","","","","","","","","","","","","","",""
"454","","image-button-response","49","1585661","0.0-48.0-0.0","ATUA5M7PLS8W3","img_art/17.jpg","4","","","","","","","","","","","","","","","","","","","","","","","","",""
"500","","image-button-response","50","1586163","0.0-49.0-0.0","ATUA5M7PLS8W3","img_art/17.jpg","3","","","","","","","","","","","","","","","","","","","","","","","","",""
"null","","html-keyboard-response","51","1587169","0.0-50.0","ATUA5M7PLS8W3","<p style=""font-size: 48px;"">+</p>","","","","","null","allTrialResponses","1000","1","1","img_art/17.jpg","36","I like this art it seems calm","Miguel,Alejandro,Devon,Tyler,Jared,Devin","Looks awesome .,33,160,20","Embodies beauty and complexity and in simplicity as well,50,80,20","i feel some sadness in this picture,25,400,20","No strong reaction. Beautiful design, but hue appears taciturn. Bad photograph?,1,320,20","the colors, the arch and the wall,15,400,20","So expressive and wonderful wow!,17,380,20","Devin","So expressive and wonderful wow!,17,380,20","Jared","the colors, the arch and the wall,15,400,20","Tyler","No strong reaction. Beautiful design, but hue appears taciturn. Bad photograph?,1,320,20","2"
"19366","","survey-text","52","1606539","0.0-51.0-0.0","ATUA5M7PLS8W3","","","","{""Q0"":""weird looking ""}","","","","","","","","","","","","","","","","","","","","","","",""
"2423.7999999523163","","image-slider-response","53","1608964","0.0-52.0","ATUA5M7PLS8W3","","","","","-28","","","","","","","","","","","","","","","","","","","","","",""
"null","","image-button-response","54","1613974","0.0-53.0","ATUA5M7PLS8W3","img_art/1.jpg","null","","","","","","","","","","","","","","","","","","","","","","","","",""
"6842","","image-button-response","55","1620819","0.0-54.0","ATUA5M7PLS8W3","img_art/1.jpg","3","","","","","","","","","","","","","","","","","","","","","","","","",""
"799","","image-button-response","56","1621621","0.0-55.0-0.0","ATUA5M7PLS8W3","img_art/1.jpg","2","","","","","","","","","","","","","","","","","","","","","","","","",""
"387","","image-button-response","57","1622011","0.0-56.0-0.0","ATUA5M7PLS8W3","img_art/1.jpg","1","","","","","","","","","","","","","","","","","","","","","","","","",""
"null","","html-keyboard-response","58","1623019","0.0-57.0","ATUA5M7PLS8W3","<p style=""font-size: 48px;"">+</p>","","","","","null","allTrialResponses","1000","1","2","img_art/1.jpg","-28","weird looking ","Adrian,Evan,Adam,Tyler,Jared,Devin","Not a fan of the colors. Makes me think of the Australian bush fires.,-5,60,20","It is beautiful, I really enjoy the colors,32,140,20","Messy mix of primary colors.,-10,40,20","This looks like the same artist as the first picture, but cropped? Looks incomplete.,28,320,20","there isnt anything clear to look at,-2,400,20","Quite messy looking,-22,380,20","Tyler","This looks like the same artist as the first picture, but cropped? Looks incomplete.,28,320,20","Adam","Messy mix of primary colors.,-10,40,20","Evan","It is beautiful, I really enjoy the colors,32,140,20","2"
"15949","","survey-text","59","1638971","0.0-58.0-0.0","ATUA5M7PLS8W3","","","","{""Q0"":""Seems chaotic ""}","","","","","","","","","","","","","","","","","","","","","","",""
"7421.899999856949","","image-slider-response","60","1646395","0.0-59.0","ATUA5M7PLS8W3","","","","","-18","","","","","","","","","","","","","","","","","","","","","",""
"null","","image-button-response","61","1651405","0.0-60.0","ATUA5M7PLS8W3","img_art/10.jpg","null","","","","","","","","","","","","","","","","","","","","","","","","",""
"4045","","image-button-response","62","1655453","0.0-61.0","ATUA5M7PLS8W3","img_art/10.jpg","4","","","","","","","","","","","","","","","","","","","","","","","","",""
"333","","image-button-response","63","1655788","0.0-62.0-0.0","ATUA5M7PLS8W3","img_art/10.jpg","3","","","","","","","","","","","","","","","","","","","","","","","","",""
"679","","image-button-response","64","1656468","0.0-63.0-0.0","ATUA5M7PLS8W3","img_art/10.jpg","1","","","","","","","","","","","","","","","","","","","","","","","","",""
"null","","html-keyboard-response","65","1657981","0.0-64.0","ATUA5M7PLS8W3","<p style=""font-size: 48px;"">+</p>","","","","","null","allTrialResponses","1500","1","3","img_art/10.jpg","-18","Seems chaotic ","Sean,Evan,Adam,Tyler,Zachary,Shane","I see a rollercoaster,23,40,20","My immediate thought is WTF is this,-20,140,20","I like the contrast,10,40,20","In proper lighting I might enjoy this,11,320,20","Reminds me of a terrarium with cacti inside. It reminds me of home.,27,400,20","Like a decision making process,46,80,20","Zachary","Reminds me of a terrarium with cacti inside. It reminds me of home.,27,400,20","Tyler","In proper lighting I might enjoy this,11,320,20","Evan","My immediate thought is WTF is this,-20,140,20","2"
"4915","","survey-text","66","1662899","0.0-65.0-0.0","ATUA5M7PLS8W3","","","","{""Q0"":""I like this art it seems calm""}","","","","","","","","","","","","","","","","","","","","","","",""
"2686.600000143051","","image-slider-response","67","1665587","0.0-66.0","ATUA5M7PLS8W3","","","","","17","","","","","","","","","","","","","","","","","","","","","",""
"null","","image-button-response","68","1670603","0.0-67.0","ATUA5M7PLS8W3","img_art/14.jpg","null","","","","","","","","","","","","","","","","","","","","","","","","",""
"6725","","image-button-response","69","1677331","0.0-68.0","ATUA5M7PLS8W3","img_art/14.jpg","4","","","","","","","","","","","","","","","","","","","","","","","","",""
"383","","image-button-response","70","1677716","0.0-69.0-0.0","ATUA5M7PLS8W3","img_art/14.jpg","3","","","","","","","","","","","","","","","","","","","","","","","","",""
"599","","image-button-response","71","1678317","0.0-70.0-0.0","ATUA5M7PLS8W3","img_art/14.jpg","2","","","","","","","","","","","","","","","","","","","","","","","","",""
"null","","html-keyboard-response","72","1679828","0.0-71.0","ATUA5M7PLS8W3","<p style=""font-size: 48px;"">+</p>","","","","","null","allTrialResponses","1500","1","4","img_art/14.jpg","17","I like this art it seems calm","Eric,Evan,Luis,Tyler,Zachary,Isaiah","I'm imagining a flower bouquet with pretty colors which I like.,35,100,20","I like the sharpness of the lines,20,140,20","Love the assortment of colors and flowers, expressing gentle and caring,50,400,20","No strong feelings either direction.,-4,320,20","Did not evoke much feeling except confusion. I am not sure what to make of this one.,-20,400,20","I feel uncomfortable looking at this painting, it is a mess that needs to be cleaned up.,-16,300,20","Zachary","Did not evoke much feeling except confusion. I am not sure what to make of this one.,-20,400,20","Tyler","No strong feelings either direction.,-4,320,20","Luis","Love the assortment of colors and flowers, expressing gentle and caring,50,400,20","2"
"20022","","survey-text","73","1699852","0.0-72.0-0.0","ATUA5M7PLS8W3","","","","{""Q0"":""I love this art because there is something about the blue that seems calming. ""}","","","","","","","","","","","","","","","","","","","","","","",""
"4334.5","","image-slider-response","74","1704188","0.0-73.0","ATUA5M7PLS8W3","","","","","35","","","","","","","","","","","","","","","","","","","","","",""
"null","","image-button-response","75","1709194","0.0-74.0","ATUA5M7PLS8W3","img_art/24.jpg","null","","","","","","","","","","","","","","","","","","","","","","","","",""
"609","","image-button-response","76","1709804","0.0-75.0","ATUA5M7PLS8W3","img_art/24.jpg","4","","","","","","","","","","","","","","","","","","","","","","","","",""
"717","","image-button-response","77","1710523","0.0-76.0-0.0","ATUA5M7PLS8W3","img_art/24.jpg","2","","","","","","","","","","","","","","","","","","","","","","","","",""
"358","","image-button-response","78","1710883","0.0-77.0-0.0","ATUA5M7PLS8W3","img_art/24.jpg","1","","","","","","","","","","","","","","","","","","","","","","","","",""
"null","","html-keyboard-response","79","1712388","0.0-78.0","ATUA5M7PLS8W3","<p style=""font-size: 48px;"">+</p>","","","","","null","allTrialResponses","1500","1","5","img_art/24.jpg","35","I love this art because there is something about the blue that seems calming. ","Blake,Alex,Luis,Tyler,Zachary,Dylan","warm spring day after a rain. soft,20,280,20","Looks like a waterfall or a brook, the colors are very nice,15,100,20","Love the natural vibe,50,400,20","Exceedingly garish,-19,320,20","Looks like a beautiful stream rolling through terrain of rocks and flowers.,43,400,20","This reminds me of a creek or a river. It puts me a peace,42,40,20","Zachary","Looks like a beautiful stream rolling through terrain of rocks and flowers.,43,400,20","Luis","Love the natural vibe,50,400,20","Alex","Looks like a waterfall or a brook, the colors are very nice,15,100,20","2"
"4126","","survey-text","80","1716523","0.0-79.0-0.0","ATUA5M7PLS8W3","","","","{""Q0"":""sky""}","","","","","","","","","","","","","","","","","","","","","","",""
"7560","","survey-text","81","1724084","0.0-80.0-0.0","ATUA5M7PLS8W3","","","","{""Q0"":""I kind of like it and seems to be a worship ""}","","","","","","","","","","","","","","","","","","","","","","",""
"2477.2999999523163","","image-slider-response","82","1726563","0.0-81.0","ATUA5M7PLS8W3","","","","","-17","","","","","","","","","","","","","","","","","","","","","",""
"1391","","image-button-response","83","1731565","0.0-82.0","ATUA5M7PLS8W3","img_art/18.jpg","3","","","","","","","","","","","","","","","","","","","","","","","","",""
"806","","image-button-response","84","1732372","0.0-83.0","ATUA5M7PLS8W3","img_art/18.jpg","3","","","","","","","","","","","","","","","","","","","","","","","","",""
"621","","image-button-response","85","1732996","0.0-84.0-0.0","ATUA5M7PLS8W3","img_art/18.jpg","0","","","","","","","","","","","","","","","","","","","","","","","","",""
"429","","image-button-response","86","1733427","0.0-85.0-0.0","ATUA5M7PLS8W3","img_art/18.jpg","1","","","","","","","","","","","","","","","","","","","","","","","","",""
"null","","html-keyboard-response","87","1734928","0.0-86.0","ATUA5M7PLS8W3","<p style=""font-size: 48px;"">+</p>","","","","","null","allTrialResponses","1500","1","6","img_art/18.jpg","-17","I kind of like it and seems to be a worship ","Justin,Alex,Luis,Peter,Zachary,Bryce","This is really interesting to look at. I like the colors and the spectral look.,27,280,20","The small lines elicit a very nauseating response for some reason, too Dali like for me,-19,100,20","I love the battle vibe in this,50,400,20","I'm not partial to the design, unsettling,2,320,20","This one seems rather ghoulish to me.,-41,400,20","Kinda boring. Not my favorite,-34,20,20","Peter","I'm not partial to the design, unsettling,2,320,20","Justin","This is really interesting to look at. I like the colors and the spectral look.,27,280,20","Alex","The small lines elicit a very nauseating response for some reason, too Dali like for me,-19,100,20","2"
"4200","","survey-text","88","1739131","0.0-87.0-0.0","ATUA5M7PLS8W3","","","","{""Q0"":""I love this art because there is something about the blue that seems calming. ""}","","","","","","","","","","","","","","","","","","","","","","",""
"3400.2000000476837","","image-slider-response","89","1742532","0.0-88.0","ATUA5M7PLS8W3","","","","","50","","","","","","","","","","","","","","","","","","","","","",""
"null","","image-button-response","90","1747535","0.0-89.0","ATUA5M7PLS8W3","img_art/13.jpg","null","","","","","","","","","","","","","","","","","","","","","","","","",""
"2177","","image-button-response","91","1749715","0.0-90.0","ATUA5M7PLS8W3","img_art/13.jpg","4","","","","","","","","","","","","","","","","","","","","","","","","",""
"406","","image-button-response","92","1750123","0.0-91.0-0.0","ATUA5M7PLS8W3","img_art/13.jpg","3","","","","","","","","","","","","","","","","","","","","","","","","",""
"830","","image-button-response","93","1750955","0.0-92.0-0.0","ATUA5M7PLS8W3","img_art/13.jpg","0","","","","","","","","","","","","","","","","","","","","","","","","",""
"null","","html-keyboard-response","94","1751956","0.0-93.0","ATUA5M7PLS8W3","<p style=""font-size: 48px;"">+</p>","","","","","null","allTrialResponses","1000","1","7","img_art/13.jpg","50","I love this art because there is something about the blue that seems calming. ","Justin,Alex,Juan,Peter,Timothy,Alexander","Not really a fan of ""splash"" art.,-20,280,20","I like the blue colors and the symmetry and paint splatters but I would not hang it in my house,8,100,20","I love the colors and the contrast between the different blues.,21,260,20","Reminds me of the aquarium,4,320,20","Doesnt really provoke an emotional responce,0,240,20","Seeing the world through different lenses.,15,120,20","Timothy","Doesnt really provoke an emotional responce,0,240,20","Peter","Reminds me of the aquarium,4,320,20","Justin","Not really a fan of ""splash"" art.,-20,280,20","2"
"314717","","survey-text","95","2066684","0.0-94.0-0.0","ATUA5M7PLS8W3","","","","{""Q0"":""I kind of like it and seems to be a worship ""}","","","","","","","","","","","","","","","","","","","","","","",""
"1869.9000000953674","","image-slider-response","96","2068555","0.0-95.0","ATUA5M7PLS8W3","","","","","-12","","","","","","","","","","","","","","","","","","","","","",""
"null","","image-button-response","97","2073564","0.0-96.0","ATUA5M7PLS8W3","img_art/9.jpg","null","","","","","","","","","","","","","","","","","","","","","","","","",""
"5860","","image-button-response","98","2079427","0.0-97.0","ATUA5M7PLS8W3","img_art/9.jpg","0","","","","","","","","","","","","","","","","","","","","","","","","",""
"630","","image-button-response","99","2080059","0.0-98.0-0.0","ATUA5M7PLS8W3","img_art/9.jpg","1","","","","","","","","","","","","","","","","","","","","","","","","",""
"718","","image-button-response","100","2080779","0.0-99.0-0.0","ATUA5M7PLS8W3","img_art/9.jpg","4","","","","","","","","","","","","","","","","","","","","","","","","",""
"null","","html-keyboard-response","101","2081290","0.0-100.0","ATUA5M7PLS8W3","<p style=""font-size: 48px;"">+</p>","","","","","null","allTrialResponses","500","1","8","img_art/9.jpg","-12","I kind of like it and seems to be a worship ","Justin,Nicholas,Caleb,Peter,Timothy,Chase","It reminds me of an illustration for a fairy tale.,19,280,20","Some nice colors but i do not like it,-18,240,20","Unfinished, weird composition.,-34,40,20","Looks like a monster's teeth , unsettling,-18,320,20","A little too weird for me,-30,240,20","Looks like a sloppy iguana.,-11,120,20","Justin","It reminds me of an illustration for a fairy tale.,19,280,20","Nicholas","Some nice colors but i do not like it,-18,240,20","Timothy","A little too weird for me,-30,240,20","2"
"9006","","survey-text","102","2090299","0.0-101.0-0.0","ATUA5M7PLS8W3","","","","{""Q0"":""I dont like it ""}","","","","","","","","","","","","","","","","","","","","","","",""
"5319.400000095367","","image-slider-response","103","2095620","0.0-102.0","ATUA5M7PLS8W3","","","","","-46","","","","","","","","","","","","","","","","","","","","","",""
"null","","image-button-response","104","2100636","0.0-103.0","ATUA5M7PLS8W3","img_art/2.jpg","null","","","","","","","","","","","","","","","","","","","","","","","","",""
"11565","","image-button-response","105","2112203","0.0-104.0","ATUA5M7PLS8W3","img_art/2.jpg","4","","","","","","","","","","","","","","","","","","","","","","","","",""
"342","","image-button-response","106","2112547","0.0-105.0-0.0","ATUA5M7PLS8W3","img_art/2.jpg","5","","","","","","","","","","","","","","","","","","","","","","","","",""
"901","","image-button-response","107","2113451","0.0-106.0-0.0","ATUA5M7PLS8W3","img_art/2.jpg","2","","","","","","","","","","","","","","","","","","","","","","","","",""
"null","","html-keyboard-response","108","2114960","0.0-107.0","ATUA5M7PLS8W3","<p style=""font-size: 48px;"">+</p>","","","","","null","allTrialResponses","1500","1","9","img_art/2.jpg","-46","I dont like it ","Justin,Nicholas,Joshua,Nathan,Timothy,Kevin","This one feels rather flat and not engaging.,-15,280,20","Cute and happy,22,240,20","Looks like child's art.,-19,240,20","Not a fan of this style,-30,200,20","The contrasting colors are a bit harsh,-10,240,20","That looks look a cartoon character of some kind.,11,320,20","Timothy","The contrasting colors are a bit harsh,-10,240,20","Kevin","That looks look a cartoon character of some kind.,11,320,20","Joshua","Looks like child's art.,-19,240,20","2"
"11614","","survey-text","109","2126580","0.0-108.0-0.0","ATUA5M7PLS8W3","","","","{""Q0"":""I like this art it seems calm""}","","","","","","","","","","","","","","","","","","","","","","",""
"3173.899999856949","","image-slider-response","110","2129756","0.0-109.0","ATUA5M7PLS8W3","","","","","16","","","","","","","","","","","","","","","","","","","","","",""
"null","","image-button-response","111","2134765","0.0-110.0","ATUA5M7PLS8W3","img_art/28.jpg","null","","","","","","","","","","","","","","","","","","","","","","","","",""
"9340","","image-button-response","112","2144108","0.0-111.0","ATUA5M7PLS8W3","img_art/28.jpg","4","","","","","","","","","","","","","","","","","","","","","","","","",""
"399","","image-button-response","113","2144509","0.0-112.0-0.0","ATUA5M7PLS8W3","img_art/28.jpg","3","","","","","","","","","","","","","","","","","","","","","","","","",""
"764","","image-button-response","114","2145274","0.0-113.0-0.0","ATUA5M7PLS8W3","img_art/28.jpg","2","","","","","","","","","","","","","","","","","","","","","","","","",""
"null","","html-keyboard-response","115","2145781","0.0-114.0","ATUA5M7PLS8W3","<p style=""font-size: 48px;"">+</p>","","","","","null","allTrialResponses","500","1","10","img_art/28.jpg","16","I like this art it seems calm","Cameron,Benjamin,Joshua,Mitchell,Timothy,Kevin","dislike the colors. it looks like a bike, but misshapen wheels like it was wrecked.,-10,60,20","Colors are too dull.,-30,260,20","The colors are drab and a little depressing.,-20,240,20","A mom protecting her child because something scary, (perhaps imaginary) wants to take the child.,-10,180,20","This one gives me an uneasy feeling,-10,240,20","Looks like some guys in s band playing at a busy park.,18,320,20","Timothy","This one gives me an uneasy feeling,-10,240,20","Mitchell","A mom protecting her child because something scary, (perhaps imaginary) wants to take the child.,-10,180,20","Joshua","The colors are drab and a little depressing.,-20,240,20","2"
"3920","","survey-text","116","2149719","0.0-115.0-0.0","ATUA5M7PLS8W3","","","","{""Q0"":""our""}","","","","","","","","","","","","","","","","","","","","","","",""
"4747","","survey-text","117","2154468","0.0-116.0-0.0","ATUA5M7PLS8W3","","","","{""Q0"":""I love this art because there is something about the blue that seems calming. ""}","","","","","","","","","","","","","","","","","","","","","","",""
"3254.7000000476837","","image-slider-response","118","2157724","0.0-117.0","ATUA5M7PLS8W3","","","","","19","","","","","","","","","","","","","","","","","","","","","",""
"null","","image-button-response","119","2162739","0.0-118.0","ATUA5M7PLS8W3","img_art/20.jpg","null","","","","","","","","","","","","","","","","","","","","","","","","",""
"231341","","image-button-response","120","2394082","0.0-119.0","ATUA5M7PLS8W3","img_art/20.jpg","4","","","","","","","","","","","","","","","","","","","","","","","","",""
"341","","image-button-response","121","2394426","0.0-120.0-0.0","ATUA5M7PLS8W3","img_art/20.jpg","3","","","","","","","","","","","","","","","","","","","","","","","","",""
"503","","image-button-response","122","2394932","0.0-121.0-0.0","ATUA5M7PLS8W3","img_art/20.jpg","5","","","","","","","","","","","","","","","","","","","","","","","","",""
"null","","html-keyboard-response","123","2395946","0.0-122.0","ATUA5M7PLS8W3","<p style=""font-size: 48px;"">+</p>","","","","","null","allTrialResponses","1000","1","11","img_art/20.jpg","19","I love this art because there is something about the blue that seems calming. ","John,David,Joshua,Mitchell,Timothy,Mark","Its interesting.It almost seems like a painting of a landscape,14,120,20","I like how the image is depicting a scene.,10,340,20","Reminds me of the Southwest; i.e. New Mexico or Arizona. It's interesting.,12,240,20","Interesting. Empty place, wondering what happened, leaving what you used to know.,10,180,20","Makes me think if a car crash or some sort of disaster,-20,240,20","Reminds me of persistance of time (a favorite of mine).,30,80,20","Timothy","Makes me think if a car crash or some sort of disaster,-20,240,20","Mitchell","Interesting. Empty place, wondering what happened, leaving what you used to know.,10,180,20","Mark","Reminds me of persistance of time (a favorite of mine).,30,80,20","2"
"14908","","survey-text","124","2410859","0.0-123.0-0.0","ATUA5M7PLS8W3","","","","{""Q0"":""Its weird but its okay""}","","","","","","","","","","","","","","","","","","","","","","",""
"3581.2000000476837","","image-slider-response","125","2414442","0.0-124.0","ATUA5M7PLS8W3","","","","","13","","","","","","","","","","","","","","","","","","","","","",""
"null","","image-button-response","126","2419455","0.0-125.0","ATUA5M7PLS8W3","img_art/6.jpg","null","","","","","","","","","","","","","","","","","","","","","","","","",""
"5570","","image-button-response","127","2425027","0.0-126.0","ATUA5M7PLS8W3","img_art/6.jpg","4","","","","","","","","","","","","","","","","","","","","","","","","",""
"687","","image-button-response","128","2425716","0.0-127.0-0.0","ATUA5M7PLS8W3","img_art/6.jpg","1","","","","","","","","","","","","","","","","","","","","","","","","",""
"316","","image-button-response","129","2426034","0.0-128.0-0.0","ATUA5M7PLS8W3","img_art/6.jpg","0","","","","","","","","","","","","","","","","","","","","","","","","",""
"null","","html-keyboard-response","130","2427563","0.0-129.0","ATUA5M7PLS8W3","<p style=""font-size: 48px;"">+</p>","","","","","null","allTrialResponses","1500","1","12","img_art/6.jpg","13","Its weird but its okay","Michael,Connor,Derek,Mitchell,Timothy,Mark","Looks like a kid created it.,-50,140,20","Blackbird in the desert,27,240,20","Too basic for me,-20,360,20","Looking, searching at the same time being content.,30,180,20","I dont feel much of a responce or connection to this one,0,240,20","So forlorn, and beauty amid desolation.,25,80,20","Timothy","I dont feel much of a responce or connection to this one,0,240,20","Connor","Blackbird in the desert,27,240,20","Michael","Looks like a kid created it.,-50,140,20","2"
"13419","","survey-text","131","2440994","0.0-130.0-0.0","ATUA5M7PLS8W3","","","","{""Q0"":""I like this art it seems calm""}","","","","","","","","","","","","","","","","","","","","","","",""
"3070.9000000953674","","image-slider-response","132","2444066","0.0-131.0","ATUA5M7PLS8W3","","","","","34","","","","","","","","","","","","","","","","","","","","","",""
"null","","image-button-response","133","2449074","0.0-132.0","ATUA5M7PLS8W3","img_art/22.jpg","null","","","","","","","","","","","","","","","","","","","","","","","","",""
"46584","","image-button-response","134","2495660","0.0-133.0","ATUA5M7PLS8W3","img_art/22.jpg","4","","","","","","","","","","","","","","","","","","","","","","","","",""
"333","","image-button-response","135","2495995","0.0-134.0-0.0","ATUA5M7PLS8W3","img_art/22.jpg","3","","","","","","","","","","","","","","","","","","","","","","","","",""
"815","","image-button-response","136","2496811","0.0-135.0-0.0","ATUA5M7PLS8W3","img_art/22.jpg","0","","","","","","","","","","","","","","","","","","","","","","","","",""
"null","","html-keyboard-response","137","2497813","0.0-136.0","ATUA5M7PLS8W3","<p style=""font-size: 48px;"">+</p>","","","","","null","allTrialResponses","1000","1","13","img_art/22.jpg","34","I like this art it seems calm","Michael,Connor,Ryan,Victor,Timothy,Antonio","There is some flow and organization.,10,140,20","Seems dated with geometic forms,-20,240,20","Very generic, seen many times before,-43,380,20","I don't really know why, I just like looking at it,10,340,20","This painting has a very nostalgic feel,20,240,20","Felt blah. Bunch of nothingness,-42,220,20","Timothy","This painting has a very nostalgic feel,20,240,20","Victor","I don't really know why, I just like looking at it,10,340,20","Michael","There is some flow and organization.,10,140,20","2"
"9458","","survey-text","138","2507284","0.0-137.0-0.0","ATUA5M7PLS8W3","","","","{""Q0"":""I dont like it ""}","","","","","","","","","","","","","","","","","","","","","","",""
"3830.5","","image-slider-response","139","2511116","0.0-138.0","ATUA5M7PLS8W3","","","","","-50","","","","","","","","","","","","","","","","","","","","","",""
"2358","","image-button-response","140","2516119","0.0-139.0","ATUA5M7PLS8W3","img_art/3.jpg","0","","","","","","","","","","","","","","","","","","","","","","","","",""
"1276","","image-button-response","141","2517396","0.0-140.0","ATUA5M7PLS8W3","img_art/3.jpg","2","","","","","","","","","","","","","","","","","","","","","","","","",""
"1670","","image-button-response","142","2519068","0.0-141.0-0.0","ATUA5M7PLS8W3","img_art/3.jpg","1","","","","","","","","","","","","","","","","","","","","","","","","",""
"1261","","image-button-response","143","2520331","0.0-142.0-0.0","ATUA5M7PLS8W3","img_art/3.jpg","4","","","","","","","","","","","","","","","","","","","","","","","","",""
"null","","html-keyboard-response","144","2521833","0.0-143.0","ATUA5M7PLS8W3","<p style=""font-size: 48px;"">+</p>","","","","","null","allTrialResponses","1500","1","14","img_art/3.jpg","-50","I dont like it ","Michael,Bryan,Jonathan,Victor,Timothy,Seth","Looks like someone mentalyl unstable drew and is ready to go a a killing spree.,-50,140,20","Just no. I love red but this looks like blood splatter on a wall from a horrific killing.,-45,400,20","Something I'd paint when I'm mad. I feel that,20,140,20","Again, looks like a child's work. I don't get these types of pieces. Too simple,-47,340,20","This makes me feel a bit disturbed,-35,240,20","I didn't feel the color choice when I first looked. I did however like the placement of the gray.,-28,60,20","Jonathan","Something I'd paint when I'm mad. I feel that,20,140,20","Bryan","Just no. I love red but this looks like blood splatter on a wall from a horrific killing.,-45,400,20","Timothy","This makes me feel a bit disturbed,-35,240,20","2"
"38373","","survey-text","145","2560210","0.0-144.0-0.0","ATUA5M7PLS8W3","","","","{""Q0"":""I kind of like it and seems to be a worship ""}","","","","","","","","","","","","","","","","","","","","","","",""
"3598.5999999046326","","image-slider-response","146","2563810","0.0-145.0","ATUA5M7PLS8W3","","","","","-8","","","","","","","","","","","","","","","","","","","","","",""
"null","","image-button-response","147","2568820","0.0-146.0","ATUA5M7PLS8W3","img_art/11.jpg","null","","","","","","","","","","","","","","","","","","","","","","","","",""
"13581","","image-button-response","148","2582404","0.0-147.0","ATUA5M7PLS8W3","img_art/11.jpg","4","","","","","","","","","","","","","","","","","","","","","","","","",""
"535","","image-button-response","149","2582940","0.0-148.0-0.0","ATUA5M7PLS8W3","img_art/11.jpg","1","","","","","","","","","","","","","","","","","","","","","","","","",""
"395","","image-button-response","150","2583338","0.0-149.0-0.0","ATUA5M7PLS8W3","img_art/11.jpg","0","","","","","","","","","","","","","","","","","","","","","","","","",""
"null","","html-keyboard-response","151","2584340","0.0-150.0","ATUA5M7PLS8W3","<p style=""font-size: 48px;"">+</p>","","","","","null","allTrialResponses","1000","1","15","img_art/11.jpg","-8","I kind of like it and seems to be a worship ","Carlos,Bryan,Jonathan,Luke,Timothy,Vincent","The colors are lovely. February getting ready to yield to March.,41,80,20","Rainy asian city scape.,31,400,20","Those vertical strokes are to die for and I love these colors !!!,50,140,20","it reminds me of music,43,20,20","The movement in this one is extremely pleasent,40,240,20","Looks like a familiar area,31,360,20","Timothy","The movement in this one is extremely pleasent,40,240,20","Bryan","Rainy asian city scape.,31,400,20","Carlos","The colors are lovely. February getting ready to yield to March.,41,80,20","2"
"18979","","survey-text","152","2603338","0.0-151.0-0.0","ATUA5M7PLS8W3","","","","{""Q0"":""course""}","","","","","","","","","","","","","","","","","","","","","","",""
"20231","","survey-text","153","2623570","0.0-152.0-0.0","ATUA5M7PLS8W3","","","","{""Q0"":""I kind of like it and seems to be a worship ""}","","","","","","","","","","","","","","","","","","","","","","",""
"3142.7999999523163","","image-slider-response","154","2626714","0.0-153.0","ATUA5M7PLS8W3","","","","","-6","","","","","","","","","","","","","","","","","","","","","",""
"null","","image-button-response","155","2631727","0.0-154.0","ATUA5M7PLS8W3","img_art/25.jpg","null","","","","","","","","","","","","","","","","","","","","","","","","",""
"1466","","image-button-response","156","2633195","0.0-155.0","ATUA5M7PLS8W3","img_art/25.jpg","3","","","","","","","","","","","","","","","","","","","","","","","","",""
"655","","image-button-response","157","2633852","0.0-156.0-0.0","ATUA5M7PLS8W3","img_art/25.jpg","0","","","","","","","","","","","","","","","","","","","","","","","","",""
"373","","image-button-response","158","2634227","0.0-157.0-0.0","ATUA5M7PLS8W3","img_art/25.jpg","1","","","","","","","","","","","","","","","","","","","","","","","","",""
"null","","html-keyboard-response","159","2634743","0.0-158.0","ATUA5M7PLS8W3","<p style=""font-size: 48px;"">+</p>","","","","","null","allTrialResponses","500","1","16","img_art/25.jpg","-6","I kind of like it and seems to be a worship ","Carlos,Bryan,Garrett,Jesse,Timothy,Edward","The proportions are unpleasant.,-30,80,20","Scary. Something out of a Stephen King book/movie.,-31,400,20","I like the way the persons clothes look, there could be more color though.,10,180,20","Creates a bit of fear in me for some reason,-26,80,20","This makes me feel uneasy,-20,240,20","It looks like people worshipping a statue,33,60,20","Jesse","Creates a bit of fear in me for some reason,-26,80,20","Carlos","The proportions are unpleasant.,-30,80,20","Bryan","Scary. Something out of a Stephen King book/movie.,-31,400,20","2"
"29535","","survey-text","160","2664284","0.0-159.0-0.0","ATUA5M7PLS8W3","","","","{""Q0"":""I love this art because there is something about the blue that seems calming. ""}","","","","","","","","","","","","","","","","","","","","","","",""
"2989.399999856949","","image-slider-response","161","2667275","0.0-160.0","ATUA5M7PLS8W3","","","","","21","","","","","","","","","","","","","","","","","","","","","",""
"null","","image-button-response","162","2672281","0.0-161.0","ATUA5M7PLS8W3","img_art/15.jpg","null","","","","","","","","","","","","","","","","","","","","","","","","",""
"5576","","image-button-response","163","2677860","0.0-162.0","ATUA5M7PLS8W3","img_art/15.jpg","1","","","","","","","","","","","","","","","","","","","","","","","","",""
"304","","image-button-response","164","2678166","0.0-163.0-0.0","ATUA5M7PLS8W3","img_art/15.jpg","0","","","","","","","","","","","","","","","","","","","","","","","","",""
"597","","image-button-response","165","2678764","0.0-164.0-0.0","ATUA5M7PLS8W3","img_art/15.jpg","2","","","","","","","","","","","","","","","","","","","","","","","","",""
"null","","html-keyboard-response","166","2679781","0.0-165.0","ATUA5M7PLS8W3","<p style=""font-size: 48px;"">+</p>","","","","","null","allTrialResponses","1000","1","17","img_art/15.jpg","21","I love this art because there is something about the blue that seems calming. ","Carlos,Bryan,Andrew,Jesse,Steven,Dustin","It is visually appealing, stark and simple but natural.,41,80,20","Interesting. Reminds me of a biopsy slide.,21,400,20","The blues are soothing,21,160,20","Doesnt trigger much of a reaction overall,-2,80,20","I'm just not into it,-5,160,20","Too much black. I see weeds or dead/dying flowers.,-40,20,20","Bryan","Interesting. Reminds me of a biopsy slide.,21,400,20","Carlos","It is visually appealing, stark and simple but natural.,41,80,20","Andrew","The blues are soothing,21,160,20","2"
"18900","","survey-text","167","2698691","0.0-166.0-0.0","ATUA5M7PLS8W3","","","","{""Q0"":""I like this art it seems calm""}","","","","","","","","","","","","","","","","","","","","","","",""
"2054.2000000476837","","image-slider-response","168","2700747","0.0-167.0","ATUA5M7PLS8W3","","","","","3","","","","","","","","","","","","","","","","","","","","","",""
"null","","image-button-response","169","2705763","0.0-168.0","ATUA5M7PLS8W3","img_art/7.jpg","null","","","","","","","","","","","","","","","","","","","","","","","","",""
"815","","image-button-response","170","2706580","0.0-169.0","ATUA5M7PLS8W3","img_art/7.jpg","5","","","","","","","","","","","","","","","","","","","","","","","","",""
"1152","","image-button-response","171","2707733","0.0-170.0-0.0","ATUA5M7PLS8W3","img_art/7.jpg","1","","","","","","","","","","","","","","","","","","","","","","","","",""
"517","","image-button-response","172","2708251","0.0-171.0-0.0","ATUA5M7PLS8W3","img_art/7.jpg","2","","","","","","","","","","","","","","","","","","","","","","","","",""
"null","","html-keyboard-response","173","2708752","0.0-172.0","ATUA5M7PLS8W3","<p style=""font-size: 48px;"">+</p>","","","","","null","allTrialResponses","500","1","18","img_art/7.jpg","3","I like this art it seems calm","Carlos,Bryan,Andrew,Stephen,Jeffrey,Grant","The dried bottom of a puddle in July.,-41,80,20","Makes me itch - looks like a closeup of an ant colony or something.,-1,400,20","It makes me think of new archaeology discoveries,15,160,20","Nice realistic feel but nothing stands out.,4,140,20","No not cause many emotions,1,40,20","This elicits no reaction in me.,0,200,20","Grant","This elicits no reaction in me.,0,200,20","Bryan","Makes me itch - looks like a closeup of an ant colony or something.,-1,400,20","Andrew","It makes me think of new archaeology discoveries,15,160,20","2"
"14246","","survey-text","174","2723004","0.0-173.0-0.0","ATUA5M7PLS8W3","","","","{""Q0"":""Its weird but cool I guess""}","","","","","","","","","","","","","","","","","","","","","","",""
"5148.900000095367","","image-slider-response","175","2728155","0.0-174.0","ATUA5M7PLS8W3","","","","","-4","","","","","","","","","","","","","","","","","","","","","",""
"null","","image-button-response","176","2733161","0.0-175.0","ATUA5M7PLS8W3","img_art/5.jpg","null","","","","","","","","","","","","","","","","","","","","","","","","",""
"7217","","image-button-response","177","2740379","0.0-176.0","ATUA5M7PLS8W3","img_art/5.jpg","0","","","","","","","","","","","","","","","","","","","","","","","","",""
"382","","image-button-response","178","2740763","0.0-177.0-0.0","ATUA5M7PLS8W3","img_art/5.jpg","1","","","","","","","","","","","","","","","","","","","","","","","","",""
"895","","image-button-response","179","2741660","0.0-178.0-0.0","ATUA5M7PLS8W3","img_art/5.jpg","3","","","","","","","","","","","","","","","","","","","","","","","","",""
"null","","html-keyboard-response","180","2742176","0.0-179.0","ATUA5M7PLS8W3","<p style=""font-size: 48px;"">+</p>","","","","","null","allTrialResponses","500","1","19","img_art/5.jpg","-4","Its weird but cool I guess","Thomas,Bryan,Andrew,Angel,Shawn,Grant","I'm confused by what I am looking at,-3,220,20","Looks like a yellow plastic trash bag.,-42,400,20","Doesn't make me think anything,-1,160,20","I see a sign advising me to be cautious.,-20,180,20","Black stripe looks violent,-31,100,20","This elicits no reaction in me.,0,200,20","Thomas","I'm confused by what I am looking at,-3,220,20","Bryan","Looks like a yellow plastic trash bag.,-42,400,20","Angel","I see a sign advising me to be cautious.,-20,180,20","2"
"9416","","survey-text","181","2751597","0.0-180.0-0.0","ATUA5M7PLS8W3","","","","{""Q0"":""I like this art it seems calm""}","","","","","","","","","","","","","","","","","","","","","","",""
"2821.0999999046326","","image-slider-response","182","2754420","0.0-181.0","ATUA5M7PLS8W3","","","","","12","","","","","","","","","","","","","","","","","","","","","",""
"null","","image-button-response","183","2759426","0.0-182.0","ATUA5M7PLS8W3","img_art/30.jpg","null","","","","","","","","","","","","","","","","","","","","","","","","",""
"21821","","image-button-response","184","2781251","0.0-183.0","ATUA5M7PLS8W3","img_art/30.jpg","1","","","","","","","","","","","","","","","","","","","","","","","","",""
"319","","image-button-response","185","2781571","0.0-184.0-0.0","ATUA5M7PLS8W3","img_art/30.jpg","0","","","","","","","","","","","","","","","","","","","","","","","","",""
"574","","image-button-response","186","2782148","0.0-185.0-0.0","ATUA5M7PLS8W3","img_art/30.jpg","2","","","","","","","","","","","","","","","","","","","","","","","","",""
"null","","html-keyboard-response","187","2783654","0.0-186.0","ATUA5M7PLS8W3","<p style=""font-size: 48px;"">+</p>","","","","","null","allTrialResponses","1500","1","20","img_art/30.jpg","12","I like this art it seems calm","Thomas,Bryan,Logan,Angel,Paul,Gabriel","I like the colors,18,220,20","A little too dull. Would've liked brighter colors. Also looks washed out.,1,400,20","literally stupid I made this with as seen on tv products when I was 7,-42,360,20","It's like a child's art piece: carefree and not trying to conform to anything.,10,180,20","It looked like a random scribble but I can see a person's face in it now and I think it's clever,13,300,20","dont like this much at all,-30,160,20","Bryan","A little too dull. Would've liked brighter colors. Also looks washed out.,1,400,20","Thomas","I like the colors,18,220,20","Logan","literally stupid I made this with as seen on tv products when I was 7,-42,360,20","2"
"3638","","survey-text","188","2787307","0.0-187.0-0.0","ATUA5M7PLS8W3","","","","{""Q0"":""we""}","","","","","","","","","","","","","","","","","","","","","","",""
"4536","","survey-text","189","2791843","0.0-188.0-0.0","ATUA5M7PLS8W3","","","","{""Q0"":""I like this art it seems calm""}","","","","","","","","","","","","","","","","","","","","","","",""
"2087.399999856949","","image-slider-response","190","2793932","0.0-189.0","ATUA5M7PLS8W3","","","","","6","","","","","","","","","","","","","","","","","","","","","",""
"null","","image-button-response","191","2798949","0.0-190.0","ATUA5M7PLS8W3","img_art/29.jpg","null","","","","","","","","","","","","","","","","","","","","","","","","",""
"10477","","image-button-response","192","2809427","0.0-191.0","ATUA5M7PLS8W3","img_art/29.jpg","3","","","","","","","","","","","","","","","","","","","","","","","","",""
"293","","image-button-response","193","2809723","0.0-192.0-0.0","ATUA5M7PLS8W3","img_art/29.jpg","4","","","","","","","","","","","","","","","","","","","","","","","","",""
"327","","image-button-response","194","2810052","0.0-193.0-0.0","ATUA5M7PLS8W3","img_art/29.jpg","5","","","","","","","","","","","","","","","","","","","","","","","","",""
"null","","html-keyboard-response","195","2811567","0.0-194.0","ATUA5M7PLS8W3","<p style=""font-size: 48px;"">+</p>","","","","","null","allTrialResponses","1500","1","21","img_art/29.jpg","6","I like this art it seems calm","Thomas,Bryan,Logan,Jose,Jeremy,Brian","Looks messy, but not in appealing way,-20,220,20","Doesn't do much for me. I like some of the colors but not much else.,-10,400,20","is this supposed to be edgy,-21,360,20","I think the grey and red inspire negative feelings but it's not the worst thing.,13,200,20","unhappy. Looking at this all the time would depress me.,-11,60,20","it looks like a top-down battle arena,26,380,20","Jose","I think the grey and red inspire negative feelings but it's not the worst thing.,13,200,20","Jeremy","unhappy. Looking at this all the time would depress me.,-11,60,20","Brian","it looks like a top-down battle arena,26,380,20","2"
"29911","","survey-text","196","2841490","0.0-195.0-0.0","ATUA5M7PLS8W3","","","","{""Q0"":""I love this art because there is something about the blue that seems calming. ""}","","","","","","","","","","","","","","","","","","","","","","",""
"2351.4000000953674","","image-slider-response","197","2843842","0.0-196.0","ATUA5M7PLS8W3","","","","","13","","","","","","","","","","","","","","","","","","","","","",""
"null","","image-button-response","198","2848847","0.0-197.0","ATUA5M7PLS8W3","img_art/23.jpg","null","","","","","","","","","","","","","","","","","","","","","","","","",""
"23124","","image-button-response","199","2871973","0.0-198.0","ATUA5M7PLS8W3","img_art/23.jpg","4","","","","","","","","","","","","","","","","","","","","","","","","",""
"708","","image-button-response","200","2872683","0.0-199.0-0.0","ATUA5M7PLS8W3","img_art/23.jpg","1","","","","","","","","","","","","","","","","","","","","","","","","",""
"391","","image-button-response","201","2873076","0.0-200.0-0.0","ATUA5M7PLS8W3","img_art/23.jpg","0","","","","","","","","","","","","","","","","","","","","","","","","",""
"null","","html-keyboard-response","202","2874090","0.0-201.0","ATUA5M7PLS8W3","<p style=""font-size: 48px;"">+</p>","","","","","null","allTrialResponses","1000","1","22","img_art/23.jpg","13","I love this art because there is something about the blue that seems calming. ","Kyle,Jordan,Nathaniel,Jose,Jeremy,Brian","Mostly neutral but a bit too guady with the brash colors,-6,340,20","I like the contrast,29,160,20","Not a fan of these dot pieces. They hurt my eyes.,-25,220,20","This one is awesome, kinda looks like a cake with sprinkles but in a different universe,50,200,20","Does not incite any emotional response,1,60,20","this looks like a pop rock album cover,-10,380,20","Jeremy","Does not incite any emotional response,1,60,20","Jordan","I like the contrast,29,160,20","Kyle","Mostly neutral but a bit too guady with the brash colors,-6,340,20","2"
"4507","","survey-text","203","2878603","0.0-202.0-0.0","ATUA5M7PLS8W3","","","","{""Q0"":""I like this art it seems calm""}","","","","","","","","","","","","","","","","","","","","","","",""
"3622","","image-slider-response","204","2882226","0.0-203.0","ATUA5M7PLS8W3","","","","","7","","","","","","","","","","","","","","","","","","","","","",""
"null","","image-button-response","205","2887228","0.0-204.0","ATUA5M7PLS8W3","img_art/4.jpg","null","","","","","","","","","","","","","","","","","","","","","","","","",""
"740","","image-button-response","206","2887971","0.0-205.0","ATUA5M7PLS8W3","img_art/4.jpg","1","","","","","","","","","","","","","","","","","","","","","","","","",""
"366","","image-button-response","207","2888338","0.0-206.0-0.0","ATUA5M7PLS8W3","img_art/4.jpg","0","","","","","","","","","","","","","","","","","","","","","","","","",""
"766","","image-button-response","208","2889107","0.0-207.0-0.0","ATUA5M7PLS8W3","img_art/4.jpg","2","","","","","","","","","","","","","","","","","","","","","","","","",""
"null","","html-keyboard-response","209","2889609","0.0-208.0","ATUA5M7PLS8W3","<p style=""font-size: 48px;"">+</p>","","","","","null","allTrialResponses","500","1","23","img_art/4.jpg","7","I like this art it seems calm","Kyle,Jordan,Richard,Jack,Jeremy,Alexis","It's quite meh to me,0,340,20","A hand reaching for something it cannot obtain,-9,160,20","too childish, not really art in my world,-50,340,20","creepy, looks like a deformed hand, but the background is pretty,5,320,20","the colors are calming,31,60,20","The bold colors are exciting. It looks like a statue on someone's mantle.,18,140,20","Jordan","A hand reaching for something it cannot obtain,-9,160,20","Kyle","It's quite meh to me,0,340,20","Richard","too childish, not really art in my world,-50,340,20","2"
"22821","","survey-text","210","2912444","0.0-209.0-0.0","ATUA5M7PLS8W3","","","","{""Q0"":""I like this art it seems calm""}","","","","","","","","","","","","","","","","","","","","","","",""
"3173.4000000953674","","image-slider-response","211","2915618","0.0-210.0","ATUA5M7PLS8W3","","","","","8","","","","","","","","","","","","","","","","","","","","","",""
"null","","image-button-response","212","2920625","0.0-211.0","ATUA5M7PLS8W3","img_art/16.jpg","null","","","","","","","","","","","","","","","","","","","","","","","","",""
"2290","","image-button-response","213","2922916","0.0-212.0","ATUA5M7PLS8W3","img_art/16.jpg","1","","","","","","","","","","","","","","","","","","","","","","","","",""
"454","","image-button-response","214","2923372","0.0-213.0-0.0","ATUA5M7PLS8W3","img_art/16.jpg","2","","","","","","","","","","","","","","","","","","","","","","","","",""
"478","","image-button-response","215","2923852","0.0-214.0-0.0","ATUA5M7PLS8W3","img_art/16.jpg","0","","","","","","","","","","","","","","","","","","","","","","","","",""
"null","","html-keyboard-response","216","2925367","0.0-215.0","ATUA5M7PLS8W3","<p style=""font-size: 48px;"">+</p>","","","","","null","allTrialResponses","1500","1","24","img_art/16.jpg","8","I like this art it seems calm","Kyle,Jordan,Richard,Gregory,Samuel,Brendan","I like it because it's quite different from the rest,23,340,20","The bear makes me very uncomfortable,-50,160,20","nonsense art, not really art,-44,340,20","Weird and funny,40,220,20","childhood horror,3,400,20","cool teddy bear,50,340,20","Jordan","The bear makes me very uncomfortable,-50,160,20","Richard","nonsense art, not really art,-44,340,20","Kyle","I like it because it's quite different from the rest,23,340,20","2"
"12111","","survey-text","217","2937482","0.0-216.0-0.0","ATUA5M7PLS8W3","","","","{""Q0"":""I love this art because there is something about the blue that seems calming. ""}","","","","","","","","","","","","","","","","","","","","","","",""
"3566.899999856949","","image-slider-response","218","2941051","0.0-217.0","ATUA5M7PLS8W3","","","","","15","","","","","","","","","","","","","","","","","","","","","",""
"null","","image-button-response","219","2946066","0.0-218.0","ATUA5M7PLS8W3","img_art/21.jpg","null","","","","","","","","","","","","","","","","","","","","","","","","",""
"23102","","image-button-response","220","2969171","0.0-219.0","ATUA5M7PLS8W3","img_art/21.jpg","1","","","","","","","","","","","","","","","","","","","","","","","","",""
"375","","image-button-response","221","2969548","0.0-220.0-0.0","ATUA5M7PLS8W3","img_art/21.jpg","2","","","","","","","","","","","","","","","","","","","","","","","","",""
"437","","image-button-response","222","2969987","0.0-221.0-0.0","ATUA5M7PLS8W3","img_art/21.jpg","0","","","","","","","","","","","","","","","","","","","","","","","","",""
"null","","html-keyboard-response","223","2971494","0.0-222.0","ATUA5M7PLS8W3","<p style=""font-size: 48px;"">+</p>","","","","","null","allTrialResponses","1500","1","25","img_art/21.jpg","15","I love this art because there is something about the blue that seems calming. ","Kyle,Jordan,Richard,Jason,Joseph,Anthony","The blues make me feel sadder as my mood is already not the best right now,-10,340,20","Beautiful colors, remind me of my yoga studio,50,160,20","setting sun sky? nice colors and blending,14,340,20","The division in the picture is pleasing but the random white dots are distracting,12,20,20","I like that it reminds me of an abstract version of a Bob Ross painting.,36,220,20","Bland, this painting is my least favorite,-20,200,20","Jordan","Beautiful colors, remind me of my yoga studio,50,160,20","Richard","setting sun sky? nice colors and blending,14,340,20","Kyle","The blues make me feel sadder as my mood is already not the best right now,-10,340,20","2"
"4486","","survey-text","224","2975988","0.0-223.0-0.0","ATUA5M7PLS8W3","","","","{""Q0"":""table""}","","","","","","","","","","","","","","","","","","","","","","",""
"38997","","survey-text","225","3014986","0.0-224.0-0.0","ATUA5M7PLS8W3","","","","{""Q0"":""I love this art because there is something about the blue that seems calming. ""}","","","","","","","","","","","","","","","","","","","","","","",""
"2397.7000000476837","","image-slider-response","226","3017386","0.0-225.0","ATUA5M7PLS8W3","","","","","-3","","","","","","","","","","","","","","","","","","","","","",""
"null","","image-button-response","227","3022392","0.0-226.0","ATUA5M7PLS8W3","img_art/19.jpg","null","","","","","","","","","","","","","","","","","","","","","","","","",""
"6498","","image-button-response","228","3028892","0.0-227.0","ATUA5M7PLS8W3","img_art/19.jpg","4","","","","","","","","","","","","","","","","","","","","","","","","",""
"444","","image-button-response","229","3029338","0.0-228.0-0.0","ATUA5M7PLS8W3","img_art/19.jpg","3","","","","","","","","","","","","","","","","","","","","","","","","",""
"591","","image-button-response","230","3029931","0.0-229.0-0.0","ATUA5M7PLS8W3","img_art/19.jpg","5","","","","","","","","","","","","","","","","","","","","","","","","",""
"null","","html-keyboard-response","231","3030940","0.0-230.0","ATUA5M7PLS8W3","<p style=""font-size: 48px;"">+</p>","","","","","null","allTrialResponses","1000","1","26","img_art/19.jpg","-3","I love this art because there is something about the blue that seems calming. ","Kyle,Jordan,Richard,Brandon,Colton,Tristan","Just stirred a negative reaction. Don't really like it perhaps because of the structure?,-8,340,20","I dont like the gray shadows, ruins it,-7,160,20","not professional looking but not bad either,13,340,20","Not a fan of the blobbiness,-22,320,20","way too much going on,-33,220,20","Though provoking. Adventurous.,10,300,20","Colton","way too much going on,-33,220,20","Brandon","Not a fan of the blobbiness,-22,320,20","Tristan","Though provoking. Adventurous.,10,300,20","2"
"19090","","survey-text","232","3050035","0.0-231.0-0.0","ATUA5M7PLS8W3","","","","{""Q0"":""I like this art it seems calm""}","","","","","","","","","","","","","","","","","","","","","","",""
"2951.2999999523163","","image-slider-response","233","3052987","0.0-232.0","ATUA5M7PLS8W3","","","","","15","","","","","","","","","","","","","","","","","","","","","",""
"null","","image-button-response","234","3058002","0.0-233.0","ATUA5M7PLS8W3","img_art/8.jpg","null","","","","","","","","","","","","","","","","","","","","","","","","",""
"3774","","image-button-response","235","3061780","0.0-234.0","ATUA5M7PLS8W3","img_art/8.jpg","4","","","","","","","","","","","","","","","","","","","","","","","","",""
"350","","image-button-response","236","3062132","0.0-235.0-0.0","ATUA5M7PLS8W3","img_art/8.jpg","3","","","","","","","","","","","","","","","","","","","","","","","","",""
"525","","image-button-response","237","3062659","0.0-236.0-0.0","ATUA5M7PLS8W3","img_art/8.jpg","5","","","","","","","","","","","","","","","","","","","","","","","","",""
"null","","html-keyboard-response","238","3063161","0.0-237.0","ATUA5M7PLS8W3","<p style=""font-size: 48px;"">+</p>","","","","","null","allTrialResponses","500","1","27","img_art/8.jpg","15","I like this art it seems calm","Tanner,Cody,Jesus,Brandon,Colton,Tristan","mothe nature/godess, watching over you,21,180,20","Love the colors & block-style,50,180,20","The different shapes are fun to look for.,30,100,20","Reminds me of old 80s fantasy book covers. Nostalgic,23,320,20","looks like an aerial view, very pretty,32,220,20","The definition and the colors give make this painting accessible and thought provoking.,30,300,20","Colton","looks like an aerial view, very pretty,32,220,20","Brandon","Reminds me of old 80s fantasy book covers. Nostalgic,23,320,20","Tristan","The definition and the colors give make this painting accessible and thought provoking.,30,300,20","2"
"4349","","survey-text","239","3067523","0.0-238.0-0.0","ATUA5M7PLS8W3","","","","{""Q0"":""I love this art because there is something about the blue that seems calming. ""}","","","","","","","","","","","","","","","","","","","","","","",""
"2229.7000000476837","","image-slider-response","240","3069755","0.0-239.0","ATUA5M7PLS8W3","","","","","12","","","","","","","","","","","","","","","","","","","","","",""
"null","","image-button-response","241","3074765","0.0-240.0","ATUA5M7PLS8W3","img_art/26.jpg","null","","","","","","","","","","","","","","","","","","","","","","","","",""
"29867","","image-button-response","242","3104634","0.0-241.0","ATUA5M7PLS8W3","img_art/26.jpg","1","","","","","","","","","","","","","","","","","","","","","","","","",""
"349","","image-button-response","243","3104986","0.0-242.0-0.0","ATUA5M7PLS8W3","img_art/26.jpg","2","","","","","","","","","","","","","","","","","","","","","","","","",""
"496","","image-button-response","244","3105483","0.0-243.0-0.0","ATUA5M7PLS8W3","img_art/26.jpg","0","","","","","","","","","","","","","","","","","","","","","","","","",""
"null","","html-keyboard-response","245","3106496","0.0-244.0","ATUA5M7PLS8W3","<p style=""font-size: 48px;"">+</p>","","","","","null","allTrialResponses","1000","1","28","img_art/26.jpg","12","I love this art because there is something about the blue that seems calming. ","Corey,Robert,Jake,Brandon,Colton,Tristan","its boring and i dont like the color palette,3,260,20","Day just begun in the city and the stores are opening their doors.,41,360,20","It's not ugly but not beautiful at all.,-3,360,20","Much too simple and without color for my taste,-33,320,20","very impressionistic,11,220,20","The feeling that I am looking at the world through a dingy filter makes this unpleasant for me.,-20,300,20","Robert","Day just begun in the city and the stores are opening their doors.,41,360,20","Jake","It's not ugly but not beautiful at all.,-3,360,20","Corey","its boring and i dont like the color palette,3,260,20","2"
"4835","","survey-text","246","3111338","0.0-245.0-0.0","ATUA5M7PLS8W3","","","","{""Q0"":""I like this art it seems calm""}","","","","","","","","","","","","","","","","","","","","","","",""
"1901.8999998569489","","image-slider-response","247","3113242","0.0-246.0","ATUA5M7PLS8W3","","","","","18","","","","","","","","","","","","","","","","","","","","","",""
"null","","image-button-response","248","3118252","0.0-247.0","ATUA5M7PLS8W3","img_art/27.jpg","null","","","","","","","","","","","","","","","","","","","","","","","","",""
"21427","","image-button-response","249","3139683","0.0-248.0","ATUA5M7PLS8W3","img_art/27.jpg","1","","","","","","","","","","","","","","","","","","","","","","","","",""
"407","","image-button-response","250","3140092","0.0-249.0-0.0","ATUA5M7PLS8W3","img_art/27.jpg","2","","","","","","","","","","","","","","","","","","","","","","","","",""
"472","","image-button-response","251","3140564","0.0-250.0-0.0","ATUA5M7PLS8W3","img_art/27.jpg","0","","","","","","","","","","","","","","","","","","","","","","","","",""
"null","","html-keyboard-response","252","3142067","0.0-251.0","ATUA5M7PLS8W3","<p style=""font-size: 48px;"">+</p>","","","","","null","allTrialResponses","1500","1","29","img_art/27.jpg","18","I like this art it seems calm","Corey,Robert,Jake,Spencer,Hunter,Dakota","this is ugly and does nothing for me,-35,260,20","The black sketchy over the colors doesn't fit.,-4,360,20","This looks like a poor copy of Cy Twombly's style.,-3,360,20","An attractive assortment of squiggles and colors,22,120,20","reminds me of kandinsky,10,240,20","feels like a bar scene, tucked away in the corner of a small town,-40,280,20","Robert","The black sketchy over the colors doesn't fit.,-4,360,20","Jake","This looks like a poor copy of Cy Twombly's style.,-3,360,20","Corey","this is ugly and does nothing for me,-35,260,20","2"
"7114","","survey-text","253","3149187","0.0-252.0-0.0","ATUA5M7PLS8W3","","","","{""Q0"":""I like this art it seems calm""}","","","","","","","","","","","","","","","","","","","","","","",""
"2862.5999999046326","","image-slider-response","254","3152051","0.0-253.0","ATUA5M7PLS8W3","","","","","4","","","","","","","","","","","","","","","","","","","","","",""
"null","","image-button-response","255","3157069","0.0-254.0","ATUA5M7PLS8W3","img_art/12.jpg","null","","","","","","","","","","","","","","","","","","","","","","","","",""
"1782","","image-button-response","256","3158852","0.0-255.0","ATUA5M7PLS8W3","img_art/12.jpg","1","","","","","","","","","","","","","","","","","","","","","","","","",""
"358","","image-button-response","257","3159212","0.0-256.0-0.0","ATUA5M7PLS8W3","img_art/12.jpg","0","","","","","","","","","","","","","","","","","","","","","","","","",""
"597","","image-button-response","258","3159811","0.0-257.0-0.0","ATUA5M7PLS8W3","img_art/12.jpg","2","","","","","","","","","","","","","","","","","","","","","","","","",""
"null","","html-keyboard-response","259","3160313","0.0-258.0","ATUA5M7PLS8W3","<p style=""font-size: 48px;"">+</p>","","","","","null","allTrialResponses","500","1","30","img_art/12.jpg","4","I like this art it seems calm","Corey,Robert,Jake,Scott,Travis,Marcus","I like the bottom half and hate the top half,7,260,20","I like the pattern to it.,31,360,20","It's strange looking and unappealing.,-4,360,20","I don't like the pattern or color choice,-41,20,20","Neutral...just blocks.,3,260,20","I like the colors in the bottom half of the painting,10,60,20","Robert","I like the pattern to it.,31,360,20","Corey","I like the bottom half and hate the top half,7,260,20","Jake","It's strange looking and unappealing.,-4,360,20","2"
"4044","","image-button-response_instructions","260","3164371","0.0-259.0","ATUA5M7PLS8W3","","0","instructions","","","","","","","","","","","","","","","","","","","","","","","",""
"1411","","image-button-response","261","3165787","0.0-260.0","ATUA5M7PLS8W3","","0","","","","","","","","","","","","","","","","","","","","","","","","",""
