"rt","url","trial_type","trial_index","time_elapsed","internal_node_id","participant_id","stimulus","button_pressed","Name","responses","response","key_press","variableName","fixationTime","condition","trial","photo","subjectRating","subjectResponse","agentsNames","agent_1_Response","agent_2_Response","agent_3_Response","agent_4_Response","agent_5_Response","agent_6_Response","kept_1_name","kept_1_response","kept_2_name","kept_2_response","kept_3_name","kept_3_response","errorCounter"
"16777","external_page_harvard.html","external-html","0","16879","0.0-0.0","AVYQAKDYISJUL","","","","","","","","","","","","","","","","","","","","","","","","","","",""
"1701","","image-button-response","1","18582","0.0-1.0","AVYQAKDYISJUL","","1","","","","","","","","","","","","","","","","","","","","","","","","",""
"2339","","image-button-response","2","20926","0.0-2.0-0.0","AVYQAKDYISJUL","","1","phone","","","","","","","","","","","","","","","","","","","","","","","",""
"8495","","survey-text","3","29423","0.0-3.0-0.0","AVYQAKDYISJUL","","","","{""Q0"":""AVYQAKDYISJUL""}","","","","","","","","","","","","","","","","","","","","","","",""
"16712","","image-button-response_instructions","4","46137","0.0-4.0","AVYQAKDYISJUL","","0","instructions","","","","","","","","","","","","","","","","","","","","","","","",""
"42483","","image-button-response_instructions","5","88622","0.0-5.0","AVYQAKDYISJUL","img_art/ins/popularity/ins1.png","0","instructions","","","","","","","","","","","","","","","","","","","","","","","",""
"10424","","image-button-response_instructions","6","99047","0.0-6.0","AVYQAKDYISJUL","img_art/ins/popularity/ins2.png","0","instructions","","","","","","","","","","","","","","","","","","","","","","","",""
"8257","","image-button-response_instructions","7","107304","0.0-7.0","AVYQAKDYISJUL","img_art/ins/popularity/ins2Extreme.png","0","instructions","","","","","","","","","","","","","","","","","","","","","","","",""
"49036","","image-button-response_instructions","8","156342","0.0-8.0","AVYQAKDYISJUL","img_art/ins/popularity/ins3KEEPpop.PNG","0","instructions","","","","","","","","","","","","","","","","","","","","","","","",""
"7624","","image-button-response_instructions","9","163967","0.0-9.0","AVYQAKDYISJUL","img_art/ins/popularity/ins3ANamepop.PNG","0","instructions","","","","","","","","","","","","","","","","","","","","","","","",""
"9344","","image-button-response_instructions","10","173312","0.0-10.0","AVYQAKDYISJUL","img_art/ins/popularity/ins3ARatingpop.png","0","instructions","","","","","","","","","","","","","","","","","","","","","","","",""
"5464","","image-button-response_instructions","11","178776","0.0-11.0","AVYQAKDYISJUL","img_art/ins/popularity/ins3ATextpop.png","0","instructions","","","","","","","","","","","","","","","","","","","","","","","",""
"12536","","image-button-response_instructions","12","191314","0.0-12.0","AVYQAKDYISJUL","img_art/ins/popularity/ins3ALikespop.png","0","instructions","","","","","","","","","","","","","","","","","","","","","","","",""
"22970","","image-button-response_instructions","13","214284","0.0-13.0","AVYQAKDYISJUL","img_art/ins/popularity/ins3KEEPpop.PNG","0","instructions","","","","","","","","","","","","","","","","","","","","","","","",""
"12240","","image-button-response_instructions","14","226526","0.0-14.0","AVYQAKDYISJUL","img_art/ins/popularity/ins3_5RED.png","0","instructions","","","","","","","","","","","","","","","","","","","","","","","",""
"5640","","image-button-response_instructions","15","232166","0.0-15.0","AVYQAKDYISJUL","img_art/ins/popularity/ins3KEEPpop.PNG","0","instructions","","","","","","","","","","","","","","","","","","","","","","","",""
"20441","","image-button-response_instructions","16","252608","0.0-16.0","AVYQAKDYISJUL","img_art/ins/popularity/ins4KEEPpop.PNG","0","instructions","","","","","","","","","","","","","","","","","","","","","","","",""
"5976","","image-button-response_instructions","17","258585","0.0-17.0","AVYQAKDYISJUL","img_art/ins/popularity/ins5KEEPpop.PNG","0","instructions","","","","","","","","","","","","","","","","","","","","","","","",""
"2711","","image-button-response_instructions","18","261297","0.0-18.0","AVYQAKDYISJUL","","0","instructions","","","","","","","","","","","","","","","","","","","","","","","",""
"14381","","survey-text","19","275699","0.0-19.0-0.0","AVYQAKDYISJUL","","","","{""Q0"":""but""}","","","","","","","","","","","","","","","","","","","","","","",""
"40516","","survey-text","20","316216","0.0-20.0-0.0","AVYQAKDYISJUL","","","","{""Q0"":""It is a vibrant piece, but it's not my chosen color theme.""}","","","","","","","","","","","","","","","","","","","","","","",""
"12799","","image-slider-response","21","329017","0.0-21.0","AVYQAKDYISJUL","","","","","-14","","","","","","","","","","","","","","","","","","","","","",""
"null","","image-button-response","22","334021","0.0-22.0","AVYQAKDYISJUL","img_art/ins/1.jpg","null","","","","","","","","","","","","","","","","","","","","","","","","",""
"14677","","image-button-response","23","348700","0.0-23.0","AVYQAKDYISJUL","img_art/ins/1.jpg","3","","","","","","","","","","","","","","","","","","","","","","","","",""
"4102","","image-button-response","24","352804","0.0-24.0-0.0","AVYQAKDYISJUL","img_art/ins/1.jpg","4","","","","","","","","","","","","","","","","","","","","","","","","",""
"4806","","image-button-response","25","357613","0.0-25.0-0.0","AVYQAKDYISJUL","img_art/ins/1.jpg","1","","","","","","","","","","","","","","","","","","","","","","","","",""
"null","","html-keyboard-response","26","359115","0.0-26.0","AVYQAKDYISJUL","<p style=""font-size: 48px;"">+</p>","","","","","null","allTrialResponses","1500","1","-2","img_art/ins/1.jpg","-14","It is a vibrant piece, but it's not my chosen color theme.","Allison,Ashley,Beth,Dora,Erika,Jen","looks like a lot of things going on in the mist,20,20,20","I just don't get why these type of art would be popular,-32,40,20","This color reminds me of poo,-46,60,20","looks like what my niece in 3rd grade did this afternoon,-50,80,20","I like the sophisticated brushwork,40,100,20","It reminds me of a candy land dream I had,36,120,20","Dora","looks like what my niece in 3rd grade did this afternoon,-50,80,20","Erika","I like the sophisticated brushwork,40,100,20","Ashley","I just don't get why these type of art would be popular,-32,40,20","0"
"48268","","survey-text","27","407386","0.0-27.0-0.0","AVYQAKDYISJUL","","","","{""Q0"":""Nice, bold colors, but I'm not a fan of red""}","","","","","","","","","","","","","","","","","","","","","","",""
"9871.700000017881","","image-slider-response","28","417259","0.0-28.0","AVYQAKDYISJUL","","","","","-41","","","","","","","","","","","","","","","","","","","","","",""
"null","","image-button-response","29","422263","0.0-29.0","AVYQAKDYISJUL","img_art/ins/2.jpg","null","","","","","","","","","","","","","","","","","","","","","","","","",""
"3733","","image-button-response","30","425997","0.0-30.0","AVYQAKDYISJUL","img_art/ins/2.jpg","0","","","","","","","","","","","","","","","","","","","","","","","","",""
"2374","","image-button-response","31","428373","0.0-31.0-0.0","AVYQAKDYISJUL","img_art/ins/2.jpg","3","","","","","","","","","","","","","","","","","","","","","","","","",""
"9480","","image-button-response","32","437854","0.0-32.0-0.0","AVYQAKDYISJUL","img_art/ins/2.jpg","1","","","","","","","","","","","","","","","","","","","","","","","","",""
"null","","html-keyboard-response","33","438356","0.0-33.0","AVYQAKDYISJUL","<p style=""font-size: 48px;"">+</p>","","","","","null","allTrialResponses","500","1","-1","img_art/ins/2.jpg","-41","Nice, bold colors, but I'm not a fan of red","Jenna,Ashley,Kara,Dora,Erika,Katie","One of my pet peevs,-48,140,20","Idk, it is just annoying,-32,40,20","I like the blocks of color arrangements,30,160,20","looks too angry,-50,80,20","I would never be able to compose a sophisticated pallete like this,48,100,20","too much color!,-28,180,20","Jenna","One of my pet peevs,-48,140,20","Dora","looks too angry,-50,80,20","Ashley","Idk, it is just annoying,-32,40,20","0"
"44428","","survey-text","34","482787","0.0-34.0-0.0","AVYQAKDYISJUL","","","","{""Q0"":""I kinda like it. It's \""icy\"" and bright.""}","","","","","","","","","","","","","","","","","","","","","","",""
"5167","","image-slider-response","35","487956","0.0-35.0","AVYQAKDYISJUL","","","","","43","","","","","","","","","","","","","","","","","","","","","",""
"null","","image-button-response","36","492958","0.0-36.0","AVYQAKDYISJUL","img_art/ins/3.jpg","null","","","","","","","","","","","","","","","","","","","","","","","","",""
"3054","","image-button-response","37","496013","0.0-37.0","AVYQAKDYISJUL","img_art/ins/3.jpg","2","","","","","","","","","","","","","","","","","","","","","","","","",""
"3847","","image-button-response","38","499862","0.0-38.0-0.0","AVYQAKDYISJUL","img_art/ins/3.jpg","5","","","","","","","","","","","","","","","","","","","","","","","","",""
"8919","","image-button-response","39","508783","0.0-39.0-0.0","AVYQAKDYISJUL","img_art/ins/3.jpg","4","","","","","","","","","","","","","","","","","","","","","","","","",""
"null","","html-keyboard-response","40","509793","0.0-40.0","AVYQAKDYISJUL","<p style=""font-size: 48px;"">+</p>","","","","","null","allTrialResponses","1000","1","0","img_art/ins/3.jpg","43","I kinda like it. It's ""icy"" and bright.","Jenna,Ashley,Leslie,Dora,Mary,Rose","looks like a murder room,-35,140,20","It looks like a playground for bats,-36,40,20","It's an alright work,15,200,20","My worst nightmare,-42,80,20","I like the overlapping of brushes,41,220,20","My daily routine, it's depressing,-20,240,20","Leslie","It's an alright work,15,200,20","Rose","My daily routine, it's depressing,-20,240,20","Mary","I like the overlapping of brushes,41,220,20","0"
"13348","","image-button-response_instructions","41","523144","0.0-41.0","AVYQAKDYISJUL","","0","instructions","","","","","","","","","","","","","","","","","","","","","","","",""
"16272","","survey-likert","42","539419","0.0-42.0-0.0","AVYQAKDYISJUL","","","","{""Q0"":"""",""Q1"":0,""Q2"":1}","","","","","","","","","","","","","","","","","","","","","","",""
"5380","","survey-text","43","544803","0.0-43.0-0.0","AVYQAKDYISJUL","","","","{""Q0"":""rock""}","","","","","","","","","","","","","","","","","","","","","","",""
"51108","","survey-text","44","595913","0.0-44.0-0.0","AVYQAKDYISJUL","","","","{""Q0"":""It's very \""Autumn\"". I like it for a hallway.""}","","","","","","","","","","","","","","","","","","","","","","",""
"5423.299999982119","","image-slider-response","45","601337","0.0-45.0","AVYQAKDYISJUL","","","","","8","","","","","","","","","","","","","","","","","","","","","",""
"null","","image-button-response","46","606364","0.0-46.0","AVYQAKDYISJUL","img_art/27.jpg","null","","","","","","","","","","","","","","","","","","","","","","","","",""
"7141","","image-button-response","47","613506","0.0-47.0","AVYQAKDYISJUL","img_art/27.jpg","2","","","","","","","","","","","","","","","","","","","","","","","","",""
"974","","image-button-response","48","614482","0.0-48.0-0.0","AVYQAKDYISJUL","img_art/27.jpg","4","","","","","","","","","","","","","","","","","","","","","","","","",""
"8591","","image-button-response","49","623075","0.0-49.0-0.0","AVYQAKDYISJUL","img_art/27.jpg","3","","","","","","","","","","","","","","","","","","","","","","","","",""
"null","","html-keyboard-response","50","624077","0.0-50.0","AVYQAKDYISJUL","<p style=""font-size: 48px;"">+</p>","","","","","null","allTrialResponses","1000","1","1","img_art/27.jpg","8","It's very ""Autumn"". I like it for a hallway.","Alyssa,Grace,Michelle,Cassidy,Mackenzie,Kimberly","Looks as if a toddler painted it,-20,160,20","Not fond of the bad pencil drawing mixed with the drab colors.,-21,180,20","very abstract, I don't understand it, but I like the bright, cheerful colors,14,280,20","doesn't look like any effort was put into this piece.,-19,140,20","The color palette isn't my taste,-24,20,20","Nothing stands out,-23,260,20","Michelle","very abstract, I don't understand it, but I like the bright, cheerful colors,14,280,20","Mackenzie","The color palette isn't my taste,-24,20,20","Cassidy","doesn't look like any effort was put into this piece.,-19,140,20","0"
"45864","","survey-text","51","669944","0.0-51.0-0.0","AVYQAKDYISJUL","","","","{""Q0"":""I might like this if there was less inking involved.""}","","","","","","","","","","","","","","","","","","","","","","",""
"5399.299999982119","","image-slider-response","52","675345","0.0-52.0","AVYQAKDYISJUL","","","","","-11","","","","","","","","","","","","","","","","","","","","","",""
"3886","","image-button-response","53","680347","0.0-53.0","AVYQAKDYISJUL","img_art/19.jpg","0","","","","","","","","","","","","","","","","","","","","","","","","",""
"1637","","image-button-response","54","681986","0.0-54.0","AVYQAKDYISJUL","img_art/19.jpg","4","","","","","","","","","","","","","","","","","","","","","","","","",""
"4791","","image-button-response","55","686779","0.0-55.0-0.0","AVYQAKDYISJUL","img_art/19.jpg","5","","","","","","","","","","","","","","","","","","","","","","","","",""
"11768","","image-button-response","56","698548","0.0-56.0-0.0","AVYQAKDYISJUL","img_art/19.jpg","0","","","","","","","","","","","","","","","","","","","","","","","","",""
"null","","html-keyboard-response","57","699550","0.0-57.0","AVYQAKDYISJUL","<p style=""font-size: 48px;"">+</p>","","","","","null","allTrialResponses","1000","1","2","img_art/19.jpg","-11","I might like this if there was less inking involved.","Hannah,Victoria,Michelle,Cassidy,Mackenzie,Haley","Just don't like this one.,-9,240,20","to much going on,-22,400,20","I like the water but again, the small lines with no detail are irritating,3,280,20","too much going on, can't tell what it is,-14,140,20","Shapes give it a feeling of being crowded,-18,20,20","I like this as a whole, but the longer I look at it, the less it pleases me,-10,220,20","Mackenzie","Shapes give it a feeling of being crowded,-18,20,20","Haley","I like this as a whole, but the longer I look at it, the less it pleases me,-10,220,20","Hannah","Just don't like this one.,-9,240,20","0"
"30270","","survey-text","58","729823","0.0-58.0-0.0","AVYQAKDYISJUL","","","","{""Q0"":""Oh wow, no""}","","","","","","","","","","","","","","","","","","","","","","",""
"4543.0999999940395","","image-slider-response","59","734368","0.0-59.0","AVYQAKDYISJUL","","","","","-50","","","","","","","","","","","","","","","","","","","","","",""
"4951","","image-button-response","60","739383","0.0-60.0","AVYQAKDYISJUL","img_art/30.jpg","3","","","","","","","","","","","","","","","","","","","","","","","","",""
"1680","","image-button-response","61","741065","0.0-61.0","AVYQAKDYISJUL","img_art/30.jpg","3","","","","","","","","","","","","","","","","","","","","","","","","",""
"3840","","image-button-response","62","744906","0.0-62.0-0.0","AVYQAKDYISJUL","img_art/30.jpg","1","","","","","","","","","","","","","","","","","","","","","","","","",""
"2870","","image-button-response","63","747777","0.0-63.0-0.0","AVYQAKDYISJUL","img_art/30.jpg","2","","","","","","","","","","","","","","","","","","","","","","","","",""
"null","","html-keyboard-response","64","748281","0.0-64.0","AVYQAKDYISJUL","<p style=""font-size: 48px;"">+</p>","","","","","null","allTrialResponses","500","1","3","img_art/30.jpg","-50","Oh wow, no","Hannah,Emily,Destiny,Stephanie,Mackenzie,Haley","It's just all right.,5,240,20","It looks like a child did it. There is nothing talented or special about it.,-16,40,20","literally stupid I made this with as seen on tv products when I was 7,-42,360,20","My kindergarten class could do this,-50,300,20","I like the forefront design.,10,20,20","I like the colors,18,220,20","Stephanie","My kindergarten class could do this,-50,300,20","Emily","It looks like a child did it. There is nothing talented or special about it.,-16,40,20","Destiny","literally stupid I made this with as seen on tv products when I was 7,-42,360,20","0"
"49627","","survey-text","65","797911","0.0-65.0-0.0","AVYQAKDYISJUL","","","","{""Q0"":""It is a red crayon explosion on sepia. Terrible.""}","","","","","","","","","","","","","","","","","","","","","","",""
"4375","","image-slider-response","66","802288","0.0-66.0","AVYQAKDYISJUL","","","","","-50","","","","","","","","","","","","","","","","","","","","","",""
"null","","image-button-response","67","807290","0.0-67.0","AVYQAKDYISJUL","img_art/3.jpg","null","","","","","","","","","","","","","","","","","","","","","","","","",""
"10975","","image-button-response","68","818266","0.0-68.0","AVYQAKDYISJUL","img_art/3.jpg","2","","","","","","","","","","","","","","","","","","","","","","","","",""
"3918","","image-button-response","69","822186","0.0-69.0-0.0","AVYQAKDYISJUL","img_art/3.jpg","5","","","","","","","","","","","","","","","","","","","","","","","","",""
"1206","","image-button-response","70","823394","0.0-70.0-0.0","AVYQAKDYISJUL","img_art/3.jpg","3","","","","","","","","","","","","","","","","","","","","","","","","",""
"null","","html-keyboard-response","71","824905","0.0-71.0","AVYQAKDYISJUL","<p style=""font-size: 48px;"">+</p>","","","","","null","allTrialResponses","1500","1","4","img_art/3.jpg","-50","It is a red crayon explosion on sepia. Terrible.","Alexa,Emily,Destiny,Stephanie,Savannah,Morgan","Looks messy and too much for my eyes,-35,40,20","Looks like someone mentalyl unstable drew and is ready to go a a killing spree.,-50,40,20","im just getting more agitated and less appreciative of art. I have absolutely no scale to base on,-34,360,20","I think of an angry child,-50,300,20","Completely incomprehensible.,-33,200,20","Somewhere between a child's art and a poorly drawn battle map.,8,380,20","Destiny","im just getting more agitated and less appreciative of art. I have absolutely no scale to base on,-34,360,20","Morgan","Somewhere between a child's art and a poorly drawn battle map.,8,380,20","Stephanie","I think of an angry child,-50,300,20","0"
"44971","","survey-text","72","869880","0.0-72.0-0.0","AVYQAKDYISJUL","","","","{""Q0"":""This is just a spill of some brown color.""}","","","","","","","","","","","","","","","","","","","","","","",""
"4614.9000000059605","","image-slider-response","73","874496","0.0-73.0","AVYQAKDYISJUL","","","","","-50","","","","","","","","","","","","","","","","","","","","","",""
"3774","","image-button-response","74","879499","0.0-74.0","AVYQAKDYISJUL","img_art/4.jpg","2","","","","","","","","","","","","","","","","","","","","","","","","",""
"1117","","image-button-response","75","880617","0.0-75.0","AVYQAKDYISJUL","img_art/4.jpg","2","","","","","","","","","","","","","","","","","","","","","","","","",""
"7488","","image-button-response","76","888106","0.0-76.0-0.0","AVYQAKDYISJUL","img_art/4.jpg","0","","","","","","","","","","","","","","","","","","","","","","","","",""
"4991","","image-button-response","77","893099","0.0-77.0-0.0","AVYQAKDYISJUL","img_art/4.jpg","5","","","","","","","","","","","","","","","","","","","","","","","","",""
"null","","html-keyboard-response","78","894600","0.0-78.0","AVYQAKDYISJUL","<p style=""font-size: 48px;"">+</p>","","","","","null","allTrialResponses","1500","1","5","img_art/4.jpg","-50","This is just a spill of some brown color.","Sara,Chloe,Destiny,Stephanie,Kayla,Morgan","Random swirls again,-30,160,20","Great movement but don't love the yellowy tones.,31,220,20","it looks like a preschooler just dragged his fingers around,-36,360,20","It looks like a hand someone scribbled over,-30,300,20","It's okay, I guess. Nothing much either way.,5,180,20","Pretzel noodles.,7,380,20","Destiny","it looks like a preschooler just dragged his fingers around,-36,360,20","Sara","Random swirls again,-30,160,20","Morgan","Pretzel noodles.,7,380,20","0"
"5085","","survey-text","79","899691","0.0-79.0-0.0","AVYQAKDYISJUL","","","","{""Q0"":""sky""}","","","","","","","","","","","","","","","","","","","","","","",""
"44644","","survey-text","80","944337","0.0-80.0-0.0","AVYQAKDYISJUL","","","","{""Q0"":""Interesting and I like the colors.""}","","","","","","","","","","","","","","","","","","","","","","",""
"5343.199999988079","","image-slider-response","81","949682","0.0-81.0","AVYQAKDYISJUL","","","","","17","","","","","","","","","","","","","","","","","","","","","",""
"4038","","image-button-response","82","954684","0.0-82.0","AVYQAKDYISJUL","img_art/11.jpg","1","","","","","","","","","","","","","","","","","","","","","","","","",""
"1396","","image-button-response","83","956082","0.0-83.0","AVYQAKDYISJUL","img_art/11.jpg","1","","","","","","","","","","","","","","","","","","","","","","","","",""
"2839","","image-button-response","84","958922","0.0-84.0-0.0","AVYQAKDYISJUL","img_art/11.jpg","2","","","","","","","","","","","","","","","","","","","","","","","","",""
"5079","","image-button-response","85","964003","0.0-85.0-0.0","AVYQAKDYISJUL","img_art/11.jpg","4","","","","","","","","","","","","","","","","","","","","","","","","",""
"null","","html-keyboard-response","86","964505","0.0-86.0","AVYQAKDYISJUL","<p style=""font-size: 48px;"">+</p>","","","","","null","allTrialResponses","500","1","6","img_art/11.jpg","17","Interesting and I like the colors.","Sara,Sabrina,Destiny,Kaylee,Gabrielle,Morgan","Looks sad but clean,31,160,20","I love the city chaos from this,50,120,20","life is a highway,12,360,20","i dont understand this painting,-1,200,20","I like this one mostly a good combination of colors and light and dark,12,160,20","Waves of signs.,15,380,20","Sabrina","I love the city chaos from this,50,120,20","Destiny","life is a highway,12,360,20","Gabrielle","I like this one mostly a good combination of colors and light and dark,12,160,20","0"
"30386","","survey-text","87","994894","0.0-87.0-0.0","AVYQAKDYISJUL","","","","{""Q0"":""I see no definition in this one. I'm not sure what it is.""}","","","","","","","","","","","","","","","","","","","","","","",""
"4047.0999999940395","","image-slider-response","88","998942","0.0-88.0","AVYQAKDYISJUL","","","","","-28","","","","","","","","","","","","","","","","","","","","","",""
"null","","image-button-response","89","1003944","0.0-89.0","AVYQAKDYISJUL","img_art/26.jpg","null","","","","","","","","","","","","","","","","","","","","","","","","",""
"2934","","image-button-response","90","1006880","0.0-90.0","AVYQAKDYISJUL","img_art/26.jpg","3","","","","","","","","","","","","","","","","","","","","","","","","",""
"9303","","image-button-response","91","1016184","0.0-91.0-0.0","AVYQAKDYISJUL","img_art/26.jpg","1","","","","","","","","","","","","","","","","","","","","","","","","",""
"4727","","image-button-response","92","1020913","0.0-92.0-0.0","AVYQAKDYISJUL","img_art/26.jpg","0","","","","","","","","","","","","","","","","","","","","","","","","",""
"null","","html-keyboard-response","93","1022415","0.0-93.0","AVYQAKDYISJUL","<p style=""font-size: 48px;"">+</p>","","","","","null","allTrialResponses","1500","1","7","img_art/26.jpg","-28","I see no definition in this one. I'm not sure what it is.","Angela,Sabrina,Destiny,Christina,Gabrielle,Sydney","Nice, but not very interesting. I do like the blue tree though.,6,260,20","I dont see any expression,-29,120,20","I really love pastels and they're just being dimmed down too much here,-3,360,20","looks like a little kids painting,-17,240,20","subtle use of colors, city street view?,8,160,20","I wish there was more detail, but I really like this simple piece.,35,320,20","Christina","looks like a little kids painting,-17,240,20","Sabrina","I dont see any expression,-29,120,20","Angela","Nice, but not very interesting. I do like the blue tree though.,6,260,20","0"
"42892","","survey-text","94","1065310","0.0-94.0-0.0","AVYQAKDYISJUL","","","","{""Q0"":""Too bold and too much red, again.""}","","","","","","","","","","","","","","","","","","","","","","",""
"5319.300000011921","","image-slider-response","95","1070631","0.0-95.0","AVYQAKDYISJUL","","","","","-48","","","","","","","","","","","","","","","","","","","","","",""
"null","","image-button-response","96","1075634","0.0-96.0","AVYQAKDYISJUL","img_art/22.jpg","null","","","","","","","","","","","","","","","","","","","","","","","","",""
"788","","image-button-response","97","1076424","0.0-97.0","AVYQAKDYISJUL","img_art/22.jpg","3","","","","","","","","","","","","","","","","","","","","","","","","",""
"4022","","image-button-response","98","1080448","0.0-98.0-0.0","AVYQAKDYISJUL","img_art/22.jpg","2","","","","","","","","","","","","","","","","","","","","","","","","",""
"5575","","image-button-response","99","1086025","0.0-99.0-0.0","AVYQAKDYISJUL","img_art/22.jpg","1","","","","","","","","","","","","","","","","","","","","","","","","",""
"null","","html-keyboard-response","100","1087027","0.0-100.0","AVYQAKDYISJUL","<p style=""font-size: 48px;"">+</p>","","","","","null","allTrialResponses","1000","1","8","img_art/22.jpg","-48","Too bold and too much red, again.","Angela,Sabrina,Vanessa,Christina,Hailey,Katherine","Like the colors. I enjoy looking at this one.,15,260,20","Just not feeling it,-19,120,20","I don't like the colors or the way they've been arranged.,-20,380,20","i like the colors but it looks too 80s for me,7,240,20","a lost balloon in outer space,12,200,20","Cool squares but what's the circle?,38,120,20","Christina","i like the colors but it looks too 80s for me,7,240,20","Vanessa","I don't like the colors or the way they've been arranged.,-20,380,20","Sabrina","Just not feeling it,-19,120,20","0"
"54873","","survey-text","101","1141903","0.0-101.0-0.0","AVYQAKDYISJUL","","","","{""Q0"":""Pastel mountains and a lake under an opening cloud cover. I like the colors.""}","","","","","","","","","","","","","","","","","","","","","","",""
"6199.699999988079","","image-slider-response","102","1148104","0.0-102.0","AVYQAKDYISJUL","","","","","18","","","","","","","","","","","","","","","","","","","","","",""
"null","","image-button-response","103","1153106","0.0-103.0","AVYQAKDYISJUL","img_art/21.jpg","null","","","","","","","","","","","","","","","","","","","","","","","","",""
"7958","","image-button-response","104","1161065","0.0-104.0","AVYQAKDYISJUL","img_art/21.jpg","3","","","","","","","","","","","","","","","","","","","","","","","","",""
"4383","","image-button-response","105","1165450","0.0-105.0-0.0","AVYQAKDYISJUL","img_art/21.jpg","0","","","","","","","","","","","","","","","","","","","","","","","","",""
"6312","","image-button-response","106","1171763","0.0-106.0-0.0","AVYQAKDYISJUL","img_art/21.jpg","2","","","","","","","","","","","","","","","","","","","","","","","","",""
"null","","html-keyboard-response","107","1173266","0.0-107.0","AVYQAKDYISJUL","<p style=""font-size: 48px;"">+</p>","","","","","null","allTrialResponses","1500","1","9","img_art/21.jpg","18","Pastel mountains and a lake under an opening cloud cover. I like the colors.","Katie,Sabrina,Vanessa,Christina,Bailey,Molly","Immediately a positive response! I like the muted colors. the blurriness calms me. It's serene,40,160,20","I like the representation of love and hate in this,43,120,20","The colors and softness work together to make something that's lovely.,42,380,20","it has a lot of happy colors and it's very classic looking,35,240,20","Looks like two ships on fire. Cool image.,12,360,20","Looks like a war. Many things happening on the painting, really enjoy it.,30,340,20","Christina","it has a lot of happy colors and it's very classic looking,35,240,20","Katie","Immediately a positive response! I like the muted colors. the blurriness calms me. It's serene,40,160,20","Vanessa","The colors and softness work together to make something that's lovely.,42,380,20","0"
"44786","","survey-text","108","1218056","0.0-108.0-0.0","AVYQAKDYISJUL","","","","{""Q0"":""Someone spilled red in the shape of an X on this one.""}","","","","","","","","","","","","","","","","","","","","","","",""
"4031.0999999940395","","image-slider-response","109","1222088","0.0-109.0","AVYQAKDYISJUL","","","","","-25","","","","","","","","","","","","","","","","","","","","","",""
"2974","","image-button-response","110","1227091","0.0-110.0","AVYQAKDYISJUL","img_art/29.jpg","1","","","","","","","","","","","","","","","","","","","","","","","","",""
"653","","image-button-response","111","1227746","0.0-111.0","AVYQAKDYISJUL","img_art/29.jpg","1","","","","","","","","","","","","","","","","","","","","","","","","",""
"6055","","image-button-response","112","1233802","0.0-112.0-0.0","AVYQAKDYISJUL","img_art/29.jpg","3","","","","","","","","","","","","","","","","","","","","","","","","",""
"7119","","image-button-response","113","1240923","0.0-113.0-0.0","AVYQAKDYISJUL","img_art/29.jpg","2","","","","","","","","","","","","","","","","","","","","","","","","",""
"null","","html-keyboard-response","114","1242424","0.0-114.0","AVYQAKDYISJUL","<p style=""font-size: 48px;"">+</p>","","","","","null","allTrialResponses","1500","1","10","img_art/29.jpg","-25","Someone spilled red in the shape of an X on this one.","Katie,Taylor,Vanessa,Christina,Meghan,Mary","Don't get it! Too dark and random. Perhaps it was the start of something but the artist stopped and cancelled out the work.,-50,160,20","It seems like there's anger in the painting.,-20,340,20","I hate the red x over everything, hate the black hate how hopeless this is.,-50,380,20","It's too on trend with the gray and doesn't look like a lasting piece,-4,240,20","feels random and not thoughtout,-37,220,20","I love the angry emotion to this art. I feel very drawn to it.,18,180,20","Taylor","It seems like there's anger in the painting.,-20,340,20","Christina","It's too on trend with the gray and doesn't look like a lasting piece,-4,240,20","Vanessa","I hate the red x over everything, hate the black hate how hopeless this is.,-50,380,20","0"
"5148","","survey-text","115","1247579","0.0-115.0-0.0","AVYQAKDYISJUL","","","","{""Q0"":""our""}","","","","","","","","","","","","","","","","","","","","","","",""
"53765","","survey-text","116","1301345","0.0-116.0-0.0","AVYQAKDYISJUL","","","","{""Q0"":""Angry marshmallow man from Ghostbusters on fire?""}","","","","","","","","","","","","","","","","","","","","","","",""
"3535.300000011921","","image-slider-response","117","1304882","0.0-117.0","AVYQAKDYISJUL","","","","","-44","","","","","","","","","","","","","","","","","","","","","",""
"null","","image-button-response","118","1309885","0.0-118.0","AVYQAKDYISJUL","img_art/1.jpg","null","","","","","","","","","","","","","","","","","","","","","","","","",""
"5765","","image-button-response","119","1315652","0.0-119.0","AVYQAKDYISJUL","img_art/1.jpg","2","","","","","","","","","","","","","","","","","","","","","","","","",""
"4926","","image-button-response","120","1320580","0.0-120.0-0.0","AVYQAKDYISJUL","img_art/1.jpg","1","","","","","","","","","","","","","","","","","","","","","","","","",""
"8727","","image-button-response","121","1329309","0.0-121.0-0.0","AVYQAKDYISJUL","img_art/1.jpg","0","","","","","","","","","","","","","","","","","","","","","","","","",""
"null","","html-keyboard-response","122","1329811","0.0-122.0","AVYQAKDYISJUL","<p style=""font-size: 48px;"">+</p>","","","","","null","allTrialResponses","500","1","11","img_art/1.jpg","-44","Angry marshmallow man from Ghostbusters on fire?","Andrea,Taylor,Vanessa,Christina,Mariah,Cheyenne","It just doesn't speak to me.,0,240,20","Makes me think of a bad thunderstorm,11,340,20","I don't like how this one makes me feel.,-32,380,20","nice colors but kinds of blah,1,240,20","Colors are pleasant, but feels incredibly generic.,9,140,20","Nothing really going on but good color choices.,-3,200,20","Vanessa","I don't like how this one makes me feel.,-32,380,20","Taylor","Makes me think of a bad thunderstorm,11,340,20","Andrea","It just doesn't speak to me.,0,240,20","0"
"47340","","survey-text","123","1377154","0.0-123.0-0.0","AVYQAKDYISJUL","","","","{""Q0"":""Mostly colored pencil scribbles to me.""}","","","","","","","","","","","","","","","","","","","","","","",""
"3335.0999999940395","","image-slider-response","124","1380491","0.0-124.0","AVYQAKDYISJUL","","","","","-40","","","","","","","","","","","","","","","","","","","","","",""
"null","","image-button-response","125","1385493","0.0-125.0","AVYQAKDYISJUL","img_art/9.jpg","null","","","","","","","","","","","","","","","","","","","","","","","","",""
"8694","","image-button-response","126","1394189","0.0-126.0","AVYQAKDYISJUL","img_art/9.jpg","4","","","","","","","","","","","","","","","","","","","","","","","","",""
"2119","","image-button-response","127","1396310","0.0-127.0-0.0","AVYQAKDYISJUL","img_art/9.jpg","5","","","","","","","","","","","","","","","","","","","","","","","","",""
"2902","","image-button-response","128","1399214","0.0-128.0-0.0","AVYQAKDYISJUL","img_art/9.jpg","2","","","","","","","","","","","","","","","","","","","","","","","","",""
"null","","html-keyboard-response","129","1400716","0.0-129.0","AVYQAKDYISJUL","<p style=""font-size: 48px;"">+</p>","","","","","null","allTrialResponses","1500","1","12","img_art/9.jpg","-40","Mostly colored pencil scribbles to me.","Andrea,Taylor,Vanessa,Caroline,Courtney,Anna","Sleeping woman in a cave. Makes me feel safe.,20,240,20","The peacock theme gives me negative connotations of my ex-sister-in-law,-10,340,20","It's too abstract for my taste. I wish there were more definition.,-9,380,20","Stirs up emotions of watching someone sleep which is relaxing,11,100,20","This is a picture of a scary mans head sideways.,-24,280,20","It looks like a child's crayon drawing.,-10,300,20","Courtney","This is a picture of a scary mans head sideways.,-24,280,20","Anna","It looks like a child's crayon drawing.,-10,300,20","Vanessa","It's too abstract for my taste. I wish there were more definition.,-9,380,20","0"
"55268","","survey-text","130","1455988","0.0-130.0-0.0","AVYQAKDYISJUL","","","","{""Q0"":""Feeling of good and evil watching over us. It's a bit \""Dali in one corner.""}","","","","","","","","","","","","","","","","","","","","","","",""
"4375.299999982119","","image-slider-response","131","1460364","0.0-131.0","AVYQAKDYISJUL","","","","","9","","","","","","","","","","","","","","","","","","","","","",""
"4695","","image-button-response","132","1465366","0.0-132.0","AVYQAKDYISJUL","img_art/8.jpg","1","","","","","","","","","","","","","","","","","","","","","","","","",""
"2102","","image-button-response","133","1467469","0.0-133.0","AVYQAKDYISJUL","img_art/8.jpg","1","","","","","","","","","","","","","","","","","","","","","","","","",""
"3775","","image-button-response","134","1471246","0.0-134.0-0.0","AVYQAKDYISJUL","img_art/8.jpg","2","","","","","","","","","","","","","","","","","","","","","","","","",""
"8079","","image-button-response","135","1479327","0.0-135.0-0.0","AVYQAKDYISJUL","img_art/8.jpg","4","","","","","","","","","","","","","","","","","","","","","","","","",""
"null","","html-keyboard-response","136","1479829","0.0-136.0","AVYQAKDYISJUL","<p style=""font-size: 48px;"">+</p>","","","","","null","allTrialResponses","500","1","13","img_art/8.jpg","9","Feeling of good and evil watching over us. It's a bit ""Dali in one corner.","Laura,Miranda,Vanessa,Michaela,Courtney,Anna","chaotic and disassembled,-8,320,20","I like this, the longer I look at in the more details I see.,41,320,20","I don't like the negative emotion this picture makes me feel. It's also too abstract.,-30,380,20","It's too boxy for my taste,-10,260,20","Now that one is wild. Looks like maybe mother nature isnt happy.,28,280,20","The shapes and colors work well together.,40,300,20","Miranda","I like this, the longer I look at in the more details I see.,41,320,20","Vanessa","I don't like the negative emotion this picture makes me feel. It's also too abstract.,-30,380,20","Courtney","Now that one is wild. Looks like maybe mother nature isnt happy.,28,280,20","0"
"43458","","survey-text","137","1523291","0.0-137.0-0.0","AVYQAKDYISJUL","","","","{""Q0"":""Secret waterfall; I like the colors""}","","","","","","","","","","","","","","","","","","","","","","",""
"7207.199999988079","","image-slider-response","138","1530500","0.0-138.0","AVYQAKDYISJUL","","","","","21","","","","","","","","","","","","","","","","","","","","","",""
"null","","image-button-response","139","1535502","0.0-139.0","AVYQAKDYISJUL","img_art/24.jpg","null","","","","","","","","","","","","","","","","","","","","","","","","",""
"6574","","image-button-response","140","1542077","0.0-140.0","AVYQAKDYISJUL","img_art/24.jpg","4","","","","","","","","","","","","","","","","","","","","","","","","",""
"3878","","image-button-response","141","1545958","0.0-141.0-0.0","AVYQAKDYISJUL","img_art/24.jpg","1","","","","","","","","","","","","","","","","","","","","","","","","",""
"1182","","image-button-response","142","1547142","0.0-142.0-0.0","AVYQAKDYISJUL","img_art/24.jpg","2","","","","","","","","","","","","","","","","","","","","","","","","",""
"null","","html-keyboard-response","143","1548143","0.0-143.0","AVYQAKDYISJUL","<p style=""font-size: 48px;"">+</p>","","","","","null","allTrialResponses","1000","1","14","img_art/24.jpg","21","Secret waterfall; I like the colors","Brianna,Miranda,Vanessa,Erin,Courtney,Brooke","The waterfall looks peaceful,11,20,20","I find the colors work really well. It's very pretty but I have no idea as what it is.,34,320,20","I love the colors, but I wish the water was less abstract.,17,380,20","Too literal, not abstract,-29,120,20","What a nice refreshing waterfall.,39,280,20","Mountain stream pineapple texture?,30,60,20","Courtney","What a nice refreshing waterfall.,39,280,20","Miranda","I find the colors work really well. It's very pretty but I have no idea as what it is.,34,320,20","Vanessa","I love the colors, but I wish the water was less abstract.,17,380,20","0"
"75595","","survey-text","144","1623742","0.0-144.0-0.0","AVYQAKDYISJUL","","","","{""Q0"":""Nice calm blue and silver. Looking out a window during heavy rain.""}","","","","","","","","","","","","","","","","","","","","","","",""
"5560.0999999940395","","image-slider-response","145","1629304","0.0-145.0","AVYQAKDYISJUL","","","","","38","","","","","","","","","","","","","","","","","","","","","",""
"null","","image-button-response","146","1634306","0.0-146.0","AVYQAKDYISJUL","img_art/13.jpg","null","","","","","","","","","","","","","","","","","","","","","","","","",""
"1620","","image-button-response","147","1635928","0.0-147.0","AVYQAKDYISJUL","img_art/13.jpg","3","","","","","","","","","","","","","","","","","","","","","","","","",""
"4823","","image-button-response","148","1640753","0.0-148.0-0.0","AVYQAKDYISJUL","img_art/13.jpg","2","","","","","","","","","","","","","","","","","","","","","","","","",""
"11951","","image-button-response","149","1652706","0.0-149.0-0.0","AVYQAKDYISJUL","img_art/13.jpg","4","","","","","","","","","","","","","","","","","","","","","","","","",""
"null","","html-keyboard-response","150","1653708","0.0-150.0","AVYQAKDYISJUL","<p style=""font-size: 48px;"">+</p>","","","","","null","allTrialResponses","1000","1","15","img_art/13.jpg","38","Nice calm blue and silver. Looking out a window during heavy rain.","Sierra,Miranda,Vanessa,Cassandra,Courtney,Kristen","the blues are soothing but the splatters are too much,-3,260,20","This looks like something that could be made off of windows paint, not a huge fan.,-30,320,20","I love the colors and the contrast between the different blues.,21,380,20","I love the colors and the texture,37,120,20","Debree on top of a calm pond.,18,280,20","happy, serenity,30,280,20","Cassandra","I love the colors and the texture,37,120,20","Vanessa","I love the colors and the contrast between the different blues.,21,380,20","Courtney","Debree on top of a calm pond.,18,280,20","0"
"5183","","survey-text","151","1658898","0.0-151.0-0.0","AVYQAKDYISJUL","","","","{""Q0"":""course""}","","","","","","","","","","","","","","","","","","","","","","",""
"53262","","survey-text","152","1712161","0.0-152.0-0.0","AVYQAKDYISJUL","","","","{""Q0"":""Nice colors and very Dali-ish. My fav so far.""}","","","","","","","","","","","","","","","","","","","","","","",""
"3751","","image-slider-response","153","1715913","0.0-153.0","AVYQAKDYISJUL","","","","","43","","","","","","","","","","","","","","","","","","","","","",""
"4640","","image-button-response","154","1720920","0.0-154.0","AVYQAKDYISJUL","img_art/18.jpg","5","","","","","","","","","","","","","","","","","","","","","","","","",""
"994","","image-button-response","155","1721914","0.0-155.0","AVYQAKDYISJUL","img_art/18.jpg","5","","","","","","","","","","","","","","","","","","","","","","","","",""
"3319","","image-button-response","156","1725235","0.0-156.0-0.0","AVYQAKDYISJUL","img_art/18.jpg","1","","","","","","","","","","","","","","","","","","","","","","","","",""
"7687","","image-button-response","157","1732924","0.0-157.0-0.0","AVYQAKDYISJUL","img_art/18.jpg","0","","","","","","","","","","","","","","","","","","","","","","","","",""
"null","","html-keyboard-response","158","1733925","0.0-158.0","AVYQAKDYISJUL","<p style=""font-size: 48px;"">+</p>","","","","","null","allTrialResponses","1000","1","16","img_art/18.jpg","43","Nice colors and very Dali-ish. My fav so far.","Julia,Cynthia,Vanessa,Cassandra,Courtney,Leah","Very classy, I feel like it's the apocalypse.,25,40,20","Imaginative, makes me feel creative.,42,320,20","Again, this is too abtract.,-25,380,20","I don't know...kind of a dissatified feeling inside.,-6,120,20","Pirate ship in stormy seas before it sank.,11,280,20","I really like it, like hells drivers,43,360,20","Leah","I really like it, like hells drivers,43,360,20","Cynthia","Imaginative, makes me feel creative.,42,320,20","Julia","Very classy, I feel like it's the apocalypse.,25,40,20","0"
"27678","","survey-text","159","1761607","0.0-159.0-0.0","AVYQAKDYISJUL","","","","{""Q0"":""I don't know what this is, but, no.""}","","","","","","","","","","","","","","","","","","","","","","",""
"4094.5","","image-slider-response","160","1765703","0.0-160.0","AVYQAKDYISJUL","","","","","-50","","","","","","","","","","","","","","","","","","","","","",""
"null","","image-button-response","161","1770705","0.0-161.0","AVYQAKDYISJUL","img_art/2.jpg","null","","","","","","","","","","","","","","","","","","","","","","","","",""
"2542","","image-button-response","162","1773248","0.0-162.0","AVYQAKDYISJUL","img_art/2.jpg","4","","","","","","","","","","","","","","","","","","","","","","","","",""
"2575","","image-button-response","163","1775825","0.0-163.0-0.0","AVYQAKDYISJUL","img_art/2.jpg","5","","","","","","","","","","","","","","","","","","","","","","","","",""
"3143","","image-button-response","164","1778969","0.0-164.0-0.0","AVYQAKDYISJUL","img_art/2.jpg","2","","","","","","","","","","","","","","","","","","","","","","","","",""
"null","","html-keyboard-response","165","1780471","0.0-165.0","AVYQAKDYISJUL","<p style=""font-size: 48px;"">+</p>","","","","","null","allTrialResponses","1500","1","17","img_art/2.jpg","-50","I don't know what this is, but, no.","Julia,Cynthia,Amy,Dominique,Maria,Leah","I like how it looks like a cute smiling face,43,40,20","Confused and disoriented,-33,320,20","The color palette of this painting is for me displeasing and immature.,-30,220,20","This reminds me of a peaceful day out alone shopping and spending some me time,41,400,20","again, I struggle to see the art and I dislike the green in particular.,-31,120,20","Kind of looks upside down, I need a focal point,-29,360,20","Maria","again, I struggle to see the art and I dislike the green in particular.,-31,120,20","Leah","Kind of looks upside down, I need a focal point,-29,360,20","Amy","The color palette of this painting is for me displeasing and immature.,-30,220,20","0"
"25336","","survey-text","166","1805812","0.0-166.0-0.0","AVYQAKDYISJUL","","","","{""Q0"":""It looks like this bear may be in big trouble.""}","","","","","","","","","","","","","","","","","","","","","","",""
"5135","","image-slider-response","167","1810948","0.0-167.0","AVYQAKDYISJUL","","","","","-50","","","","","","","","","","","","","","","","","","","","","",""
"3447","","image-button-response","168","1815950","0.0-168.0","AVYQAKDYISJUL","img_art/16.jpg","1","","","","","","","","","","","","","","","","","","","","","","","","",""
"1390","","image-button-response","169","1817341","0.0-169.0","AVYQAKDYISJUL","img_art/16.jpg","1","","","","","","","","","","","","","","","","","","","","","","","","",""
"2375","","image-button-response","170","1819718","0.0-170.0-0.0","AVYQAKDYISJUL","img_art/16.jpg","2","","","","","","","","","","","","","","","","","","","","","","","","",""
"11303","","image-button-response","171","1831023","0.0-171.0-0.0","AVYQAKDYISJUL","img_art/16.jpg","5","","","","","","","","","","","","","","","","","","","","","","","","",""
"null","","html-keyboard-response","172","1832024","0.0-172.0","AVYQAKDYISJUL","<p style=""font-size: 48px;"">+</p>","","","","","null","allTrialResponses","1000","1","18","img_art/16.jpg","-50","It looks like this bear may be in big trouble.","Claire,Heather,Amy,Kathryn,Maria,Leah","the materials used are interesting,30,260,20","lol i dont know how i feel about this.,1,260,20","visceral and a little disturbing.,10,220,20","I see something that is supposed to be comforting but it's been discarded and lost.,-20,140,20","feel a little creeped out,-20,120,20","Know it is a piece relating to children and gun violence. Sad,-30,360,20","Heather","lol i dont know how i feel about this.,1,260,20","Amy","visceral and a little disturbing.,10,220,20","Leah","Know it is a piece relating to children and gun violence. Sad,-30,360,20","0"
"42431","","survey-text","173","1874459","0.0-173.0-0.0","AVYQAKDYISJUL","","","","{""Q0"":""This looks more like a digital texture to me.""}","","","","","","","","","","","","","","","","","","","","","","",""
"3735","","image-slider-response","174","1878196","0.0-174.0","AVYQAKDYISJUL","","","","","-31","","","","","","","","","","","","","","","","","","","","","",""
"3695","","image-button-response","175","1883198","0.0-175.0","AVYQAKDYISJUL","img_art/7.jpg","1","","","","","","","","","","","","","","","","","","","","","","","","",""
"749","","image-button-response","176","1883948","0.0-176.0","AVYQAKDYISJUL","img_art/7.jpg","1","","","","","","","","","","","","","","","","","","","","","","","","",""
"9000","","image-button-response","177","1892950","0.0-177.0-0.0","AVYQAKDYISJUL","img_art/7.jpg","5","","","","","","","","","","","","","","","","","","","","","","","","",""
"1158","","image-button-response","178","1894110","0.0-178.0-0.0","AVYQAKDYISJUL","img_art/7.jpg","2","","","","","","","","","","","","","","","","","","","","","","","","",""
"null","","html-keyboard-response","179","1895611","0.0-179.0","AVYQAKDYISJUL","<p style=""font-size: 48px;"">+</p>","","","","","null","allTrialResponses","1500","1","19","img_art/7.jpg","-31","This looks more like a digital texture to me.","Olivia,Heather,Amy,Jamie,Amber,Leah","looking down on earth,19,40,20","i dont like it. it looks like rocks,-40,260,20","Limited emotional reaction for me. No focus and highly abstract,-20,220,20","Looks like a battle raging on,20,320,20","Dull and confusing,-24,200,20","I love it, it looks like a landscape photograph in desert or rocky mountain,50,360,20","Heather","i dont like it. it looks like rocks,-40,260,20","Leah","I love it, it looks like a landscape photograph in desert or rocky mountain,50,360,20","Amy","Limited emotional reaction for me. No focus and highly abstract,-20,220,20","0"
"60126","","survey-text","180","1955741","0.0-180.0-0.0","AVYQAKDYISJUL","","","","{""Q0"":""Interesting use of shapes; looks like it is traveling to the right.""}","","","","","","","","","","","","","","","","","","","","","","",""
"2806.699999988079","","image-slider-response","181","1958549","0.0-181.0","AVYQAKDYISJUL","","","","","9","","","","","","","","","","","","","","","","","","","","","",""
"null","","image-button-response","182","1963551","0.0-182.0","AVYQAKDYISJUL","img_art/10.jpg","null","","","","","","","","","","","","","","","","","","","","","","","","",""
"1582","","image-button-response","183","1965134","0.0-183.0","AVYQAKDYISJUL","img_art/10.jpg","3","","","","","","","","","","","","","","","","","","","","","","","","",""
"11736","","image-button-response","184","1976872","0.0-184.0-0.0","AVYQAKDYISJUL","img_art/10.jpg","1","","","","","","","","","","","","","","","","","","","","","","","","",""
"14831","","image-button-response","185","1991706","0.0-185.0-0.0","AVYQAKDYISJUL","img_art/10.jpg","4","","","","","","","","","","","","","","","","","","","","","","","","",""
"null","","html-keyboard-response","186","1993218","0.0-186.0","AVYQAKDYISJUL","<p style=""font-size: 48px;"">+</p>","","","","","null","allTrialResponses","1500","1","20","img_art/10.jpg","9","Interesting use of shapes; looks like it is traveling to the right.","Tiffany,Heather,Amy,Mikayla,Erika,Leah","I feel little to no emotion looking at this painting.,0,360,20","for some reason reminds me of music,2,260,20","Highly abstract and yet the shapes and colors provide an emotional accessibility for me.,20,220,20","Kinda creepy not my favorite,-26,300,20","Good texture, expressive,18,100,20","Dark with no object, looks like experimentation, slightly like a storm on the ocean,-21,360,20","Mikayla","Kinda creepy not my favorite,-26,300,20","Heather","for some reason reminds me of music,2,260,20","Erika","Good texture, expressive,18,100,20","0"
"3671","","survey-text","187","1996898","0.0-187.0-0.0","AVYQAKDYISJUL","","","","{""Q0"":""we""}","","","","","","","","","","","","","","","","","","","","","","",""
"57749","","survey-text","188","2054648","0.0-188.0-0.0","AVYQAKDYISJUL","","","","{""Q0"":""Nice, but oo bold and busy for my taste. Again, too much use of red.""}","","","","","","","","","","","","","","","","","","","","","","",""
"5055.700000017881","","image-slider-response","189","2059706","0.0-189.0","AVYQAKDYISJUL","","","","","-25","","","","","","","","","","","","","","","","","","","","","",""
"null","","image-button-response","190","2064708","0.0-190.0","AVYQAKDYISJUL","img_art/23.jpg","null","","","","","","","","","","","","","","","","","","","","","","","","",""
"6045","","image-button-response","191","2070755","0.0-191.0","AVYQAKDYISJUL","img_art/23.jpg","3","","","","","","","","","","","","","","","","","","","","","","","","",""
"2182","","image-button-response","192","2072939","0.0-192.0-0.0","AVYQAKDYISJUL","img_art/23.jpg","5","","","","","","","","","","","","","","","","","","","","","","","","",""
"1838","","image-button-response","193","2074779","0.0-193.0-0.0","AVYQAKDYISJUL","img_art/23.jpg","1","","","","","","","","","","","","","","","","","","","","","","","","",""
"null","","html-keyboard-response","194","2076280","0.0-194.0","AVYQAKDYISJUL","<p style=""font-size: 48px;"">+</p>","","","","","null","allTrialResponses","1500","1","21","img_art/23.jpg","-25","Nice, but oo bold and busy for my taste. Again, too much use of red.","Paige,Heather,Elizabeth,Mikayla,Erika,Jessica","Does not incite any emotional response,1,60,20","illegible wording with a graffiti background,1,260,20","Fantastic blend of color and forms,43,20,20","So beautiful with the white accents.,50,300,20","Very intense and unique,3,100,20","This is very cool!,24,400,20","Mikayla","So beautiful with the white accents.,50,300,20","Jessica","This is very cool!,24,400,20","Heather","illegible wording with a graffiti background,1,260,20","0"
"66223","","survey-text","195","2142507","0.0-195.0-0.0","AVYQAKDYISJUL","","","","{""Q0"":""Snake wrangler? I like green, but not this green.""}","","","","","","","","","","","","","","","","","","","","","","",""
"7591.5","","image-slider-response","196","2150100","0.0-196.0","AVYQAKDYISJUL","","","","","13","","","","","","","","","","","","","","","","","","","","","",""
"4143","","image-button-response","197","2155103","0.0-197.0","AVYQAKDYISJUL","img_art/25.jpg","0","","","","","","","","","","","","","","","","","","","","","","","","",""
"780","","image-button-response","198","2155885","0.0-198.0","AVYQAKDYISJUL","img_art/25.jpg","0","","","","","","","","","","","","","","","","","","","","","","","","",""
"15048","","image-button-response","199","2170935","0.0-199.0-0.0","AVYQAKDYISJUL","img_art/25.jpg","2","","","","","","","","","","","","","","","","","","","","","","","","",""
"1238","","image-button-response","200","2172174","0.0-200.0-0.0","AVYQAKDYISJUL","img_art/25.jpg","2","","","","","","","","","","","","","","","","","","","","","","","","",""
"1023","","image-button-response","201","2180007","0.0-200.1-0.1","AVYQAKDYISJUL","img_art/25.jpg","1","","","","","","","","","","","","","","","","","","","","","","","","",""
"null","","html-keyboard-response","202","2181008","0.0-201.0","AVYQAKDYISJUL","<p style=""font-size: 48px;"">+</p>","","","","","null","allTrialResponses","1000","1","22","img_art/25.jpg","13","Snake wrangler? I like green, but not this green.","Crystal,Heather,Angelica,Mikayla,Briana,Jessica","Seems ritualistic and nativist,50,300,20","This reminds me of royalty and servants.,32,260,20","This is strange and poorly done.,-2,280,20","I LOVE fhe scary skeleton.,28,300,20","Its scary. It looks like someone overlooking hell,-34,400,20","I really like how the lines form this piece.,8,400,20","Crystal","Seems ritualistic and nativist,50,300,20","Angelica","This is strange and poorly done.,-2,280,20","Heather","This reminds me of royalty and servants.,32,260,20","2"
"39007","","survey-text","203","2220020","0.0-202.0-0.0","AVYQAKDYISJUL","","","","{""Q0"":""Nice abstract and interesting color use with pastels turning to neutrals.""}","","","","","","","","","","","","","","","","","","","","","","",""
"6119.4000000059605","","image-slider-response","204","2226141","0.0-203.0","AVYQAKDYISJUL","","","","","37","","","","","","","","","","","","","","","","","","","","","",""
"null","","image-button-response","205","2231143","0.0-204.0","AVYQAKDYISJUL","img_art/12.jpg","null","","","","","","","","","","","","","","","","","","","","","","","","",""
"4837","","image-button-response","206","2235982","0.0-205.0","AVYQAKDYISJUL","img_art/12.jpg","1","","","","","","","","","","","","","","","","","","","","","","","","",""
"1246","","image-button-response","207","2237230","0.0-206.0-0.0","AVYQAKDYISJUL","img_art/12.jpg","0","","","","","","","","","","","","","","","","","","","","","","","","",""
"1646","","image-button-response","208","2238878","0.0-207.0-0.0","AVYQAKDYISJUL","img_art/12.jpg","5","","","","","","","","","","","","","","","","","","","","","","","","",""
"null","","html-keyboard-response","209","2239379","0.0-208.0","AVYQAKDYISJUL","<p style=""font-size: 48px;"">+</p>","","","","","null","allTrialResponses","500","1","23","img_art/12.jpg","37","Nice abstract and interesting color use with pastels turning to neutrals.","Crystal,Heather,Angelica,Breanna,Lindsey,Kaitlyn","I like the sectioned nature of the squares and curves. Not my favorite but still a good one.,27,300,20","beautiful also reminds me of a quilt,1,260,20","It's strange looking and unappealing.,-4,280,20","It makes me feel confused,-15,380,20","Ugly colors and I'm just not too much a fan of cubist abstract art.,-50,400,20","The shapes present in the picture make it very interesting,17,80,20","Heather","beautiful also reminds me of a quilt,1,260,20","Crystal","I like the sectioned nature of the squares and curves. Not my favorite but still a good one.,27,300,20","Kaitlyn","The shapes present in the picture make it very interesting,17,80,20","2"
"57925","","survey-text","210","2297309","0.0-209.0-0.0","AVYQAKDYISJUL","","","","{""Q0"":""Looks like somebody fell down on some \""K\""s""}","","","","","","","","","","","","","","","","","","","","","","",""
"3854.5","","image-slider-response","211","2301165","0.0-210.0","AVYQAKDYISJUL","","","","","-28","","","","","","","","","","","","","","","","","","","","","",""
"3359","","image-button-response","212","2306167","0.0-211.0","AVYQAKDYISJUL","img_art/15.jpg","1","","","","","","","","","","","","","","","","","","","","","","","","",""
"2637","","image-button-response","213","2308806","0.0-212.0","AVYQAKDYISJUL","img_art/15.jpg","1","","","","","","","","","","","","","","","","","","","","","","","","",""
"13168","","image-button-response","214","2321976","0.0-213.0-0.0","AVYQAKDYISJUL","img_art/15.jpg","2","","","","","","","","","","","","","","","","","","","","","","","","",""
"5854","","image-button-response","215","2327832","0.0-214.0-0.0","AVYQAKDYISJUL","img_art/15.jpg","0","","","","","","","","","","","","","","","","","","","","","","","","",""
"null","","html-keyboard-response","216","2329334","0.0-215.0","AVYQAKDYISJUL","<p style=""font-size: 48px;"">+</p>","","","","","null","allTrialResponses","1500","1","24","img_art/15.jpg","-28","Looks like somebody fell down on some ""K""s","Crystal,Heather,Catherine,Kelsey,Shelby,Kaitlyn","The blotted black spots create a nice contrast between the brush strokes within the center and sides. I like it.,41,300,20","black leaves makes the blue birds stand out.,1,260,20","ants on the ground playing with bubble gum. They may be thinking of how they can use it to build something,-30,160,20","i kinda like this one but wouldnt buy it for myself,17,240,20","This painting gives a calm vibe but no stronger emotions than that,10,240,20","Simplicity of colors is nice,11,80,20","Heather","black leaves makes the blue birds stand out.,1,260,20","Catherine","ants on the ground playing with bubble gum. They may be thinking of how they can use it to build something,-30,160,20","Crystal","The blotted black spots create a nice contrast between the brush strokes within the center and sides. I like it.,41,300,20","2"
"47371","","survey-text","217","2376709","0.0-216.0-0.0","AVYQAKDYISJUL","","","","{""Q0"":""I'm getting nothing here""}","","","","","","","","","","","","","","","","","","","","","","",""
"3751","","image-slider-response","218","2380462","0.0-217.0","AVYQAKDYISJUL","","","","","-50","","","","","","","","","","","","","","","","","","","","","",""
"null","","image-button-response","219","2385464","0.0-218.0","AVYQAKDYISJUL","img_art/5.jpg","null","","","","","","","","","","","","","","","","","","","","","","","","",""
"485","","image-button-response","220","2385951","0.0-219.0","AVYQAKDYISJUL","img_art/5.jpg","0","","","","","","","","","","","","","","","","","","","","","","","","",""
"5423","","image-button-response","221","2391376","0.0-220.0-0.0","AVYQAKDYISJUL","img_art/5.jpg","3","","","","","","","","","","","","","","","","","","","","","","","","",""
"11071","","image-button-response","222","2402449","0.0-221.0-0.0","AVYQAKDYISJUL","img_art/5.jpg","5","","","","","","","","","","","","","","","","","","","","","","","","",""
"null","","html-keyboard-response","223","2403451","0.0-222.0","AVYQAKDYISJUL","<p style=""font-size: 48px;"">+</p>","","","","","null","allTrialResponses","1000","1","25","img_art/5.jpg","-50","I'm getting nothing here","Crystal,Heather,Catherine,Alexis,Margaret,Megan","Confused as to what the artist is attempting to do.,-50,300,20","its something. i just dont know what it is.,1,260,20","Building remnants in the sand.,1,160,20","Kindergarten art. I really don't like this style.,-50,100,20","simple. love the color scheme,27,100,20","Cop out, easy money for artist for a 4 min piece,-29,200,20","Crystal","Confused as to what the artist is attempting to do.,-50,300,20","Alexis","Kindergarten art. I really don't like this style.,-50,100,20","Megan","Cop out, easy money for artist for a 4 min piece,-29,200,20","2"
"4053","","survey-text","224","2407513","0.0-223.0-0.0","AVYQAKDYISJUL","","","","{""Q0"":""table""}","","","","","","","","","","","","","","","","","","","","","","",""
"67671","","survey-text","225","2475185","0.0-224.0-0.0","AVYQAKDYISJUL","","","","{""Q0"":""Nice, I like the colors and focal point.""}","","","","","","","","","","","","","","","","","","","","","","",""
"4057","","image-slider-response","226","2479243","0.0-225.0","AVYQAKDYISJUL","","","","","31","","","","","","","","","","","","","","","","","","","","","",""
"null","","image-button-response","227","2484246","0.0-226.0","AVYQAKDYISJUL","img_art/14.jpg","null","","","","","","","","","","","","","","","","","","","","","","","","",""
"3075","","image-button-response","228","2487323","0.0-227.0","AVYQAKDYISJUL","img_art/14.jpg","0","","","","","","","","","","","","","","","","","","","","","","","","",""
"2766","","image-button-response","229","2490091","0.0-228.0-0.0","AVYQAKDYISJUL","img_art/14.jpg","2","","","","","","","","","","","","","","","","","","","","","","","","",""
"7367","","image-button-response","230","2497460","0.0-229.0-0.0","AVYQAKDYISJUL","img_art/14.jpg","1","","","","","","","","","","","","","","","","","","","","","","","","",""
"null","","html-keyboard-response","231","2497961","0.0-230.0","AVYQAKDYISJUL","<p style=""font-size: 48px;"">+</p>","","","","","null","allTrialResponses","500","1","26","img_art/14.jpg","31","Nice, I like the colors and focal point.","Crystal,Gabriela,Chelsea,Alexis,Alicia,Megan","It looks like a tree but the bleeding water colors lack borders and makes it hard to appreciate the message.,-41,300,20","It looks like a table centerpiece,-22,140,20","The colors are pleasing.,29,180,20","Don't like the colors on this. Too simple,-20,100,20","ok, gloomy though.,12,120,20","Baby's room palette with tree confusion in a more confused substrate.,-15,200,20","Crystal","It looks like a tree but the bleeding water colors lack borders and makes it hard to appreciate the message.,-41,300,20","Chelsea","The colors are pleasing.,29,180,20","Gabriela","It looks like a table centerpiece,-22,140,20","2"
"61053","","survey-text","232","2559018","0.0-231.0-0.0","AVYQAKDYISJUL","","","","{""Q0"":""Oh pretty! Pastel weeping willow bleeding into a room.""}","","","","","","","","","","","","","","","","","","","","","","",""
"3959.199999988079","","image-slider-response","233","2562979","0.0-232.0","AVYQAKDYISJUL","","","","","50","","","","","","","","","","","","","","","","","","","","","",""
"null","","image-button-response","234","2567981","0.0-233.0","AVYQAKDYISJUL","img_art/17.jpg","null","","","","","","","","","","","","","","","","","","","","","","","","",""
"637","","image-button-response","235","2568620","0.0-234.0","AVYQAKDYISJUL","img_art/17.jpg","0","","","","","","","","","","","","","","","","","","","","","","","","",""
"9191","","image-button-response","236","2577813","0.0-235.0-0.0","AVYQAKDYISJUL","img_art/17.jpg","4","","","","","","","","","","","","","","","","","","","","","","","","",""
"1422","","image-button-response","237","2579237","0.0-236.0-0.0","AVYQAKDYISJUL","img_art/17.jpg","5","","","","","","","","","","","","","","","","","","","","","","","","",""
"null","","html-keyboard-response","238","2580238","0.0-237.0","AVYQAKDYISJUL","<p style=""font-size: 48px;"">+</p>","","","","","null","allTrialResponses","1000","1","27","img_art/17.jpg","50","Oh pretty! Pastel weeping willow bleeding into a room.","Crystal,Gabriela,Chelsea,Caitlin,Kylie,Sophia","Embodies beauty and complexity and in simplicity as well,50,300,20","This makes me feel inspired and happy. I love everything about this portrait,45,140,20","The colors are soft.,32,180,20","Somewhat should trim the tree branches at the shopping mall.,10,80,20","Looks like an explosion of pretty artwork,45,300,20","It kind of pulls you in to float away with it.,9,280,20","Crystal","Embodies beauty and complexity and in simplicity as well,50,300,20","Kylie","Looks like an explosion of pretty artwork,45,300,20","Sophia","It kind of pulls you in to float away with it.,9,280,20","2"
"50705","","survey-text","239","2630947","0.0-238.0-0.0","AVYQAKDYISJUL","","","","{""Q0"":""This looks like they used to be people, but they have different heads.""}","","","","","","","","","","","","","","","","","","","","","","",""
"5142.700000017881","","image-slider-response","240","2636092","0.0-239.0","AVYQAKDYISJUL","","","","","-43","","","","","","","","","","","","","","","","","","","","","",""
"4311","","image-button-response","241","2641093","0.0-240.0","AVYQAKDYISJUL","img_art/28.jpg","1","","","","","","","","","","","","","","","","","","","","","","","","",""
"709","","image-button-response","242","2641804","0.0-241.0","AVYQAKDYISJUL","img_art/28.jpg","1","","","","","","","","","","","","","","","","","","","","","","","","",""
"8223","","image-button-response","243","2650029","0.0-242.0-0.0","AVYQAKDYISJUL","img_art/28.jpg","3","","","","","","","","","","","","","","","","","","","","","","","","",""
"6727","","image-button-response","244","2656758","0.0-243.0-0.0","AVYQAKDYISJUL","img_art/28.jpg","5","","","","","","","","","","","","","","","","","","","","","","","","",""
"null","","html-keyboard-response","245","2657759","0.0-244.0","AVYQAKDYISJUL","<p style=""font-size: 48px;"">+</p>","","","","","null","allTrialResponses","1000","1","28","img_art/28.jpg","-43","This looks like they used to be people, but they have different heads.","Crystal,Jenna,Ashley,Lauren,Kylie,Sophia","I like the flow and abstract nature of what seems to be humans,40,300,20","looks like humanoid figures in distress. I like it, but makes me slightly uncomfortable,35,360,20","Normally don't react well to abstract art, but it looks almost like something's there.,28,320,20","I feel that the image is invoking a sense of negativity.,-15,340,20","Overpopulated city,35,300,20","I think this may have to do with humpty dumpty?,-7,280,20","Jenna","looks like humanoid figures in distress. I like it, but makes me slightly uncomfortable,35,360,20","Lauren","I feel that the image is invoking a sense of negativity.,-15,340,20","Sophia","I think this may have to do with humpty dumpty?,-7,280,20","2"
"59623","","survey-text","246","2717389","0.0-245.0-0.0","AVYQAKDYISJUL","","","","{""Q0"":""I got nothing. I don't like the massive amount of orange.""}","","","","","","","","","","","","","","","","","","","","","","",""
"3663.0999999940395","","image-slider-response","247","2721053","0.0-246.0","AVYQAKDYISJUL","","","","","-50","","","","","","","","","","","","","","","","","","","","","",""
"null","","image-button-response","248","2726063","0.0-247.0","AVYQAKDYISJUL","img_art/6.jpg","null","","","","","","","","","","","","","","","","","","","","","","","","",""
"6583","","image-button-response","249","2732647","0.0-248.0","AVYQAKDYISJUL","img_art/6.jpg","0","","","","","","","","","","","","","","","","","","","","","","","","",""
"2311","","image-button-response","250","2734959","0.0-249.0-0.0","AVYQAKDYISJUL","img_art/6.jpg","0","","","","","","","","","","","","","","","","","","","","","","","","",""
"5583","","image-button-response","251","2743000","0.0-249.1-0.1","AVYQAKDYISJUL","img_art/6.jpg","5","","","","","","","","","","","","","","","","","","","","","","","","",""
"10824","","image-button-response","252","2753826","0.0-250.0-0.0","AVYQAKDYISJUL","img_art/6.jpg","1","","","","","","","","","","","","","","","","","","","","","","","","",""
"null","","html-keyboard-response","253","2754827","0.0-251.0","AVYQAKDYISJUL","<p style=""font-size: 48px;"">+</p>","","","","","null","allTrialResponses","1000","1","29","img_art/6.jpg","-50","I got nothing. I don't like the massive amount of orange.","Natalie,Jenna,Katelyn,Lauren,Sarah,Sophia","reminds me a giant peach,19,400,20","I like the bottom half, but not the top,-7,360,20","Nothing grabs at me here,-11,100,20","I like the simplicity of the piece.,10,340,20","it's interesting but I don't love it,10,180,20","It's okay. It kind of looks like a bird with his head buried in his feathers.,2,280,20","Natalie","reminds me a giant peach,19,400,20","Sophia","It's okay. It kind of looks like a bird with his head buried in his feathers.,2,280,20","Jenna","I like the bottom half, but not the top,-7,360,20","4"
"47614","","survey-text","254","2802446","0.0-252.0-0.0","AVYQAKDYISJUL","","","","{""Q0"":""Fishing village in a storm? I like it""}","","","","","","","","","","","","","","","","","","","","","","",""
"4606.699999988079","","image-slider-response","255","2807055","0.0-253.0","AVYQAKDYISJUL","","","","","43","","","","","","","","","","","","","","","","","","","","","",""
"4591","","image-button-response","256","2812058","0.0-254.0","AVYQAKDYISJUL","img_art/20.jpg","1","","","","","","","","","","","","","","","","","","","","","","","","",""
"1084","","image-button-response","257","2813144","0.0-255.0","AVYQAKDYISJUL","img_art/20.jpg","1","","","","","","","","","","","","","","","","","","","","","","","","",""
"6327","","image-button-response","258","2819473","0.0-256.0-0.0","AVYQAKDYISJUL","img_art/20.jpg","2","","","","","","","","","","","","","","","","","","","","","","","","",""
"2527","","image-button-response","259","2822002","0.0-257.0-0.0","AVYQAKDYISJUL","img_art/20.jpg","0","","","","","","","","","","","","","","","","","","","","","","","","",""
"null","","html-keyboard-response","260","2823004","0.0-258.0","AVYQAKDYISJUL","<p style=""font-size: 48px;"">+</p>","","","","","null","allTrialResponses","1000","1","30","img_art/20.jpg","43","Fishing village in a storm? I like it","Natalie,Jenna,Kaitlin,Amanda,Nicole,Sophia","I like the detail on it, although I get a sad vibe to it,19,400,20","could look for hours. love the brush work. color choices look like a desert.,50,360,20","i can feel the intensity in this,11,60,20","Too negative looks like a car and plane crash,-50,180,20","This one feels scary in a bad way,-30,20,20","A truck rolled over?  I do like the pictures and the technique though.,25,280,20","Jenna","could look for hours. love the brush work. color choices look like a desert.,50,360,20","Kaitlin","i can feel the intensity in this,11,60,20","Natalie","I like the detail on it, although I get a sad vibe to it,19,400,20","4"
"3785","","image-button-response_instructions","261","2826795","0.0-259.0","AVYQAKDYISJUL","","0","instructions","","","","","","","","","","","","","","","","","","","","","","","",""
"1215","","image-button-response","262","2828017","0.0-260.0","AVYQAKDYISJUL","","0","","","","","","","","","","","","","","","","","","","","","","","","",""
