"rt","url","trial_type","trial_index","time_elapsed","internal_node_id","participant_id","stimulus","button_pressed","Name","responses","response","key_press","variableName","fixationTime","condition","trial","photo","subjectRating","subjectResponse","agentsNames","agent_1_Response","agent_2_Response","agent_3_Response","agent_4_Response","agent_5_Response","agent_6_Response","kept_1_name","kept_1_response","kept_2_name","kept_2_response","kept_3_name","kept_3_response","errorCounter"
"8732","external_page_harvard.html","external-html","0","8853","0.0-0.0","AWAW665TQQP2F","","","","","","","","","","","","","","","","","","","","","","","","","","",""
"2081","","image-button-response","1","10938","0.0-1.0","AWAW665TQQP2F","","1","","","","","","","","","","","","","","","","","","","","","","","","",""
"2126","","image-button-response","2","13073","0.0-2.0-0.0","AWAW665TQQP2F","","1","phone","","","","","","","","","","","","","","","","","","","","","","","",""
"3836","","survey-text","3","16913","0.0-3.0-0.0","AWAW665TQQP2F","","","","{""Q0"":""AWAW665TQQP2F""}","","","","","","","","","","","","","","","","","","","","","","",""
"3195","","image-button-response_instructions","4","20113","0.0-4.0","AWAW665TQQP2F","","0","instructions","","","","","","","","","","","","","","","","","","","","","","","",""
"114436","","image-button-response_instructions","5","134551","0.0-5.0","AWAW665TQQP2F","img_art/ins/popularity/ins1.png","0","instructions","","","","","","","","","","","","","","","","","","","","","","","",""
"5101","","image-button-response_instructions","6","139655","0.0-6.0","AWAW665TQQP2F","img_art/ins/popularity/ins2.png","0","instructions","","","","","","","","","","","","","","","","","","","","","","","",""
"3879","","image-button-response_instructions","7","143536","0.0-7.0","AWAW665TQQP2F","img_art/ins/popularity/ins2Extreme.png","0","instructions","","","","","","","","","","","","","","","","","","","","","","","",""
"3670","","image-button-response_instructions","8","147208","0.0-8.0","AWAW665TQQP2F","img_art/ins/popularity/ins3KEEPpop.PNG","0","instructions","","","","","","","","","","","","","","","","","","","","","","","",""
"3022","","image-button-response_instructions","9","150232","0.0-9.0","AWAW665TQQP2F","img_art/ins/popularity/ins3ANamepop.PNG","0","instructions","","","","","","","","","","","","","","","","","","","","","","","",""
"3950","","image-button-response_instructions","10","154184","0.0-10.0","AWAW665TQQP2F","img_art/ins/popularity/ins3ARatingpop.png","0","instructions","","","","","","","","","","","","","","","","","","","","","","","",""
"3006","","image-button-response_instructions","11","157191","0.0-11.0","AWAW665TQQP2F","img_art/ins/popularity/ins3ATextpop.png","0","instructions","","","","","","","","","","","","","","","","","","","","","","","",""
"107357","","image-button-response_instructions","12","264551","0.0-12.0","AWAW665TQQP2F","img_art/ins/popularity/ins3ALikespop.png","0","instructions","","","","","","","","","","","","","","","","","","","","","","","",""
"7605","","image-button-response_instructions","13","272159","0.0-13.0","AWAW665TQQP2F","img_art/ins/popularity/ins3KEEPpop.PNG","0","instructions","","","","","","","","","","","","","","","","","","","","","","","",""
"4334","","image-button-response_instructions","14","276495","0.0-14.0","AWAW665TQQP2F","img_art/ins/popularity/ins3_5RED.png","0","instructions","","","","","","","","","","","","","","","","","","","","","","","",""
"35437","","image-button-response_instructions","15","311935","0.0-15.0","AWAW665TQQP2F","img_art/ins/popularity/ins3KEEPpop.PNG","0","instructions","","","","","","","","","","","","","","","","","","","","","","","",""
"2989","","image-button-response_instructions","16","314927","0.0-16.0","AWAW665TQQP2F","img_art/ins/popularity/ins4KEEPpop.PNG","0","instructions","","","","","","","","","","","","","","","","","","","","","","","",""
"2670","","image-button-response_instructions","17","317598","0.0-17.0","AWAW665TQQP2F","img_art/ins/popularity/ins5KEEPpop.PNG","0","instructions","","","","","","","","","","","","","","","","","","","","","","","",""
"5063","","image-button-response_instructions","18","322663","0.0-18.0","AWAW665TQQP2F","","0","instructions","","","","","","","","","","","","","","","","","","","","","","","",""
"5446","","survey-text","19","328135","0.0-19.0-0.0","AWAW665TQQP2F","","","","{""Q0"":""but""}","","","","","","","","","","","","","","","","","","","","","","",""
"17476","","survey-text","20","345615","0.0-20.0-0.0","AWAW665TQQP2F","","","","{""Q0"":""This reminds me of a summer wildflower field.""}","","","","","","","","","","","","","","","","","","","","","","",""
"3868.300000011921","","image-slider-response","21","349487","0.0-21.0","AWAW665TQQP2F","","","","","23","","","","","","","","","","","","","","","","","","","","","",""
"null","","image-button-response","22","354493","0.0-22.0","AWAW665TQQP2F","img_art/ins/1.jpg","null","","","","","","","","","","","","","","","","","","","","","","","","",""
"1855","","image-button-response","23","356352","0.0-23.0","AWAW665TQQP2F","img_art/ins/1.jpg","5","","","","","","","","","","","","","","","","","","","","","","","","",""
"4403","","image-button-response","24","360759","0.0-24.0-0.0","AWAW665TQQP2F","img_art/ins/1.jpg","3","","","","","","","","","","","","","","","","","","","","","","","","",""
"5578","","image-button-response","25","366342","0.0-25.0-0.0","AWAW665TQQP2F","img_art/ins/1.jpg","0","","","","","","","","","","","","","","","","","","","","","","","","",""
"null","","html-keyboard-response","26","366844","0.0-26.0","AWAW665TQQP2F","<p style=""font-size: 48px;"">+</p>","","","","","null","allTrialResponses","500","1","-2","img_art/ins/1.jpg","23","This reminds me of a summer wildflower field.","Allison,Ashley,Beth,Dora,Erika,Jen","looks like a lot of things going on in the mist,20,20,20","I just don't get why these type of art would be popular,-32,40,20","This color reminds me of poo,-46,60,20","looks like what my niece in 3rd grade did this afternoon,-50,80,20","I like the sophisticated brushwork,40,100,20","It reminds me of a candy land dream I had,36,120,20","Jen","It reminds me of a candy land dream I had,36,120,20","Dora","looks like what my niece in 3rd grade did this afternoon,-50,80,20","Allison","looks like a lot of things going on in the mist,20,20,20","0"
"12103","","survey-text","27","378951","0.0-27.0-0.0","AWAW665TQQP2F","","","","{""Q0"":""this seems like a factory work""}","","","","","","","","","","","","","","","","","","","","","","",""
"36333","","image-slider-response","28","415288","0.0-28.0","AWAW665TQQP2F","","","","","-22","","","","","","","","","","","","","","","","","","","","","",""
"4603","","image-button-response","29","420293","0.0-29.0","AWAW665TQQP2F","img_art/ins/2.jpg","3","","","","","","","","","","","","","","","","","","","","","","","","",""
"975","","image-button-response","30","421271","0.0-30.0","AWAW665TQQP2F","img_art/ins/2.jpg","3","","","","","","","","","","","","","","","","","","","","","","","","",""
"2453","","image-button-response","31","423728","0.0-31.0-0.0","AWAW665TQQP2F","img_art/ins/2.jpg","5","","","","","","","","","","","","","","","","","","","","","","","","",""
"1483","","image-button-response","32","425216","0.0-32.0-0.0","AWAW665TQQP2F","img_art/ins/2.jpg","2","","","","","","","","","","","","","","","","","","","","","","","","",""
"null","","html-keyboard-response","33","425719","0.0-33.0","AWAW665TQQP2F","<p style=""font-size: 48px;"">+</p>","","","","","null","allTrialResponses","500","1","-1","img_art/ins/2.jpg","-22","this seems like a factory work","Allison,Jenna,Katie,Dora,Kara,Jen","I don't have strong feelings about this,10,20,20","One of my pet peevs,-48,140,20","too much color!,-28,180,20","looks too angry,-50,80,20","I like the blocks of color arrangements,30,160,20","It reminds me of a fireplace,36,120,20","Dora","looks too angry,-50,80,20","Jen","It reminds me of a fireplace,36,120,20","Katie","too much color!,-28,180,20","0"
"18834","","survey-text","34","444559","0.0-34.0-0.0","AWAW665TQQP2F","","","","{""Q0"":""This reminds me of an angry snowstorm.""}","","","","","","","","","","","","","","","","","","","","","","",""
"4524.4000000059605","","image-slider-response","35","449087","0.0-35.0","AWAW665TQQP2F","","","","","15","","","","","","","","","","","","","","","","","","","","","",""
"4515","","image-button-response","36","454092","0.0-36.0","AWAW665TQQP2F","img_art/ins/3.jpg","1","","","","","","","","","","","","","","","","","","","","","","","","",""
"1263","","image-button-response","37","455359","0.0-37.0","AWAW665TQQP2F","img_art/ins/3.jpg","1","","","","","","","","","","","","","","","","","","","","","","","","",""
"644","","image-button-response","38","456007","0.0-38.0-0.0","AWAW665TQQP2F","img_art/ins/3.jpg","2","","","","","","","","","","","","","","","","","","","","","","","","",""
"1876","","image-button-response","39","457888","0.0-39.0-0.0","AWAW665TQQP2F","img_art/ins/3.jpg","5","","","","","","","","","","","","","","","","","","","","","","","","",""
"null","","html-keyboard-response","40","458391","0.0-40.0","AWAW665TQQP2F","<p style=""font-size: 48px;"">+</p>","","","","","null","allTrialResponses","500","1","0","img_art/ins/3.jpg","15","This reminds me of an angry snowstorm.","Leslie,Rose,Katie,Dora,Mary,Jen","It's an alright work,15,200,20","My daily routine, it's depressing,-20,240,20","It looks depressing,-26,180,20","My worst nightmare,-42,80,20","I like the overlapping of brushes,41,220,20","I can feel a rainy day from this painting,18,120,20","Rose","My daily routine, it's depressing,-20,240,20","Katie","It looks depressing,-26,180,20","Jen","I can feel a rainy day from this painting,18,120,20","0"
"5193","","image-button-response_instructions","41","463590","0.0-41.0","AWAW665TQQP2F","","0","instructions","","","","","","","","","","","","","","","","","","","","","","","",""
"9678","","survey-likert","42","473272","0.0-42.0-0.0","AWAW665TQQP2F","","","","{""Q0"":"""",""Q1"":0,""Q2"":0}","","","","","","","","","","","","","","","","","","","","","","",""
"1988","","survey-likert","43","477839","0.0-42.1-0.1","AWAW665TQQP2F","","","","{""Q0"":"""",""Q1"":"""",""Q2"":1}","","","","","","","","","","","","","","","","","","","","","","",""
"5073","","survey-text","44","482919","0.0-43.0-0.0","AWAW665TQQP2F","","","","{""Q0"":""rock""}","","","","","","","","","","","","","","","","","","","","","","",""
"23597","","survey-text","45","506519","0.0-44.0-0.0","AWAW665TQQP2F","","","","{""Q0"":""Nostalgic. Reminds me of an old inkwell and feather pen.""}","","","","","","","","","","","","","","","","","","","","","","",""
"3763.9000000059605","","image-slider-response","46","510286","0.0-45.0","AWAW665TQQP2F","","","","","31","","","","","","","","","","","","","","","","","","","","","",""
"null","","image-button-response","47","515304","0.0-46.0","AWAW665TQQP2F","img_art/5.jpg","null","","","","","","","","","","","","","","","","","","","","","","","","",""
"2436","","image-button-response","48","517744","0.0-47.0","AWAW665TQQP2F","img_art/5.jpg","3","","","","","","","","","","","","","","","","","","","","","","","","",""
"4427","","image-button-response","49","522176","0.0-48.0-0.0","AWAW665TQQP2F","img_art/5.jpg","0","","","","","","","","","","","","","","","","","","","","","","","","",""
"5011","","image-button-response","50","527192","0.0-49.0-0.0","AWAW665TQQP2F","img_art/5.jpg","5","","","","","","","","","","","","","","","","","","","","","","","","",""
"null","","html-keyboard-response","51","528696","0.0-50.0","AWAW665TQQP2F","<p style=""font-size: 48px;"">+</p>","","","","","null","allTrialResponses","1500","1","1","img_art/5.jpg","31","Nostalgic. Reminds me of an old inkwell and feather pen.","Melissa,Danielle,Caitlin,Michaela,Morgan,Allison","strong appeal in contrast,27,240,20","Not a fan of the themes,-30,340,20","More kindergarten art class. Who buys this stuff?,-45,80,20","Pretty simple, I'm not sure what it's supposed to mean,14,260,20","Dull pyramid that says nothing.,7,380,20","Too loud. Dislike the bright yellow.,-5,140,20","Michaela","Pretty simple, I'm not sure what it's supposed to mean,14,260,20","Melissa","strong appeal in contrast,27,240,20","Allison","Too loud. Dislike the bright yellow.,-5,140,20","1"
"13025","","survey-text","52","541727","0.0-51.0-0.0","AWAW665TQQP2F","","","","{""Q0"":""This is depressing. It's a city with dinge and dirt.""}","","","","","","","","","","","","","","","","","","","","","","",""
"2700.5","","image-slider-response","53","544431","0.0-52.0","AWAW665TQQP2F","","","","","-28","","","","","","","","","","","","","","","","","","","","","",""
"null","","image-button-response","54","549436","0.0-53.0","AWAW665TQQP2F","img_art/11.jpg","null","","","","","","","","","","","","","","","","","","","","","","","","",""
"728","","image-button-response","55","550167","0.0-54.0","AWAW665TQQP2F","img_art/11.jpg","3","","","","","","","","","","","","","","","","","","","","","","","","",""
"2124","","image-button-response","56","552296","0.0-55.0-0.0","AWAW665TQQP2F","img_art/11.jpg","4","","","","","","","","","","","","","","","","","","","","","","","","",""
"2860","","image-button-response","57","555160","0.0-56.0-0.0","AWAW665TQQP2F","img_art/11.jpg","2","","","","","","","","","","","","","","","","","","","","","","","","",""
"null","","html-keyboard-response","58","556662","0.0-57.0","AWAW665TQQP2F","<p style=""font-size: 48px;"">+</p>","","","","","null","allTrialResponses","1500","1","2","img_art/11.jpg","-28","This is depressing. It's a city with dinge and dirt.","Melissa,Mariah,Chelsea,Michaela,Mary,Allison","reminds me of home,5,240,20","The colors are lovely. February getting ready to yield to March.,41,140,20","I like the harsh black lines against a soft background.,27,180,20","Reminds me of a city and how chaotic it can be,22,260,20","I don't care for the color combo. The wavy lines give dimension though.,-13,180,20","Kind of reminds me of DNA.,9,140,20","Michaela","Reminds me of a city and how chaotic it can be,22,260,20","Mary","I don't care for the color combo. The wavy lines give dimension though.,-13,180,20","Chelsea","I like the harsh black lines against a soft background.,27,180,20","1"
"57050","","survey-text","59","613719","0.0-58.0-0.0","AWAW665TQQP2F","","","","{""Q0"":""Neighborhood stroll. This is calm.""}","","","","","","","","","","","","","","","","","","","","","","",""
"3852.5","","image-slider-response","60","617575","0.0-59.0","AWAW665TQQP2F","","","","","4","","","","","","","","","","","","","","","","","","","","","",""
"null","","image-button-response","61","622579","0.0-60.0","AWAW665TQQP2F","img_art/26.jpg","null","","","","","","","","","","","","","","","","","","","","","","","","",""
"256","","image-button-response","62","622839","0.0-61.0","AWAW665TQQP2F","img_art/26.jpg","2","","","","","","","","","","","","","","","","","","","","","","","","",""
"4980","","image-button-response","63","627823","0.0-62.0-0.0","AWAW665TQQP2F","img_art/26.jpg","4","","","","","","","","","","","","","","","","","","","","","","","","",""
"708","","image-button-response","64","628536","0.0-63.0-0.0","AWAW665TQQP2F","img_art/26.jpg","5","","","","","","","","","","","","","","","","","","","","","","","","",""
"null","","html-keyboard-response","65","630040","0.0-64.0","AWAW665TQQP2F","<p style=""font-size: 48px;"">+</p>","","","","","null","allTrialResponses","1500","1","3","img_art/26.jpg","4","Neighborhood stroll. This is calm.","Destiny,Lauren,Chelsea,Michaela,Mary,Megan","I really love pastels and they're just being dimmed down too much here,-3,360,20","The piece doesn't really invoke anything for me.,0,340,20","I wish it were more pastel but I think it is relaxing to look at.,30,180,20","Elevator art but the watercolors are good,29,260,20","I can tell it's some sort of outdoor scene. It looks very amateurish.,-9,180,20","Washed out suburban scene with childish tones.,-24,200,20","Chelsea","I wish it were more pastel but I think it is relaxing to look at.,30,180,20","Mary","I can tell it's some sort of outdoor scene. It looks very amateurish.,-9,180,20","Megan","Washed out suburban scene with childish tones.,-24,200,20","1"
"20689","","survey-text","66","650735","0.0-65.0-0.0","AWAW665TQQP2F","","","","{""Q0"":""old fashioned with weird scribbles on it""}","","","","","","","","","","","","","","","","","","","","","","",""
"1700.5","","image-slider-response","67","652439","0.0-66.0","AWAW665TQQP2F","","","","","-26","","","","","","","","","","","","","","","","","","","","","",""
"3660","","image-button-response","68","657444","0.0-67.0","AWAW665TQQP2F","img_art/27.jpg","2","","","","","","","","","","","","","","","","","","","","","","","","",""
"453","","image-button-response","69","657903","0.0-68.0","AWAW665TQQP2F","img_art/27.jpg","2","","","","","","","","","","","","","","","","","","","","","","","","",""
"6972","","image-button-response","70","664879","0.0-69.0-0.0","AWAW665TQQP2F","img_art/27.jpg","5","","","","","","","","","","","","","","","","","","","","","","","","",""
"1051","","image-button-response","71","665935","0.0-70.0-0.0","AWAW665TQQP2F","img_art/27.jpg","3","","","","","","","","","","","","","","","","","","","","","","","","",""
"null","","html-keyboard-response","72","666938","0.0-71.0","AWAW665TQQP2F","<p style=""font-size: 48px;"">+</p>","","","","","null","allTrialResponses","1000","1","4","img_art/27.jpg","-26","old fashioned with weird scribbles on it","Isabella,Brianna,Chelsea,Crystal,Mary,Megan","Makes me feel warm inside,21,280,20","This painting is very unique,21,20,20","The green lines look like a child drew over a painting.,-36,180,20","Muddied and directionless. Like someone dragged a brush across the paper for the sake of doing something.,-50,300,20","I like the layer upon layer of different mediums used here.,21,180,20","Nice back ground with childish scribble on top,-30,200,20","Chelsea","The green lines look like a child drew over a painting.,-36,180,20","Megan","Nice back ground with childish scribble on top,-30,200,20","Crystal","Muddied and directionless. Like someone dragged a brush across the paper for the sake of doing something.,-50,300,20","1"
"11061","","survey-text","73","678006","0.0-72.0-0.0","AWAW665TQQP2F","","","","{""Q0"":""This is haunting like wicker man or something""}","","","","","","","","","","","","","","","","","","","","","","",""
"3236.4000000059605","","image-slider-response","74","681246","0.0-73.0","AWAW665TQQP2F","","","","","-21","","","","","","","","","","","","","","","","","","","","","",""
"null","","image-button-response","75","686250","0.0-74.0","AWAW665TQQP2F","img_art/25.jpg","null","","","","","","","","","","","","","","","","","","","","","","","","",""
"1706","","image-button-response","76","687959","0.0-75.0","AWAW665TQQP2F","img_art/25.jpg","0","","","","","","","","","","","","","","","","","","","","","","","","",""
"1044","","image-button-response","77","689006","0.0-76.0-0.0","AWAW665TQQP2F","img_art/25.jpg","3","","","","","","","","","","","","","","","","","","","","","","","","",""
"1966","","image-button-response","78","690975","0.0-77.0-0.0","AWAW665TQQP2F","img_art/25.jpg","2","","","","","","","","","","","","","","","","","","","","","","","","",""
"null","","html-keyboard-response","79","691478","0.0-78.0","AWAW665TQQP2F","<p style=""font-size: 48px;"">+</p>","","","","","null","allTrialResponses","500","1","5","img_art/25.jpg","-21","This is haunting like wicker man or something","Nicole,Amanda,Chelsea,Crystal,Brittany,Megan","This painting is cool but it gives off an evil vibe,-10,20,20","Reminds me of Mr. Burns on drugs in the Simpsons,-50,180,20","The color and image are unsettling.,-29,180,20","Seems ritualistic and nativist,50,300,20","It's a rather intriguing design,12,40,20","Beautiful color with an interesting otherworldly figure,29,200,20","Nicole","This painting is cool but it gives off an evil vibe,-10,20,20","Crystal","Seems ritualistic and nativist,50,300,20","Chelsea","The color and image are unsettling.,-29,180,20","1"
"4374","","survey-text","80","695862","0.0-79.0-0.0","AWAW665TQQP2F","","","","{""Q0"":""sky""}","","","","","","","","","","","","","","","","","","","","","","",""
"10119","","survey-text","81","705982","0.0-80.0-0.0","AWAW665TQQP2F","","","","{""Q0"":""Reminds me of concrete with gravel in it""}","","","","","","","","","","","","","","","","","","","","","","",""
"2740.4000000059605","","image-slider-response","82","708726","0.0-81.0","AWAW665TQQP2F","","","","","11","","","","","","","","","","","","","","","","","","","","","",""
"null","","image-button-response","83","713731","0.0-82.0","AWAW665TQQP2F","img_art/7.jpg","null","","","","","","","","","","","","","","","","","","","","","","","","",""
"2472","","image-button-response","84","716207","0.0-83.0","AWAW665TQQP2F","img_art/7.jpg","1","","","","","","","","","","","","","","","","","","","","","","","","",""
"1651","","image-button-response","85","717863","0.0-84.0-0.0","AWAW665TQQP2F","img_art/7.jpg","0","","","","","","","","","","","","","","","","","","","","","","","","",""
"963","","image-button-response","86","718831","0.0-85.0-0.0","AWAW665TQQP2F","img_art/7.jpg","3","","","","","","","","","","","","","","","","","","","","","","","","",""
"null","","html-keyboard-response","87","720333","0.0-86.0","AWAW665TQQP2F","<p style=""font-size: 48px;"">+</p>","","","","","null","allTrialResponses","1500","1","6","img_art/7.jpg","11","Reminds me of concrete with gravel in it","Nicole,Kristen,Chelsea,Crystal,Kelly,Julia","Looks like the surface of mars,29,20,20","sand, beach, tranquil,10,280,20","It looks more like wallpaper rather than a painting.,-27,180,20","I thought I was looking at a satellite image of mars.,21,300,20","My firs thought was ""gross""...not sure what this is and I dont think i want to know.,-19,220,20","I would like this more if I could pretend it was the moon.,-26,40,20","Kristen","sand, beach, tranquil,10,280,20","Nicole","Looks like the surface of mars,29,20,20","Crystal","I thought I was looking at a satellite image of mars.,21,300,20","1"
"15121","","survey-text","88","735462","0.0-87.0-0.0","AWAW665TQQP2F","","","","{""Q0"":""Reminds me of 80s windbreaker jackets. Too busy.""}","","","","","","","","","","","","","","","","","","","","","","",""
"2748","","image-slider-response","89","738214","0.0-88.0","AWAW665TQQP2F","","","","","-38","","","","","","","","","","","","","","","","","","","","","",""
"3414","","image-button-response","90","743217","0.0-89.0","AWAW665TQQP2F","img_art/12.jpg","0","","","","","","","","","","","","","","","","","","","","","","","","",""
"4538","","image-button-response","91","747759","0.0-90.0","AWAW665TQQP2F","img_art/12.jpg","0","","","","","","","","","","","","","","","","","","","","","","","","",""
"1436","","image-button-response","92","749199","0.0-91.0-0.0","AWAW665TQQP2F","img_art/12.jpg","4","","","","","","","","","","","","","","","","","","","","","","","","",""
"1764","","image-button-response","93","750967","0.0-92.0-0.0","AWAW665TQQP2F","img_art/12.jpg","1","","","","","","","","","","","","","","","","","","","","","","","","",""
"null","","html-keyboard-response","94","752471","0.0-93.0","AWAW665TQQP2F","<p style=""font-size: 48px;"">+</p>","","","","","null","allTrialResponses","1500","1","7","img_art/12.jpg","-38","Reminds me of 80s windbreaker jackets. Too busy.","Nicole,Kristen,Cassandra,Crystal,Monica,Angelica","I like all the squares and the colors but it feels too cluttered to me,20,20,20","stressful, upsetting,-10,280,20","Neutral...just blocks.,3,120,20","I like the sectioned nature of the squares and curves. Not my favorite but still a good one.,27,300,20","Reminds me of collages we made in elementary school. I like the contrast of the colors from top to bottom,43,360,20","It's strange looking and unappealing.,-4,280,20","Nicole","I like all the squares and the colors but it feels too cluttered to me,20,20,20","Monica","Reminds me of collages we made in elementary school. I like the contrast of the colors from top to bottom,43,360,20","Kristen","stressful, upsetting,-10,280,20","1"
"13033","","survey-text","95","765510","0.0-94.0-0.0","AWAW665TQQP2F","","","","{""Q0"":""Finger painting gone wrong. This is depressing.""}","","","","","","","","","","","","","","","","","","","","","","",""
"2628.800000011921","","image-slider-response","96","768143","0.0-95.0","AWAW665TQQP2F","","","","","-32","","","","","","","","","","","","","","","","","","","","","",""
"null","","image-button-response","97","773148","0.0-96.0","AWAW665TQQP2F","img_art/30.jpg","null","","","","","","","","","","","","","","","","","","","","","","","","",""
"8776","","image-button-response","98","781928","0.0-97.0","AWAW665TQQP2F","img_art/30.jpg","5","","","","","","","","","","","","","","","","","","","","","","","","",""
"3442","","image-button-response","99","785374","0.0-98.0-0.0","AWAW665TQQP2F","img_art/30.jpg","1","","","","","","","","","","","","","","","","","","","","","","","","",""
"446","","image-button-response","100","785823","0.0-99.0-0.0","AWAW665TQQP2F","img_art/30.jpg","0","","","","","","","","","","","","","","","","","","","","","","","","",""
"null","","html-keyboard-response","101","786838","0.0-100.0","AWAW665TQQP2F","<p style=""font-size: 48px;"">+</p>","","","","","null","allTrialResponses","1000","1","8","img_art/30.jpg","-32","Finger painting gone wrong. This is depressing.","Nicole,Kristen,Katelyn,Marissa,Monica,Christina","I like the softness of this but it doesn't make me feel that nice,5,20,20","makes me think of a tunnel filled with graffiti,19,280,20","I do like the multi-dimensional aspect of this piece,10,100,20","I really like the broad and colorful strokes,21,160,20","It looked like a random scribble but I can see a person's face in it now and I think it's clever,13,360,20","it looks like some thing I could make it my garage,-18,240,20","Christina","it looks like some thing I could make it my garage,-18,240,20","Kristen","makes me think of a tunnel filled with graffiti,19,280,20","Nicole","I like the softness of this but it doesn't make me feel that nice,5,20,20","1"
"13442","","survey-text","102","800287","0.0-101.0-0.0","AWAW665TQQP2F","","","","{""Q0"":""This is unsettling. The mix between mediums is off putting.""}","","","","","","","","","","","","","","","","","","","","","","",""
"2780.0999999940395","","image-slider-response","103","803070","0.0-102.0","AWAW665TQQP2F","","","","","-40","","","","","","","","","","","","","","","","","","","","","",""
"null","","image-button-response","104","808075","0.0-103.0","AWAW665TQQP2F","img_art/16.jpg","null","","","","","","","","","","","","","","","","","","","","","","","","",""
"5024","","image-button-response","105","813103","0.0-104.0","AWAW665TQQP2F","img_art/16.jpg","5","","","","","","","","","","","","","","","","","","","","","","","","",""
"629","","image-button-response","106","813735","0.0-105.0-0.0","AWAW665TQQP2F","img_art/16.jpg","4","","","","","","","","","","","","","","","","","","","","","","","","",""
"756","","image-button-response","107","814494","0.0-106.0-0.0","AWAW665TQQP2F","img_art/16.jpg","2","","","","","","","","","","","","","","","","","","","","","","","","",""
"null","","html-keyboard-response","108","815997","0.0-107.0","AWAW665TQQP2F","<p style=""font-size: 48px;"">+</p>","","","","","null","allTrialResponses","1500","1","9","img_art/16.jpg","-40","This is unsettling. The mix between mediums is off putting.","Nicole,Kristen,Jenna,Elizabeth,Sophia,Christina","It's a little anxiety inducing in a good way,16,20,20","sad. desth of childhood,-5,280,20","very bizarre and confusing, but that feels purposeful, so i don't completely hate it.,-25,360,20","Picture seems unique,12,20,20","This feels like there's some kind of pedofile thing going on here.,-50,280,20","very creepy with a bear and a gun,-50,240,20","Christina","very creepy with a bear and a gun,-50,240,20","Sophia","This feels like there's some kind of pedofile thing going on here.,-50,280,20","Jenna","very bizarre and confusing, but that feels purposeful, so i don't completely hate it.,-25,360,20","1"
"19818","","survey-text","109","835821","0.0-108.0-0.0","AWAW665TQQP2F","","","","{""Q0"":""This seems like a mother nature death/dying thing.""}","","","","","","","","","","","","","","","","","","","","","","",""
"2302.600000023842","","image-slider-response","110","838126","0.0-109.0","AWAW665TQQP2F","","","","","8","","","","","","","","","","","","","","","","","","","","","",""
"null","","image-button-response","111","843131","0.0-110.0","AWAW665TQQP2F","img_art/9.jpg","null","","","","","","","","","","","","","","","","","","","","","","","","",""
"5896","","image-button-response","112","849030","0.0-111.0","AWAW665TQQP2F","img_art/9.jpg","3","","","","","","","","","","","","","","","","","","","","","","","","",""
"1182","","image-button-response","113","850214","0.0-112.0-0.0","AWAW665TQQP2F","img_art/9.jpg","2","","","","","","","","","","","","","","","","","","","","","","","","",""
"4092","","image-button-response","114","854310","0.0-113.0-0.0","AWAW665TQQP2F","img_art/9.jpg","0","","","","","","","","","","","","","","","","","","","","","","","","",""
"null","","html-keyboard-response","115","855813","0.0-114.0","AWAW665TQQP2F","<p style=""font-size: 48px;"">+</p>","","","","","null","allTrialResponses","1500","1","10","img_art/9.jpg","8","This seems like a mother nature death/dying thing.","Michelle,Amy,Jenna,Victoria,Sophia,Christina","Alright, I can see a reclining lady, I'm just glad to be able to tell what's in the picture,5,280,20","The busyness and harsh nature of the lines in this painting  mute my emotional response.,-10,220,20","gorgeous colors, love the little details,42,360,20","reminds me of a story book,18,400,20","Yikes. I'm not sure what to make of this one.,-14,280,20","nice colors but it looks like it's from the 80s,10,240,20","Victoria","reminds me of a story book,18,400,20","Jenna","gorgeous colors, love the little details,42,360,20","Michelle","Alright, I can see a reclining lady, I'm just glad to be able to tell what's in the picture,5,280,20","1"
"3376","","survey-text","116","859197","0.0-115.0-0.0","AWAW665TQQP2F","","","","{""Q0"":""our""}","","","","","","","","","","","","","","","","","","","","","","",""
"17415","","survey-text","117","876615","0.0-116.0-0.0","AWAW665TQQP2F","","","","{""Q0"":""mass print picture every church or office has on the wall""}","","","","","","","","","","","","","","","","","","","","","","",""
"3132.699999988079","","image-slider-response","118","879751","0.0-117.0","AWAW665TQQP2F","","","","","8","","","","","","","","","","","","","","","","","","","","","",""
"null","","image-button-response","119","884755","0.0-118.0","AWAW665TQQP2F","img_art/14.jpg","null","","","","","","","","","","","","","","","","","","","","","","","","",""
"2952","","image-button-response","120","887711","0.0-119.0","AWAW665TQQP2F","img_art/14.jpg","4","","","","","","","","","","","","","","","","","","","","","","","","",""
"3596","","image-button-response","121","891311","0.0-120.0-0.0","AWAW665TQQP2F","img_art/14.jpg","2","","","","","","","","","","","","","","","","","","","","","","","","",""
"2148","","image-button-response","122","893463","0.0-121.0-0.0","AWAW665TQQP2F","img_art/14.jpg","0","","","","","","","","","","","","","","","","","","","","","","","","",""
"null","","html-keyboard-response","123","894966","0.0-122.0","AWAW665TQQP2F","<p style=""font-size: 48px;"">+</p>","","","","","null","allTrialResponses","1500","1","11","img_art/14.jpg","8","mass print picture every church or office has on the wall","Michelle,Alexandra,Jenna,Victoria,Erin,Mackenzie","Too abstract with annoying little details. Just draw a regular tree already,-6,280,20","Pretty, dainty, unique,22,60,20","love the colors. despite their brightness it seems sad somehow.,41,360,20","calming to look at,37,400,20","Looks childish and basic,-42,120,20","I like the combination of colors and textures.,35,20,20","Erin","Looks childish and basic,-42,120,20","Jenna","love the colors. despite their brightness it seems sad somehow.,41,360,20","Michelle","Too abstract with annoying little details. Just draw a regular tree already,-6,280,20","1"
"13626","","survey-text","124","908599","0.0-123.0-0.0","AWAW665TQQP2F","","","","{""Q0"":""I love this one.. it's nature abstractly""}","","","","","","","","","","","","","","","","","","","","","","",""
"4356.800000011921","","image-slider-response","125","912959","0.0-124.0","AWAW665TQQP2F","","","","","41","","","","","","","","","","","","","","","","","","","","","",""
"null","","image-button-response","126","917964","0.0-125.0","AWAW665TQQP2F","img_art/24.jpg","null","","","","","","","","","","","","","","","","","","","","","","","","",""
"33496","","image-button-response","127","951464","0.0-126.0","AWAW665TQQP2F","img_art/24.jpg","1","","","","","","","","","","","","","","","","","","","","","","","","",""
"1098","","image-button-response","128","952567","0.0-127.0-0.0","AWAW665TQQP2F","img_art/24.jpg","0","","","","","","","","","","","","","","","","","","","","","","","","",""
"1859","","image-button-response","129","954431","0.0-128.0-0.0","AWAW665TQQP2F","img_art/24.jpg","0","","","","","","","","","","","","","","","","","","","","","","","","",""
"2749","","image-button-response","130","960863","0.0-128.1-0.1","AWAW665TQQP2F","img_art/24.jpg","2","","","","","","","","","","","","","","","","","","","","","","","","",""
"null","","html-keyboard-response","131","961866","0.0-129.0","AWAW665TQQP2F","<p style=""font-size: 48px;"">+</p>","","","","","null","allTrialResponses","1000","1","12","img_art/24.jpg","41","I love this one.. it's nature abstractly","Michelle,Sarah,Jenna,Ashley,Erin,Kimberly","Looks like a waterfall or a brook, the colors are very nice,15,280,20","it's fine, the colors are pleasing, but not my taste,9,180,20","colors are a bit cramped together. really unique take on a waterfall though.,32,360,20","NOt quite Bob Ross, but still good.,30,320,20","Too literal, not abstract,-29,120,20","It just feels a little bland for me,-23,260,20","Sarah","it's fine, the colors are pleasing, but not my taste,9,180,20","Michelle","Looks like a waterfall or a brook, the colors are very nice,15,280,20","Jenna","colors are a bit cramped together. really unique take on a waterfall though.,32,360,20","3"
"20589","","survey-text","132","982462","0.0-130.0-0.0","AWAW665TQQP2F","","","","{""Q0"":""""}","","","","","","","","","","","","","","","","","","","","","","",""
"10749","","survey-text","133","994862","0.0-130.1-0.1","AWAW665TQQP2F","","","","{""Q0"":""I don't know what I'm looking at but the colors are ok""}","","","","","","","","","","","","","","","","","","","","","","",""
"2045","","image-slider-response","134","996909","0.0-131.0","AWAW665TQQP2F","","","","","-16","","","","","","","","","","","","","","","","","","","","","",""
"null","","image-button-response","135","1001911","0.0-132.0","AWAW665TQQP2F","img_art/21.jpg","null","","","","","","","","","","","","","","","","","","","","","","","","",""
"486","","image-button-response","136","1002400","0.0-133.0","AWAW665TQQP2F","img_art/21.jpg","1","","","","","","","","","","","","","","","","","","","","","","","","",""
"5476","","image-button-response","137","1007879","0.0-134.0-0.0","AWAW665TQQP2F","img_art/21.jpg","3","","","","","","","","","","","","","","","","","","","","","","","","",""
"4012","","image-button-response","138","1011895","0.0-135.0-0.0","AWAW665TQQP2F","img_art/21.jpg","5","","","","","","","","","","","","","","","","","","","","","","","","",""
"null","","html-keyboard-response","139","1012898","0.0-136.0","AWAW665TQQP2F","<p style=""font-size: 48px;"">+</p>","","","","","null","allTrialResponses","1000","1","13","img_art/21.jpg","-16","I don't know what I'm looking at but the colors are ok","Michelle,Sarah,Jenna,Gabrielle,Kaitlyn,Heather","The colors are very nice. I like the dots because they remind me of pearls,5,280,20","I love the section of blues, the colors overall are really lovely,31,180,20","beautiful. reminds me of a storm brewing over sea. i love the white dots.,45,360,20","setting sun sky? nice colors and blending,14,160,20","The division in the picture is pleasing but the random white dots are distracting,12,80,20","The color spectrum is just beautiful.,32,260,20","Sarah","I love the section of blues, the colors overall are really lovely,31,180,20","Gabrielle","setting sun sky? nice colors and blending,14,160,20","Heather","The color spectrum is just beautiful.,32,260,20","3"
"11965","","survey-text","140","1024870","0.0-137.0-0.0","AWAW665TQQP2F","","","","{""Q0"":""This reminds me of a Spanish painting but scary""}","","","","","","","","","","","","","","","","","","","","","","",""
"2342.199999988079","","image-slider-response","141","1027214","0.0-138.0","AWAW665TQQP2F","","","","","-10","","","","","","","","","","","","","","","","","","","","","",""
"null","","image-button-response","142","1032219","0.0-139.0","AWAW665TQQP2F","img_art/8.jpg","null","","","","","","","","","","","","","","","","","","","","","","","","",""
"5561","","image-button-response","143","1037783","0.0-140.0","AWAW665TQQP2F","img_art/8.jpg","0","","","","","","","","","","","","","","","","","","","","","","","","",""
"1644","","image-button-response","144","1039431","0.0-141.0-0.0","AWAW665TQQP2F","img_art/8.jpg","1","","","","","","","","","","","","","","","","","","","","","","","","",""
"1364","","image-button-response","145","1040799","0.0-142.0-0.0","AWAW665TQQP2F","img_art/8.jpg","2","","","","","","","","","","","","","","","","","","","","","","","","",""
"null","","html-keyboard-response","146","1042302","0.0-143.0","AWAW665TQQP2F","<p style=""font-size: 48px;"">+</p>","","","","","null","allTrialResponses","1500","1","14","img_art/8.jpg","-10","This reminds me of a Spanish painting but scary","Kayla,Sarah,Tiffany,Gabrielle,Jennifer,Heather","The faces are kinda freaky.,-17,180,20","it's interesting but i don't enjoy the style,-5,180,20","It makes me feel nervous. I can't tell ifI'm looking at an apartment, or a hellscape.,-18,360,20","lots going on with great use of lots of color and geometry,24,160,20","Not my favorite but has an interesting concept,32,380,20","woman looking over a the community,1,260,20","Kayla","The faces are kinda freaky.,-17,180,20","Sarah","it's interesting but i don't enjoy the style,-5,180,20","Tiffany","It makes me feel nervous. I can't tell ifI'm looking at an apartment, or a hellscape.,-18,360,20","3"
"13386","","survey-text","147","1055695","0.0-144.0-0.0","AWAW665TQQP2F","","","","{""Q0"":""Fall painting with lovely colors ""}","","","","","","","","","","","","","","","","","","","","","","",""
"2548.9000000059605","","image-slider-response","148","1058247","0.0-145.0","AWAW665TQQP2F","","","","","31","","","","","","","","","","","","","","","","","","","","","",""
"null","","image-button-response","149","1063251","0.0-146.0","AWAW665TQQP2F","img_art/1.jpg","null","","","","","","","","","","","","","","","","","","","","","","","","",""
"3424","","image-button-response","150","1066679","0.0-147.0","AWAW665TQQP2F","img_art/1.jpg","2","","","","","","","","","","","","","","","","","","","","","","","","",""
"5668","","image-button-response","151","1072351","0.0-148.0-0.0","AWAW665TQQP2F","img_art/1.jpg","3","","","","","","","","","","","","","","","","","","","","","","","","",""
"1235","","image-button-response","152","1073591","0.0-149.0-0.0","AWAW665TQQP2F","img_art/1.jpg","0","","","","","","","","","","","","","","","","","","","","","","","","",""
"null","","html-keyboard-response","153","1074094","0.0-150.0","AWAW665TQQP2F","<p style=""font-size: 48px;"">+</p>","","","","","null","allTrialResponses","500","1","15","img_art/1.jpg","31","Fall painting with lovely colors ","Kayla,Sarah,Tiffany,Rachel,Katie,Andrea","Happy! Reminds me of hiking in tennesee.,18,180,20","it's boring despite all the colors,-2,180,20","I feel relaxed, like I'm watching the leaves change color.,17,360,20","While I like the colors, I find nothing interesting or thought provoking about it.,10,80,20","Too messy. Just looks like a mess of dark colors.,-20,160,20","It just doesn't speak to me.,0,240,20","Tiffany","I feel relaxed, like I'm watching the leaves change color.,17,360,20","Rachel","While I like the colors, I find nothing interesting or thought provoking about it.,10,80,20","Kayla","Happy! Reminds me of hiking in tennesee.,18,180,20","3"
"3044","","survey-text","154","1077148","0.0-151.0-0.0","AWAW665TQQP2F","","","","{""Q0"":""course""}","","","","","","","","","","","","","","","","","","","","","","",""
"9408","","survey-text","155","1086558","0.0-152.0-0.0","AWAW665TQQP2F","","","","{""Q0"":""This is a depressing melting pot""}","","","","","","","","","","","","","","","","","","","","","","",""
"2197.7999999821186","","image-slider-response","156","1088758","0.0-153.0","AWAW665TQQP2F","","","","","-37","","","","","","","","","","","","","","","","","","","","","",""
"null","","image-button-response","157","1093762","0.0-154.0","AWAW665TQQP2F","img_art/29.jpg","null","","","","","","","","","","","","","","","","","","","","","","","","",""
"1225","","image-button-response","158","1094991","0.0-155.0","AWAW665TQQP2F","img_art/29.jpg","1","","","","","","","","","","","","","","","","","","","","","","","","",""
"5357","","image-button-response","159","1100351","0.0-156.0-0.0","AWAW665TQQP2F","img_art/29.jpg","2","","","","","","","","","","","","","","","","","","","","","","","","",""
"812","","image-button-response","160","1101166","0.0-157.0-0.0","AWAW665TQQP2F","img_art/29.jpg","0","","","","","","","","","","","","","","","","","","","","","","","","",""
"null","","html-keyboard-response","161","1102170","0.0-158.0","AWAW665TQQP2F","<p style=""font-size: 48px;"">+</p>","","","","","null","allTrialResponses","1000","1","16","img_art/29.jpg","-37","This is a depressing melting pot","Kayla,Erika,Tiffany,Rachel,Madison,Alexa","It looks like graffiti in a subway tunnel- destruction.,-20,180,20","Feels like an abandoned dream,13,100,20","I feel a little disgust. There is something off-putting about the smooth shapes and dark colors.,-43,360,20","It looks like someone did not like their art and drew an x over it.,-32,80,20","Well if the artist themself is crossing it out, why should I pay any mind?,-30,60,20","Very wild and I like it,20,40,20","Erika","Feels like an abandoned dream,13,100,20","Tiffany","I feel a little disgust. There is something off-putting about the smooth shapes and dark colors.,-43,360,20","Kayla","It looks like graffiti in a subway tunnel- destruction.,-20,180,20","3"
"15205","","survey-text","162","1117382","0.0-159.0-0.0","AWAW665TQQP2F","","","","{""Q0"":""The tree looks like a wig on a stand. Very odd.""}","","","","","","","","","","","","","","","","","","","","","","",""
"3100.5999999940395","","image-slider-response","163","1120486","0.0-160.0","AWAW665TQQP2F","","","","","-19","","","","","","","","","","","","","","","","","","","","","",""
"null","","image-button-response","164","1125491","0.0-161.0","AWAW665TQQP2F","img_art/6.jpg","null","","","","","","","","","","","","","","","","","","","","","","","","",""
"1720","","image-button-response","165","1127215","0.0-162.0","AWAW665TQQP2F","img_art/6.jpg","5","","","","","","","","","","","","","","","","","","","","","","","","",""
"2836","","image-button-response","166","1130055","0.0-163.0-0.0","AWAW665TQQP2F","img_art/6.jpg","1","","","","","","","","","","","","","","","","","","","","","","","","",""
"1108","","image-button-response","167","1131167","0.0-164.0-0.0","AWAW665TQQP2F","img_art/6.jpg","4","","","","","","","","","","","","","","","","","","","","","","","","",""
"null","","html-keyboard-response","168","1131669","0.0-165.0","AWAW665TQQP2F","<p style=""font-size: 48px;"">+</p>","","","","","null","allTrialResponses","500","1","17","img_art/6.jpg","-19","The tree looks like a wig on a stand. Very odd.","Kayla,Erika,Tiffany,Chloe,Samantha,Claire","Little birdie in a desert. Seeking better frontiers.,13,180,20","Lonesome in nature,13,100,20","The painting makes me happy. Like I'm looking at a little bird.,6,360,20","Cute and evocative,11,220,20","It isnt bad but sort of too bland,0,140,20","very minimalistic,22,260,20","Claire","very minimalistic,22,260,20","Erika","Lonesome in nature,13,100,20","Samantha","It isnt bad but sort of too bland,0,140,20","3"
"37470","","survey-text","169","1169142","0.0-166.0-0.0","AWAW665TQQP2F","","","","{""Q0"":""This reminds me of rain and depression.""}","","","","","","","","","","","","","","","","","","","","","","",""
"3260.5999999940395","","image-slider-response","170","1172406","0.0-167.0","AWAW665TQQP2F","","","","","18","","","","","","","","","","","","","","","","","","","","","",""
"4891","","image-button-response","171","1177412","0.0-168.0","AWAW665TQQP2F","img_art/13.jpg","2","","","","","","","","","","","","","","","","","","","","","","","","",""
"726","","image-button-response","172","1178143","0.0-169.0","AWAW665TQQP2F","img_art/13.jpg","2","","","","","","","","","","","","","","","","","","","","","","","","",""
"3036","","image-button-response","173","1181183","0.0-170.0-0.0","AWAW665TQQP2F","img_art/13.jpg","5","","","","","","","","","","","","","","","","","","","","","","","","",""
"411","","image-button-response","174","1181599","0.0-171.0-0.0","AWAW665TQQP2F","img_art/13.jpg","4","","","","","","","","","","","","","","","","","","","","","","","","",""
"null","","html-keyboard-response","175","1182601","0.0-172.0","AWAW665TQQP2F","<p style=""font-size: 48px;"">+</p>","","","","","null","allTrialResponses","1000","1","18","img_art/13.jpg","18","This reminds me of rain and depression.","Alexis,Erika,Alyssa,Paige,Samantha,Claire","Simple, but pleasing. The blue gradient is a favorite of mine,32,100,20","Gorgeous contrast and color choice, very pleasing,50,100,20","Pretty and it reminds me of rain droplets running down a window on a rainy day.,40,160,20","Pleased. I like to combination of colors,17,60,20","Nice colors. beautiful blue,50,140,20","love the colors and splatters,44,260,20","Alyssa","Pretty and it reminds me of rain droplets running down a window on a rainy day.,40,160,20","Claire","love the colors and splatters,44,260,20","Samantha","Nice colors. beautiful blue,50,140,20","3"
"9638","","survey-text","176","1192246","0.0-173.0-0.0","AWAW665TQQP2F","","","","{""Q0"":""I hate abstract and this is ugly""}","","","","","","","","","","","","","","","","","","","","","","",""
"2676.4000000059605","","image-slider-response","177","1194926","0.0-174.0","AWAW665TQQP2F","","","","","-47","","","","","","","","","","","","","","","","","","","","","",""
"null","","image-button-response","178","1199931","0.0-175.0","AWAW665TQQP2F","img_art/18.jpg","null","","","","","","","","","","","","","","","","","","","","","","","","",""
"7816","","image-button-response","179","1207750","0.0-176.0","AWAW665TQQP2F","img_art/18.jpg","0","","","","","","","","","","","","","","","","","","","","","","","","",""
"1820","","image-button-response","180","1209575","0.0-177.0-0.0","AWAW665TQQP2F","img_art/18.jpg","3","","","","","","","","","","","","","","","","","","","","","","","","",""
"675","","image-button-response","181","1210255","0.0-178.0-0.0","AWAW665TQQP2F","img_art/18.jpg","5","","","","","","","","","","","","","","","","","","","","","","","","",""
"null","","html-keyboard-response","182","1211258","0.0-179.0","AWAW665TQQP2F","<p style=""font-size: 48px;"">+</p>","","","","","null","allTrialResponses","1000","1","19","img_art/18.jpg","-47","I hate abstract and this is ugly","Makayla,Kaitlin,Alyssa,Diana,Samantha,Claire","I'm not partial to the design, unsettling,2,80,20","I really like this one - there seems to be a story behind it,32,60,20","There are alot of elements to this painting and a good mix of colors,32,160,20","This painting reminds me of the 4 horsemen of the apocalypse. It feels haunting.,31,380,20","Id love to see this piece closer. So much extra details hidden it it.,50,140,20","reminds me of greek mythology,22,260,20","Makayla","I'm not partial to the design, unsettling,2,80,20","Diana","This painting reminds me of the 4 horsemen of the apocalypse. It feels haunting.,31,380,20","Claire","reminds me of greek mythology,22,260,20","3"
"13119","","survey-text","183","1224382","0.0-180.0-0.0","AWAW665TQQP2F","","","","{""Q0"":""This looks like a vintage children's scribble""}","","","","","","","","","","","","","","","","","","","","","","",""
"6948.5","","image-slider-response","184","1231334","0.0-181.0","AWAW665TQQP2F","","","","","1","","","","","","","","","","","","","","","","","","","","","",""
"null","","image-button-response","185","1236338","0.0-182.0","AWAW665TQQP2F","img_art/3.jpg","null","","","","","","","","","","","","","","","","","","","","","","","","",""
"3440","","image-button-response","186","1239782","0.0-183.0","AWAW665TQQP2F","img_art/3.jpg","4","","","","","","","","","","","","","","","","","","","","","","","","",""
"1140","","image-button-response","187","1240926","0.0-184.0-0.0","AWAW665TQQP2F","img_art/3.jpg","5","","","","","","","","","","","","","","","","","","","","","","","","",""
"1180","","image-button-response","188","1242110","0.0-185.0-0.0","AWAW665TQQP2F","img_art/3.jpg","0","","","","","","","","","","","","","","","","","","","","","","","","",""
"null","","html-keyboard-response","189","1243612","0.0-186.0","AWAW665TQQP2F","<p style=""font-size: 48px;"">+</p>","","","","","null","allTrialResponses","1500","1","20","img_art/3.jpg","1","This looks like a vintage children's scribble","Makayla,Briana,Caroline,Diana,Leah,Claire","Looks like blood scribbled on walls,-20,80,20","Sharp peaks look like sharp teeth,-37,400,20","The red makes me think of blood which makes me think of pain,-50,100,20","I didn't feel the color choice when I first looked. I did however like the placement of the gray.,-28,380,20","Scratchy scrawly all one color, looks like a mistake,-28,360,20","looks like a kid scribbled with crayon,-35,260,20","Leah","Scratchy scrawly all one color, looks like a mistake,-28,360,20","Claire","looks like a kid scribbled with crayon,-35,260,20","Makayla","Looks like blood scribbled on walls,-20,80,20","3"
"2736","","survey-text","190","1246358","0.0-187.0-0.0","AWAW665TQQP2F","","","","{""Q0"":""we""}","","","","","","","","","","","","","","","","","","","","","","",""
"17077","","survey-text","191","1263437","0.0-188.0-0.0","AWAW665TQQP2F","","","","{""Q0"":""I love the feathery texture of this one""}","","","","","","","","","","","","","","","","","","","","","","",""
"3148.699999988079","","image-slider-response","192","1266590","0.0-189.0","AWAW665TQQP2F","","","","","36","","","","","","","","","","","","","","","","","","","","","",""
"null","","image-button-response","193","1271595","0.0-190.0","AWAW665TQQP2F","img_art/17.jpg","null","","","","","","","","","","","","","","","","","","","","","","","","",""
"7632","","image-button-response","194","1279231","0.0-191.0","AWAW665TQQP2F","img_art/17.jpg","5","","","","","","","","","","","","","","","","","","","","","","","","",""
"715","","image-button-response","195","1279951","0.0-192.0-0.0","AWAW665TQQP2F","img_art/17.jpg","4","","","","","","","","","","","","","","","","","","","","","","","","",""
"3227","","image-button-response","196","1283182","0.0-193.0-0.0","AWAW665TQQP2F","img_art/17.jpg","3","","","","","","","","","","","","","","","","","","","","","","","","",""
"null","","html-keyboard-response","197","1284685","0.0-194.0","AWAW665TQQP2F","<p style=""font-size: 48px;"">+</p>","","","","","null","allTrialResponses","1500","1","21","img_art/17.jpg","36","I love the feathery texture of this one","Makayla,Vanessa,Dominique,Cheyenne,Leah,Claire","I feel okay , it's like a tree,28,80,20","I want to know more about this picture and where it leads if you could get inside it.,27,380,20","Another favorite a relaxing day with nature a day to take it all In,34,400,20","I like the colorfulness.,17,200,20","Love the colors, the flow, like a strange storm or tree off the balcony,50,360,20","its whimsical and light,50,260,20","Claire","its whimsical and light,50,260,20","Leah","Love the colors, the flow, like a strange storm or tree off the balcony,50,360,20","Cheyenne","I like the colorfulness.,17,200,20","3"
"12186","","survey-text","198","1296878","0.0-195.0-0.0","AWAW665TQQP2F","","","","{""Q0"":""I don't understand this one and it's sad""}","","","","","","","","","","","","","","","","","","","","","","",""
"3540.4000000059605","","image-slider-response","199","1300422","0.0-196.0","AWAW665TQQP2F","","","","","-23","","","","","","","","","","","","","","","","","","","","","",""
"null","","image-button-response","200","1305427","0.0-197.0","AWAW665TQQP2F","img_art/28.jpg","null","","","","","","","","","","","","","","","","","","","","","","","","",""
"3144","","image-button-response","201","1308575","0.0-198.0","AWAW665TQQP2F","img_art/28.jpg","2","","","","","","","","","","","","","","","","","","","","","","","","",""
"739","","image-button-response","202","1309318","0.0-199.0-0.0","AWAW665TQQP2F","img_art/28.jpg","5","","","","","","","","","","","","","","","","","","","","","","","","",""
"630","","image-button-response","203","1309951","0.0-200.0-0.0","AWAW665TQQP2F","img_art/28.jpg","4","","","","","","","","","","","","","","","","","","","","","","","","",""
"null","","html-keyboard-response","204","1310454","0.0-201.0","AWAW665TQQP2F","<p style=""font-size: 48px;"">+</p>","","","","","null","allTrialResponses","500","1","22","img_art/28.jpg","-23","I don't understand this one and it's sad","Natalie,Sara,Emma,Cheyenne,Leah,Claire","it looks alright,-1,400,20","This swirly drawing i snot my type I get confused and dizzy,-20,160,20","Don't love the colors,-10,60,20","Good use of shapes.,7,200,20","Too me it's a mish mash, true abstract,-37,360,20","not a fan of the colors or strokes used,-27,260,20","Emma","Don't love the colors,-10,60,20","Claire","not a fan of the colors or strokes used,-27,260,20","Leah","Too me it's a mish mash, true abstract,-37,360,20","3"
"8384","","survey-text","205","1318846","0.0-202.0-0.0","AWAW665TQQP2F","","","","{""Q0"":""this one is bright but not in a happy way""}","","","","","","","","","","","","","","","","","","","","","","",""
"2692.5999999940395","","image-slider-response","206","1321542","0.0-203.0","AWAW665TQQP2F","","","","","-5","","","","","","","","","","","","","","","","","","","","","",""
"null","","image-button-response","207","1326547","0.0-204.0","AWAW665TQQP2F","img_art/22.jpg","null","","","","","","","","","","","","","","","","","","","","","","","","",""
"4232","","image-button-response","208","1330783","0.0-205.0","AWAW665TQQP2F","img_art/22.jpg","1","","","","","","","","","","","","","","","","","","","","","","","","",""
"900","","image-button-response","209","1331687","0.0-206.0-0.0","AWAW665TQQP2F","img_art/22.jpg","2","","","","","","","","","","","","","","","","","","","","","","","","",""
"1268","","image-button-response","210","1332959","0.0-207.0-0.0","AWAW665TQQP2F","img_art/22.jpg","5","","","","","","","","","","","","","","","","","","","","","","","","",""
"null","","html-keyboard-response","211","1334462","0.0-208.0","AWAW665TQQP2F","<p style=""font-size: 48px;"">+</p>","","","","","null","allTrialResponses","1500","1","23","img_art/22.jpg","-5","this one is bright but not in a happy way","Cassidy,Kylie,Emma,Grace,Leah,Claire","I don't really know why, I just like looking at it,10,140,20","Climate change in a big city,35,300,20","Love the use of color,50,60,20","Love vibrant colors & the abstractness.,43,180,20","Pretty colors but too blocky for me,-19,360,20","I enjoy the colors used,24,260,20","Kylie","Climate change in a big city,35,300,20","Emma","Love the use of color,50,60,20","Claire","I enjoy the colors used,24,260,20","3"
"15001","","survey-text","212","1349470","0.0-209.0-0.0","AWAW665TQQP2F","","","","{""Q0"":""seems like steam coming from a chimney""}","","","","","","","","","","","","","","","","","","","","","","",""
"4028.5","","image-slider-response","213","1353502","0.0-210.0","AWAW665TQQP2F","","","","","-5","","","","","","","","","","","","","","","","","","","","","",""
"null","","image-button-response","214","1358507","0.0-211.0","AWAW665TQQP2F","img_art/4.jpg","null","","","","","","","","","","","","","","","","","","","","","","","","",""
"8656","","image-button-response","215","1367167","0.0-212.0","AWAW665TQQP2F","img_art/4.jpg","2","","","","","","","","","","","","","","","","","","","","","","","","",""
"1939","","image-button-response","216","1369111","0.0-213.0-0.0","AWAW665TQQP2F","img_art/4.jpg","0","","","","","","","","","","","","","","","","","","","","","","","","",""
"844","","image-button-response","217","1369959","0.0-214.0-0.0","AWAW665TQQP2F","img_art/4.jpg","5","","","","","","","","","","","","","","","","","","","","","","","","",""
"null","","html-keyboard-response","218","1370462","0.0-215.0","AWAW665TQQP2F","<p style=""font-size: 48px;"">+</p>","","","","","null","allTrialResponses","500","1","24","img_art/4.jpg","-5","seems like steam coming from a chimney","Cynthia,Kylie,Emma,Madeline,Angela,Claire","creepy as it looks like fingernails,-23,320,20","I just have no clue,26,300,20","Interesting but maybe a little creepy,0,60,20","Not impressed really,-20,40,20","Really like the colors, but don't like the object/squiggle in darker gold and black,4,260,20","I really don't like the colors,-26,260,20","Emma","Interesting but maybe a little creepy,0,60,20","Cynthia","creepy as it looks like fingernails,-23,320,20","Claire","I really don't like the colors,-26,260,20","3"
"11728","","survey-text","219","1382198","0.0-216.0-0.0","AWAW665TQQP2F","","","","{""Q0"":""this is too dark and depressing but it looks like flowers""}","","","","","","","","","","","","","","","","","","","","","","",""
"2997","","image-slider-response","220","1385198","0.0-217.0","AWAW665TQQP2F","","","","","-31","","","","","","","","","","","","","","","","","","","","","",""
"null","","image-button-response","221","1390202","0.0-218.0","AWAW665TQQP2F","img_art/15.jpg","null","","","","","","","","","","","","","","","","","","","","","","","","",""
"2049","","image-button-response","222","1392255","0.0-219.0","AWAW665TQQP2F","img_art/15.jpg","4","","","","","","","","","","","","","","","","","","","","","","","","",""
"1252","","image-button-response","223","1393511","0.0-220.0-0.0","AWAW665TQQP2F","img_art/15.jpg","5","","","","","","","","","","","","","","","","","","","","","","","","",""
"4507","","image-button-response","224","1398022","0.0-221.0-0.0","AWAW665TQQP2F","img_art/15.jpg","3","","","","","","","","","","","","","","","","","","","","","","","","",""
"null","","html-keyboard-response","225","1399525","0.0-222.0","AWAW665TQQP2F","<p style=""font-size: 48px;"">+</p>","","","","","null","allTrialResponses","1500","1","25","img_art/15.jpg","-31","this is too dark and depressing but it looks like flowers","Cynthia,Meghan,Emma,Haley,Sabrina,Claire","interested in this transformation,20,320,20","I like the pattern of it,11,220,20","Don't love it but it's cute,16,60,20","Interesting, and I don't dislike it.,9,220,20","Extreme darkness and sadness,-30,120,20","it's alright but a little cluttered,14,260,20","Sabrina","Extreme darkness and sadness,-30,120,20","Claire","it's alright but a little cluttered,14,260,20","Haley","Interesting, and I don't dislike it.,9,220,20","3"
"2699","","survey-text","226","1402234","0.0-223.0-0.0","AWAW665TQQP2F","","","","{""Q0"":""table""}","","","","","","","","","","","","","","","","","","","","","","",""
"14210","","survey-text","227","1416446","0.0-224.0-0.0","AWAW665TQQP2F","","","","{""Q0"":""I love the blurry edges on this""}","","","","","","","","","","","","","","","","","","","","","","",""
"3987.7000000178814","","image-slider-response","228","1420438","0.0-225.0","AWAW665TQQP2F","","","","","31","","","","","","","","","","","","","","","","","","","","","",""
"null","","image-button-response","229","1425443","0.0-226.0","AWAW665TQQP2F","img_art/20.jpg","null","","","","","","","","","","","","","","","","","","","","","","","","",""
"2360","","image-button-response","230","1427807","0.0-227.0","AWAW665TQQP2F","img_art/20.jpg","4","","","","","","","","","","","","","","","","","","","","","","","","",""
"947","","image-button-response","231","1428759","0.0-228.0-0.0","AWAW665TQQP2F","img_art/20.jpg","5","","","","","","","","","","","","","","","","","","","","","","","","",""
"659","","image-button-response","232","1429422","0.0-229.0-0.0","AWAW665TQQP2F","img_art/20.jpg","3","","","","","","","","","","","","","","","","","","","","","","","","",""
"null","","html-keyboard-response","233","1430424","0.0-230.0","AWAW665TQQP2F","<p style=""font-size: 48px;"">+</p>","","","","","null","allTrialResponses","1000","1","26","img_art/20.jpg","31","I love the blurry edges on this","Kaylee,Stephanie,Mikayla,Haley,Sabrina,Claire","i can see a car crash,13,200,20","Looks like an old gold mining down now deserted.,11,300,20","Kinda freaks me out.,-40,300,20","I really enjoy the contrast of colors (blue/red/orange),30,220,20","I love the way it expresses dark nature and uncontrolled situations.,44,120,20","reminds me of Salvadore Dali,24,260,20","Sabrina","I love the way it expresses dark nature and uncontrolled situations.,44,120,20","Claire","reminds me of Salvadore Dali,24,260,20","Haley","I really enjoy the contrast of colors (blue/red/orange),30,220,20","3"
"13225","","survey-text","234","1443654","0.0-231.0-0.0","AWAW665TQQP2F","","","","{""Q0"":""This reminds me of an illustration in an old book""}","","","","","","","","","","","","","","","","","","","","","","",""
"5236.5","","image-slider-response","235","1448894","0.0-232.0","AWAW665TQQP2F","","","","","9","","","","","","","","","","","","","","","","","","","","","",""
"null","","image-button-response","236","1453899","0.0-233.0","AWAW665TQQP2F","img_art/10.jpg","null","","","","","","","","","","","","","","","","","","","","","","","","",""
"2111","","image-button-response","237","1456015","0.0-234.0","AWAW665TQQP2F","img_art/10.jpg","4","","","","","","","","","","","","","","","","","","","","","","","","",""
"916","","image-button-response","238","1456935","0.0-235.0-0.0","AWAW665TQQP2F","img_art/10.jpg","5","","","","","","","","","","","","","","","","","","","","","","","","",""
"6436","","image-button-response","239","1463374","0.0-236.0-0.0","AWAW665TQQP2F","img_art/10.jpg","3","","","","","","","","","","","","","","","","","","","","","","","","",""
"null","","html-keyboard-response","240","1463877","0.0-237.0","AWAW665TQQP2F","<p style=""font-size: 48px;"">+</p>","","","","","null","allTrialResponses","500","1","27","img_art/10.jpg","9","This reminds me of an illustration in an old book","Hailey,Sierra,Sydney,Haley,Sabrina,Claire","a fast racetrack. go, go, go,5,200,20","it just doesnt appeal to me.,-10,260,20","This piece is unusual in a way that makes me uncomfortable.,-5,320,20","Makes me want to know more about it, and potentially the artist.,20,220,20","I love the dark and edgy nature of this,50,120,20","it looks very musical,24,260,20","Sabrina","I love the dark and edgy nature of this,50,120,20","Claire","it looks very musical,24,260,20","Haley","Makes me want to know more about it, and potentially the artist.,20,220,20","3"
"16287","","survey-text","241","1480174","0.0-238.0-0.0","AWAW665TQQP2F","","","","{""Q0"":""This seems like a lot of confetti thrown down with a jagged mouth in it""}","","","","","","","","","","","","","","","","","","","","","","",""
"2252.9000000059605","","image-slider-response","242","1482430","0.0-239.0","AWAW665TQQP2F","","","","","-27","","","","","","","","","","","","","","","","","","","","","",""
"null","","image-button-response","243","1487435","0.0-240.0","AWAW665TQQP2F","img_art/23.jpg","null","","","","","","","","","","","","","","","","","","","","","","","","",""
"3200","","image-button-response","244","1490639","0.0-241.0","AWAW665TQQP2F","img_art/23.jpg","4","","","","","","","","","","","","","","","","","","","","","","","","",""
"4059","","image-button-response","245","1494703","0.0-242.0-0.0","AWAW665TQQP2F","img_art/23.jpg","1","","","","","","","","","","","","","","","","","","","","","","","","",""
"7043","","image-button-response","246","1501750","0.0-243.0-0.0","AWAW665TQQP2F","img_art/23.jpg","0","","","","","","","","","","","","","","","","","","","","","","","","",""
"null","","html-keyboard-response","247","1502754","0.0-244.0","AWAW665TQQP2F","<p style=""font-size: 48px;"">+</p>","","","","","null","allTrialResponses","1000","1","28","img_art/23.jpg","-27","This seems like a lot of confetti thrown down with a jagged mouth in it","Shannon,Hannah,Autumn,Haley,Sabrina,Claire","I really like the way all the colors look, I think this is a pretty picture.,40,220,20","This one is interesting. Looks like people with maybe musical instruments?,11,240,20","Awesome abstraction love it.,30,340,20","Beautiful. Very detailed and colorful. I enjoy looking at it.,50,220,20","I dont like the chaos of this,-20,120,20","the pattern is pleasing to the eye,28,260,20","Sabrina","I dont like the chaos of this,-20,120,20","Hannah","This one is interesting. Looks like people with maybe musical instruments?,11,240,20","Shannon","I really like the way all the colors look, I think this is a pretty picture.,40,220,20","3"
"17282","","survey-text","248","1520046","0.0-245.0-0.0","AWAW665TQQP2F","","","","{""Q0"":""Reminds me of a small village by the water""}","","","","","","","","","","","","","","","","","","","","","","",""
"4108.699999988079","","image-slider-response","249","1524158","0.0-246.0","AWAW665TQQP2F","","","","","24","","","","","","","","","","","","","","","","","","","","","",""
"null","","image-button-response","250","1529163","0.0-247.0","AWAW665TQQP2F","img_art/19.jpg","null","","","","","","","","","","","","","","","","","","","","","","","","",""
"2551","","image-button-response","251","1531719","0.0-248.0","AWAW665TQQP2F","img_art/19.jpg","4","","","","","","","","","","","","","","","","","","","","","","","","",""
"4868","","image-button-response","252","1536591","0.0-249.0-0.0","AWAW665TQQP2F","img_art/19.jpg","3","","","","","","","","","","","","","","","","","","","","","","","","",""
"779","","image-button-response","253","1537374","0.0-250.0-0.0","AWAW665TQQP2F","img_art/19.jpg","2","","","","","","","","","","","","","","","","","","","","","","","","",""
"null","","html-keyboard-response","254","1538377","0.0-251.0","AWAW665TQQP2F","<p style=""font-size: 48px;"">+</p>","","","","","null","allTrialResponses","1000","1","29","img_art/19.jpg","24","Reminds me of a small village by the water","Shannon,Hannah,Jessica,Miranda,Sabrina,Leslie","This looks like a bunch of weird blobs and the colors don't go great together.,-10,220,20","Just don't like this one.,-9,240,20","Vibrant and colorful,13,400,20","It looks cool but at the time looks like it was done by a talented 5 year old.,13,320,20","Gives a very open and freeing vibe,42,120,20","It's a cute city scene, but nothing special.,10,380,20","Sabrina","Gives a very open and freeing vibe,42,120,20","Miranda","It looks cool but at the time looks like it was done by a talented 5 year old.,13,320,20","Jessica","Vibrant and colorful,13,400,20","3"
"10757","","survey-text","255","1549141","0.0-252.0-0.0","AWAW665TQQP2F","","","","{""Q0"":""This is just paint on paint. Confusing.""}","","","","","","","","","","","","","","","","","","","","","","",""
"3276.7999999821186","","image-slider-response","256","1552422","0.0-253.0","AWAW665TQQP2F","","","","","-38","","","","","","","","","","","","","","","","","","","","","",""
"null","","image-button-response","257","1557427","0.0-254.0","AWAW665TQQP2F","img_art/2.jpg","null","","","","","","","","","","","","","","","","","","","","","","","","",""
"3607","","image-button-response","258","1561038","0.0-255.0","AWAW665TQQP2F","img_art/2.jpg","1","","","","","","","","","","","","","","","","","","","","","","","","",""
"3516","","image-button-response","259","1564559","0.0-256.0-0.0","AWAW665TQQP2F","img_art/2.jpg","5","","","","","","","","","","","","","","","","","","","","","","","","",""
"2483","","image-button-response","260","1567046","0.0-257.0-0.0","AWAW665TQQP2F","img_art/2.jpg","0","","","","","","","","","","","","","","","","","","","","","","","","",""
"null","","html-keyboard-response","261","1568549","0.0-258.0","AWAW665TQQP2F","<p style=""font-size: 48px;"">+</p>","","","","","null","allTrialResponses","1500","1","30","img_art/2.jpg","-38","This is just paint on paint. Confusing.","Jamie,Jasmine,Jessica,Miranda,Sabrina,Kathryn","Awful color coordination and design,-35,320,20","Color picks are a bad mesh with each other,-17,340,20","I don't get the meaning of this piece either.,-13,400,20","I don't really like this but at the same time it's cute. It looks like a little monster kid.,-9,320,20","I dont like the expression of this,-19,120,20","I think I'm put off by the clashing colors here. It feels discombobulated and sick.,-10,140,20","Jasmine","Color picks are a bad mesh with each other,-17,340,20","Kathryn","I think I'm put off by the clashing colors here. It feels discombobulated and sick.,-10,140,20","Jamie","Awful color coordination and design,-35,320,20","3"
"3483","","image-button-response_instructions","262","1572038","0.0-259.0","AWAW665TQQP2F","","0","instructions","","","","","","","","","","","","","","","","","","","","","","","",""
"1105","","image-button-response","263","1573150","0.0-260.0","AWAW665TQQP2F","","0","","","","","","","","","","","","","","","","","","","","","","","","",""
