"rt","url","trial_type","trial_index","time_elapsed","internal_node_id","participant_id","stimulus","button_pressed","Name","responses","response","key_press","variableName","fixationTime","condition","trial","photo","subjectRating","subjectResponse","agentsNames","agent_1_Response","agent_2_Response","agent_3_Response","agent_4_Response","agent_5_Response","agent_6_Response","kept_1_name","kept_1_response","kept_2_name","kept_2_response","kept_3_name","kept_3_response","errorCounter"
"893939","external_page_harvard.html","external-html","0","894120","0.0-0.0","AXHUS8TLNPP5I","","","","","","","","","","","","","","","","","","","","","","","","","","",""
"23682","","image-button-response","1","917805","0.0-1.0","AXHUS8TLNPP5I","","1","","","","","","","","","","","","","","","","","","","","","","","","",""
"2357","","image-button-response","2","920173","0.0-2.0-0.0","AXHUS8TLNPP5I","","1","phone","","","","","","","","","","","","","","","","","","","","","","","",""
"7141","","survey-text","3","927316","0.0-3.0-0.0","AXHUS8TLNPP5I","","","","{""Q0"":""AXHUS8TLNPP5I""}","","","","","","","","","","","","","","","","","","","","","","",""
"3287","","image-button-response_instructions","4","930605","0.0-4.0","AXHUS8TLNPP5I","","0","instructions","","","","","","","","","","","","","","","","","","","","","","","",""
"12299","","image-button-response_instructions","5","942911","0.0-5.0","AXHUS8TLNPP5I","img_art/ins/popularity/ins1.png","0","instructions","","","","","","","","","","","","","","","","","","","","","","","",""
"3626","","image-button-response_instructions","6","946540","0.0-6.0","AXHUS8TLNPP5I","img_art/ins/popularity/ins2.png","0","instructions","","","","","","","","","","","","","","","","","","","","","","","",""
"15510","","image-button-response_instructions","7","962056","0.0-7.0","AXHUS8TLNPP5I","img_art/ins/popularity/ins2Extreme.png","0","instructions","","","","","","","","","","","","","","","","","","","","","","","",""
"5130","","image-button-response_instructions","8","967188","0.0-8.0","AXHUS8TLNPP5I","img_art/ins/popularity/ins3KEEPpop.PNG","0","instructions","","","","","","","","","","","","","","","","","","","","","","","",""
"2790","","image-button-response_instructions","9","969979","0.0-9.0","AXHUS8TLNPP5I","img_art/ins/popularity/ins3ANamepop.PNG","0","instructions","","","","","","","","","","","","","","","","","","","","","","","",""
"1607","","image-button-response_instructions","10","971588","0.0-10.0","AXHUS8TLNPP5I","img_art/ins/popularity/ins3ARatingpop.png","0","instructions","","","","","","","","","","","","","","","","","","","","","","","",""
"1501","","image-button-response_instructions","11","973092","0.0-11.0","AXHUS8TLNPP5I","img_art/ins/popularity/ins3ATextpop.png","0","instructions","","","","","","","","","","","","","","","","","","","","","","","",""
"4198","","image-button-response_instructions","12","977291","0.0-12.0","AXHUS8TLNPP5I","img_art/ins/popularity/ins3ALikespop.png","0","instructions","","","","","","","","","","","","","","","","","","","","","","","",""
"6589","","image-button-response_instructions","13","983883","0.0-13.0","AXHUS8TLNPP5I","img_art/ins/popularity/ins3KEEPpop.PNG","0","instructions","","","","","","","","","","","","","","","","","","","","","","","",""
"4670","","image-button-response_instructions","14","988555","0.0-14.0","AXHUS8TLNPP5I","img_art/ins/popularity/ins3_5RED.png","0","instructions","","","","","","","","","","","","","","","","","","","","","","","",""
"1782","","image-button-response_instructions","15","990339","0.0-15.0","AXHUS8TLNPP5I","img_art/ins/popularity/ins3KEEPpop.PNG","0","instructions","","","","","","","","","","","","","","","","","","","","","","","",""
"1549","","image-button-response_instructions","16","991890","0.0-16.0","AXHUS8TLNPP5I","img_art/ins/popularity/ins4KEEPpop.PNG","0","instructions","","","","","","","","","","","","","","","","","","","","","","","",""
"2341","","image-button-response_instructions","17","994234","0.0-17.0","AXHUS8TLNPP5I","img_art/ins/popularity/ins5KEEPpop.PNG","0","instructions","","","","","","","","","","","","","","","","","","","","","","","",""
"1720","","image-button-response_instructions","18","995955","0.0-18.0","AXHUS8TLNPP5I","","0","instructions","","","","","","","","","","","","","","","","","","","","","","","",""
"8852","","survey-text","19","1004842","0.0-19.0-0.0","AXHUS8TLNPP5I","","","","{""Q0"":""but""}","","","","","","","","","","","","","","","","","","","","","","",""
"10031","","survey-text","20","1014874","0.0-20.0-0.0","AXHUS8TLNPP5I","","","","{""Q0"":""light and airy""}","","","","","","","","","","","","","","","","","","","","","","",""
"7054","","image-slider-response","21","1021930","0.0-21.0","AXHUS8TLNPP5I","","","","","30","","","","","","","","","","","","","","","","","","","","","",""
"null","","image-button-response","22","1026944","0.0-22.0","AXHUS8TLNPP5I","img_art/ins/1.jpg","null","","","","","","","","","","","","","","","","","","","","","","","","",""
"7488","","image-button-response","23","1034434","0.0-23.0","AXHUS8TLNPP5I","img_art/ins/1.jpg","5","","","","","","","","","","","","","","","","","","","","","","","","",""
"2028","","image-button-response","24","1036466","0.0-24.0-0.0","AXHUS8TLNPP5I","img_art/ins/1.jpg","0","","","","","","","","","","","","","","","","","","","","","","","","",""
"2814","","image-button-response","25","1039282","0.0-25.0-0.0","AXHUS8TLNPP5I","img_art/ins/1.jpg","4","","","","","","","","","","","","","","","","","","","","","","","","",""
"null","","html-keyboard-response","26","1040290","0.0-26.0","AXHUS8TLNPP5I","<p style=""font-size: 48px;"">+</p>","","","","","null","allTrialResponses","1000","1","-2","img_art/ins/1.jpg","30","light and airy","Allison,Ashley,Beth,Dora,Erika,Jen","looks like a lot of things going on in the mist,20,20,20","I just don't get why these type of art would be popular,-32,40,20","This color reminds me of poo,-46,60,20","looks like what my niece in 3rd grade did this afternoon,-50,80,20","I like the sophisticated brushwork,40,100,20","It reminds me of a candy land dream I had,36,120,20","Jen","It reminds me of a candy land dream I had,36,120,20","Allison","looks like a lot of things going on in the mist,20,20,20","Erika","I like the sophisticated brushwork,40,100,20","0"
"1220668","","survey-text","27","2260971","0.0-27.0-0.0","AXHUS8TLNPP5I","","","","{""Q0"":""looks like a mack truck coming at me through the rain""}","","","","","","","","","","","","","","","","","","","","","","",""
"3226","","image-slider-response","28","2264202","0.0-28.0","AXHUS8TLNPP5I","","","","","24","","","","","","","","","","","","","","","","","","","","","",""
"null","","image-button-response","29","2269208","0.0-29.0","AXHUS8TLNPP5I","img_art/ins/2.jpg","null","","","","","","","","","","","","","","","","","","","","","","","","",""
"5199","","image-button-response","30","2274410","0.0-30.0","AXHUS8TLNPP5I","img_art/ins/2.jpg","1","","","","","","","","","","","","","","","","","","","","","","","","",""
"9388","","image-button-response","31","2283802","0.0-31.0-0.0","AXHUS8TLNPP5I","img_art/ins/2.jpg","4","","","","","","","","","","","","","","","","","","","","","","","","",""
"8430","","image-button-response","32","2292234","0.0-32.0-0.0","AXHUS8TLNPP5I","img_art/ins/2.jpg","5","","","","","","","","","","","","","","","","","","","","","","","","",""
"null","","html-keyboard-response","33","2293749","0.0-33.0","AXHUS8TLNPP5I","<p style=""font-size: 48px;"">+</p>","","","","","null","allTrialResponses","1500","1","-1","img_art/ins/2.jpg","24","looks like a mack truck coming at me through the rain","Allison,Kara,Katie,Jenna,Erika,Jen","I don't have strong feelings about this,10,20,20","I like the blocks of color arrangements,30,160,20","too much color!,-28,180,20","One of my pet peevs,-48,140,20","I would never be able to compose a sophisticated pallete like this,48,100,20","It reminds me of a fireplace,36,120,20","Kara","I like the blocks of color arrangements,30,160,20","Erika","I would never be able to compose a sophisticated pallete like this,48,100,20","Jen","It reminds me of a fireplace,36,120,20","0"
"16286","","survey-text","34","2310081","0.0-34.0-0.0","AXHUS8TLNPP5I","","","","{""Q0"":""Nice and cool, like ice""}","","","","","","","","","","","","","","","","","","","","","","",""
"4365","","image-slider-response","35","2314449","0.0-35.0","AXHUS8TLNPP5I","","","","","36","","","","","","","","","","","","","","","","","","","","","",""
"2989","","image-button-response","36","2319458","0.0-36.0","AXHUS8TLNPP5I","img_art/ins/3.jpg","1","","","","","","","","","","","","","","","","","","","","","","","","",""
"2957","","image-button-response","37","2322418","0.0-37.0","AXHUS8TLNPP5I","img_art/ins/3.jpg","5","","","","","","","","","","","","","","","","","","","","","","","","",""
"2283","","image-button-response","38","2324705","0.0-38.0-0.0","AXHUS8TLNPP5I","img_art/ins/3.jpg","1","","","","","","","","","","","","","","","","","","","","","","","","",""
"1830","","image-button-response","39","2326538","0.0-39.0-0.0","AXHUS8TLNPP5I","img_art/ins/3.jpg","3","","","","","","","","","","","","","","","","","","","","","","","","",""
"null","","html-keyboard-response","40","2327540","0.0-40.0","AXHUS8TLNPP5I","<p style=""font-size: 48px;"">+</p>","","","","","null","allTrialResponses","1000","1","0","img_art/ins/3.jpg","36","Nice and cool, like ice","Mary,Kara,Rose,Leslie,Erika,Jen","I like the overlapping of brushes,41,220,20","calming blue is very nice,36,160,20","My daily routine, it's depressing,-20,240,20","It's an alright work,15,200,20","I feel connected to the artist,40,100,20","I can feel a rainy day from this painting,18,120,20","Jen","I can feel a rainy day from this painting,18,120,20","Kara","calming blue is very nice,36,160,20","Leslie","It's an alright work,15,200,20","0"
"104807","","image-button-response_instructions","41","2432360","0.0-41.0","AXHUS8TLNPP5I","","0","instructions","","","","","","","","","","","","","","","","","","","","","","","",""
"12872","","survey-likert","42","2445258","0.0-42.0-0.0","AXHUS8TLNPP5I","","","","{""Q0"":"""",""Q1"":0,""Q2"":1}","","","","","","","","","","","","","","","","","","","","","","",""
"5485","","survey-text","43","2450751","0.0-43.0-0.0","AXHUS8TLNPP5I","","","","{""Q0"":""rock""}","","","","","","","","","","","","","","","","","","","","","","",""
"21031","","survey-text","44","2471783","0.0-44.0-0.0","AXHUS8TLNPP5I","","","","{""Q0"":""Beautiful, like a curvy cityscape""}","","","","","","","","","","","","","","","","","","","","","","",""
"3620","","image-slider-response","45","2475406","0.0-45.0","AXHUS8TLNPP5I","","","","","33","","","","","","","","","","","","","","","","","","","","","",""
"null","","image-button-response","46","2480446","0.0-46.0","AXHUS8TLNPP5I","img_art/11.jpg","null","","","","","","","","","","","","","","","","","","","","","","","","",""
"7103","","image-button-response","47","2487551","0.0-47.0","AXHUS8TLNPP5I","img_art/11.jpg","3","","","","","","","","","","","","","","","","","","","","","","","","",""
"2254","","image-button-response","48","2489807","0.0-48.0-0.0","AXHUS8TLNPP5I","img_art/11.jpg","5","","","","","","","","","","","","","","","","","","","","","","","","",""
"4589","","image-button-response","49","2494398","0.0-49.0-0.0","AXHUS8TLNPP5I","img_art/11.jpg","2","","","","","","","","","","","","","","","","","","","","","","","","",""
"null","","html-keyboard-response","50","2495903","0.0-50.0","AXHUS8TLNPP5I","<p style=""font-size: 48px;"">+</p>","","","","","null","allTrialResponses","1500","1","1","img_art/11.jpg","33","Beautiful, like a curvy cityscape","Alexa,Katherine,Chelsea,Alicia,Katie,Danielle","There's a lot going on in this painting but it is pleasing and neat looking,31,40,20","Makes me feel like my vision is breaking,19,120,20","I like the harsh black lines against a soft background.,27,180,20","dna, odd but nice.,25,120,20","Dark and dreary. Makes me think of rain/water. I see grey clouds and high waves. Looks unsettling.,-20,160,20","Reminds me of some of post-apocalyptic view of street lights or maybe a city,30,340,20","Alicia","dna, odd but nice.,25,120,20","Danielle","Reminds me of some of post-apocalyptic view of street lights or maybe a city,30,340,20","Chelsea","I like the harsh black lines against a soft background.,27,180,20","0"
"38656","","survey-text","51","2534581","0.0-51.0-0.0","AXHUS8TLNPP5I","","","","{""Q0"":""way too busy for me, looks like a painting that someone's kid added marker to""}","","","","","","","","","","","","","","","","","","","","","","",""
"4302","","image-slider-response","52","2538886","0.0-52.0","AXHUS8TLNPP5I","","","","","36","","","","","","","","","","","","","","","","","","","","","",""
"null","","image-button-response","53","2543898","0.0-53.0","AXHUS8TLNPP5I","img_art/27.jpg","null","","","","","","","","","","","","","","","","","","","","","","","","",""
"1850","","image-button-response","54","2545749","0.0-54.0","AXHUS8TLNPP5I","img_art/27.jpg","2","","","","","","","","","","","","","","","","","","","","","","","","",""
"2671","","image-button-response","55","2548422","0.0-55.0-0.0","AXHUS8TLNPP5I","img_art/27.jpg","4","","","","","","","","","","","","","","","","","","","","","","","","",""
"7357","","image-button-response","56","2555781","0.0-56.0-0.0","AXHUS8TLNPP5I","img_art/27.jpg","1","","","","","","","","","","","","","","","","","","","","","","","","",""
"null","","html-keyboard-response","57","2557288","0.0-57.0","AXHUS8TLNPP5I","<p style=""font-size: 48px;"">+</p>","","","","","null","allTrialResponses","1500","1","2","img_art/27.jpg","36","way too busy for me, looks like a painting that someone's kid added marker to","Alyssa,Mackenzie,Chelsea,Alicia,Kaylee,Danielle","Looks as if a toddler painted it,-20,160,20","The color palette isn't my taste,-24,20,20","The green lines look like a child drew over a painting.,-36,180,20","dont like it, don't hate it, meh.,2,120,20","nice firestorm on desert,23,200,20","Looks a bit like a child's project with unsatisfying colors,-31,340,20","Chelsea","The green lines look like a child drew over a painting.,-36,180,20","Kaylee","nice firestorm on desert,23,200,20","Mackenzie","The color palette isn't my taste,-24,20,20","0"
"54205","","survey-text","58","2611509","0.0-58.0-0.0","AXHUS8TLNPP5I","","","","{""Q0"":""I love the soft ordered background and the disorder of the foreground, nice contrast""}","","","","","","","","","","","","","","","","","","","","","","",""
"4462","","image-slider-response","59","2615973","0.0-59.0","AXHUS8TLNPP5I","","","","","39","","","","","","","","","","","","","","","","","","","","","",""
"4429","","image-button-response","60","2620979","0.0-60.0","AXHUS8TLNPP5I","img_art/13.jpg","1","","","","","","","","","","","","","","","","","","","","","","","","",""
"1239","","image-button-response","61","2622221","0.0-61.0","AXHUS8TLNPP5I","img_art/13.jpg","3","","","","","","","","","","","","","","","","","","","","","","","","",""
"8190","","image-button-response","62","2630413","0.0-62.0-0.0","AXHUS8TLNPP5I","img_art/13.jpg","1","","","","","","","","","","","","","","","","","","","","","","","","",""
"517","","image-button-response","63","2630932","0.0-63.0-0.0","AXHUS8TLNPP5I","img_art/13.jpg","0","","","","","","","","","","","","","","","","","","","","","","","","",""
"null","","html-keyboard-response","64","2631439","0.0-64.0","AXHUS8TLNPP5I","<p style=""font-size: 48px;"">+</p>","","","","","null","allTrialResponses","500","1","3","img_art/13.jpg","39","I love the soft ordered background and the disorder of the foreground, nice contrast","Margaret,Mackenzie,Chelsea,Victoria,Kaylee,Gabrielle","i like the splatters and the colors,21,100,20","I enjoy the cool colors mixed together,31,20,20","The colors are okay but I don't like the shapes here.,-18,180,20","reminds me of rain,36,400,20","its crazy to the point that i cant get it,-28,200,20","kind of like the pattern and colors but don't love it,13,160,20","Victoria","reminds me of rain,36,400,20","Mackenzie","I enjoy the cool colors mixed together,31,20,20","Margaret","i like the splatters and the colors,21,100,20","0"
"44009","","survey-text","65","2675468","0.0-65.0-0.0","AXHUS8TLNPP5I","","","","{""Q0"":""looks like Death riding into the midst of chaos""}","","","","","","","","","","","","","","","","","","","","","","",""
"6622","","image-slider-response","66","2682092","0.0-66.0","AXHUS8TLNPP5I","","","","","1","","","","","","","","","","","","","","","","","","","","","",""
"3214","","image-button-response","67","2687096","0.0-67.0","AXHUS8TLNPP5I","img_art/18.jpg","1","","","","","","","","","","","","","","","","","","","","","","","","",""
"1345","","image-button-response","68","2688444","0.0-68.0","AXHUS8TLNPP5I","img_art/18.jpg","1","","","","","","","","","","","","","","","","","","","","","","","","",""
"1246","","image-button-response","69","2689692","0.0-69.0-0.0","AXHUS8TLNPP5I","img_art/18.jpg","4","","","","","","","","","","","","","","","","","","","","","","","","",""
"5214","","image-button-response","70","2694908","0.0-70.0-0.0","AXHUS8TLNPP5I","img_art/18.jpg","3","","","","","","","","","","","","","","","","","","","","","","","","",""
"null","","html-keyboard-response","71","2696410","0.0-71.0","AXHUS8TLNPP5I","<p style=""font-size: 48px;"">+</p>","","","","","null","allTrialResponses","1500","1","4","img_art/18.jpg","1","looks like Death riding into the midst of chaos","Margaret,Mackenzie,Sydney,Victoria,Sabrina,Christina","reminds me of dying at sea in the 1700s,-8,100,20","The shapes are very fun to interpret,30,20,20","I like the colors being used, but I don't like the chaos in the middle of it.,20,320,20","Makes me think of stormy oceans,20,400,20","I love the battle vibe in this,50,120,20","it looks dreary and not uplifting,-10,240,20","Mackenzie","The shapes are very fun to interpret,30,20,20","Sabrina","I love the battle vibe in this,50,120,20","Victoria","Makes me think of stormy oceans,20,400,20","0"
"38383","","survey-text","72","2734811","0.0-72.0-0.0","AXHUS8TLNPP5I","","","","{""Q0"":""this looks more like a close up photo of a fossil than a work of art""}","","","","","","","","","","","","","","","","","","","","","","",""
"4183","","image-slider-response","73","2738995","0.0-73.0","AXHUS8TLNPP5I","","","","","-27","","","","","","","","","","","","","","","","","","","","","",""
"null","","image-button-response","74","2744006","0.0-74.0","AXHUS8TLNPP5I","img_art/7.jpg","null","","","","","","","","","","","","","","","","","","","","","","","","",""
"5851","","image-button-response","75","2749859","0.0-75.0","AXHUS8TLNPP5I","img_art/7.jpg","3","","","","","","","","","","","","","","","","","","","","","","","","",""
"1011","","image-button-response","76","2750873","0.0-76.0-0.0","AXHUS8TLNPP5I","img_art/7.jpg","1","","","","","","","","","","","","","","","","","","","","","","","","",""
"1624","","image-button-response","77","2752499","0.0-77.0-0.0","AXHUS8TLNPP5I","img_art/7.jpg","0","","","","","","","","","","","","","","","","","","","","","","","","",""
"null","","html-keyboard-response","78","2753517","0.0-78.0","AXHUS8TLNPP5I","<p style=""font-size: 48px;"">+</p>","","","","","null","allTrialResponses","1000","1","5","img_art/7.jpg","-27","this looks more like a close up photo of a fossil than a work of art","Claire,Mackenzie,Amber,Victoria,Sabrina,Cassandra","reminds me of a cave wall,-21,260,20","Is simple in color and texture,11,20,20","Dull and confusing,-24,200,20","looks like a photograph,-4,400,20","Not getting the vibe i would like from this,-30,120,20","Just neutral...looks like sand at the beach.,3,120,20","Victoria","looks like a photograph,-4,400,20","Mackenzie","Is simple in color and texture,11,20,20","Claire","reminds me of a cave wall,-21,260,20","0"
"4659","","survey-text","79","2758203","0.0-79.0-0.0","AXHUS8TLNPP5I","","","","{""Q0"":""sky""}","","","","","","","","","","","","","","","","","","","","","","",""
"22966","","survey-text","80","2781170","0.0-80.0-0.0","AXHUS8TLNPP5I","","","","{""Q0"":""beautiful flowing lines and colors""}","","","","","","","","","","","","","","","","","","","","","","",""
"3934","","image-slider-response","81","2785107","0.0-81.0","AXHUS8TLNPP5I","","","","","50","","","","","","","","","","","","","","","","","","","","","",""
"4878","","image-button-response","82","2790116","0.0-82.0","AXHUS8TLNPP5I","img_art/17.jpg","1","","","","","","","","","","","","","","","","","","","","","","","","",""
"2419","","image-button-response","83","2792538","0.0-83.0","AXHUS8TLNPP5I","img_art/17.jpg","4","","","","","","","","","","","","","","","","","","","","","","","","",""
"2830","","image-button-response","84","2795371","0.0-84.0-0.0","AXHUS8TLNPP5I","img_art/17.jpg","3","","","","","","","","","","","","","","","","","","","","","","","","",""
"6614","","image-button-response","85","2801986","0.0-85.0-0.0","AXHUS8TLNPP5I","img_art/17.jpg","0","","","","","","","","","","","","","","","","","","","","","","","","",""
"null","","html-keyboard-response","86","2802491","0.0-86.0","AXHUS8TLNPP5I","<p style=""font-size: 48px;"">+</p>","","","","","null","allTrialResponses","500","1","6","img_art/17.jpg","50","beautiful flowing lines and colors","Claire,Mackenzie,Kimberly,Victoria,Isabella,Jennifer","its whimsical and light,50,260,20","Very fun textures,32,20,20","I like the trees, but the doors less so,19,260,20","love the wispyness of it,34,400,20","Pleasant fall to winter day,22,280,20","Very elegant, this design reminds me of trees,31,380,20","Isabella","Pleasant fall to winter day,22,280,20","Victoria","love the wispyness of it,34,400,20","Claire","its whimsical and light,50,260,20","0"
"44709","","survey-text","87","2847209","0.0-87.0-0.0","AXHUS8TLNPP5I","","","","{""Q0"":""SO MUCH going on here....could analyze it for hours""}","","","","","","","","","","","","","","","","","","","","","","",""
"4166","","image-slider-response","88","2851378","0.0-88.0","AXHUS8TLNPP5I","","","","","-1","","","","","","","","","","","","","","","","","","","","","",""
"null","","image-button-response","89","2856380","0.0-89.0","AXHUS8TLNPP5I","img_art/14.jpg","null","","","","","","","","","","","","","","","","","","","","","","","","",""
"4533","","image-button-response","90","2860913","0.0-90.0","AXHUS8TLNPP5I","img_art/14.jpg","2","","","","","","","","","","","","","","","","","","","","","","","","",""
"2190","","image-button-response","91","2863105","0.0-91.0-0.0","AXHUS8TLNPP5I","img_art/14.jpg","0","","","","","","","","","","","","","","","","","","","","","","","","",""
"2661","","image-button-response","92","2865769","0.0-92.0-0.0","AXHUS8TLNPP5I","img_art/14.jpg","0","","","","","","","","","","","","","","","","","","","","","","","","",""
"3490","","image-button-response","93","2874743","0.0-92.1-0.1","AXHUS8TLNPP5I","img_art/14.jpg","0","","","","","","","","","","","","","","","","","","","","","","","","",""
"8480","","image-button-response","94","2885808","0.0-92.2-0.2","AXHUS8TLNPP5I","img_art/14.jpg","5","","","","","","","","","","","","","","","","","","","","","","","","",""
"null","","html-keyboard-response","95","2886821","0.0-93.0","AXHUS8TLNPP5I","<p style=""font-size: 48px;"">+</p>","","","","","null","allTrialResponses","1000","1","7","img_art/14.jpg","-1","SO MUCH going on here....could analyze it for hours","Claire,Chloe,Erica,Victoria,Isabella,Jordan","mythical and nature like,37,260,20","Like the brushstrokes but not the composition,9,220,20","positive colours, makes me to look at it and investigate what is going on,27,80,20","calming to look at,37,400,20","Feels like a camp fire among friends,22,280,20","this one isn't bad, reminds me a tree that gives life, and people are waiting for someone new to be born,27,20,20","Erica","positive colours, makes me to look at it and investigate what is going on,27,80,20","Claire","mythical and nature like,37,260,20","Jordan","this one isn't bad, reminds me a tree that gives life, and people are waiting for someone new to be born,27,20,20","4"
"23351","","survey-text","96","2910183","0.0-94.0-0.0","AXHUS8TLNPP5I","","","","{""Q0"":""melancholy, lonely, great colors though""}","","","","","","","","","","","","","","","","","","","","","","",""
"5605","","image-slider-response","97","2915791","0.0-95.0","AXHUS8TLNPP5I","","","","","-2","","","","","","","","","","","","","","","","","","","","","",""
"4503","","image-button-response","98","2920809","0.0-96.0","AXHUS8TLNPP5I","img_art/6.jpg","1","","","","","","","","","","","","","","","","","","","","","","","","",""
"5683","","image-button-response","99","2926495","0.0-97.0","AXHUS8TLNPP5I","img_art/6.jpg","5","","","","","","","","","","","","","","","","","","","","","","","","",""
"3510","","image-button-response","100","2930007","0.0-98.0-0.0","AXHUS8TLNPP5I","img_art/6.jpg","0","","","","","","","","","","","","","","","","","","","","","","","","",""
"5630","","image-button-response","101","2935638","0.0-99.0-0.0","AXHUS8TLNPP5I","img_art/6.jpg","1","","","","","","","","","","","","","","","","","","","","","","","","",""
"null","","html-keyboard-response","102","2937143","0.0-100.0","AXHUS8TLNPP5I","<p style=""font-size: 48px;"">+</p>","","","","","null","allTrialResponses","1500","1","8","img_art/6.jpg","-2","melancholy, lonely, great colors though","Claire,Maria,Erica,Nicole,Cynthia,Jordan","very minimalistic,22,260,20","intrigues me - not sure what I'm seeing, but I like combination of colour and texture,21,120,20","positive because of bright colours and a bird,20,80,20","The colors and rough brush strokes make me nervous,-10,20,20","seeds of change,11,320,20","This is interesting, I feel solitude, and loneliness from this.,13,20,20","Jordan","This is interesting, I feel solitude, and loneliness from this.,13,20,20","Claire","very minimalistic,22,260,20","Maria","intrigues me - not sure what I'm seeing, but I like combination of colour and texture,21,120,20","4"
"21782","","survey-text","103","2958933","0.0-101.0-0.0","AXHUS8TLNPP5I","","","","{""Q0"":""artistic expression of confusion""}","","","","","","","","","","","","","","","","","","","","","","",""
"3573","","image-slider-response","104","2962509","0.0-102.0","AXHUS8TLNPP5I","","","","","-25","","","","","","","","","","","","","","","","","","","","","",""
"null","","image-button-response","105","2967526","0.0-103.0","AXHUS8TLNPP5I","img_art/29.jpg","null","","","","","","","","","","","","","","","","","","","","","","","","",""
"6029","","image-button-response","106","2973556","0.0-104.0","AXHUS8TLNPP5I","img_art/29.jpg","5","","","","","","","","","","","","","","","","","","","","","","","","",""
"21973","","image-button-response","107","2995532","0.0-105.0-0.0","AXHUS8TLNPP5I","img_art/29.jpg","0","","","","","","","","","","","","","","","","","","","","","","","","",""
"4445","","image-button-response","108","2999980","0.0-106.0-0.0","AXHUS8TLNPP5I","img_art/29.jpg","4","","","","","","","","","","","","","","","","","","","","","","","","",""
"null","","html-keyboard-response","109","3001493","0.0-107.0","AXHUS8TLNPP5I","<p style=""font-size: 48px;"">+</p>","","","","","null","allTrialResponses","1500","1","9","img_art/29.jpg","-25","artistic expression of confusion","Claire,Maria,Amy,Emily,Emma,Jordan","interesting, but I wouldn't put it on my wall,8,260,20","the mixed medium / collage annoys me,-19,120,20","The textures bring this painting alive. A window to another existence with infinite possibility.,25,220,20","Looks literally like garbage.,-45,40,20","Feels messy, stressful,-22,60,20","Yeah, I don't know. It's clearly a situation where art is the reject of something more,-27,20,20","Jordan","Yeah, I don't know. It's clearly a situation where art is the reject of something more,-27,20,20","Claire","interesting, but I wouldn't put it on my wall,8,260,20","Emma","Feels messy, stressful,-22,60,20","4"
"30631","","survey-text","110","3032137","0.0-108.0-0.0","AXHUS8TLNPP5I","","","","{""Q0"":""remids me of people dancing in the street at a colorful festival""}","","","","","","","","","","","","","","","","","","","","","","",""
"2558","","image-slider-response","111","3034698","0.0-109.0","AXHUS8TLNPP5I","","","","","18","","","","","","","","","","","","","","","","","","","","","",""
"4046","","image-button-response","112","3039719","0.0-110.0","AXHUS8TLNPP5I","img_art/23.jpg","3","","","","","","","","","","","","","","","","","","","","","","","","",""
"1009","","image-button-response","113","3040730","0.0-111.0","AXHUS8TLNPP5I","img_art/23.jpg","3","","","","","","","","","","","","","","","","","","","","","","","","",""
"4462","","image-button-response","114","3045193","0.0-112.0-0.0","AXHUS8TLNPP5I","img_art/23.jpg","2","","","","","","","","","","","","","","","","","","","","","","","","",""
"2030","","image-button-response","115","3047226","0.0-113.0-0.0","AXHUS8TLNPP5I","img_art/23.jpg","4","","","","","","","","","","","","","","","","","","","","","","","","",""
"null","","html-keyboard-response","116","3047737","0.0-114.0","AXHUS8TLNPP5I","<p style=""font-size: 48px;"">+</p>","","","","","null","allTrialResponses","500","1","10","img_art/23.jpg","18","remids me of people dancing in the street at a colorful festival","Claire,Elizabeth,Tiffany,Marissa,Emma,Jordan","the pattern is pleasing to the eye,28,260,20","Fantastic blend of color and forms,43,20,20","I feel happy and a little excited. Like watching fireworks with family.,26,360,20","It feels exciting,23,160,20","Love the use of colors and light,50,60,20","NO, I don't get it,-50,20,20","Marissa","It feels exciting,23,160,20","Tiffany","I feel happy and a little excited. Like watching fireworks with family.,26,360,20","Emma","Love the use of colors and light,50,60,20","4"
"4479","","survey-text","117","3052233","0.0-115.0-0.0","AXHUS8TLNPP5I","","","","{""Q0"":""our""}","","","","","","","","","","","","","","","","","","","","","","",""
"29829","","survey-text","118","3082064","0.0-116.0-0.0","AXHUS8TLNPP5I","","","","{""Q0"":""very ordered, fun to look for shapes ""}","","","","","","","","","","","","","","","","","","","","","","",""
"3213","","image-slider-response","119","3085280","0.0-117.0","AXHUS8TLNPP5I","","","","","-5","","","","","","","","","","","","","","","","","","","","","",""
"null","","image-button-response","120","3090294","0.0-118.0","AXHUS8TLNPP5I","img_art/12.jpg","null","","","","","","","","","","","","","","","","","","","","","","","","",""
"984","","image-button-response","121","3091279","0.0-119.0","AXHUS8TLNPP5I","img_art/12.jpg","3","","","","","","","","","","","","","","","","","","","","","","","","",""
"5053","","image-button-response","122","3096335","0.0-120.0-0.0","AXHUS8TLNPP5I","img_art/12.jpg","5","","","","","","","","","","","","","","","","","","","","","","","","",""
"7245","","image-button-response","123","3103583","0.0-121.0-0.0","AXHUS8TLNPP5I","img_art/12.jpg","0","","","","","","","","","","","","","","","","","","","","","","","","",""
"null","","html-keyboard-response","124","3105095","0.0-122.0","AXHUS8TLNPP5I","<p style=""font-size: 48px;"">+</p>","","","","","null","allTrialResponses","1500","1","11","img_art/12.jpg","-5","very ordered, fun to look for shapes ","Andrea,Kaitlin,Tiffany,Marissa,Emma,Madison","It just feels like a jigsaw puzzle,-4,240,20","too much - just overcrowded,-20,60,20","The painting makes me uncomfortable. The smears in the boxes feel like a giant mess.,-16,360,20","It reminds me of the documentary Paris is Burning, though I'm not sure why,11,160,20","Pretty but not a huge fan of the colors,20,60,20","Different enough to be memorable. The gradient of hues is appealing and appeasing.,32,60,20","Marissa","It reminds me of the documentary Paris is Burning, though I'm not sure why,11,160,20","Madison","Different enough to be memorable. The gradient of hues is appealing and appeasing.,32,60,20","Andrea","It just feels like a jigsaw puzzle,-4,240,20","4"
"17637","","survey-text","125","3122742","0.0-123.0-0.0","AXHUS8TLNPP5I","","","","{""Q0"":""looks like graffiti art""}","","","","","","","","","","","","","","","","","","","","","","",""
"6589","","image-slider-response","126","3129333","0.0-124.0","AXHUS8TLNPP5I","","","","","3","","","","","","","","","","","","","","","","","","","","","",""
"3965","","image-button-response","127","3134348","0.0-125.0","AXHUS8TLNPP5I","img_art/30.jpg","3","","","","","","","","","","","","","","","","","","","","","","","","",""
"911","","image-button-response","128","3135262","0.0-126.0","AXHUS8TLNPP5I","img_art/30.jpg","4","","","","","","","","","","","","","","","","","","","","","","","","",""
"877","","image-button-response","129","3136158","0.0-127.0-0.0","AXHUS8TLNPP5I","img_art/30.jpg","3","","","","","","","","","","","","","","","","","","","","","","","","",""
"6286","","image-button-response","130","3142445","0.0-128.0-0.0","AXHUS8TLNPP5I","img_art/30.jpg","1","","","","","","","","","","","","","","","","","","","","","","","","",""
"null","","html-keyboard-response","131","3143449","0.0-129.0","AXHUS8TLNPP5I","<p style=""font-size: 48px;"">+</p>","","","","","null","allTrialResponses","1000","1","12","img_art/30.jpg","3","looks like graffiti art","Andrea,Leah,Molly,Marissa,Diana,Madison","It feels like graffiti and the dark colors do nothing for the mood.,-5,240,20","Interesting, almost an underworld of plant life,11,360,20","I like the way the artist has painted his work.,40,340,20","I really like the broad and colorful strokes,21,160,20","I love the color contrast of the red against the blue.,9,380,20","Interesting brushstroke work, but not particularly memorable.,21,60,20","Diana","I love the color contrast of the red against the blue.,9,380,20","Marissa","I really like the broad and colorful strokes,21,160,20","Leah","Interesting, almost an underworld of plant life,11,360,20","4"
"23492","","survey-text","132","3166973","0.0-130.0-0.0","AXHUS8TLNPP5I","","","","{""Q0"":""wow...SOOO much going on in this picture...""}","","","","","","","","","","","","","","","","","","","","","","",""
"3318","","image-slider-response","133","3170292","0.0-131.0","AXHUS8TLNPP5I","","","","","50","","","","","","","","","","","","","","","","","","","","","",""
"null","","image-button-response","134","3175306","0.0-132.0","AXHUS8TLNPP5I","img_art/8.jpg","null","","","","","","","","","","","","","","","","","","","","","","","","",""
"4298","","image-button-response","135","3179605","0.0-133.0","AXHUS8TLNPP5I","img_art/8.jpg","5","","","","","","","","","","","","","","","","","","","","","","","","",""
"1895","","image-button-response","136","3181500","0.0-134.0-0.0","AXHUS8TLNPP5I","img_art/8.jpg","2","","","","","","","","","","","","","","","","","","","","","","","","",""
"1861","","image-button-response","137","3183364","0.0-135.0-0.0","AXHUS8TLNPP5I","img_art/8.jpg","0","","","","","","","","","","","","","","","","","","","","","","","","",""
"null","","html-keyboard-response","138","3184875","0.0-136.0","AXHUS8TLNPP5I","<p style=""font-size: 48px;"">+</p>","","","","","null","allTrialResponses","1500","1","13","img_art/8.jpg","50","wow...SOOO much going on in this picture...","Melissa,Leah,Courtney,Marissa,Diana,Lauren","crisp shapes, find more things the longer you look,17,240,20","Nice formats, I just don't like it much,-16,360,20","Now that one is wild. Looks like maybe mother nature isnt happy.,28,280,20","I can't tell if this is supposed to portray just city life or a town crumbling,-5,160,20","I don't care for the piece, but I appreciate the talent that it took to create it.,22,380,20","I like how the piece is showcasing emotion in relation to something.,25,340,20","Lauren","I like how the piece is showcasing emotion in relation to something.,25,340,20","Courtney","Now that one is wild. Looks like maybe mother nature isnt happy.,28,280,20","Melissa","crisp shapes, find more things the longer you look,17,240,20","4"
"37411","","survey-text","139","3222298","0.0-137.0-0.0","AXHUS8TLNPP5I","","","","{""Q0"":""Beutiful colors, not sure about the picture though""}","","","","","","","","","","","","","","","","","","","","","","",""
"3310","","image-slider-response","140","3225611","0.0-138.0","AXHUS8TLNPP5I","","","","","5","","","","","","","","","","","","","","","","","","","","","",""
"null","","image-button-response","141","3230615","0.0-139.0","AXHUS8TLNPP5I","img_art/25.jpg","null","","","","","","","","","","","","","","","","","","","","","","","","",""
"497","","image-button-response","142","3231114","0.0-140.0","AXHUS8TLNPP5I","img_art/25.jpg","3","","","","","","","","","","","","","","","","","","","","","","","","",""
"1430","","image-button-response","143","3232546","0.0-141.0-0.0","AXHUS8TLNPP5I","img_art/25.jpg","4","","","","","","","","","","","","","","","","","","","","","","","","",""
"9142","","image-button-response","144","3241690","0.0-142.0-0.0","AXHUS8TLNPP5I","img_art/25.jpg","2","","","","","","","","","","","","","","","","","","","","","","","","",""
"null","","html-keyboard-response","145","3243205","0.0-143.0","AXHUS8TLNPP5I","<p style=""font-size: 48px;"">+</p>","","","","","null","allTrialResponses","1500","1","14","img_art/25.jpg","5","Beutiful colors, not sure about the picture though","Melissa,Vanessa,Courtney,Morgan,Cassidy,Lauren","do not like that color of green,-11,240,20","I don't like the color. I don't like the abstract-ness of it.,-22,380,20","That on i find a bit creapy.,-19,280,20","Ancient gods above you.,20,380,20","Love the colors, and how it's simple yet complex,25,140,20","Depicts something negative, such as ritual. I'm not a fan.,-10,340,20","Morgan","Ancient gods above you.,20,380,20","Cassidy","Love the colors, and how it's simple yet complex,25,140,20","Courtney","That on i find a bit creapy.,-19,280,20","4"
"20691","","survey-text","146","3263905","0.0-144.0-0.0","AXHUS8TLNPP5I","","","","{""Q0"":""lots of color and flow...""}","","","","","","","","","","","","","","","","","","","","","","",""
"2854","","image-slider-response","147","3266761","0.0-145.0","AXHUS8TLNPP5I","","","","","28","","","","","","","","","","","","","","","","","","","","","",""
"3430","","image-button-response","148","3271764","0.0-146.0","AXHUS8TLNPP5I","img_art/21.jpg","3","","","","","","","","","","","","","","","","","","","","","","","","",""
"931","","image-button-response","149","3272697","0.0-147.0","AXHUS8TLNPP5I","img_art/21.jpg","3","","","","","","","","","","","","","","","","","","","","","","","","",""
"2077","","image-button-response","150","3274777","0.0-148.0-0.0","AXHUS8TLNPP5I","img_art/21.jpg","4","","","","","","","","","","","","","","","","","","","","","","","","",""
"1478","","image-button-response","151","3276257","0.0-149.0-0.0","AXHUS8TLNPP5I","img_art/21.jpg","5","","","","","","","","","","","","","","","","","","","","","","","","",""
"null","","html-keyboard-response","152","3277268","0.0-150.0","AXHUS8TLNPP5I","<p style=""font-size: 48px;"">+</p>","","","","","null","allTrialResponses","1000","1","15","img_art/21.jpg","28","lots of color and flow...","Cheyenne,Julia,Courtney,Morgan,Cassidy,Autumn","Don't see anything special about it,-21,200,20","there's not enough fine detail in this one,-27,40,20","Another ship on fire.,-10,280,20","Survivable storm on the open sea.,27,380,20","I really like these colors together and their placement. The dabs of white are a nice contrast to the soft blending,10,140,20","Amazing colors.,34,340,20","Morgan","Survivable storm on the open sea.,27,380,20","Cassidy","I really like these colors together and their placement. The dabs of white are a nice contrast to the soft blending,10,140,20","Autumn","Amazing colors.,34,340,20","4"
"7857","","survey-text","153","3285136","0.0-151.0-0.0","AXHUS8TLNPP5I","","","","{""Q0"":""course""}","","","","","","","","","","","","","","","","","","","","","","",""
"27918","","survey-text","154","3313055","0.0-152.0-0.0","AXHUS8TLNPP5I","","","","{""Q0"":""No. I do not like this one. Looks like fingerpaint in mustard""}","","","","","","","","","","","","","","","","","","","","","","",""
"3053","","image-slider-response","155","3316111","0.0-153.0","AXHUS8TLNPP5I","","","","","-50","","","","","","","","","","","","","","","","","","","","","",""
"4846","","image-button-response","156","3321116","0.0-154.0","AXHUS8TLNPP5I","img_art/4.jpg","1","","","","","","","","","","","","","","","","","","","","","","","","",""
"5959","","image-button-response","157","3327079","0.0-155.0","AXHUS8TLNPP5I","img_art/4.jpg","1","","","","","","","","","","","","","","","","","","","","","","","","",""
"3175","","image-button-response","158","3330255","0.0-156.0-0.0","AXHUS8TLNPP5I","img_art/4.jpg","0","","","","","","","","","","","","","","","","","","","","","","","","",""
"1645","","image-button-response","159","3331903","0.0-157.0-0.0","AXHUS8TLNPP5I","img_art/4.jpg","3","","","","","","","","","","","","","","","","","","","","","","","","",""
"null","","html-keyboard-response","160","3333414","0.0-158.0","AXHUS8TLNPP5I","<p style=""font-size: 48px;"">+</p>","","","","","null","allTrialResponses","1500","1","16","img_art/4.jpg","-50","No. I do not like this one. Looks like fingerpaint in mustard","Jenna,Brooke,Hailey,Morgan,Cassidy,Autumn","creepy, looks like a deformed hand, but the background is pretty,5,360,20","Looks like the roomba got into dog poop,-30,60,20","ugly puke yellow is cold and dark,-29,200,20","Pretzel noodles.,7,380,20","Hate the color, and just do not get the point.,-13,140,20","I don't like murky colors.,-40,340,20","Brooke","Looks like the roomba got into dog poop,-30,60,20","Jenna","creepy, looks like a deformed hand, but the background is pretty,5,360,20","Morgan","Pretzel noodles.,7,380,20","4"
"30941","","survey-text","161","3364366","0.0-159.0-0.0","AXHUS8TLNPP5I","","","","{""Q0"":""the colors are not for me...not sure what is going on here""}","","","","","","","","","","","","","","","","","","","","","","",""
"2986","","image-slider-response","162","3367358","0.0-160.0","AXHUS8TLNPP5I","","","","","-28","","","","","","","","","","","","","","","","","","","","","",""
"null","","image-button-response","163","3372360","0.0-161.0","AXHUS8TLNPP5I","img_art/15.jpg","null","","","","","","","","","","","","","","","","","","","","","","","","",""
"3172","","image-button-response","164","3375534","0.0-162.0","AXHUS8TLNPP5I","img_art/15.jpg","4","","","","","","","","","","","","","","","","","","","","","","","","",""
"1358","","image-button-response","165","3376893","0.0-163.0-0.0","AXHUS8TLNPP5I","img_art/15.jpg","5","","","","","","","","","","","","","","","","","","","","","","","","",""
"3230","","image-button-response","166","3380125","0.0-164.0-0.0","AXHUS8TLNPP5I","img_art/15.jpg","0","","","","","","","","","","","","","","","","","","","","","","","","",""
"null","","html-keyboard-response","167","3381130","0.0-165.0","AXHUS8TLNPP5I","<p style=""font-size: 48px;"">+</p>","","","","","null","allTrialResponses","1000","1","17","img_art/15.jpg","-28","the colors are not for me...not sure what is going on here","Jenna,Brooke,Jessica,Morgan,Jacqueline,Monica","interesting technique. the blue is very pretty,18,360,20","This one reminds me of a postage stamp, but branches and leaves. Kind of fun.,15,60,20","I think it's trying to execute a cool idea, but unfortunately it doesn't appeal,5,400,20","Leafs spread on the ground.,27,380,20","I don't like how the black dots are aligned.,-20,300,20","I don't feel much of anything when looking at this, it's just a random pattern,1,360,20","Jacqueline","I don't like how the black dots are aligned.,-20,300,20","Monica","I don't feel much of anything when looking at this, it's just a random pattern,1,360,20","Jenna","interesting technique. the blue is very pretty,18,360,20","4"
"27959","","survey-text","168","3409108","0.0-166.0-0.0","AXHUS8TLNPP5I","","","","{""Q0"":""spirits leaving the past behind...""}","","","","","","","","","","","","","","","","","","","","","","",""
"4157","","image-slider-response","169","3413268","0.0-167.0","AXHUS8TLNPP5I","","","","","23","","","","","","","","","","","","","","","","","","","","","",""
"null","","image-button-response","170","3418270","0.0-168.0","AXHUS8TLNPP5I","img_art/20.jpg","null","","","","","","","","","","","","","","","","","","","","","","","","",""
"2550","","image-button-response","171","3420828","0.0-169.0","AXHUS8TLNPP5I","img_art/20.jpg","1","","","","","","","","","","","","","","","","","","","","","","","","",""
"1334","","image-button-response","172","3422164","0.0-170.0-0.0","AXHUS8TLNPP5I","img_art/20.jpg","3","","","","","","","","","","","","","","","","","","","","","","","","",""
"7853","","image-button-response","173","3430019","0.0-171.0-0.0","AXHUS8TLNPP5I","img_art/20.jpg","2","","","","","","","","","","","","","","","","","","","","","","","","",""
"null","","html-keyboard-response","174","3430534","0.0-172.0","AXHUS8TLNPP5I","<p style=""font-size: 48px;"">+</p>","","","","","null","allTrialResponses","500","1","18","img_art/20.jpg","23","spirits leaving the past behind...","Jenna,Kelsey,Catherine,Brittany,Jacqueline,Monica","could look for hours. love the brush work. color choices look like a desert.,50,360,20","i almost feel like i can recognize what this is,-6,240,20","Interesting. Empty place, wondering what happened, leaving what you used to know.,10,160,20","The colors and the scene depicted is interesting.,13,40,20","Looks like a refinery dumping shit into the water.,-40,300,20","It looks like a junkyard and isn't appealing,-22,360,20","Kelsey","i almost feel like i can recognize what this is,-6,240,20","Brittany","The colors and the scene depicted is interesting.,13,40,20","Catherine","Interesting. Empty place, wondering what happened, leaving what you used to know.,10,160,20","4"
"25786","","survey-text","175","3456354","0.0-173.0-0.0","AXHUS8TLNPP5I","","","","{""Q0"":""very busy, possibly a city scene?""}","","","","","","","","","","","","","","","","","","","","","","",""
"3197","","image-slider-response","176","3459555","0.0-174.0","AXHUS8TLNPP5I","","","","","7","","","","","","","","","","","","","","","","","","","","","",""
"null","","image-button-response","177","3464557","0.0-175.0","AXHUS8TLNPP5I","img_art/19.jpg","null","","","","","","","","","","","","","","","","","","","","","","","","",""
"2868","","image-button-response","178","3467426","0.0-176.0","AXHUS8TLNPP5I","img_art/19.jpg","4","","","","","","","","","","","","","","","","","","","","","","","","",""
"2323","","image-button-response","179","3469755","0.0-177.0-0.0","AXHUS8TLNPP5I","img_art/19.jpg","5","","","","","","","","","","","","","","","","","","","","","","","","",""
"1430","","image-button-response","180","3471186","0.0-178.0-0.0","AXHUS8TLNPP5I","img_art/19.jpg","0","","","","","","","","","","","","","","","","","","","","","","","","",""
"null","","html-keyboard-response","181","3471699","0.0-179.0","AXHUS8TLNPP5I","<p style=""font-size: 48px;"">+</p>","","","","","null","allTrialResponses","500","1","19","img_art/19.jpg","7","very busy, possibly a city scene?","Samantha,Kelsey,Catherine,Brittany,Jamie,Lindsey","Intersting but not for me,21,140,20","not sure if i like it or not,1,240,20","Higher power looking down at its creation with a half smile and some hurt.,45,160,20","It looks too much of a rough sketch. Don't really enjoy looking at it.,-9,40,20","Looks like a busy port,10,320,20","Pleasant colors with just enough detail to be recognizable. I can see a scene in it that tells a story.,7,400,20","Jamie","Looks like a busy port,10,320,20","Lindsey","Pleasant colors with just enough detail to be recognizable. I can see a scene in it that tells a story.,7,400,20","Samantha","Intersting but not for me,21,140,20","4"
"47007","","survey-text","182","3518736","0.0-180.0-0.0","AXHUS8TLNPP5I","","","","{""Q0"":""Do not like the colors and cannot visualize anything in this""}","","","","","","","","","","","","","","","","","","","","","","",""
"3837","","image-slider-response","183","3522576","0.0-181.0","AXHUS8TLNPP5I","","","","","-38","","","","","","","","","","","","","","","","","","","","","",""
"null","","image-button-response","184","3527588","0.0-182.0","AXHUS8TLNPP5I","img_art/2.jpg","null","","","","","","","","","","","","","","","","","","","","","","","","",""
"779","","image-button-response","185","3528369","0.0-183.0","AXHUS8TLNPP5I","img_art/2.jpg","3","","","","","","","","","","","","","","","","","","","","","","","","",""
"1086","","image-button-response","186","3529456","0.0-184.0-0.0","AXHUS8TLNPP5I","img_art/2.jpg","4","","","","","","","","","","","","","","","","","","","","","","","","",""
"1110","","image-button-response","187","3530569","0.0-185.0-0.0","AXHUS8TLNPP5I","img_art/2.jpg","5","","","","","","","","","","","","","","","","","","","","","","","","",""
"null","","html-keyboard-response","188","3531076","0.0-186.0","AXHUS8TLNPP5I","<p style=""font-size: 48px;"">+</p>","","","","","null","allTrialResponses","500","1","20","img_art/2.jpg","-38","Do not like the colors and cannot visualize anything in this","Samantha,Dominique,Mikayla,Jasmine,Jamie,Lindsey","Cute and happy,22,140,20","This reminds me of a peaceful day out alone shopping and spending some me time,41,400,20","I love the colors in this.,29,300,20","Color picks are a bad mesh with each other,-17,340,20","Awful color coordination and design,-35,320,20","Not a fan of the colors or the style.,-31,400,20","Jasmine","Color picks are a bad mesh with each other,-17,340,20","Jamie","Awful color coordination and design,-35,320,20","Lindsey","Not a fan of the colors or the style.,-31,400,20","4"
"4182","","survey-text","189","3535296","0.0-187.0-0.0","AXHUS8TLNPP5I","","","","{""Q0"":""we""}","","","","","","","","","","","","","","","","","","","","","","",""
"35662","","survey-text","190","3570959","0.0-188.0-0.0","AXHUS8TLNPP5I","","","","{""Q0"":""looks like a cello on it's side...maybe resting after a concert""}","","","","","","","","","","","","","","","","","","","","","","",""
"3853","","image-slider-response","191","3574815","0.0-189.0","AXHUS8TLNPP5I","","","","","5","","","","","","","","","","","","","","","","","","","","","",""
"2326","","image-button-response","192","3579829","0.0-190.0","AXHUS8TLNPP5I","img_art/10.jpg","1","","","","","","","","","","","","","","","","","","","","","","","","",""
"1017","","image-button-response","193","3580847","0.0-191.0","AXHUS8TLNPP5I","img_art/10.jpg","1","","","","","","","","","","","","","","","","","","","","","","","","",""
"902","","image-button-response","194","3581751","0.0-192.0-0.0","AXHUS8TLNPP5I","img_art/10.jpg","0","","","","","","","","","","","","","","","","","","","","","","","","",""
"5717","","image-button-response","195","3587471","0.0-193.0-0.0","AXHUS8TLNPP5I","img_art/10.jpg","4","","","","","","","","","","","","","","","","","","","","","","","","",""
"null","","html-keyboard-response","196","3588477","0.0-194.0","AXHUS8TLNPP5I","<p style=""font-size: 48px;"">+</p>","","","","","null","allTrialResponses","1000","1","21","img_art/10.jpg","5","looks like a cello on it's side...maybe resting after a concert","Hannah,Alexandria,Paige,Jasmine,Jamie,Lindsey","This one is interesting. I like it.,11,240,20","it reminds me of a musical instrument,19,80,20","kind of happy. it is intriguing,23,60,20","It's okay but not giving me the strongest reaction,6,340,20","Well done designs for being considered abstract,45,320,20","Looks like a violin. Not a fan of the smudges and smears, but my initial reaction was positive.,11,400,20","Alexandria","it reminds me of a musical instrument,19,80,20","Hannah","This one is interesting. I like it.,11,240,20","Jamie","Well done designs for being considered abstract,45,320,20","4"
"19782","","survey-text","197","3608294","0.0-195.0-0.0","AXHUS8TLNPP5I","","","","{""Q0"":""looks like a kid drew in mom's lipstick""}","","","","","","","","","","","","","","","","","","","","","","",""
"3622","","image-slider-response","198","3611918","0.0-196.0","AXHUS8TLNPP5I","","","","","-31","","","","","","","","","","","","","","","","","","","","","",""
"null","","image-button-response","199","3616925","0.0-197.0","AXHUS8TLNPP5I","img_art/3.jpg","null","","","","","","","","","","","","","","","","","","","","","","","","",""
"3511","","image-button-response","200","3620438","0.0-198.0","AXHUS8TLNPP5I","img_art/3.jpg","3","","","","","","","","","","","","","","","","","","","","","","","","",""
"2222","","image-button-response","201","3622662","0.0-199.0-0.0","AXHUS8TLNPP5I","img_art/3.jpg","4","","","","","","","","","","","","","","","","","","","","","","","","",""
"7101","","image-button-response","202","3629766","0.0-200.0-0.0","AXHUS8TLNPP5I","img_art/3.jpg","5","","","","","","","","","","","","","","","","","","","","","","","","",""
"null","","html-keyboard-response","203","3631271","0.0-201.0","AXHUS8TLNPP5I","<p style=""font-size: 48px;"">+</p>","","","","","null","allTrialResponses","1500","1","22","img_art/3.jpg","-31","looks like a kid drew in mom's lipstick","Hannah,Alexandria,Kathryn,Michaela,Jamie,Crystal","Looks like a Basquiat but just not my cup of tea.,-29,240,20","it makes me feel really angry,-20,80,20","This gives me a negative feeling, like someone trying to scratch out their flaws. I see low self-esteem.,-20,140,20","It looks like someone took a red sharpie and just scribbled angrily,-20,260,20","Looks like somebody squirted ketchup everywhere,-40,320,20","I like the abstract flowing lines. It lacks hard rigid marks and flow nicely into a piece of calamity.,32,300,20","Michaela","It looks like someone took a red sharpie and just scribbled angrily,-20,260,20","Jamie","Looks like somebody squirted ketchup everywhere,-40,320,20","Crystal","I like the abstract flowing lines. It lacks hard rigid marks and flow nicely into a piece of calamity.,32,300,20","4"
"24473","","survey-text","204","3655757","0.0-202.0-0.0","AXHUS8TLNPP5I","","","","{""Q0"":""Nice colors, looks like a cityscape""}","","","","","","","","","","","","","","","","","","","","","","",""
"2726","","image-slider-response","205","3658485","0.0-203.0","AXHUS8TLNPP5I","","","","","50","","","","","","","","","","","","","","","","","","","","","",""
"2142","","image-button-response","206","3663492","0.0-204.0","AXHUS8TLNPP5I","img_art/26.jpg","1","","","","","","","","","","","","","","","","","","","","","","","","",""
"553","","image-button-response","207","3664061","0.0-205.0","AXHUS8TLNPP5I","img_art/26.jpg","1","","","","","","","","","","","","","","","","","","","","","","","","",""
"1685","","image-button-response","208","3665749","0.0-206.0-0.0","AXHUS8TLNPP5I","img_art/26.jpg","4","","","","","","","","","","","","","","","","","","","","","","","","",""
"3537","","image-button-response","209","3669292","0.0-207.0-0.0","AXHUS8TLNPP5I","img_art/26.jpg","3","","","","","","","","","","","","","","","","","","","","","","","","",""
"null","","html-keyboard-response","210","3669797","0.0-208.0","AXHUS8TLNPP5I","<p style=""font-size: 48px;"">+</p>","","","","","null","allTrialResponses","500","1","23","img_art/26.jpg","50","Nice colors, looks like a cityscape","Katelyn,Rachel,Olivia,Michaela,Jamie,Crystal","Looks bland and boring,-5,100,20","Pretty trees and bushes around fancy brown stones. I like the soft nature.,20,80,20","reminds me of a hometown,7,40,20","Elevator art but the watercolors are good,29,260,20","Street corner on a sunny day,5,320,20","Do not like water colors at all,-50,300,20","Rachel","Pretty trees and bushes around fancy brown stones. I like the soft nature.,20,80,20","Jamie","Street corner on a sunny day,5,320,20","Michaela","Elevator art but the watercolors are good,29,260,20","4"
"8663","","survey-text","211","3678476","0.0-209.0-0.0","AXHUS8TLNPP5I","","","","{""Q0"":""creepy""}","","","","","","","","","","","","","","","","","","","","","","",""
"2925","","image-slider-response","212","3681405","0.0-210.0","AXHUS8TLNPP5I","","","","","-50","","","","","","","","","","","","","","","","","","","","","",""
"null","","image-button-response","213","3686418","0.0-211.0","AXHUS8TLNPP5I","img_art/16.jpg","null","","","","","","","","","","","","","","","","","","","","","","","","",""
"929","","image-button-response","214","3687348","0.0-212.0","AXHUS8TLNPP5I","img_art/16.jpg","5","","","","","","","","","","","","","","","","","","","","","","","","",""
"1319","","image-button-response","215","3688668","0.0-213.0-0.0","AXHUS8TLNPP5I","img_art/16.jpg","0","","","","","","","","","","","","","","","","","","","","","","","","",""
"886","","image-button-response","216","3689556","0.0-214.0-0.0","AXHUS8TLNPP5I","img_art/16.jpg","1","","","","","","","","","","","","","","","","","","","","","","","","",""
"null","","html-keyboard-response","217","3691075","0.0-215.0","AXHUS8TLNPP5I","<p style=""font-size: 48px;"">+</p>","","","","","null","allTrialResponses","1500","1","24","img_art/16.jpg","-50","creepy","Heather,Rachel,Anna,Michaela,Jamie,Sarah","lol i dont know how i feel about this.,1,260,20","Not pleasing to the eyes. I do like that the gun is broken though.,-28,80,20","It's edgy but cool,10,300,20","It feels lazily done,-9,260,20","Weird and funny,40,320,20","i don't like the collage aspect,-25,180,20","Sarah","i don't like the collage aspect,-25,180,20","Heather","lol i dont know how i feel about this.,1,260,20","Rachel","Not pleasing to the eyes. I do like that the gun is broken though.,-28,80,20","4"
"141986","","survey-text","218","3833072","0.0-216.0-0.0","AXHUS8TLNPP5I","","","","{""Q0"":""strange, but wierdly attractive""}","","","","","","","","","","","","","","","","","","","","","","",""
"3085","","image-slider-response","219","3836160","0.0-217.0","AXHUS8TLNPP5I","","","","","34","","","","","","","","","","","","","","","","","","","","","",""
"null","","image-button-response","220","3841166","0.0-218.0","AXHUS8TLNPP5I","img_art/28.jpg","null","","","","","","","","","","","","","","","","","","","","","","","","",""
"1874","","image-button-response","221","3843041","0.0-219.0","AXHUS8TLNPP5I","img_art/28.jpg","5","","","","","","","","","","","","","","","","","","","","","","","","",""
"8774","","image-button-response","222","3851816","0.0-220.0-0.0","AXHUS8TLNPP5I","img_art/28.jpg","2","","","","","","","","","","","","","","","","","","","","","","","","",""
"5702","","image-button-response","223","3857520","0.0-221.0-0.0","AXHUS8TLNPP5I","img_art/28.jpg","0","","","","","","","","","","","","","","","","","","","","","","","","",""
"null","","html-keyboard-response","224","3859024","0.0-222.0","AXHUS8TLNPP5I","<p style=""font-size: 48px;"">+</p>","","","","","null","allTrialResponses","1500","1","25","img_art/28.jpg","34","strange, but wierdly attractive","Heather,Rachel,Michelle,Megan,Allison,Sarah","not sure what i feel but it makes me feel uncomfortable,1,260,20","Too muted and bland. I like my art to be vivid.,-11,80,20","This piece is depressing to me, reminds me of German paintings,-6,280,20","Compact grey mess lack negative space,-10,200,20","Dislike the colors.,-20,140,20","something about all the off-greys is pretty interesting,5,180,20","Sarah","something about all the off-greys is pretty interesting,5,180,20","Michelle","This piece is depressing to me, reminds me of German paintings,-6,280,20","Heather","not sure what i feel but it makes me feel uncomfortable,1,260,20","4"
"4728","","survey-text","225","3863784","0.0-223.0-0.0","AXHUS8TLNPP5I","","","","{""Q0"":""table""}","","","","","","","","","","","","","","","","","","","","","","",""
"6198","","survey-text","226","3869984","0.0-224.0-0.0","AXHUS8TLNPP5I","","","","{""Q0"":""NO""}","","","","","","","","","","","","","","","","","","","","","","",""
"6171","","survey-text","227","3878056","0.0-224.1-0.1","AXHUS8TLNPP5I","","","","{""Q0"":""NO WAY""}","","","","","","","","","","","","","","","","","","","","","","",""
"2806","","image-slider-response","228","3880863","0.0-225.0","AXHUS8TLNPP5I","","","","","-50","","","","","","","","","","","","","","","","","","","","","",""
"4205","","image-button-response","229","3885869","0.0-226.0","AXHUS8TLNPP5I","img_art/5.jpg","1","","","","","","","","","","","","","","","","","","","","","","","","",""
"825","","image-button-response","230","3886695","0.0-227.0","AXHUS8TLNPP5I","img_art/5.jpg","1","","","","","","","","","","","","","","","","","","","","","","","","",""
"2646","","image-button-response","231","3889344","0.0-228.0-0.0","AXHUS8TLNPP5I","img_art/5.jpg","2","","","","","","","","","","","","","","","","","","","","","","","","",""
"3118","","image-button-response","232","3892463","0.0-229.0-0.0","AXHUS8TLNPP5I","img_art/5.jpg","5","","","","","","","","","","","","","","","","","","","","","","","","",""
"null","","html-keyboard-response","233","3893466","0.0-230.0","AXHUS8TLNPP5I","<p style=""font-size: 48px;"">+</p>","","","","","null","allTrialResponses","1000","1","26","img_art/5.jpg","-50","NO WAY","Heather,Stephanie,Michelle,Sara,Laura,Sarah","its something. i just dont know what it is.,1,260,20","This did not do a thing for me.,-50,300,20","What is this? It looks like no effort was put into this work,-2,280,20","It looks random,-10,160,20","fresh and fun - bright and active,16,320,20","looks very childish,-35,180,20","Stephanie","This did not do a thing for me.,-50,300,20","Michelle","What is this? It looks like no effort was put into this work,-2,280,20","Sarah","looks very childish,-35,180,20","4"
"19748","","survey-text","234","3913238","0.0-231.0-0.0","AXHUS8TLNPP5I","","","","{""Q0"":""looks like animal tracks in the mist""}","","","","","","","","","","","","","","","","","","","","","","",""
"16230","","image-slider-response","235","3929470","0.0-232.0","AXHUS8TLNPP5I","","","","","1","","","","","","","","","","","","","","","","","","","","","",""
"null","","image-button-response","236","3934472","0.0-233.0","AXHUS8TLNPP5I","img_art/1.jpg","null","","","","","","","","","","","","","","","","","","","","","","","","",""
"605","","image-button-response","237","3935078","0.0-234.0","AXHUS8TLNPP5I","img_art/1.jpg","1","","","","","","","","","","","","","","","","","","","","","","","","",""
"4825","","image-button-response","238","3939905","0.0-235.0-0.0","AXHUS8TLNPP5I","img_art/1.jpg","3","","","","","","","","","","","","","","","","","","","","","","","","",""
"10306","","image-button-response","239","3950214","0.0-236.0-0.0","AXHUS8TLNPP5I","img_art/1.jpg","4","","","","","","","","","","","","","","","","","","","","","","","","",""
"null","","html-keyboard-response","240","3951216","0.0-237.0","AXHUS8TLNPP5I","<p style=""font-size: 48px;"">+</p>","","","","","null","allTrialResponses","1000","1","27","img_art/1.jpg","1","looks like animal tracks in the mist","Alexis,Stephanie,Michelle,Taylor,Haley,Sarah","Taco Bell wallpaper. Doesn't really make me feel anything,3,100,20","Pretty colors. Fall day in the East Coast of USA.,42,300,20","Random paint does not make art,-5,280,20","Makes me think of a bad thunderstorm,11,340,20","Pleasant, but a tad too monochromatic in some areas for my taste,7,220,20","it's boring despite all the colors,-2,180,20","Stephanie","Pretty colors. Fall day in the East Coast of USA.,42,300,20","Taylor","Makes me think of a bad thunderstorm,11,340,20","Haley","Pleasant, but a tad too monochromatic in some areas for my taste,7,220,20","4"
"43928","","survey-text","241","3995157","0.0-238.0-0.0","AXHUS8TLNPP5I","","","","{""Q0"":""waterfall of a brook on a summer day""}","","","","","","","","","","","","","","","","","","","","","","",""
"4382","","image-slider-response","242","3999540","0.0-239.0","AXHUS8TLNPP5I","","","","","45","","","","","","","","","","","","","","","","","","","","","",""
"null","","image-button-response","243","4004547","0.0-240.0","AXHUS8TLNPP5I","img_art/24.jpg","null","","","","","","","","","","","","","","","","","","","","","","","","",""
"1384","","image-button-response","244","4005933","0.0-241.0","AXHUS8TLNPP5I","img_art/24.jpg","3","","","","","","","","","","","","","","","","","","","","","","","","",""
"766","","image-button-response","245","4006700","0.0-242.0-0.0","AXHUS8TLNPP5I","img_art/24.jpg","4","","","","","","","","","","","","","","","","","","","","","","","","",""
"1901","","image-button-response","246","4008604","0.0-243.0-0.0","AXHUS8TLNPP5I","img_art/24.jpg","1","","","","","","","","","","","","","","","","","","","","","","","","",""
"null","","html-keyboard-response","247","4009607","0.0-244.0","AXHUS8TLNPP5I","<p style=""font-size: 48px;"">+</p>","","","","","null","allTrialResponses","1000","1","28","img_art/24.jpg","45","waterfall of a brook on a summer day","Rebecca,Stephanie,Kylie,Taylor,Haley,Abigail","organized mess at first glance, would love to inspect this in closer proximity,39,100,20","A beautiful waterfall in the springtime.,40,300,20","Forest waterfall,40,300,20","Makes me think of a couple of hikes that I've taken,50,340,20","Beautiful colors and texture,20,220,20","Beautiful waterfall I like waterfalls,39,20,20","Taylor","Makes me think of a couple of hikes that I've taken,50,340,20","Haley","Beautiful colors and texture,20,220,20","Stephanie","A beautiful waterfall in the springtime.,40,300,20","4"
"8823","","survey-text","248","4018444","0.0-245.0-0.0","AXHUS8TLNPP5I","","","","{""Q0"":""sleeping beauty""}","","","","","","","","","","","","","","","","","","","","","","",""
"3774","","image-slider-response","249","4022220","0.0-246.0","AXHUS8TLNPP5I","","","","","26","","","","","","","","","","","","","","","","","","","","","",""
"3270","","image-button-response","250","4027226","0.0-247.0","AXHUS8TLNPP5I","img_art/9.jpg","0","","","","","","","","","","","","","","","","","","","","","","","","",""
"767","","image-button-response","251","4027997","0.0-248.0","AXHUS8TLNPP5I","img_art/9.jpg","0","","","","","","","","","","","","","","","","","","","","","","","","",""
"6581","","image-button-response","252","4034580","0.0-249.0-0.0","AXHUS8TLNPP5I","img_art/9.jpg","5","","","","","","","","","","","","","","","","","","","","","","","","",""
"6597","","image-button-response","253","4041179","0.0-250.0-0.0","AXHUS8TLNPP5I","img_art/9.jpg","1","","","","","","","","","","","","","","","","","","","","","","","","",""
"null","","html-keyboard-response","254","4041685","0.0-251.0","AXHUS8TLNPP5I","<p style=""font-size: 48px;"">+</p>","","","","","null","allTrialResponses","500","1","29","img_art/9.jpg","26","sleeping beauty","Shannon,Stephanie,Shelby,Taylor,Haley,Mary","This looks like someone sleeping in a bed, and I think the colors make it look interesting.,20,220,20","Someone sleeping in a cave. Dont like the scribble look.,-30,300,20","A little too weird for me,-30,240,20","The peacock theme gives me negative connotations of my ex-sister-in-law,-10,340,20","I don't like the picture, but it wouldn't surprise me if someone did,-20,220,20","How neat is this piece?  I love the angry expressive lines. Emotion is captured in it.,26,180,20","Shannon","This looks like someone sleeping in a bed, and I think the colors make it look interesting.,20,220,20","Mary","How neat is this piece?  I love the angry expressive lines. Emotion is captured in it.,26,180,20","Stephanie","Someone sleeping in a cave. Dont like the scribble look.,-30,300,20","4"
"18491","","survey-text","255","4060203","0.0-252.0-0.0","AXHUS8TLNPP5I","","","","{""Q0"":""very vivid colors""}","","","","","","","","","","","","","","","","","","","","","","",""
"2638","","image-slider-response","256","4062843","0.0-253.0","AXHUS8TLNPP5I","","","","","1","","","","","","","","","","","","","","","","","","","","","",""
"2135","","image-button-response","257","4067852","0.0-254.0","AXHUS8TLNPP5I","img_art/22.jpg","0","","","","","","","","","","","","","","","","","","","","","","","","",""
"1468","","image-button-response","258","4069324","0.0-255.0","AXHUS8TLNPP5I","img_art/22.jpg","0","","","","","","","","","","","","","","","","","","","","","","","","",""
"798","","image-button-response","259","4070123","0.0-256.0-0.0","AXHUS8TLNPP5I","img_art/22.jpg","3","","","","","","","","","","","","","","","","","","","","","","","","",""
"5358","","image-button-response","260","4075484","0.0-257.0-0.0","AXHUS8TLNPP5I","img_art/22.jpg","2","","","","","","","","","","","","","","","","","","","","","","","","",""
"null","","html-keyboard-response","261","4076993","0.0-258.0","AXHUS8TLNPP5I","<p style=""font-size: 48px;"">+</p>","","","","","null","allTrialResponses","1500","1","30","img_art/22.jpg","1","very vivid colors","Shannon,Stephanie,Caitlin,Kaitlyn,Gabriela,Mary","I think this picture looks interesting because of the way the colors work together.,20,220,20","I don't get much of a reaction.,11,300,20","Looks like the kind of art I would see at the doctor's office.,-5,80,20","Would be better if random black object was not present,11,80,20","Neither like nor dislike it. The red, yellow and blue colors are bright but I don't know what it's meant to be.,1,140,20","I do not like the color combo. This piece is too much the same throughout.,-1,180,20","Shannon","I think this picture looks interesting because of the way the colors work together.,20,220,20","Kaitlyn","Would be better if random black object was not present,11,80,20","Caitlin","Looks like the kind of art I would see at the doctor's office.,-5,80,20","4"
"3038","","image-button-response_instructions","262","4080051","0.0-259.0","AXHUS8TLNPP5I","","0","instructions","","","","","","","","","","","","","","","","","","","","","","","",""
