"rt","url","trial_type","trial_index","time_elapsed","internal_node_id","participant_id","stimulus","button_pressed","Name","responses","response","key_press","variableName","fixationTime","condition","trial","photo","subjectRating","subjectResponse","agentsNames","agent_1_Response","agent_2_Response","agent_3_Response","agent_4_Response","agent_5_Response","agent_6_Response","kept_1_name","kept_1_response","kept_2_name","kept_2_response","kept_3_name","kept_3_response","errorCounter"
"5879","external_page_harvard.html","external-html","0","5979","0.0-0.0","AXP8EG22MPZY8","","","","","","","","","","","","","","","","","","","","","","","","","","",""
"1728","","image-button-response","1","7712","0.0-1.0","AXP8EG22MPZY8","","0","","","","","","","","","","","","","","","","","","","","","","","","",""
"1661","","image-button-response","2","9388","0.0-2.0-0.0","AXP8EG22MPZY8","","1","phone","","","","","","","","","","","","","","","","","","","","","","","",""
"3310","","survey-text","3","12704","0.0-3.0-0.0","AXP8EG22MPZY8","","","","{""Q0"":""AXP8EG22MPZY8""}","","","","","","","","","","","","","","","","","","","","","","",""
"10941","","image-button-response_instructions","4","23651","0.0-4.0","AXP8EG22MPZY8","","0","instructions","","","","","","","","","","","","","","","","","","","","","","","",""
"7719","","image-button-response_instructions","5","31375","0.0-5.0","AXP8EG22MPZY8","img_art/ins/popularity/ins1.png","0","instructions","","","","","","","","","","","","","","","","","","","","","","","",""
"4007","","image-button-response_instructions","6","35386","0.0-6.0","AXP8EG22MPZY8","img_art/ins/popularity/ins2.png","0","instructions","","","","","","","","","","","","","","","","","","","","","","","",""
"4305","","image-button-response_instructions","7","39702","0.0-7.0","AXP8EG22MPZY8","img_art/ins/popularity/ins2Extreme.png","0","instructions","","","","","","","","","","","","","","","","","","","","","","","",""
"23855","","image-button-response_instructions","8","63563","0.0-8.0","AXP8EG22MPZY8","img_art/ins/popularity/ins3KEEPpop.PNG","0","instructions","","","","","","","","","","","","","","","","","","","","","","","",""
"14060","","image-button-response_instructions","9","77629","0.0-9.0","AXP8EG22MPZY8","img_art/ins/popularity/ins3ANamepop.PNG","0","instructions","","","","","","","","","","","","","","","","","","","","","","","",""
"2853","","image-button-response_instructions","10","80487","0.0-10.0","AXP8EG22MPZY8","img_art/ins/popularity/ins3ARatingpop.png","0","instructions","","","","","","","","","","","","","","","","","","","","","","","",""
"10420","","image-button-response_instructions","11","90912","0.0-11.0","AXP8EG22MPZY8","img_art/ins/popularity/ins3ATextpop.png","0","instructions","","","","","","","","","","","","","","","","","","","","","","","",""
"7534","","image-button-response_instructions","12","98451","0.0-12.0","AXP8EG22MPZY8","img_art/ins/popularity/ins3ALikespop.png","0","instructions","","","","","","","","","","","","","","","","","","","","","","","",""
"35606","","image-button-response_instructions","13","134063","0.0-13.0","AXP8EG22MPZY8","img_art/ins/popularity/ins3KEEPpop.PNG","0","instructions","","","","","","","","","","","","","","","","","","","","","","","",""
"31663","","image-button-response_instructions","14","165729","0.0-14.0","AXP8EG22MPZY8","img_art/ins/popularity/ins3_5RED.png","0","instructions","","","","","","","","","","","","","","","","","","","","","","","",""
"3848","","image-button-response_instructions","15","169580","0.0-15.0","AXP8EG22MPZY8","img_art/ins/popularity/ins3KEEPpop.PNG","0","instructions","","","","","","","","","","","","","","","","","","","","","","","",""
"8984","","image-button-response_instructions","16","178566","0.0-16.0","AXP8EG22MPZY8","img_art/ins/popularity/ins4KEEPpop.PNG","0","instructions","","","","","","","","","","","","","","","","","","","","","","","",""
"7847","","image-button-response_instructions","17","186416","0.0-17.0","AXP8EG22MPZY8","img_art/ins/popularity/ins5KEEPpop.PNG","0","instructions","","","","","","","","","","","","","","","","","","","","","","","",""
"1749","","image-button-response_instructions","18","188169","0.0-18.0","AXP8EG22MPZY8","","0","instructions","","","","","","","","","","","","","","","","","","","","","","","",""
"6946","","survey-text","19","195143","0.0-19.0-0.0","AXP8EG22MPZY8","","","","{""Q0"":""but""}","","","","","","","","","","","","","","","","","","","","","","",""
"28143","","survey-text","20","223293","0.0-20.0-0.0","AXP8EG22MPZY8","","","","{""Q0"":""makes me feel crazy""}","","","","","","","","","","","","","","","","","","","","","","",""
"5521.39999999851","","image-slider-response","21","228824","0.0-21.0","AXP8EG22MPZY8","","","","","-9","","","","","","","","","","","","","","","","","","","","","",""
"null","","image-button-response","22","233836","0.0-22.0","AXP8EG22MPZY8","img_art/ins/1.jpg","null","","","","","","","","","","","","","","","","","","","","","","","","",""
"2998","","image-button-response","23","236839","0.0-23.0","AXP8EG22MPZY8","img_art/ins/1.jpg","1","","","","","","","","","","","","","","","","","","","","","","","","",""
"750","","image-button-response","24","237594","0.0-24.0-0.0","AXP8EG22MPZY8","img_art/ins/1.jpg","1","","","","","","","","","","","","","","","","","","","","","","","","",""
"1795","","image-button-response","25","244342","0.0-24.1-0.1","AXP8EG22MPZY8","img_art/ins/1.jpg","1","","","","","","","","","","","","","","","","","","","","","","","","",""
"23951","","image-button-response","26","270846","0.0-24.2-0.2","AXP8EG22MPZY8","img_art/ins/1.jpg","2","","","","","","","","","","","","","","","","","","","","","","","","",""
"3735","","image-button-response","27","274591","0.0-25.0-0.0","AXP8EG22MPZY8","img_art/ins/1.jpg","0","","","","","","","","","","","","","","","","","","","","","","","","",""
"null","","html-keyboard-response","28","275599","0.0-26.0","AXP8EG22MPZY8","<p style=""font-size: 48px;"">+</p>","","","","","null","allTrialResponses","1000","1","-2","img_art/ins/1.jpg","-9","makes me feel crazy","Adam,Alex,Ben,Carl,Daniel,Jack","Seems like doodles,-20,20,20","very creative work.,36,40,20","This color reminds me of poo,-46,60,20","very calming artwork,42,80,20","It looks like a murder scene.,-48,100,20","I like the sophisticated brushwork,40,120,20","Alex","very creative work.,36,40,20","Ben","This color reminds me of poo,-46,60,20","Adam","Seems like doodles,-20,20,20","4"
"18836","","survey-text","29","294443","0.0-27.0-0.0","AXP8EG22MPZY8","","","","{""Q0"":""seems dark""}","","","","","","","","","","","","","","","","","","","","","","",""
"11241.10000000149","","image-slider-response","30","305690","0.0-28.0","AXP8EG22MPZY8","","","","","5","","","","","","","","","","","","","","","","","","","","","",""
"null","","image-button-response","31","310697","0.0-29.0","AXP8EG22MPZY8","img_art/ins/2.jpg","null","","","","","","","","","","","","","","","","","","","","","","","","",""
"14470","","image-button-response","32","325173","0.0-30.0","AXP8EG22MPZY8","img_art/ins/2.jpg","3","","","","","","","","","","","","","","","","","","","","","","","","",""
"6601","","image-button-response","33","331781","0.0-31.0-0.0","AXP8EG22MPZY8","img_art/ins/2.jpg","2","","","","","","","","","","","","","","","","","","","","","","","","",""
"2116","","image-button-response","34","333906","0.0-32.0-0.0","AXP8EG22MPZY8","img_art/ins/2.jpg","4","","","","","","","","","","","","","","","","","","","","","","","","",""
"null","","html-keyboard-response","35","334910","0.0-33.0","AXP8EG22MPZY8","<p style=""font-size: 48px;"">+</p>","","","","","null","allTrialResponses","1000","1","-1","img_art/ins/2.jpg","5","seems dark","Adam,Alex,Ben,James,John,Kyle","too much color,-18,20,20","I like the blocks of color arrangements,30,40,20","meaningless painting,-45,60,20","looks too angry,-50,140,20","love the texture of paint,48,160,20","Idk, it is just annoying,-32,180,20","James","looks too angry,-50,140,20","Ben","meaningless painting,-45,60,20","John","love the texture of paint,48,160,20","4"
"23775","","survey-text","36","358693","0.0-34.0-0.0","AXP8EG22MPZY8","","","","{""Q0"":""like my daughter did it""}","","","","","","","","","","","","","","","","","","","","","","",""
"5596.70000000298","","image-slider-response","37","364296","0.0-35.0","AXP8EG22MPZY8","","","","","-21","","","","","","","","","","","","","","","","","","","","","",""
"3852","","image-button-response","38","369303","0.0-36.0","AXP8EG22MPZY8","img_art/ins/3.jpg","0","","","","","","","","","","","","","","","","","","","","","","","","",""
"1062","","image-button-response","39","370371","0.0-37.0","AXP8EG22MPZY8","img_art/ins/3.jpg","0","","","","","","","","","","","","","","","","","","","","","","","","",""
"13254","","image-button-response","40","383632","0.0-38.0-0.0","AXP8EG22MPZY8","img_art/ins/3.jpg","2","","","","","","","","","","","","","","","","","","","","","","","","",""
"9140","","image-button-response","41","392781","0.0-39.0-0.0","AXP8EG22MPZY8","img_art/ins/3.jpg","3","","","","","","","","","","","","","","","","","","","","","","","","",""
"null","","html-keyboard-response","42","393785","0.0-40.0","AXP8EG22MPZY8","<p style=""font-size: 48px;"">+</p>","","","","","null","allTrialResponses","1000","1","0","img_art/ins/3.jpg","-21","like my daughter did it","Ron,Mike,Ben,James,John,Sam","It looks depressing,-26,220,20","enjoy the different shades of blue,22,200,20","This thing gives me anxiety,-41,60,20","My worst nightmare,-42,140,20","I like the overlapping of brushes,41,160,20","I can feel a rainy day from this painting,18,240,20","Ron","It looks depressing,-26,220,20","Ben","This thing gives me anxiety,-41,60,20","James","My worst nightmare,-42,140,20","4"
"10515","","image-button-response_instructions","43","404315","0.0-41.0","AXP8EG22MPZY8","","0","instructions","","","","","","","","","","","","","","","","","","","","","","","",""
"11863","","survey-likert","44","416183","0.0-42.0-0.0","AXP8EG22MPZY8","","","","{""Q0"":"""",""Q1"":0,""Q2"":1}","","","","","","","","","","","","","","","","","","","","","","",""
"15084","","survey-text","45","431282","0.0-43.0-0.0","AXP8EG22MPZY8","","","","{""Q0"":""rock""}","","","","","","","","","","","","","","","","","","","","","","",""
"20698","","survey-text","46","451986","0.0-44.0-0.0","AXP8EG22MPZY8","","","","{""Q0"":""like a nightmare""}","","","","","","","","","","","","","","","","","","","","","","",""
"4932.599999997765","","image-slider-response","47","456925","0.0-45.0","AXP8EG22MPZY8","","","","","-22","","","","","","","","","","","","","","","","","","","","","",""
"null","","image-button-response","48","461973","0.0-46.0","AXP8EG22MPZY8","img_art/15.jpg","null","","","","","","","","","","","","","","","","","","","","","","","","",""
"10656","","image-button-response","49","472635","0.0-47.0","AXP8EG22MPZY8","img_art/15.jpg","3","","","","","","","","","","","","","","","","","","","","","","","","",""
"2076","","image-button-response","50","474718","0.0-48.0-0.0","AXP8EG22MPZY8","img_art/15.jpg","0","","","","","","","","","","","","","","","","","","","","","","","","",""
"9068","","image-button-response","51","483793","0.0-49.0-0.0","AXP8EG22MPZY8","img_art/15.jpg","4","","","","","","","","","","","","","","","","","","","","","","","","",""
"null","","html-keyboard-response","52","484799","0.0-50.0","AXP8EG22MPZY8","<p style=""font-size: 48px;"">+</p>","","","","","null","allTrialResponses","1000","1","1","img_art/15.jpg","-22","like a nightmare","Bryan,Timothy,Grant,Samuel,Corey,Mitchell","Interesting. Reminds me of a biopsy slide.,21,400,20","This painting gives a calm vibe but no stronger emotions than that,10,240,20","This elicits no reaction in me.,0,200,20","Black reminds me of darkness,-18,400,20","i like the pop of blue within all the black,8,260,20","ants on the ground playing with bubble gum. They may be thinking of how they can use it to build something,-30,180,20","Samuel","Black reminds me of darkness,-18,400,20","Bryan","Interesting. Reminds me of a biopsy slide.,21,400,20","Corey","i like the pop of blue within all the black,8,260,20","4"
"25975","","survey-text","53","510784","0.0-51.0-0.0","AXP8EG22MPZY8","","","","{""Q0"":""a marching band in space""}","","","","","","","","","","","","","","","","","","","","","","",""
"3997.5","","image-slider-response","54","514786","0.0-52.0","AXP8EG22MPZY8","","","","","13","","","","","","","","","","","","","","","","","","","","","",""
"null","","image-button-response","55","519793","0.0-53.0","AXP8EG22MPZY8","img_art/23.jpg","null","","","","","","","","","","","","","","","","","","","","","","","","",""
"6791","","image-button-response","56","526590","0.0-54.0","AXP8EG22MPZY8","img_art/23.jpg","3","","","","","","","","","","","","","","","","","","","","","","","","",""
"2966","","image-button-response","57","529566","0.0-55.0-0.0","AXP8EG22MPZY8","img_art/23.jpg","2","","","","","","","","","","","","","","","","","","","","","","","","",""
"1941","","image-button-response","58","531516","0.0-56.0-0.0","AXP8EG22MPZY8","img_art/23.jpg","1","","","","","","","","","","","","","","","","","","","","","","","","",""
"null","","html-keyboard-response","59","532519","0.0-57.0","AXP8EG22MPZY8","<p style=""font-size: 48px;"">+</p>","","","","","null","allTrialResponses","1000","1","2","img_art/23.jpg","13","a marching band in space","Bryan,Scott,Ryan,Samuel,Corey,Nicholas","Looks like fireworks.,21,400,20","reminds me of an album cover,36,20,20","One of my favorites, love the colors and how the white looks like humans,50,380,20","happiness in the universe,28,400,20","white reminds me of screamo music band tshirts when they have their name in the unreadable lettering,-9,260,20","The more i look at it the more i like it  the dots of color and very interesting,50,240,20","Samuel","happiness in the universe,28,400,20","Ryan","One of my favorites, love the colors and how the white looks like humans,50,380,20","Scott","reminds me of an album cover,36,20,20","4"
"18810","","survey-text","60","551351","0.0-58.0-0.0","AXP8EG22MPZY8","","","","{""Q0"":""old peanut brittle""}","","","","","","","","","","","","","","","","","","","","","","",""
"2584.199999999255","","image-slider-response","61","553942","0.0-59.0","AXP8EG22MPZY8","","","","","-19","","","","","","","","","","","","","","","","","","","","","",""
"3785","","image-button-response","62","558949","0.0-60.0","AXP8EG22MPZY8","img_art/7.jpg","5","","","","","","","","","","","","","","","","","","","","","","","","",""
"1450","","image-button-response","63","560410","0.0-61.0","AXP8EG22MPZY8","img_art/7.jpg","5","","","","","","","","","","","","","","","","","","","","","","","","",""
"5646","","image-button-response","64","566065","0.0-62.0-0.0","AXP8EG22MPZY8","img_art/7.jpg","0","","","","","","","","","","","","","","","","","","","","","","","","",""
"2930","","image-button-response","65","569006","0.0-63.0-0.0","AXP8EG22MPZY8","img_art/7.jpg","2","","","","","","","","","","","","","","","","","","","","","","","","",""
"null","","html-keyboard-response","66","569510","0.0-64.0","AXP8EG22MPZY8","<p style=""font-size: 48px;"">+</p>","","","","","null","allTrialResponses","500","1","3","img_art/7.jpg","-19","old peanut brittle","Angel,Scott,Ryan,Samuel,Aaron,Sean","It's off-putting because it reminds me of walking over rough sand/rocks or having scabs on my skin.,-10,180,20","I don't like the texture,-49,20,20","I hate everything about this painting from the cors to it looking like a war,-50,380,20","looking down on earth,19,400,20","It's kind of ugly but I like the texture.,10,20,20","does not look good,-42,40,20","Sean","does not look good,-42,40,20","Angel","It's off-putting because it reminds me of walking over rough sand/rocks or having scabs on my skin.,-10,180,20","Ryan","I hate everything about this painting from the cors to it looking like a war,-50,380,20","4"
"16867","","survey-text","67","586388","0.0-65.0-0.0","AXP8EG22MPZY8","","","","{""Q0"":""smooth eel party""}","","","","","","","","","","","","","","","","","","","","","","",""
"5304.199999999255","","image-slider-response","68","591697","0.0-66.0","AXP8EG22MPZY8","","","","","10","","","","","","","","","","","","","","","","","","","","","",""
"null","","image-button-response","69","596703","0.0-67.0","AXP8EG22MPZY8","img_art/30.jpg","null","","","","","","","","","","","","","","","","","","","","","","","","",""
"10374","","image-button-response","70","607084","0.0-68.0","AXP8EG22MPZY8","img_art/30.jpg","2","","","","","","","","","","","","","","","","","","","","","","","","",""
"4096","","image-button-response","71","611190","0.0-69.0-0.0","AXP8EG22MPZY8","img_art/30.jpg","5","","","","","","","","","","","","","","","","","","","","","","","","",""
"4461","","image-button-response","72","615661","0.0-70.0-0.0","AXP8EG22MPZY8","img_art/30.jpg","0","","","","","","","","","","","","","","","","","","","","","","","","",""
"null","","html-keyboard-response","73","616168","0.0-71.0","AXP8EG22MPZY8","<p style=""font-size: 48px;"">+</p>","","","","","null","allTrialResponses","500","1","4","img_art/30.jpg","10","smooth eel party","Angel,Travis,Ryan,Devin,Garrett,Sean","It's like a child's art piece: carefree and not trying to conform to anything.,10,180,20","I didn't like this...it looks like someone just finger painted it.,-10,260,20","Love how the red stands out,20,380,20","A bit haphazard looking and lacking in vision,2,380,20","I feel like the colors are too repetitive and not very eyecatching.,-20,180,20","the colors look nice,19,40,20","Ryan","Love how the red stands out,20,380,20","Sean","the colors look nice,19,40,20","Angel","It's like a child's art piece: carefree and not trying to conform to anything.,10,180,20","4"
"28123","","survey-text","74","644300","0.0-72.0-0.0","AXP8EG22MPZY8","","","","{""Q0"":""this is garbage""}","","","","","","","","","","","","","","","","","","","","","","",""
"2238.800000000745","","image-slider-response","75","646545","0.0-73.0","AXP8EG22MPZY8","","","","","-17","","","","","","","","","","","","","","","","","","","","","",""
"null","","image-button-response","76","651553","0.0-74.0","AXP8EG22MPZY8","img_art/27.jpg","null","","","","","","","","","","","","","","","","","","","","","","","","",""
"2297","","image-button-response","77","653854","0.0-75.0","AXP8EG22MPZY8","img_art/27.jpg","1","","","","","","","","","","","","","","","","","","","","","","","","",""
"1808","","image-button-response","78","655669","0.0-76.0-0.0","AXP8EG22MPZY8","img_art/27.jpg","4","","","","","","","","","","","","","","","","","","","","","","","","",""
"741","","image-button-response","79","656420","0.0-77.0-0.0","AXP8EG22MPZY8","img_art/27.jpg","5","","","","","","","","","","","","","","","","","","","","","","","","",""
"null","","html-keyboard-response","80","657926","0.0-78.0","AXP8EG22MPZY8","<p style=""font-size: 48px;"">+</p>","","","","","null","allTrialResponses","1500","1","5","img_art/27.jpg","-17","this is garbage","Angel,Jorge,Ryan,Brendan,Nathan,Sean","Makes me think of Japanese food. I perceive it as comfortable and healthy.,20,180,20","dirty and misunderstood,-47,180,20","I love the childish aspect to it,37,380,20","nice firestorm on desert,23,340,20","Looks a bit like a child's project with unsatisfying colors,-31,200,20","also gives me anxiety,-21,40,20","Jorge","dirty and misunderstood,-47,180,20","Nathan","Looks a bit like a child's project with unsatisfying colors,-31,200,20","Sean","also gives me anxiety,-21,40,20","4"
"5242","","survey-text","81","663192","0.0-79.0-0.0","AXP8EG22MPZY8","","","","{""Q0"":""sky""}","","","","","","","","","","","","","","","","","","","","","","",""
"23726","","survey-text","82","686922","0.0-80.0-0.0","AXP8EG22MPZY8","","","","{""Q0"":""key to the city""}","","","","","","","","","","","","","","","","","","","","","","",""
"3711.800000000745","","image-slider-response","83","690639","0.0-81.0","AXP8EG22MPZY8","","","","","3","","","","","","","","","","","","","","","","","","","","","",""
"4399","","image-button-response","84","695647","0.0-82.0","AXP8EG22MPZY8","img_art/22.jpg","1","","","","","","","","","","","","","","","","","","","","","","","","",""
"772","","image-button-response","85","696426","0.0-83.0","AXP8EG22MPZY8","img_art/22.jpg","1","","","","","","","","","","","","","","","","","","","","","","","","",""
"4893","","image-button-response","86","701329","0.0-84.0-0.0","AXP8EG22MPZY8","img_art/22.jpg","4","","","","","","","","","","","","","","","","","","","","","","","","",""
"2206","","image-button-response","87","703544","0.0-85.0-0.0","AXP8EG22MPZY8","img_art/22.jpg","2","","","","","","","","","","","","","","","","","","","","","","","","",""
"null","","html-keyboard-response","88","704548","0.0-86.0","AXP8EG22MPZY8","<p style=""font-size: 48px;"">+</p>","","","","","null","allTrialResponses","1000","1","6","img_art/22.jpg","3","key to the city","Dylan,Jorge,Jack,Spencer,Nathan,Sean","The colors in this picture are nice.,32,40,20","A key to the unknown,15,180,20","beautiful. love the bright colors & soft brush strokes, and the imprint of the key is genius.,50,320,20","Pretty colors but too blocky for me,-19,120,20","A bit colorful, but slightly enjoyable, almost gives off castle/sunset vibes,10,200,20","my reaction is that the picture is confusion,-9,40,20","Jorge","A key to the unknown,15,180,20","Nathan","A bit colorful, but slightly enjoyable, almost gives off castle/sunset vibes,10,200,20","Jack","beautiful. love the bright colors & soft brush strokes, and the imprint of the key is genius.,50,320,20","4"
"97039","","survey-text","89","801598","0.0-87.0-0.0","AXP8EG22MPZY8","","","","{""Q0"":""like a xerox""}","","","","","","","","","","","","","","","","","","","","","","",""
"3400.699999999255","","image-slider-response","90","805004","0.0-88.0","AXP8EG22MPZY8","","","","","-15","","","","","","","","","","","","","","","","","","","","","",""
"null","","image-button-response","91","810012","0.0-89.0","AXP8EG22MPZY8","img_art/12.jpg","null","","","","","","","","","","","","","","","","","","","","","","","","",""
"5770","","image-button-response","92","815788","0.0-90.0","AXP8EG22MPZY8","img_art/12.jpg","2","","","","","","","","","","","","","","","","","","","","","","","","",""
"7495","","image-button-response","93","823291","0.0-91.0-0.0","AXP8EG22MPZY8","img_art/12.jpg","1","","","","","","","","","","","","","","","","","","","","","","","","",""
"4008","","image-button-response","94","827304","0.0-92.0-0.0","AXP8EG22MPZY8","img_art/12.jpg","0","","","","","","","","","","","","","","","","","","","","","","","","",""
"null","","html-keyboard-response","95","827807","0.0-93.0","AXP8EG22MPZY8","<p style=""font-size: 48px;"">+</p>","","","","","null","allTrialResponses","500","1","7","img_art/12.jpg","-15","like a xerox","Christian,Jorge,Jack,Vincent,Nathan,John","so many different available interpretations for this, would love to closer.,24,140,20","Windows to a different story,6,180,20","interesting, but feels like someone cut up a picture and pasted it together wrong. want to see the original,15,320,20","I have seen some like this before very popular and full of life,42,360,20","Kind of interesting, seems almost nostalgic in a way to me.,10,200,20","Its cool,reminiscent of Andy Warhol type of style,10,120,20","Jack","interesting, but feels like someone cut up a picture and pasted it together wrong. want to see the original,15,320,20","Jorge","Windows to a different story,6,180,20","Christian","so many different available interpretations for this, would love to closer.,24,140,20","4"
"26654","","survey-text","96","854474","0.0-94.0-0.0","AXP8EG22MPZY8","","","","{""Q0"":""deformed hand covered in peanut butter""}","","","","","","","","","","","","","","","","","","","","","","",""
"3464","","image-slider-response","97","857944","0.0-95.0","AXP8EG22MPZY8","","","","","-24","","","","","","","","","","","","","","","","","","","","","",""
"null","","image-button-response","98","862951","0.0-96.0","AXP8EG22MPZY8","img_art/4.jpg","null","","","","","","","","","","","","","","","","","","","","","","","","",""
"4104","","image-button-response","99","867061","0.0-97.0","AXP8EG22MPZY8","img_art/4.jpg","1","","","","","","","","","","","","","","","","","","","","","","","","",""
"4712","","image-button-response","100","871779","0.0-98.0-0.0","AXP8EG22MPZY8","img_art/4.jpg","2","","","","","","","","","","","","","","","","","","","","","","","","",""
"3543","","image-button-response","101","875331","0.0-99.0-0.0","AXP8EG22MPZY8","img_art/4.jpg","4","","","","","","","","","","","","","","","","","","","","","","","","",""
"null","","html-keyboard-response","102","876836","0.0-100.0","AXP8EG22MPZY8","<p style=""font-size: 48px;"">+</p>","","","","","null","allTrialResponses","1500","1","8","img_art/4.jpg","-24","deformed hand covered in peanut butter","Christian,Jorge,Jack,Anthony,Brandon,Juan","no sorry i can't really understand,-18,140,20","creepy as it looks like fingernails,-23,180,20","creepy, looks like a deformed hand, but the background is pretty,5,320,20","Ugly and bland compared to the other pieces.,-33,200,20","Really don't like this. Kindergarten art, sorry.,-50,320,20","Again, this is too abstract and I really don't like the colors.,-21,260,20","Jorge","creepy as it looks like fingernails,-23,180,20","Jack","creepy, looks like a deformed hand, but the background is pretty,5,320,20","Brandon","Really don't like this. Kindergarten art, sorry.,-50,320,20","4"
"28264","","survey-text","103","905114","0.0-101.0-0.0","AXP8EG22MPZY8","","","","{""Q0"":""monster in a bow tie""}","","","","","","","","","","","","","","","","","","","","","","",""
"4370.79999999702","","image-slider-response","104","909493","0.0-102.0","AXP8EG22MPZY8","","","","","-27","","","","","","","","","","","","","","","","","","","","","",""
"null","","image-button-response","105","914501","0.0-103.0","AXP8EG22MPZY8","img_art/2.jpg","null","","","","","","","","","","","","","","","","","","","","","","","","",""
"8537","","image-button-response","106","923044","0.0-104.0","AXP8EG22MPZY8","img_art/2.jpg","5","","","","","","","","","","","","","","","","","","","","","","","","",""
"2266","","image-button-response","107","925316","0.0-105.0-0.0","AXP8EG22MPZY8","img_art/2.jpg","4","","","","","","","","","","","","","","","","","","","","","","","","",""
"1873","","image-button-response","108","927197","0.0-106.0-0.0","AXP8EG22MPZY8","img_art/2.jpg","3","","","","","","","","","","","","","","","","","","","","","","","","",""
"null","","html-keyboard-response","109","927701","0.0-107.0","AXP8EG22MPZY8","<p style=""font-size: 48px;"">+</p>","","","","","null","allTrialResponses","500","1","9","img_art/2.jpg","-27","monster in a bow tie","Patrick,Jorge,Jack,Noah,Brandon,Michael","Dark tone feels sad,-30,280,20","Confused and disoriented,-33,180,20","the colors are a bit odd, and the squiggly line at the top is distracting,0,320,20","again, I struggle to see the art and I dislike the green in particular.,-31,260,20","Do not like this type of abstract work,-50,320,20","Random colors and shapes mashed together. Nothing artistic, but better than some of the other ones.,-37,140,20","Michael","Random colors and shapes mashed together. Nothing artistic, but better than some of the other ones.,-37,140,20","Brandon","Do not like this type of abstract work,-50,320,20","Noah","again, I struggle to see the art and I dislike the green in particular.,-31,260,20","4"
"17259","","survey-text","110","944967","0.0-108.0-0.0","AXP8EG22MPZY8","","","","{""Q0"":""dirty electric city""}","","","","","","","","","","","","","","","","","","","","","","",""
"2857.60000000149","","image-slider-response","111","947832","0.0-109.0","AXP8EG22MPZY8","","","","","24","","","","","","","","","","","","","","","","","","","","","",""
"null","","image-button-response","112","952838","0.0-110.0","AXP8EG22MPZY8","img_art/11.jpg","null","","","","","","","","","","","","","","","","","","","","","","","","",""
"9402","","image-button-response","113","962244","0.0-111.0","AXP8EG22MPZY8","img_art/11.jpg","1","","","","","","","","","","","","","","","","","","","","","","","","",""
"3646","","image-button-response","114","965896","0.0-112.0-0.0","AXP8EG22MPZY8","img_art/11.jpg","0","","","","","","","","","","","","","","","","","","","","","","","","",""
"1432","","image-button-response","115","967336","0.0-113.0-0.0","AXP8EG22MPZY8","img_art/11.jpg","2","","","","","","","","","","","","","","","","","","","","","","","","",""
"null","","html-keyboard-response","116","968842","0.0-114.0","AXP8EG22MPZY8","<p style=""font-size: 48px;"">+</p>","","","","","null","allTrialResponses","1500","1","10","img_art/11.jpg","24","dirty electric city","Dustin,Ian,Logan,Noah,Brandon,Michael","Dark and dreary. Makes me think of rain/water. I see grey clouds and high waves. Looks unsettling.,-20,20,20","This one is a little erie, gives me post-apocalyptic feeling,27,260,20","life is a highway,12,360,20","I enjoy the kandinsky-like general vibe, but the grey brings me down a bit,27,260,20","Don't like cityscapes, which this picture reminds me of,-29,320,20","It's kind of cool and I see it looks clean.,22,140,20","Ian","This one is a little erie, gives me post-apocalyptic feeling,27,260,20","Dustin","Dark and dreary. Makes me think of rain/water. I see grey clouds and high waves. Looks unsettling.,-20,20,20","Logan","life is a highway,12,360,20","4"
"11639","","survey-text","117","980504","0.0-115.0-0.0","AXP8EG22MPZY8","","","","{""Q0"":""our""}","","","","","","","","","","","","","","","","","","","","","","",""
"21929","","survey-text","118","1002438","0.0-116.0-0.0","AXP8EG22MPZY8","","","","{""Q0"":""fall trees""}","","","","","","","","","","","","","","","","","","","","","","",""
"2124.2999999970198","","image-slider-response","119","1004570","0.0-117.0","AXP8EG22MPZY8","","","","","7","","","","","","","","","","","","","","","","","","","","","",""
"2993","","image-button-response","120","1009575","0.0-118.0","AXP8EG22MPZY8","img_art/1.jpg","4","","","","","","","","","","","","","","","","","","","","","","","","",""
"1079","","image-button-response","121","1010661","0.0-119.0","AXP8EG22MPZY8","img_art/1.jpg","4","","","","","","","","","","","","","","","","","","","","","","","","",""
"1930","","image-button-response","122","1012598","0.0-120.0-0.0","AXP8EG22MPZY8","img_art/1.jpg","5","","","","","","","","","","","","","","","","","","","","","","","","",""
"7388","","image-button-response","123","1019991","0.0-121.0-0.0","AXP8EG22MPZY8","img_art/1.jpg","2","","","","","","","","","","","","","","","","","","","","","","","","",""
"null","","html-keyboard-response","124","1020496","0.0-122.0","AXP8EG22MPZY8","<p style=""font-size: 48px;"">+</p>","","","","","null","allTrialResponses","500","1","11","img_art/1.jpg","7","fall trees","Dustin,Ian,Logan,Stephen,Luke,Richard","Too messy. Just looks like a mess of dark colors.,-20,20,20","Someone painted a landscape and decided they didn't like it so they covered it up.,13,260,20","looks like an earlier painting. I wish I gave it -20 but oh well,21,360,20","Nothing really going on but good color choices.,-3,140,20","it is very colorful and makes me happy,44,20,20","nice piece, fall like,31,340,20","Luke","it is very colorful and makes me happy,44,20,20","Richard","nice piece, fall like,31,340,20","Logan","looks like an earlier painting. I wish I gave it -20 but oh well,21,360,20","4"
"19283","","survey-text","125","1039788","0.0-123.0-0.0","AXP8EG22MPZY8","","","","{""Q0"":""crow laying an egg""}","","","","","","","","","","","","","","","","","","","","","","",""
"3011.10000000149","","image-slider-response","126","1042806","0.0-124.0","AXP8EG22MPZY8","","","","","-21","","","","","","","","","","","","","","","","","","","","","",""
"null","","image-button-response","127","1047812","0.0-125.0","AXP8EG22MPZY8","img_art/6.jpg","null","","","","","","","","","","","","","","","","","","","","","","","","",""
"1494","","image-button-response","128","1049312","0.0-126.0","AXP8EG22MPZY8","img_art/6.jpg","2","","","","","","","","","","","","","","","","","","","","","","","","",""
"4539","","image-button-response","129","1053857","0.0-127.0-0.0","AXP8EG22MPZY8","img_art/6.jpg","5","","","","","","","","","","","","","","","","","","","","","","","","",""
"1729","","image-button-response","130","1055592","0.0-128.0-0.0","AXP8EG22MPZY8","img_art/6.jpg","3","","","","","","","","","","","","","","","","","","","","","","","","",""
"null","","html-keyboard-response","131","1057095","0.0-129.0","AXP8EG22MPZY8","<p style=""font-size: 48px;"">+</p>","","","","","null","allTrialResponses","1500","1","12","img_art/6.jpg","-21","crow laying an egg","Cody,Gregory,Logan,Derek,Luke,Richard","Birds are cool but I don't love it,10,180,20","Tree growing in a desert. Gives me feelings of hope,5,220,20","boring. don't really like birds,1,360,20","Too basic for me,-20,360,20","i like it but it is very neutral,9,20,20","simplistic but reminds me of a crow in a field,-10,340,20","Logan","boring. don't really like birds,1,360,20","Richard","simplistic but reminds me of a crow in a field,-10,340,20","Derek","Too basic for me,-20,360,20","4"
"18320","","survey-text","132","1075424","0.0-130.0-0.0","AXP8EG22MPZY8","","","","{""Q0"":""sleeping woman in a forest""}","","","","","","","","","","","","","","","","","","","","","","",""
"3279.39999999851","","image-slider-response","133","1078708","0.0-131.0","AXP8EG22MPZY8","","","","","7","","","","","","","","","","","","","","","","","","","","","",""
"null","","image-button-response","134","1083714","0.0-132.0","AXP8EG22MPZY8","img_art/9.jpg","null","","","","","","","","","","","","","","","","","","","","","","","","",""
"4098","","image-button-response","135","1087816","0.0-133.0","AXP8EG22MPZY8","img_art/9.jpg","2","","","","","","","","","","","","","","","","","","","","","","","","",""
"2419","","image-button-response","136","1090242","0.0-134.0-0.0","AXP8EG22MPZY8","img_art/9.jpg","5","","","","","","","","","","","","","","","","","","","","","","","","",""
"4208","","image-button-response","137","1094460","0.0-135.0-0.0","AXP8EG22MPZY8","img_art/9.jpg","3","","","","","","","","","","","","","","","","","","","","","","","","",""
"null","","html-keyboard-response","138","1094965","0.0-136.0","AXP8EG22MPZY8","<p style=""font-size: 48px;"">+</p>","","","","","null","allTrialResponses","500","1","13","img_art/9.jpg","7","sleeping woman in a forest","Alejandro,Edward,Logan,Derek,Jordan,Richard","Evokes triumph of a mountain over powering a drowning sea,24,80,20","The colors remind me of peacocks,24,60,20","is that sleeping beauty,33,360,20","It's wild and chaotic but also beautiful and has some kind of calming factor about it,20,360,20","Reminds me of a cave in a scary movie,-21,160,20","looks like an imitation of a real piece of art, reclining lady,-1,340,20","Logan","is that sleeping beauty,33,360,20","Richard","looks like an imitation of a real piece of art, reclining lady,-1,340,20","Derek","It's wild and chaotic but also beautiful and has some kind of calming factor about it,20,360,20","4"
"32193","","survey-text","139","1127169","0.0-137.0-0.0","AXP8EG22MPZY8","","","","{""Q0"":""the ghost of trees haunt the strip mall""}","","","","","","","","","","","","","","","","","","","","","","",""
"4361","","image-slider-response","140","1131536","0.0-138.0","AXP8EG22MPZY8","","","","","31","","","","","","","","","","","","","","","","","","","","","",""
"null","","image-button-response","141","1136544","0.0-139.0","AXP8EG22MPZY8","img_art/17.jpg","null","","","","","","","","","","","","","","","","","","","","","","","","",""
"4753","","image-button-response","142","1141303","0.0-140.0","AXP8EG22MPZY8","img_art/17.jpg","4","","","","","","","","","","","","","","","","","","","","","","","","",""
"2634","","image-button-response","143","1143942","0.0-141.0-0.0","AXP8EG22MPZY8","img_art/17.jpg","3","","","","","","","","","","","","","","","","","","","","","","","","",""
"3851","","image-button-response","144","1147801","0.0-142.0-0.0","AXP8EG22MPZY8","img_art/17.jpg","5","","","","","","","","","","","","","","","","","","","","","","","","",""
"null","","html-keyboard-response","145","1148805","0.0-143.0","AXP8EG22MPZY8","<p style=""font-size: 48px;"">+</p>","","","","","null","allTrialResponses","1000","1","14","img_art/17.jpg","31","the ghost of trees haunt the strip mall","Jake,Jose,Logan,Derek,Alexis,Richard","This could have been good but was poorly done.,-5,360,20","Looks like a weird blurry heaven again! I dig,32,200,20","similar to last one, still pretty cool but I liked arrangement of last one better,13,360,20","The colors are beautiful and the painting itself is magnificent,50,360,20","This makes me feel inspired and happy. I love everything about this portrait,45,140,20","nice composition and colors, fairy land,28,340,20","Alexis","This makes me feel inspired and happy. I love everything about this portrait,45,140,20","Derek","The colors are beautiful and the painting itself is magnificent,50,360,20","Richard","nice composition and colors, fairy land,28,340,20","4"
"22937","","survey-text","146","1171757","0.0-144.0-0.0","AXP8EG22MPZY8","","","","{""Q0"":""get your science project off of my kitchen table!!""}","","","","","","","","","","","","","","","","","","","","","","",""
"3543","","image-slider-response","147","1175307","0.0-145.0","AXP8EG22MPZY8","","","","","-11","","","","","","","","","","","","","","","","","","","","","",""
"4498","","image-button-response","148","1180315","0.0-146.0","AXP8EG22MPZY8","img_art/14.jpg","4","","","","","","","","","","","","","","","","","","","","","","","","",""
"752","","image-button-response","149","1181072","0.0-147.0","AXP8EG22MPZY8","img_art/14.jpg","4","","","","","","","","","","","","","","","","","","","","","","","","",""
"10595","","image-button-response","150","1191675","0.0-148.0-0.0","AXP8EG22MPZY8","img_art/14.jpg","2","","","","","","","","","","","","","","","","","","","","","","","","",""
"5931","","image-button-response","151","1197614","0.0-149.0-0.0","AXP8EG22MPZY8","img_art/14.jpg","3","","","","","","","","","","","","","","","","","","","","","","","","",""
"null","","html-keyboard-response","152","1198120","0.0-150.0","AXP8EG22MPZY8","<p style=""font-size: 48px;"">+</p>","","","","","null","allTrialResponses","500","1","15","img_art/14.jpg","-11","get your science project off of my kitchen table!!","Carlos,Steven,Nathaniel,Derek,Alexis,Richard","The lighting feels like spring.,20,80,20","this one isn't bad, reminds me a tree that gives life, and people are waiting for someone new to be born,27,160,20","Not quite the style I'd like, but it does have a certain air of emptiness.,12,220,20","Very abstract and colorful,40,360,20","It looks like a table centerpiece,-22,140,20","the colors are peaceful and nature colors, soft,37,340,20","Alexis","It looks like a table centerpiece,-22,140,20","Nathaniel","Not quite the style I'd like, but it does have a certain air of emptiness.,12,220,20","Derek","Very abstract and colorful,40,360,20","4"
"5604","","survey-text","153","1203745","0.0-151.0-0.0","AXP8EG22MPZY8","","","","{""Q0"":""course""}","","","","","","","","","","","","","","","","","","","","","","",""
"16679","","survey-text","154","1220430","0.0-152.0-0.0","AXP8EG22MPZY8","","","","{""Q0"":""storm over normandy""}","","","","","","","","","","","","","","","","","","","","","","",""
"3538.199999999255","","image-slider-response","155","1223974","0.0-153.0","AXP8EG22MPZY8","","","","","7","","","","","","","","","","","","","","","","","","","","","",""
"null","","image-button-response","156","1228981","0.0-154.0","AXP8EG22MPZY8","img_art/21.jpg","null","","","","","","","","","","","","","","","","","","","","","","","","",""
"7359","","image-button-response","157","1236345","0.0-155.0","AXP8EG22MPZY8","img_art/21.jpg","1","","","","","","","","","","","","","","","","","","","","","","","","",""
"1868","","image-button-response","158","1238220","0.0-156.0-0.0","AXP8EG22MPZY8","img_art/21.jpg","3","","","","","","","","","","","","","","","","","","","","","","","","",""
"6780","","image-button-response","159","1245008","0.0-157.0-0.0","AXP8EG22MPZY8","img_art/21.jpg","0","","","","","","","","","","","","","","","","","","","","","","","","",""
"null","","html-keyboard-response","160","1246012","0.0-158.0","AXP8EG22MPZY8","<p style=""font-size: 48px;"">+</p>","","","","","null","allTrialResponses","1000","1","16","img_art/21.jpg","7","storm over normandy","Mark,Alexander,Nathaniel,Derek,Alexis,Jesse","It feels like a day at sea but the pink is slightly jarring and holding my eye.,26,80,20","Survivable storm on the open sea.,27,120,20","Looks like two ships on fire. Cool image.,12,220,20","I love the colors in this painting,30,360,20","It makes me feel mellow or ""chill"". It makes me have a positive and calm mood,42,140,20","I dont like how nothing is defined and the colors dont work for me,-5,80,20","Alexander","Survivable storm on the open sea.,27,120,20","Derek","I love the colors in this painting,30,360,20","Mark","It feels like a day at sea but the pink is slightly jarring and holding my eye.,26,80,20","4"
"28149","","survey-text","161","1274176","0.0-159.0-0.0","AXP8EG22MPZY8","","","","{""Q0"":""this living room is a mess!! get those trees out of here""}","","","","","","","","","","","","","","","","","","","","","","",""
"2448.60000000149","","image-slider-response","162","1276631","0.0-160.0","AXP8EG22MPZY8","","","","","14","","","","","","","","","","","","","","","","","","","","","",""
"null","","image-button-response","163","1281637","0.0-161.0","AXP8EG22MPZY8","img_art/26.jpg","null","","","","","","","","","","","","","","","","","","","","","","","","",""
"2315","","image-button-response","164","1283957","0.0-162.0","AXP8EG22MPZY8","img_art/26.jpg","4","","","","","","","","","","","","","","","","","","","","","","","","",""
"3875","","image-button-response","165","1287840","0.0-163.0-0.0","AXP8EG22MPZY8","img_art/26.jpg","2","","","","","","","","","","","","","","","","","","","","","","","","",""
"1133","","image-button-response","166","1288988","0.0-164.0-0.0","AXP8EG22MPZY8","img_art/26.jpg","5","","","","","","","","","","","","","","","","","","","","","","","","",""
"null","","html-keyboard-response","167","1290494","0.0-165.0","AXP8EG22MPZY8","<p style=""font-size: 48px;"">+</p>","","","","","null","allTrialResponses","1500","1","17","img_art/26.jpg","14","this living room is a mess!! get those trees out of here","Mark,Alexander,Joshua,Derek,Miguel,Paul","I get the feeling of a small old world street.,24,80,20","Confusing park picture.,8,120,20","This is boring.,-15,240,20","Looks messy and like it was painted by a small child,-48,360,20","Murky, messy, kid like.,-45,160,20","It looks empty and unfinished,-28,300,20","Miguel","Murky, messy, kid like.,-45,160,20","Joshua","This is boring.,-15,240,20","Paul","It looks empty and unfinished,-28,300,20","4"
"37704","","survey-text","168","1328208","0.0-166.0-0.0","AXP8EG22MPZY8","","","","{""Q0"":""18 wheeler crashed into a stegosaurus skull""}","","","","","","","","","","","","","","","","","","","","","","",""
"6457.599999997765","","image-slider-response","169","1334671","0.0-167.0","AXP8EG22MPZY8","","","","","26","","","","","","","","","","","","","","","","","","","","","",""
"null","","image-button-response","170","1339678","0.0-168.0","AXP8EG22MPZY8","img_art/20.jpg","null","","","","","","","","","","","","","","","","","","","","","","","","",""
"4994","","image-button-response","171","1344678","0.0-169.0","AXP8EG22MPZY8","img_art/20.jpg","2","","","","","","","","","","","","","","","","","","","","","","","","",""
"3427","","image-button-response","172","1348110","0.0-170.0-0.0","AXP8EG22MPZY8","img_art/20.jpg","3","","","","","","","","","","","","","","","","","","","","","","","","",""
"6477","","image-button-response","173","1354596","0.0-171.0-0.0","AXP8EG22MPZY8","img_art/20.jpg","1","","","","","","","","","","","","","","","","","","","","","","","","",""
"null","","html-keyboard-response","174","1355103","0.0-172.0","AXP8EG22MPZY8","<p style=""font-size: 48px;"">+</p>","","","","","null","allTrialResponses","500","1","18","img_art/20.jpg","26","18 wheeler crashed into a stegosaurus skull","Jared,Matthew,Joshua,Joseph,Miguel,Paul","i like the rounded edges,18,400,20","Painting within a painting, abstract.,32,120,20","Reminds me of the Southwest; i.e. New Mexico or Arizona. It's interesting.,12,240,20","Something fell over and is burning, but it's kinda dope, you know?,14,220,20","It's ok. Very abstract.,18,160,20","It looks like a junkyard and isn't appealing,-22,300,20","Joshua","Reminds me of the Southwest; i.e. New Mexico or Arizona. It's interesting.,12,240,20","Joseph","Something fell over and is burning, but it's kinda dope, you know?,14,220,20","Matthew","Painting within a painting, abstract.,32,120,20","4"
"35423","","survey-text","175","1390535","0.0-173.0-0.0","AXP8EG22MPZY8","","","","{""Q0"":""horsemen of the apocalypse ""}","","","","","","","","","","","","","","","","","","","","","","",""
"2275.39999999851","","image-slider-response","176","1392817","0.0-174.0","AXP8EG22MPZY8","","","","","23","","","","","","","","","","","","","","","","","","","","","",""
"null","","image-button-response","177","1397825","0.0-175.0","AXP8EG22MPZY8","img_art/18.jpg","null","","","","","","","","","","","","","","","","","","","","","","","","",""
"2785","","image-button-response","178","1400614","0.0-176.0","AXP8EG22MPZY8","img_art/18.jpg","2","","","","","","","","","","","","","","","","","","","","","","","","",""
"2302","","image-button-response","179","1402922","0.0-177.0-0.0","AXP8EG22MPZY8","img_art/18.jpg","5","","","","","","","","","","","","","","","","","","","","","","","","",""
"3005","","image-button-response","180","1405932","0.0-178.0-0.0","AXP8EG22MPZY8","img_art/18.jpg","0","","","","","","","","","","","","","","","","","","","","","","","","",""
"null","","html-keyboard-response","181","1407435","0.0-179.0","AXP8EG22MPZY8","<p style=""font-size: 48px;"">+</p>","","","","","null","allTrialResponses","1500","1","19","img_art/18.jpg","23","horsemen of the apocalypse ","Elijah,Matthew,Joshua,Joseph,Isaiah,Devon","Makes me feel confused,16,80,20","Resembles a ship at sea, storm of activity.,28,120,20","Looks like ghost figures on a boat. It's okay.,7,240,20","It's like a ship, but a freaky ship.,-11,220,20","I'm mildly disgusted by the colors, and can't piece together the story the figures are trying to tell.,-10,300,20","I really like this one - there seems to be a story behind it,32,400,20","Joshua","Looks like ghost figures on a boat. It's okay.,7,240,20","Devon","I really like this one - there seems to be a story behind it,32,400,20","Elijah","Makes me feel confused,16,80,20","4"
"36378","","survey-text","182","1443829","0.0-180.0-0.0","AXP8EG22MPZY8","","","","{""Q0"":""a shame Jeffrey Dahmer never got to finish this. ""}","","","","","","","","","","","","","","","","","","","","","","",""
"4428.199999999255","","image-slider-response","183","1448262","0.0-181.0","AXP8EG22MPZY8","","","","","-39","","","","","","","","","","","","","","","","","","","","","",""
"null","","image-button-response","184","1453270","0.0-182.0","AXP8EG22MPZY8","img_art/16.jpg","null","","","","","","","","","","","","","","","","","","","","","","","","",""
"145","","image-button-response","185","1453421","0.0-183.0","AXP8EG22MPZY8","img_art/16.jpg","2","","","","","","","","","","","","","","","","","","","","","","","","",""
"1964","","image-button-response","186","1455391","0.0-184.0-0.0","AXP8EG22MPZY8","img_art/16.jpg","4","","","","","","","","","","","","","","","","","","","","","","","","",""
"3074","","image-button-response","187","1458472","0.0-185.0-0.0","AXP8EG22MPZY8","img_art/16.jpg","5","","","","","","","","","","","","","","","","","","","","","","","","",""
"null","","html-keyboard-response","188","1459488","0.0-186.0","AXP8EG22MPZY8","<p style=""font-size: 48px;"">+</p>","","","","","null","allTrialResponses","1000","1","20","img_art/16.jpg","-39","a shame Jeffrey Dahmer never got to finish this. ","Elijah,Connor,Joshua,Robert,Andrew,Devon","The bear is terrifying,-50,80,20","Not original. Bear is odd,-50,240,20","This is weird and a little creepy.,6,240,20","It looks violent.,-30,360,20","It just makes me feel uncomfortable,-25,160,20","The teddy bear looks really scared,-30,400,20","Joshua","This is weird and a little creepy.,6,240,20","Andrew","It just makes me feel uncomfortable,-25,160,20","Devon","The teddy bear looks really scared,-30,400,20","4"
"3455","","survey-text","189","1462958","0.0-187.0-0.0","AXP8EG22MPZY8","","","","{""Q0"":""we""}","","","","","","","","","","","","","","","","","","","","","","",""
"33340","","survey-text","190","1496306","0.0-188.0-0.0","AXP8EG22MPZY8","","","","{""Q0"":""stinky duck foot""}","","","","","","","","","","","","","","","","","","","","","","",""
"4375.199999999255","","image-slider-response","191","1500687","0.0-189.0","AXP8EG22MPZY8","","","","","-26","","","","","","","","","","","","","","","","","","","","","",""
"2992","","image-button-response","192","1505694","0.0-190.0","AXP8EG22MPZY8","img_art/5.jpg","3","","","","","","","","","","","","","","","","","","","","","","","","",""
"1018","","image-button-response","193","1506720","0.0-191.0","AXP8EG22MPZY8","img_art/5.jpg","3","","","","","","","","","","","","","","","","","","","","","","","","",""
"1428","","image-button-response","194","1508155","0.0-192.0-0.0","AXP8EG22MPZY8","img_art/5.jpg","1","","","","","","","","","","","","","","","","","","","","","","","","",""
"2197","","image-button-response","195","1510360","0.0-193.0-0.0","AXP8EG22MPZY8","img_art/5.jpg","5","","","","","","","","","","","","","","","","","","","","","","","","",""
"null","","html-keyboard-response","196","1511363","0.0-194.0","AXP8EG22MPZY8","<p style=""font-size: 48px;"">+</p>","","","","","null","allTrialResponses","1000","1","21","img_art/5.jpg","-26","stinky duck foot","Malik,Christopher,Joshua,William,Andrew,Devon","Not sure what I'm looking at,-16,40,20","looks very childish,-35,160,20","Very basic, but at least has some color to it.,-9,240,20","very boring and plain,-35,380,20","Doesn't make me think anything,-1,160,20","a bit confused about this picture,-9,400,20","William","very boring and plain,-35,380,20","Christopher","looks very childish,-35,160,20","Devon","a bit confused about this picture,-9,400,20","4"
"36242","","survey-text","197","1547615","0.0-195.0-0.0","AXP8EG22MPZY8","","","","{""Q0"":""Jeffrey Epstein's walls""}","","","","","","","","","","","","","","","","","","","","","","",""
"3154.800000000745","","image-slider-response","198","1550776","0.0-196.0","AXP8EG22MPZY8","","","","","-34","","","","","","","","","","","","","","","","","","","","","",""
"null","","image-button-response","199","1555784","0.0-197.0","AXP8EG22MPZY8","img_art/13.jpg","null","","","","","","","","","","","","","","","","","","","","","","","","",""
"2671","","image-button-response","200","1558460","0.0-198.0","AXP8EG22MPZY8","img_art/13.jpg","0","","","","","","","","","","","","","","","","","","","","","","","","",""
"4714","","image-button-response","201","1563181","0.0-199.0-0.0","AXP8EG22MPZY8","img_art/13.jpg","3","","","","","","","","","","","","","","","","","","","","","","","","",""
"2644","","image-button-response","202","1565835","0.0-200.0-0.0","AXP8EG22MPZY8","img_art/13.jpg","5","","","","","","","","","","","","","","","","","","","","","","","","",""
"null","","html-keyboard-response","203","1566339","0.0-201.0","AXP8EG22MPZY8","<p style=""font-size: 48px;"">+</p>","","","","","null","allTrialResponses","500","1","22","img_art/13.jpg","-34","Jeffrey Epstein's walls","David,Christopher,Bryce,William,Austin,Devon","I like the color coordination between the foreground and background.,10,340,20","this is an appealing mix of textures to me and the color scheme is harmonious,36,160,20","My favorite!,47,20,20","reminds me of rain,36,380,20","Love the splash of colors,50,240,20","I like this picture. The choice of colors are good,31,400,20","David","I like the color coordination between the foreground and background.,10,340,20","William","reminds me of rain,36,380,20","Devon","I like this picture. The choice of colors are good,31,400,20","4"
"27213","","survey-text","204","1593571","0.0-202.0-0.0","AXP8EG22MPZY8","","","","{""Q0"":""sad village""}","","","","","","","","","","","","","","","","","","","","","","",""
"4006.800000000745","","image-slider-response","205","1597585","0.0-203.0","AXP8EG22MPZY8","","","","","-21","","","","","","","","","","","","","","","","","","","","","",""
"2857","","image-button-response","206","1602593","0.0-204.0","AXP8EG22MPZY8","img_art/19.jpg","3","","","","","","","","","","","","","","","","","","","","","","","","",""
"743","","image-button-response","207","1603342","0.0-205.0","AXP8EG22MPZY8","img_art/19.jpg","3","","","","","","","","","","","","","","","","","","","","","","","","",""
"1758","","image-button-response","208","1605105","0.0-206.0-0.0","AXP8EG22MPZY8","img_art/19.jpg","4","","","","","","","","","","","","","","","","","","","","","","","","",""
"4312","","image-button-response","209","1609425","0.0-207.0-0.0","AXP8EG22MPZY8","img_art/19.jpg","0","","","","","","","","","","","","","","","","","","","","","","","","",""
"null","","html-keyboard-response","210","1610430","0.0-208.0","AXP8EG22MPZY8","<p style=""font-size: 48px;"">+</p>","","","","","null","allTrialResponses","1000","1","23","img_art/19.jpg","-21","sad village","David,Alex,Cameron,William,Blake,Devon","The image doesn't really invoke any emotions strongly.,0,340,20","I like the water but again, the small lines with no detail are irritating,3,100,20","Snowy winter scene,25,60,20","to much going on,-22,380,20","an old cityfrom many years ago. its ok,6,280,20","this looks like a busy city lifestyle,24,400,20","William","to much going on,-22,380,20","Blake","an old cityfrom many years ago. its ok,6,280,20","David","The image doesn't really invoke any emotions strongly.,0,340,20","4"
"30233","","survey-text","211","1640674","0.0-209.0-0.0","AXP8EG22MPZY8","","","","{""Q0"":""milk sewer""}","","","","","","","","","","","","","","","","","","","","","","",""
"6616.300000000745","","image-slider-response","212","1647294","0.0-210.0","AXP8EG22MPZY8","","","","","29","","","","","","","","","","","","","","","","","","","","","",""
"null","","image-button-response","213","1652302","0.0-211.0","AXP8EG22MPZY8","img_art/24.jpg","null","","","","","","","","","","","","","","","","","","","","","","","","",""
"1321","","image-button-response","214","1653627","0.0-212.0","AXP8EG22MPZY8","img_art/24.jpg","0","","","","","","","","","","","","","","","","","","","","","","","","",""
"1168","","image-button-response","215","1654801","0.0-213.0-0.0","AXP8EG22MPZY8","img_art/24.jpg","3","","","","","","","","","","","","","","","","","","","","","","","","",""
"20616","","image-button-response","216","1675425","0.0-214.0-0.0","AXP8EG22MPZY8","img_art/24.jpg","4","","","","","","","","","","","","","","","","","","","","","","","","",""
"null","","html-keyboard-response","217","1676928","0.0-215.0","AXP8EG22MPZY8","<p style=""font-size: 48px;"">+</p>","","","","","null","allTrialResponses","1500","1","24","img_art/24.jpg","29","milk sewer","David,Charles,Cole,William,Blake,Ethan","Invokes a strong sense of nature, since the piece can interpreted as a stream or an abstracted bird.,40,340,20","It just feels a little bland for me,-23,100,20","Abstract waterfall landscape. Confusing,-13,200,20","very peaceful and serene,47,380,20","warm spring day after a rain. soft,20,280,20","This is sort of interesting. I think it's a bit busy. Less is more.,3,120,20","David","Invokes a strong sense of nature, since the piece can interpreted as a stream or an abstracted bird.,40,340,20","William","very peaceful and serene,47,380,20","Blake","warm spring day after a rain. soft,20,280,20","4"
"11136","","survey-text","218","1688084","0.0-216.0-0.0","AXP8EG22MPZY8","","","","{""Q0"":""burning man""}","","","","","","","","","","","","","","","","","","","","","","",""
"3413.400000002235","","image-slider-response","219","1691506","0.0-217.0","AXP8EG22MPZY8","","","","","-34","","","","","","","","","","","","","","","","","","","","","",""
"4802","","image-button-response","220","1696513","0.0-218.0","AXP8EG22MPZY8","img_art/25.jpg","1","","","","","","","","","","","","","","","","","","","","","","","","",""
"1504","","image-button-response","221","1698023","0.0-219.0","AXP8EG22MPZY8","img_art/25.jpg","3","","","","","","","","","","","","","","","","","","","","","","","","",""
"888","","image-button-response","222","1698919","0.0-220.0-0.0","AXP8EG22MPZY8","img_art/25.jpg","1","","","","","","","","","","","","","","","","","","","","","","","","",""
"899","","image-button-response","223","1699827","0.0-221.0-0.0","AXP8EG22MPZY8","img_art/25.jpg","2","","","","","","","","","","","","","","","","","","","","","","","","",""
"null","","html-keyboard-response","224","1701331","0.0-222.0","AXP8EG22MPZY8","<p style=""font-size: 48px;"">+</p>","","","","","null","allTrialResponses","1500","1","25","img_art/25.jpg","-34","burning man","David,Zachary,Chase,William,Blake,Adrian","Depicts something negative, such as ritual. I'm not a fan.,-10,340,20","I like the green color, but the combination of green and a person with a long neck reminds me of aliens,-27,400,20","Not particularly interesting for me. The green color is strange mixed with this.,-11,120,20","makes me think of a scary movie,-20,380,20","ugly color and very sad old lady,-45,280,20","This piece makes me think of oppression and fighting it. Makes me feel calm, sad and strong.,11,60,20","William","makes me think of a scary movie,-20,380,20","Zachary","I like the green color, but the combination of green and a person with a long neck reminds me of aliens,-27,400,20","Chase","Not particularly interesting for me. The green color is strange mixed with this.,-11,120,20","4"
"7867","","survey-text","225","1709228","0.0-223.0-0.0","AXP8EG22MPZY8","","","","{""Q0"":""table""}","","","","","","","","","","","","","","","","","","","","","","",""
"27422","","survey-text","226","1736658","0.0-224.0-0.0","AXP8EG22MPZY8","","","","{""Q0"":""sad man fell out of his wheelchair at the crosswalk""}","","","","","","","","","","","","","","","","","","","","","","",""
"3415.300000000745","","image-slider-response","227","1740080","0.0-225.0","AXP8EG22MPZY8","","","","","21","","","","","","","","","","","","","","","","","","","","","",""
"null","","image-button-response","228","1745086","0.0-226.0","AXP8EG22MPZY8","img_art/28.jpg","null","","","","","","","","","","","","","","","","","","","","","","","","",""
"7056","","image-button-response","229","1752148","0.0-227.0","AXP8EG22MPZY8","img_art/28.jpg","4","","","","","","","","","","","","","","","","","","","","","","","","",""
"8969","","image-button-response","230","1761124","0.0-228.0-0.0","AXP8EG22MPZY8","img_art/28.jpg","1","","","","","","","","","","","","","","","","","","","","","","","","",""
"1707","","image-button-response","231","1762840","0.0-229.0-0.0","AXP8EG22MPZY8","img_art/28.jpg","5","","","","","","","","","","","","","","","","","","","","","","","","",""
"null","","html-keyboard-response","232","1763843","0.0-230.0","AXP8EG22MPZY8","<p style=""font-size: 48px;"">+</p>","","","","","null","allTrialResponses","1000","1","26","img_art/28.jpg","21","sad man fell out of his wheelchair at the crosswalk","Taylor,Zachary,Chase,William,Tanner,Peter","Bug meets bug in a dark alley.,-20,200,20","Too muted and bland. I like my art to be vivid.,-11,400,20","I don't like the washed out colors.,-15,120,20","drab and dreary,-21,380,20","almost reminds me of thomas becket getting his head cut off,21,180,20","The earthy colors smeared around looks like prison food tray,-17,320,20","Tanner","almost reminds me of thomas becket getting his head cut off,21,180,20","Zachary","Too muted and bland. I like my art to be vivid.,-11,400,20","Peter","The earthy colors smeared around looks like prison food tray,-17,320,20","4"
"15351","","survey-text","233","1779203","0.0-231.0-0.0","AXP8EG22MPZY8","","","","{""Q0"":""the painter was murdered here""}","","","","","","","","","","","","","","","","","","","","","","",""
"2832.60000000149","","image-slider-response","234","1782044","0.0-232.0","AXP8EG22MPZY8","","","","","-18","","","","","","","","","","","","","","","","","","","","","",""
"3753","","image-button-response","235","1787052","0.0-233.0","AXP8EG22MPZY8","img_art/29.jpg","3","","","","","","","","","","","","","","","","","","","","","","","","",""
"560","","image-button-response","236","1787617","0.0-234.0","AXP8EG22MPZY8","img_art/29.jpg","3","","","","","","","","","","","","","","","","","","","","","","","","",""
"1182","","image-button-response","237","1788807","0.0-235.0-0.0","AXP8EG22MPZY8","img_art/29.jpg","1","","","","","","","","","","","","","","","","","","","","","","","","",""
"1321","","image-button-response","238","1790138","0.0-236.0-0.0","AXP8EG22MPZY8","img_art/29.jpg","5","","","","","","","","","","","","","","","","","","","","","","","","",""
"null","","html-keyboard-response","239","1791659","0.0-237.0","AXP8EG22MPZY8","<p style=""font-size: 48px;"">+</p>","","","","","null","allTrialResponses","1500","1","27","img_art/29.jpg","-18","the painter was murdered here","Kyle,Zachary,Colton,Thomas,Tanner,Peter","I like the usage of blacks and greys in this,8,340,20","It looks like someone did not like their art and drew an x over it.,-32,400,20","interesting, but I wouldn't put it on my wall,8,220,20","Looks messy, but not in appealing way,-20,220,20","danger, crime scene,,10,180,20","Looks like a jail cell,-15,320,20","Thomas","Looks messy, but not in appealing way,-20,220,20","Zachary","It looks like someone did not like their art and drew an x over it.,-32,400,20","Peter","Looks like a jail cell,-15,320,20","4"
"46972","","survey-text","240","1838648","0.0-238.0-0.0","AXP8EG22MPZY8","","","","{""Q0"":""looks stupid...but with blood streaks""}","","","","","","","","","","","","","","","","","","","","","","",""
"3049.5","","image-slider-response","241","1841701","0.0-239.0","AXP8EG22MPZY8","","","","","-23","","","","","","","","","","","","","","","","","","","","","",""
"4005","","image-button-response","242","1846710","0.0-240.0","AXP8EG22MPZY8","img_art/3.jpg","3","","","","","","","","","","","","","","","","","","","","","","","","",""
"932","","image-button-response","243","1847648","0.0-241.0","AXP8EG22MPZY8","img_art/3.jpg","1","","","","","","","","","","","","","","","","","","","","","","","","",""
"921","","image-button-response","244","1848578","0.0-242.0-0.0","AXP8EG22MPZY8","img_art/3.jpg","3","","","","","","","","","","","","","","","","","","","","","","","","",""
"920","","image-button-response","245","1849510","0.0-243.0-0.0","AXP8EG22MPZY8","img_art/3.jpg","4","","","","","","","","","","","","","","","","","","","","","","","","",""
"null","","html-keyboard-response","246","1850015","0.0-244.0","AXP8EG22MPZY8","<p style=""font-size: 48px;"">+</p>","","","","","null","allTrialResponses","500","1","28","img_art/3.jpg","-23","looks stupid...but with blood streaks","Jonathan,Zachary,Marcus,Thomas,Brett,Peter","Something I'd paint when I'm mad. I feel that,20,140,20","Too red and chaotic. Not calming.,-41,400,20","Like the colors and energy of this work.,10,60,20","Too messy and structure-less,-10,220,20","Confusion and mayhem,-10,360,20","Looks like blood scribbled on walls,-20,320,20","Zachary","Too red and chaotic. Not calming.,-41,400,20","Thomas","Too messy and structure-less,-10,220,20","Brett","Confusion and mayhem,-10,360,20","4"
"20561","","survey-text","247","1870602","0.0-245.0-0.0","AXP8EG22MPZY8","","","","{""Q0"":""sodom and gomorrah""}","","","","","","","","","","","","","","","","","","","","","","",""
"2465.699999999255","","image-slider-response","248","1873074","0.0-246.0","AXP8EG22MPZY8","","","","","-28","","","","","","","","","","","","","","","","","","","","","",""
"4192","","image-button-response","249","1878081","0.0-247.0","AXP8EG22MPZY8","img_art/8.jpg","1","","","","","","","","","","","","","","","","","","","","","","","","",""
"1241","","image-button-response","250","1879328","0.0-248.0","AXP8EG22MPZY8","img_art/8.jpg","1","","","","","","","","","","","","","","","","","","","","","","","","",""
"1859","","image-button-response","251","1881193","0.0-249.0-0.0","AXP8EG22MPZY8","img_art/8.jpg","4","","","","","","","","","","","","","","","","","","","","","","","","",""
"1175","","image-button-response","252","1882377","0.0-250.0-0.0","AXP8EG22MPZY8","img_art/8.jpg","2","","","","","","","","","","","","","","","","","","","","","","","","",""
"null","","html-keyboard-response","253","1883383","0.0-251.0","AXP8EG22MPZY8","<p style=""font-size: 48px;"">+</p>","","","","","null","allTrialResponses","1000","1","29","img_art/8.jpg","-28","sodom and gomorrah","Kevin,Zachary,Evan,Thomas,Brett,Luis","Now that one is wild. Looks like maybe mother nature isnt happy.,28,320,20","I like all of the faces that can be found in this piece. Interesting.,35,400,20","I can't tell if this is supposed to portray just city life or a town crumbling,-5,140,20","Gorgeous! I love the colors and the details.,50,220,20","Very abstract and seems symbolic,45,360,20","I love the expressiveness of this,50,400,20","Zachary","I like all of the faces that can be found in this piece. Interesting.,35,400,20","Brett","Very abstract and seems symbolic,45,360,20","Evan","I can't tell if this is supposed to portray just city life or a town crumbling,-5,140,20","4"
"9696","","survey-text","254","1893091","0.0-252.0-0.0","AXP8EG22MPZY8","","","","{""Q0"":""my dirty guitar""}","","","","","","","","","","","","","","","","","","","","","","",""
"2662.10000000149","","image-slider-response","255","1895760","0.0-253.0","AXP8EG22MPZY8","","","","","-16","","","","","","","","","","","","","","","","","","","","","",""
"4814","","image-button-response","256","1900768","0.0-254.0","AXP8EG22MPZY8","img_art/10.jpg","2","","","","","","","","","","","","","","","","","","","","","","","","",""
"752","","image-button-response","257","1901527","0.0-255.0","AXP8EG22MPZY8","img_art/10.jpg","2","","","","","","","","","","","","","","","","","","","","","","","","",""
"1657","","image-button-response","258","1903191","0.0-256.0-0.0","AXP8EG22MPZY8","img_art/10.jpg","5","","","","","","","","","","","","","","","","","","","","","","","","",""
"1281","","image-button-response","259","1904479","0.0-257.0-0.0","AXP8EG22MPZY8","img_art/10.jpg","4","","","","","","","","","","","","","","","","","","","","","","","","",""
"null","","html-keyboard-response","260","1905484","0.0-258.0","AXP8EG22MPZY8","<p style=""font-size: 48px;"">+</p>","","","","","null","allTrialResponses","1000","1","30","img_art/10.jpg","-16","my dirty guitar","Gabriel,Zachary,Evan,Jacob,Brett,Brian","reminds me of a violin,9,160,20","Reminds me of a terrarium with cacti inside. It reminds me of home.,27,400,20","My immediate thought is WTF is this,-20,140,20","I feel like this has a cool concept behind it.,11,340,20","Musical guitar whimsy,45,360,20","this is a good painting, but feels musical in a way that I don't connect with.,-14,380,20","Evan","My immediate thought is WTF is this,-20,140,20","Brian","this is a good painting, but feels musical in a way that I don't connect with.,-14,380,20","Brett","Musical guitar whimsy,45,360,20","4"
"4073","","image-button-response_instructions","261","1909577","0.0-259.0","AXP8EG22MPZY8","","0","instructions","","","","","","","","","","","","","","","","","","","","","","","",""
"1448","","image-button-response","262","1911043","0.0-260.0","AXP8EG22MPZY8","","0","","","","","","","","","","","","","","","","","","","","","","","","",""
