"rt","url","trial_type","trial_index","time_elapsed","internal_node_id","participant_id","stimulus","button_pressed","Name","responses","response","key_press","variableName","fixationTime","condition","trial","photo","subjectRating","subjectResponse","agentsNames","agent_1_Response","agent_2_Response","agent_3_Response","agent_4_Response","agent_5_Response","agent_6_Response","kept_1_name","kept_1_response","kept_2_name","kept_2_response","kept_3_name","kept_3_response","errorCounter"
"13709","external_page_harvard.html","external-html","0","13769","0.0-0.0","AXU91NVCGW9B","","","","","","","","","","","","","","","","","","","","","","","","","","",""
"1783","","image-button-response","1","15558","0.0-1.0","AXU91NVCGW9B","","1","","","","","","","","","","","","","","","","","","","","","","","","",""
"1616","","image-button-response","2","17189","0.0-2.0-0.0","AXU91NVCGW9B","","1","phone","","","","","","","","","","","","","","","","","","","","","","","",""
"6420","","survey-text","3","23614","0.0-3.0-0.0","AXU91NVCGW9B","","","","{""Q0"":""AXU91NVCGW9B""}","","","","","","","","","","","","","","","","","","","","","","",""
"10578","","image-button-response_instructions","4","34197","0.0-4.0","AXU91NVCGW9B","","0","instructions","","","","","","","","","","","","","","","","","","","","","","","",""
"17124","","image-button-response_instructions","5","51325","0.0-5.0","AXU91NVCGW9B","img_art/ins/popularity/ins1.png","0","instructions","","","","","","","","","","","","","","","","","","","","","","","",""
"7197","","image-button-response_instructions","6","58525","0.0-6.0","AXU91NVCGW9B","img_art/ins/popularity/ins2.png","0","instructions","","","","","","","","","","","","","","","","","","","","","","","",""
"13317","","image-button-response_instructions","7","71845","0.0-7.0","AXU91NVCGW9B","img_art/ins/popularity/ins2Extreme.png","0","instructions","","","","","","","","","","","","","","","","","","","","","","","",""
"9196","","image-button-response_instructions","8","81044","0.0-8.0","AXU91NVCGW9B","img_art/ins/popularity/ins3KEEPpop.PNG","0","instructions","","","","","","","","","","","","","","","","","","","","","","","",""
"3814","","image-button-response_instructions","9","84861","0.0-9.0","AXU91NVCGW9B","img_art/ins/popularity/ins3ANamepop.PNG","0","instructions","","","","","","","","","","","","","","","","","","","","","","","",""
"3204","","image-button-response_instructions","10","88068","0.0-10.0","AXU91NVCGW9B","img_art/ins/popularity/ins3ARatingpop.png","0","instructions","","","","","","","","","","","","","","","","","","","","","","","",""
"3621","","image-button-response_instructions","11","91692","0.0-11.0","AXU91NVCGW9B","img_art/ins/popularity/ins3ATextpop.png","0","instructions","","","","","","","","","","","","","","","","","","","","","","","",""
"5301","","image-button-response_instructions","12","96996","0.0-12.0","AXU91NVCGW9B","img_art/ins/popularity/ins3ALikespop.png","0","instructions","","","","","","","","","","","","","","","","","","","","","","","",""
"10661","","image-button-response_instructions","13","107660","0.0-13.0","AXU91NVCGW9B","img_art/ins/popularity/ins3KEEPpop.PNG","0","instructions","","","","","","","","","","","","","","","","","","","","","","","",""
"5125","","image-button-response_instructions","14","112790","0.0-14.0","AXU91NVCGW9B","img_art/ins/popularity/ins3_5RED.png","0","instructions","","","","","","","","","","","","","","","","","","","","","","","",""
"4387","","image-button-response_instructions","15","117180","0.0-15.0","AXU91NVCGW9B","img_art/ins/popularity/ins3KEEPpop.PNG","0","instructions","","","","","","","","","","","","","","","","","","","","","","","",""
"10422","","image-button-response_instructions","16","127604","0.0-16.0","AXU91NVCGW9B","img_art/ins/popularity/ins4KEEPpop.PNG","0","instructions","","","","","","","","","","","","","","","","","","","","","","","",""
"9614","","image-button-response_instructions","17","137221","0.0-17.0","AXU91NVCGW9B","img_art/ins/popularity/ins5KEEPpop.PNG","0","instructions","","","","","","","","","","","","","","","","","","","","","","","",""
"1932","","image-button-response_instructions","18","139158","0.0-18.0","AXU91NVCGW9B","","0","instructions","","","","","","","","","","","","","","","","","","","","","","","",""
"11571","","survey-text","19","150796","0.0-19.0-0.0","AXU91NVCGW9B","","","","{""Q0"":""but""}","","","","","","","","","","","","","","","","","","","","","","",""
"20219","","survey-text","20","171020","0.0-20.0-0.0","AXU91NVCGW9B","","","","{""Q0"":""too much confussion""}","","","","","","","","","","","","","","","","","","","","","","",""
"4808.5","","image-slider-response","21","175837","0.0-21.0","AXU91NVCGW9B","","","","","-50","","","","","","","","","","","","","","","","","","","","","",""
"null","","image-button-response","22","180848","0.0-22.0","AXU91NVCGW9B","img_art/ins/1.jpg","null","","","","","","","","","","","","","","","","","","","","","","","","",""
"2485","","image-button-response","23","183342","0.0-23.0","AXU91NVCGW9B","img_art/ins/1.jpg","3","","","","","","","","","","","","","","","","","","","","","","","","",""
"1577","","image-button-response","24","184926","0.0-24.0-0.0","AXU91NVCGW9B","img_art/ins/1.jpg","1","","","","","","","","","","","","","","","","","","","","","","","","",""
"5537","","image-button-response","25","190470","0.0-25.0-0.0","AXU91NVCGW9B","img_art/ins/1.jpg","2","","","","","","","","","","","","","","","","","","","","","","","","",""
"null","","html-keyboard-response","26","191477","0.0-26.0","AXU91NVCGW9B","<p style=""font-size: 48px;"">+</p>","","","","","null","allTrialResponses","1000","1","-2","img_art/ins/1.jpg","-50","too much confussion","Allison,Ashley,Beth,Dora,Erika,Jen","looks like a lot of things going on in the mist,20,20,20","I just don't get why these type of art would be popular,-32,40,20","This color reminds me of poo,-46,60,20","looks like what my niece in 3rd grade did this afternoon,-50,80,20","I like the sophisticated brushwork,40,100,20","It reminds me of a candy land dream I had,36,120,20","Dora","looks like what my niece in 3rd grade did this afternoon,-50,80,20","Ashley","I just don't get why these type of art would be popular,-32,40,20","Beth","This color reminds me of poo,-46,60,20","0"
"12620","","survey-text","27","204109","0.0-27.0-0.0","AXU91NVCGW9B","","","","{""Q0"":""its pointless to me""}","","","","","","","","","","","","","","","","","","","","","","",""
"5099.5","","image-slider-response","28","209212","0.0-28.0","AXU91NVCGW9B","","","","","-50","","","","","","","","","","","","","","","","","","","","","",""
"2114","","image-button-response","29","214220","0.0-29.0","AXU91NVCGW9B","img_art/ins/2.jpg","1","","","","","","","","","","","","","","","","","","","","","","","","",""
"2439","","image-button-response","30","216670","0.0-30.0","AXU91NVCGW9B","img_art/ins/2.jpg","2","","","","","","","","","","","","","","","","","","","","","","","","",""
"1208","","image-button-response","31","217885","0.0-31.0-0.0","AXU91NVCGW9B","img_art/ins/2.jpg","1","","","","","","","","","","","","","","","","","","","","","","","","",""
"2380","","image-button-response","32","220269","0.0-32.0-0.0","AXU91NVCGW9B","img_art/ins/2.jpg","0","","","","","","","","","","","","","","","","","","","","","","","","",""
"null","","html-keyboard-response","33","221288","0.0-33.0","AXU91NVCGW9B","<p style=""font-size: 48px;"">+</p>","","","","","null","allTrialResponses","1000","1","-1","img_art/ins/2.jpg","-50","its pointless to me","Jenna,Ashley,Beth,Dora,Kara,Katie","One of my pet peevs,-48,140,20","Idk, it is just annoying,-32,40,20","meaningless painting,-45,60,20","looks too angry,-50,80,20","I like the blocks of color arrangements,30,160,20","too much color!,-28,180,20","Beth","meaningless painting,-45,60,20","Ashley","Idk, it is just annoying,-32,40,20","Jenna","One of my pet peevs,-48,140,20","0"
"22446","","survey-text","34","243765","0.0-34.0-0.0","AXU91NVCGW9B","","","","{""Q0"":""not impressed too much nonsense""}","","","","","","","","","","","","","","","","","","","","","","",""
"2812.1000000089407","","image-slider-response","35","246581","0.0-35.0","AXU91NVCGW9B","","","","","-50","","","","","","","","","","","","","","","","","","","","","",""
"3980","","image-button-response","36","251588","0.0-36.0","AXU91NVCGW9B","img_art/ins/3.jpg","0","","","","","","","","","","","","","","","","","","","","","","","","",""
"1816","","image-button-response","37","253414","0.0-37.0","AXU91NVCGW9B","img_art/ins/3.jpg","0","","","","","","","","","","","","","","","","","","","","","","","","",""
"5867","","image-button-response","38","259286","0.0-38.0-0.0","AXU91NVCGW9B","img_art/ins/3.jpg","1","","","","","","","","","","","","","","","","","","","","","","","","",""
"8394","","image-button-response","39","267686","0.0-39.0-0.0","AXU91NVCGW9B","img_art/ins/3.jpg","2","","","","","","","","","","","","","","","","","","","","","","","","",""
"null","","html-keyboard-response","40","268205","0.0-40.0","AXU91NVCGW9B","<p style=""font-size: 48px;"">+</p>","","","","","null","allTrialResponses","500","1","0","img_art/ins/3.jpg","-50","not impressed too much nonsense","Jenna,Ashley,Beth,Leslie,Mary,Rose","looks like a murder room,-35,140,20","It looks like a playground for bats,-36,40,20","This thing gives me anxiety,-41,60,20","It's an alright work,15,200,20","I like the overlapping of brushes,41,220,20","My daily routine, it's depressing,-20,240,20","Jenna","looks like a murder room,-35,140,20","Ashley","It looks like a playground for bats,-36,40,20","Beth","This thing gives me anxiety,-41,60,20","0"
"7102","","image-button-response_instructions","41","275333","0.0-41.0","AXU91NVCGW9B","","0","instructions","","","","","","","","","","","","","","","","","","","","","","","",""
"17805","","survey-likert","42","293142","0.0-42.0-0.0","AXU91NVCGW9B","","","","{""Q0"":"""",""Q1"":0,""Q2"":1}","","","","","","","","","","","","","","","","","","","","","","",""
"6744","","survey-text","43","299901","0.0-43.0-0.0","AXU91NVCGW9B","","","","{""Q0"":""rock""}","","","","","","","","","","","","","","","","","","","","","","",""
"15308","","survey-text","44","315213","0.0-44.0-0.0","AXU91NVCGW9B","","","","{""Q0"":""its odd but i like it""}","","","","","","","","","","","","","","","","","","","","","","",""
"4268","","image-slider-response","45","319485","0.0-45.0","AXU91NVCGW9B","","","","","50","","","","","","","","","","","","","","","","","","","","","",""
"null","","image-button-response","46","324572","0.0-46.0","AXU91NVCGW9B","img_art/10.jpg","null","","","","","","","","","","","","","","","","","","","","","","","","",""
"1961","","image-button-response","47","326542","0.0-47.0","AXU91NVCGW9B","img_art/10.jpg","2","","","","","","","","","","","","","","","","","","","","","","","","",""
"9099","","image-button-response","48","335646","0.0-48.0-0.0","AXU91NVCGW9B","img_art/10.jpg","5","","","","","","","","","","","","","","","","","","","","","","","","",""
"10105","","image-button-response","49","345758","0.0-49.0-0.0","AXU91NVCGW9B","img_art/10.jpg","1","","","","","","","","","","","","","","","","","","","","","","","","",""
"null","","html-keyboard-response","50","347275","0.0-50.0","AXU91NVCGW9B","<p style=""font-size: 48px;"">+</p>","","","","","null","allTrialResponses","1500","1","1","img_art/10.jpg","50","its odd but i like it","Kaylee,Laura,Katherine,Samantha,Chelsea,Hailey","a blue whale on the sea,12,200,20","I feel a state of readiness without anxiety.,24,320,20","This is pretty rad. The outline looks like a music staff,15,120,20","I like it but do not love it. It is sort of depressing,13,140,20","It looks intricate.,15,180,20","a fast racetrack. go, go, go,5,200,20","Katherine","This is pretty rad. The outline looks like a music staff,15,120,20","Hailey","a fast racetrack. go, go, go,5,200,20","Laura","I feel a state of readiness without anxiety.,24,320,20","0"
"25149","","survey-text","51","372444","0.0-51.0-0.0","AXU91NVCGW9B","","","","{""Q0"":""terrible nonsense.no reason for this""}","","","","","","","","","","","","","","","","","","","","","","",""
"3764.5","","image-slider-response","52","376213","0.0-52.0","AXU91NVCGW9B","","","","","-50","","","","","","","","","","","","","","","","","","","","","",""
"null","","image-button-response","53","381237","0.0-53.0","AXU91NVCGW9B","img_art/6.jpg","null","","","","","","","","","","","","","","","","","","","","","","","","",""
"201","","image-button-response","54","381446","0.0-54.0","AXU91NVCGW9B","img_art/6.jpg","5","","","","","","","","","","","","","","","","","","","","","","","","",""
"7747","","image-button-response","55","389198","0.0-55.0-0.0","AXU91NVCGW9B","img_art/6.jpg","0","","","","","","","","","","","","","","","","","","","","","","","","",""
"6466","","image-button-response","56","395670","0.0-56.0-0.0","AXU91NVCGW9B","img_art/6.jpg","4","","","","","","","","","","","","","","","","","","","","","","","","",""
"null","","html-keyboard-response","57","396189","0.0-57.0","AXU91NVCGW9B","<p style=""font-size: 48px;"">+</p>","","","","","null","allTrialResponses","500","1","2","img_art/6.jpg","-50","terrible nonsense.no reason for this","Paige,Laura,Katherine,Alexis,Crystal,Hailey","Kind of boring. I don't care for many abstracts,1,60,20","graceful and light,35,320,20","This could be so many different things. I saw a bird first but then it looks like a needle going into skin,34,120,20","The feeling of isolation with so little objects. Great,20,100,20","Gives me a feeling of solitude and nothingness,11,300,20","one lonely thing trying to grow,-24,200,20","Hailey","one lonely thing trying to grow,-24,200,20","Paige","Kind of boring. I don't care for many abstracts,1,60,20","Crystal","Gives me a feeling of solitude and nothingness,11,300,20","0"
"22107","","survey-text","58","418324","0.0-58.0-0.0","AXU91NVCGW9B","","","","{""Q0"":""confusion chaos ""}","","","","","","","","","","","","","","","","","","","","","","",""
"7788.899999991059","","image-slider-response","59","426117","0.0-59.0","AXU91NVCGW9B","","","","","-50","","","","","","","","","","","","","","","","","","","","","",""
"4250","","image-button-response","60","431124","0.0-60.0","AXU91NVCGW9B","img_art/9.jpg","0","","","","","","","","","","","","","","","","","","","","","","","","",""
"2086","","image-button-response","61","433213","0.0-61.0","AXU91NVCGW9B","img_art/9.jpg","0","","","","","","","","","","","","","","","","","","","","","","","","",""
"4195","","image-button-response","62","437414","0.0-62.0-0.0","AXU91NVCGW9B","img_art/9.jpg","3","","","","","","","","","","","","","","","","","","","","","","","","",""
"6977","","image-button-response","63","444397","0.0-63.0-0.0","AXU91NVCGW9B","img_art/9.jpg","2","","","","","","","","","","","","","","","","","","","","","","","","",""
"null","","html-keyboard-response","64","444915","0.0-64.0","AXU91NVCGW9B","<p style=""font-size: 48px;"">+</p>","","","","","null","allTrialResponses","500","1","3","img_art/9.jpg","-50","confusion chaos ","Paige,Amber,Makayla,Anna,Crystal,Hailey","I feel this incites anger,-16,60,20","looks like sleeping beauty in a garden,10,200,20","Looks like a monster's teeth , unsettling,-18,80,20","It looks like a child's crayon drawing.,-10,300,20","Evokes triumph of a mountain over powering a drowning sea,24,300,20","looks like a woman in bed and its ok,8,200,20","Paige","I feel this incites anger,-16,60,20","Anna","It looks like a child's crayon drawing.,-10,300,20","Makayla","Looks like a monster's teeth , unsettling,-18,80,20","0"
"59737","","survey-text","65","504684","0.0-65.0-0.0","AXU91NVCGW9B","","","","{""Q0"":""imaginative colorful ""}","","","","","","","","","","","","","","","","","","","","","","",""
"4442.300000011921","","image-slider-response","66","509132","0.0-66.0","AXU91NVCGW9B","","","","","50","","","","","","","","","","","","","","","","","","","","","",""
"null","","image-button-response","67","514147","0.0-67.0","AXU91NVCGW9B","img_art/19.jpg","null","","","","","","","","","","","","","","","","","","","","","","","","",""
"4170","","image-button-response","68","518325","0.0-68.0","AXU91NVCGW9B","img_art/19.jpg","2","","","","","","","","","","","","","","","","","","","","","","","","",""
"6674","","image-button-response","69","525007","0.0-69.0-0.0","AXU91NVCGW9B","img_art/19.jpg","3","","","","","","","","","","","","","","","","","","","","","","","","",""
"3503","","image-button-response","70","528518","0.0-70.0-0.0","AXU91NVCGW9B","img_art/19.jpg","4","","","","","","","","","","","","","","","","","","","","","","","","",""
"null","","html-keyboard-response","71","529034","0.0-71.0","AXU91NVCGW9B","<p style=""font-size: 48px;"">+</p>","","","","","null","allTrialResponses","500","1","4","img_art/19.jpg","50","imaginative colorful ","Paige,Alexandra,Makayla,Anna,Kristen,Mackenzie","it's too busy for me. Makes me feel stressed.,1,60,20","This photo has too much going on.,-19,60,20","Looks like hustle and bustle ,,3,80,20","I like the shapes.,22,300,20","city, stress of urbanism, slightly panicked,2,280,20","Shapes give it a feeling of being crowded,-18,20,20","Makayla","Looks like hustle and bustle ,,3,80,20","Anna","I like the shapes.,22,300,20","Kristen","city, stress of urbanism, slightly panicked,2,280,20","0"
"19086","","survey-text","72","548149","0.0-72.0-0.0","AXU91NVCGW9B","","","","{""Q0"":""peaceful outdoors fall""}","","","","","","","","","","","","","","","","","","","","","","",""
"3010.6000000089407","","image-slider-response","73","551165","0.0-73.0","AXU91NVCGW9B","","","","","50","","","","","","","","","","","","","","","","","","","","","",""
"2268","","image-button-response","74","556178","0.0-74.0","AXU91NVCGW9B","img_art/27.jpg","1","","","","","","","","","","","","","","","","","","","","","","","","",""
"1162","","image-button-response","75","557349","0.0-75.0","AXU91NVCGW9B","img_art/27.jpg","1","","","","","","","","","","","","","","","","","","","","","","","","",""
"2010","","image-button-response","76","559365","0.0-76.0-0.0","AXU91NVCGW9B","img_art/27.jpg","2","","","","","","","","","","","","","","","","","","","","","","","","",""
"2923","","image-button-response","77","562294","0.0-77.0-0.0","AXU91NVCGW9B","img_art/27.jpg","5","","","","","","","","","","","","","","","","","","","","","","","","",""
"null","","html-keyboard-response","78","562798","0.0-78.0","AXU91NVCGW9B","<p style=""font-size: 48px;"">+</p>","","","","","null","allTrialResponses","500","1","5","img_art/27.jpg","50","peaceful outdoors fall","Morgan,Catherine,Makayla,Anna,Kristen,Dominique","Messy field of various plants.,-5,380,20","Angelic, childlike. happiness but also with sadness.,40,160,20","Calming sky , relaxing,23,80,20","It looks like when my little sister took magic markers to the wall.,-11,300,20","makes me think of fume clouds, low visibility,-28,280,20","A beautiful day full of Hope and Inspiritation. The warmth of hot cocoa with the family gathering around,33,400,20","Catherine","Angelic, childlike. happiness but also with sadness.,40,160,20","Makayla","Calming sky , relaxing,23,80,20","Dominique","A beautiful day full of Hope and Inspiritation. The warmth of hot cocoa with the family gathering around,33,400,20","0"
"6330","","survey-text","79","569172","0.0-79.0-0.0","AXU91NVCGW9B","","","","{""Q0"":""sky""}","","","","","","","","","","","","","","","","","","","","","","",""
"16997","","survey-text","80","586174","0.0-80.0-0.0","AXU91NVCGW9B","","","","{""Q0"":""chaos disturbing busy""}","","","","","","","","","","","","","","","","","","","","","","",""
"3569.5","","image-slider-response","81","589748","0.0-81.0","AXU91NVCGW9B","","","","","-50","","","","","","","","","","","","","","","","","","","","","",""
"null","","image-button-response","82","594758","0.0-82.0","AXU91NVCGW9B","img_art/1.jpg","null","","","","","","","","","","","","","","","","","","","","","","","","",""
"2577","","image-button-response","83","597342","0.0-83.0","AXU91NVCGW9B","img_art/1.jpg","1","","","","","","","","","","","","","","","","","","","","","","","","",""
"2762","","image-button-response","84","600109","0.0-84.0-0.0","AXU91NVCGW9B","img_art/1.jpg","2","","","","","","","","","","","","","","","","","","","","","","","","",""
"7683","","image-button-response","85","607797","0.0-85.0-0.0","AXU91NVCGW9B","img_art/1.jpg","0","","","","","","","","","","","","","","","","","","","","","","","","",""
"null","","html-keyboard-response","86","608301","0.0-86.0","AXU91NVCGW9B","<p style=""font-size: 48px;"">+</p>","","","","","null","allTrialResponses","500","1","6","img_art/1.jpg","-50","chaos disturbing busy","Jessica,Catherine,Makayla,Kayla,Brittany,Dominique","Looks like the same thing as the last piece shown to me,10,400,20","confused,animal like brain fog,0,160,20","Nothing whatsoever,2,80,20","Happy! Reminds me of hiking in tennesee.,18,180,20","It reminds me of a sunset I once saw.,16,40,20","I love the detail and colors like a beautiful autumn day,35,400,20","Catherine","confused,animal like brain fog,0,160,20","Makayla","Nothing whatsoever,2,80,20","Jessica","Looks like the same thing as the last piece shown to me,10,400,20","0"
"37126","","survey-text","87","645452","0.0-87.0-0.0","AXU91NVCGW9B","","","","{""Q0"":""abstract city old times""}","","","","","","","","","","","","","","","","","","","","","","",""
"4372.899999991059","","image-slider-response","88","649829","0.0-88.0","AXU91NVCGW9B","","","","","50","","","","","","","","","","","","","","","","","","","","","",""
"2067","","image-button-response","89","654837","0.0-89.0","AXU91NVCGW9B","img_art/8.jpg","0","","","","","","","","","","","","","","","","","","","","","","","","",""
"4415","","image-button-response","90","659261","0.0-90.0","AXU91NVCGW9B","img_art/8.jpg","1","","","","","","","","","","","","","","","","","","","","","","","","",""
"4571","","image-button-response","91","663838","0.0-91.0-0.0","AXU91NVCGW9B","img_art/8.jpg","4","","","","","","","","","","","","","","","","","","","","","","","","",""
"5383","","image-button-response","92","669228","0.0-92.0-0.0","AXU91NVCGW9B","img_art/8.jpg","0","","","","","","","","","","","","","","","","","","","","","","","","",""
"null","","html-keyboard-response","93","670732","0.0-93.0","AXU91NVCGW9B","<p style=""font-size: 48px;"">+</p>","","","","","null","allTrialResponses","1500","1","7","img_art/8.jpg","50","abstract city old times","Jessica,Catherine,Makayla,Olivia,Leslie,Claire","Very cool! I like this piece,9,400,20","Lost in a big city confuse as to where to go to next. No matter if you live in a mansion or homeless. Being bigger than what is going on around you,30,160,20","I see water and structures that resemble Ancient Rome,15,80,20","being watched over,17,40,20","The stylized faces remind me of German expressionism in a very good way.,40,380,20","looks like an aerial view, very pretty,32,260,20","Catherine","Lost in a big city confuse as to where to go to next. No matter if you live in a mansion or homeless. Being bigger than what is going on around you,30,160,20","Leslie","The stylized faces remind me of German expressionism in a very good way.,40,380,20","Jessica","Very cool! I like this piece,9,400,20","0"
"16956","","survey-text","94","687700","0.0-94.0-0.0","AXU91NVCGW9B","","","","{""Q0"":""rain dirty glass""}","","","","","","","","","","","","","","","","","","","","","","",""
"5029.4000000059605","","image-slider-response","95","692734","0.0-95.0","AXU91NVCGW9B","","","","","-50","","","","","","","","","","","","","","","","","","","","","",""
"5000","","image-button-response","96","697742","0.0-96.0","AXU91NVCGW9B","img_art/13.jpg","4","","","","","","","","","","","","","","","","","","","","","","","","",""
"1010","","image-button-response","97","698757","0.0-97.0","AXU91NVCGW9B","img_art/13.jpg","4","","","","","","","","","","","","","","","","","","","","","","","","",""
"5443","","image-button-response","98","704205","0.0-98.0-0.0","AXU91NVCGW9B","img_art/13.jpg","2","","","","","","","","","","","","","","","","","","","","","","","","",""
"8353","","image-button-response","99","712565","0.0-99.0-0.0","AXU91NVCGW9B","img_art/13.jpg","4","","","","","","","","","","","","","","","","","","","","","","","","",""
"7390","","image-button-response","100","726142","0.0-99.1-0.1","AXU91NVCGW9B","img_art/13.jpg","3","","","","","","","","","","","","","","","","","","","","","","","","",""
"null","","html-keyboard-response","101","727148","0.0-100.0","AXU91NVCGW9B","<p style=""font-size: 48px;"">+</p>","","","","","null","allTrialResponses","1000","1","8","img_art/13.jpg","-50","rain dirty glass","Jessica,Catherine,Lindsey,Michelle,Leslie,Sarah","The paint splatter idea is kind of overused but I like how it brings the piece together,16,400,20","Magnified rain around trees. Beautiful happy colors. The little person on the right feels nature is huge.,45,160,20","I find this oddly pleasant, but I object to this style. It's just a background with splatters. How is that art?,-5,400,20","I like the blue colors and the symmetry and paint splatters but I would not hang it in my house,8,280,20","This elicits no reaction in me.,0,380,20","this is an appealing mix of textures to me and the color scheme is harmonious,36,180,20","Leslie","This elicits no reaction in me.,0,380,20","Lindsey","I find this oddly pleasant, but I object to this style. It's just a background with splatters. How is that art?,-5,400,20","Michelle","I like the blue colors and the symmetry and paint splatters but I would not hang it in my house,8,280,20","2"
"11403","","survey-text","102","738581","0.0-101.0-0.0","AXU91NVCGW9B","","","","{""Q0"":""yuck too crazy ""}","","","","","","","","","","","","","","","","","","","","","","",""
"3051.6000000089407","","image-slider-response","103","741637","0.0-102.0","AXU91NVCGW9B","","","","","-50","","","","","","","","","","","","","","","","","","","","","",""
"3860","","image-button-response","104","746643","0.0-103.0","AXU91NVCGW9B","img_art/2.jpg","0","","","","","","","","","","","","","","","","","","","","","","","","",""
"241","","image-button-response","105","746894","0.0-104.0","AXU91NVCGW9B","img_art/2.jpg","0","","","","","","","","","","","","","","","","","","","","","","","","",""
"4564","","image-button-response","106","751462","0.0-105.0-0.0","AXU91NVCGW9B","img_art/2.jpg","2","","","","","","","","","","","","","","","","","","","","","","","","",""
"2778","","image-button-response","107","754245","0.0-106.0-0.0","AXU91NVCGW9B","img_art/2.jpg","0","","","","","","","","","","","","","","","","","","","","","","","","",""
"871","","image-button-response","108","762022","0.0-106.1-0.1","AXU91NVCGW9B","img_art/2.jpg","3","","","","","","","","","","","","","","","","","","","","","","","","",""
"null","","html-keyboard-response","109","763529","0.0-107.0","AXU91NVCGW9B","<p style=""font-size: 48px;"">+</p>","","","","","null","allTrialResponses","1500","1","9","img_art/2.jpg","-50","yuck too crazy ","Mariah,Molly,Lindsey,Michelle,Leslie,Kaitlin","The colors are soothing, but the composition feels thoughtless.,-11,140,20","Colorful, curious.,20,340,20","Not a fan of the colors or the style.,-31,400,20","Don't like the puke green color and also too abstact,-14,280,20","The colors are entirely unappealing and very unpleasant to look at.,-20,380,20","another confusing piece of art,-12,60,20","Mariah","The colors are soothing, but the composition feels thoughtless.,-11,140,20","Lindsey","Not a fan of the colors or the style.,-31,400,20","Michelle","Don't like the puke green color and also too abstact,-14,280,20","4"
"25481","","survey-text","110","789036","0.0-108.0-0.0","AXU91NVCGW9B","","","","{""Q0"":""pointless simple yet too much""}","","","","","","","","","","","","","","","","","","","","","","",""
"5307.9000000059605","","image-slider-response","111","794349","0.0-109.0","AXU91NVCGW9B","","","","","-50","","","","","","","","","","","","","","","","","","","","","",""
"3027","","image-button-response","112","799358","0.0-110.0","AXU91NVCGW9B","img_art/5.jpg","2","","","","","","","","","","","","","","","","","","","","","","","","",""
"999","","image-button-response","113","800365","0.0-111.0","AXU91NVCGW9B","img_art/5.jpg","2","","","","","","","","","","","","","","","","","","","","","","","","",""
"3780","","image-button-response","114","804150","0.0-112.0-0.0","AXU91NVCGW9B","img_art/5.jpg","4","","","","","","","","","","","","","","","","","","","","","","","","",""
"2690","","image-button-response","115","806846","0.0-113.0-0.0","AXU91NVCGW9B","img_art/5.jpg","3","","","","","","","","","","","","","","","","","","","","","","","","",""
"null","","html-keyboard-response","116","808361","0.0-114.0","AXU91NVCGW9B","<p style=""font-size: 48px;"">+</p>","","","","","null","allTrialResponses","1500","1","10","img_art/5.jpg","-50","pointless simple yet too much","Mariah,Brianna,Lindsey,Michelle,Caitlin,Autumn","It feels very strong and open.,31,140,20","Very bright and has colors you wouldn't think would go together,11,20,20","Black bit reminds me of a giant splinter. Yellow bit reminds me of urine. I hate it.,-50,400,20","What is this? It looks like no effort was put into this work,-2,280,20","More kindergarten art class. Who buys this stuff?,-45,80,20","Appealing but shapeless,24,340,20","Lindsey","Black bit reminds me of a giant splinter. Yellow bit reminds me of urine. I hate it.,-50,400,20","Caitlin","More kindergarten art class. Who buys this stuff?,-45,80,20","Michelle","What is this? It looks like no effort was put into this work,-2,280,20","4"
"5968","","survey-text","117","814348","0.0-115.0-0.0","AXU91NVCGW9B","","","","{""Q0"":""our""}","","","","","","","","","","","","","","","","","","","","","","",""
"16997","","survey-text","118","831350","0.0-116.0-0.0","AXU91NVCGW9B","","","","{""Q0"":""chaos accident turmoil""}","","","","","","","","","","","","","","","","","","","","","","",""
"5610.300000011921","","image-slider-response","119","836965","0.0-117.0","AXU91NVCGW9B","","","","","50","","","","","","","","","","","","","","","","","","","","","",""
"null","","image-button-response","120","841970","0.0-118.0","AXU91NVCGW9B","img_art/20.jpg","null","","","","","","","","","","","","","","","","","","","","","","","","",""
"1844","","image-button-response","121","843821","0.0-119.0","AXU91NVCGW9B","img_art/20.jpg","0","","","","","","","","","","","","","","","","","","","","","","","","",""
"5035","","image-button-response","122","848861","0.0-120.0-0.0","AXU91NVCGW9B","img_art/20.jpg","4","","","","","","","","","","","","","","","","","","","","","","","","",""
"16035","","image-button-response","123","864901","0.0-121.0-0.0","AXU91NVCGW9B","img_art/20.jpg","2","","","","","","","","","","","","","","","","","","","","","","","","",""
"null","","html-keyboard-response","124","866410","0.0-122.0","AXU91NVCGW9B","<p style=""font-size: 48px;"">+</p>","","","","","null","allTrialResponses","1500","1","11","img_art/20.jpg","50","chaos accident turmoil","Caroline,Julia,Lindsey,Michelle,Caitlin,Melissa","Makes me feel weary,21,100,20","The colors are nice, and the shapes conjure the decay of the city in the face of natural entropy,19,40,20","Not sure what it is. The colors are pleasant; makes me want to figure it out. An animal skull in the desert?,10,400,20","Reminds me of Dali for some reason, whom I don't like,-7,280,20","Not bad for all the southwestern people.,15,80,20","feels underdeveloped,-11,240,20","Caroline","Makes me feel weary,21,100,20","Caitlin","Not bad for all the southwestern people.,15,80,20","Lindsey","Not sure what it is. The colors are pleasant; makes me want to figure it out. An animal skull in the desert?,10,400,20","4"
"32051","","survey-text","125","898493","0.0-123.0-0.0","AXU91NVCGW9B","","","","{""Q0"":""old style  colorful but too busy""}","","","","","","","","","","","","","","","","","","","","","","",""
"3386.2999999970198","","image-slider-response","126","901884","0.0-124.0","AXU91NVCGW9B","","","","","-50","","","","","","","","","","","","","","","","","","","","","",""
"null","","image-button-response","127","906891","0.0-125.0","AXU91NVCGW9B","img_art/14.jpg","null","","","","","","","","","","","","","","","","","","","","","","","","",""
"1998","","image-button-response","128","908894","0.0-126.0","AXU91NVCGW9B","img_art/14.jpg","4","","","","","","","","","","","","","","","","","","","","","","","","",""
"4074","","image-button-response","129","912975","0.0-127.0-0.0","AXU91NVCGW9B","img_art/14.jpg","5","","","","","","","","","","","","","","","","","","","","","","","","",""
"7680","","image-button-response","130","920661","0.0-128.0-0.0","AXU91NVCGW9B","img_art/14.jpg","0","","","","","","","","","","","","","","","","","","","","","","","","",""
"null","","html-keyboard-response","131","921667","0.0-129.0","AXU91NVCGW9B","<p style=""font-size: 48px;"">+</p>","","","","","null","allTrialResponses","1000","1","12","img_art/14.jpg","-50","old style  colorful but too busy","Caroline,Isabella,Lindsey,Brooke,Caitlin,Jennifer","Makes me think of trees and spring. A good feeling,26,100,20","Feels like a camp fire among friends,22,280,20","Warm, positive, growth.,8,400,20","cotton candy skies. pretty.,35,60,20","Are they blowing up a tree?,-5,80,20","This piece is average compared to the others.,1,380,20","Caitlin","Are they blowing up a tree?,-5,80,20","Jennifer","This piece is average compared to the others.,1,380,20","Caroline","Makes me think of trees and spring. A good feeling,26,100,20","4"
"25316","","survey-text","132","947012","0.0-130.0-0.0","AXU91NVCGW9B","","","","{""Q0"":""pointless overdone copied""}","","","","","","","","","","","","","","","","","","","","","","",""
"3204.0999999940395","","image-slider-response","133","950221","0.0-131.0","AXU91NVCGW9B","","","","","-50","","","","","","","","","","","","","","","","","","","","","",""
"3979","","image-button-response","134","955228","0.0-132.0","AXU91NVCGW9B","img_art/22.jpg","0","","","","","","","","","","","","","","","","","","","","","","","","",""
"1011","","image-button-response","135","956245","0.0-133.0","AXU91NVCGW9B","img_art/22.jpg","0","","","","","","","","","","","","","","","","","","","","","","","","",""
"5365","","image-button-response","136","961615","0.0-134.0-0.0","AXU91NVCGW9B","img_art/22.jpg","4","","","","","","","","","","","","","","","","","","","","","","","","",""
"9641","","image-button-response","137","971261","0.0-135.0-0.0","AXU91NVCGW9B","img_art/22.jpg","1","","","","","","","","","","","","","","","","","","","","","","","","",""
"null","","html-keyboard-response","138","971765","0.0-136.0","AXU91NVCGW9B","<p style=""font-size: 48px;"">+</p>","","","","","null","allTrialResponses","500","1","13","img_art/22.jpg","-50","pointless overdone copied","Caroline,Jordan,Cassandra,Amy,Caitlin,Jennifer","Felt blah. Bunch of nothingness,-42,100,20","not a fan of this, it's boring,1,20,20","Don't like it...too much red,-17,120,20","I appreciate the shapes but the abundance of primary colors make it seem garrish.,-10,220,20","Looks like the kind of art I would see at the doctor's office.,-5,80,20","Colors are subdued yet vibrant,30,380,20","Caroline","Felt blah. Bunch of nothingness,-42,100,20","Caitlin","Looks like the kind of art I would see at the doctor's office.,-5,80,20","Jordan","not a fan of this, it's boring,1,20,20","4"
"25219","","survey-text","139","996997","0.0-137.0-0.0","AXU91NVCGW9B","","","","{""Q0"":""common see this in doctors waiting room soft colors""}","","","","","","","","","","","","","","","","","","","","","","",""
"2540.5999999940395","","image-slider-response","140","999542","0.0-138.0","AXU91NVCGW9B","","","","","50","","","","","","","","","","","","","","","","","","","","","",""
"2067","","image-button-response","141","1004548","0.0-139.0","AXU91NVCGW9B","img_art/17.jpg","0","","","","","","","","","","","","","","","","","","","","","","","","",""
"1651","","image-button-response","142","1006205","0.0-140.0","AXU91NVCGW9B","img_art/17.jpg","0","","","","","","","","","","","","","","","","","","","","","","","","",""
"5180","","image-button-response","143","1011389","0.0-141.0-0.0","AXU91NVCGW9B","img_art/17.jpg","1","","","","","","","","","","","","","","","","","","","","","","","","",""
"8627","","image-button-response","144","1020022","0.0-142.0-0.0","AXU91NVCGW9B","img_art/17.jpg","5","","","","","","","","","","","","","","","","","","","","","","","","",""
"null","","html-keyboard-response","145","1021028","0.0-143.0","AXU91NVCGW9B","<p style=""font-size: 48px;"">+</p>","","","","","null","allTrialResponses","1000","1","14","img_art/17.jpg","50","common see this in doctors waiting room soft colors","Caroline,Jordan,Gabriela,Elizabeth,Caitlin,Erica","Beautiful colors. Made me feel soft and feminine,50,100,20","absolutely gorgeous, I feel solitude again, but the beauty is there also,50,20,20","This makes me feel inspired and happy. I love everything about this portrait,45,140,20","Has a unique vibe to it,50,20,20","Somewhat should trim the tree branches at the shopping mall.,10,80,20","Makes me warm and cozy just by looking at it,29,80,20","Caroline","Beautiful colors. Made me feel soft and feminine,50,100,20","Jordan","absolutely gorgeous, I feel solitude again, but the beauty is there also,50,20,20","Erica","Makes me warm and cozy just by looking at it,29,80,20","4"
"14480","","survey-text","146","1035533","0.0-144.0-0.0","AXU91NVCGW9B","","","","{""Q0"":""overdone too much chaos""}","","","","","","","","","","","","","","","","","","","","","","",""
"2821.0999999940395","","image-slider-response","147","1038358","0.0-145.0","AXU91NVCGW9B","","","","","-50","","","","","","","","","","","","","","","","","","","","","",""
"2986","","image-button-response","148","1043365","0.0-146.0","AXU91NVCGW9B","img_art/12.jpg","3","","","","","","","","","","","","","","","","","","","","","","","","",""
"336","","image-button-response","149","1043710","0.0-147.0","AXU91NVCGW9B","img_art/12.jpg","4","","","","","","","","","","","","","","","","","","","","","","","","",""
"2811","","image-button-response","150","1046527","0.0-148.0-0.0","AXU91NVCGW9B","img_art/12.jpg","2","","","","","","","","","","","","","","","","","","","","","","","","",""
"1056","","image-button-response","151","1047590","0.0-149.0-0.0","AXU91NVCGW9B","img_art/12.jpg","3","","","","","","","","","","","","","","","","","","","","","","","","",""
"null","","html-keyboard-response","152","1048594","0.0-150.0","AXU91NVCGW9B","<p style=""font-size: 48px;"">+</p>","","","","","null","allTrialResponses","1000","1","15","img_art/12.jpg","-50","overdone too much chaos","Caroline,Jordan,Hannah,Sara,Katelyn,Erica","I like the colors in both sections, brights compared to neutrals. Each block has a different view. I think of the future,11,100,20","not my kind of thing,1,20,20","I don't get this one. Doesn't evoke an emotional response.,-10,240,20","I don't like the blocking,-20,160,20","Just confuses me overall,-11,100,20","good colours scheme; organised,17,80,20","Katelyn","Just confuses me overall,-11,100,20","Hannah","I don't get this one. Doesn't evoke an emotional response.,-10,240,20","Sara","I don't like the blocking,-20,160,20","4"
"5452","","survey-text","153","1054069","0.0-151.0-0.0","AXU91NVCGW9B","","","","{""Q0"":""course""}","","","","","","","","","","","","","","","","","","","","","","",""
"33020","","survey-text","154","1087093","0.0-152.0-0.0","AXU91NVCGW9B","","","","{""Q0"":""common overdone  just blah""}","","","","","","","","","","","","","","","","","","","","","","",""
"2427.7000000029802","","image-slider-response","155","1089525","0.0-153.0","AXU91NVCGW9B","","","","","-50","","","","","","","","","","","","","","","","","","","","","",""
"2332","","image-button-response","156","1094531","0.0-154.0","AXU91NVCGW9B","img_art/4.jpg","0","","","","","","","","","","","","","","","","","","","","","","","","",""
"594","","image-button-response","157","1095133","0.0-155.0","AXU91NVCGW9B","img_art/4.jpg","0","","","","","","","","","","","","","","","","","","","","","","","","",""
"4028","","image-button-response","158","1099165","0.0-156.0-0.0","AXU91NVCGW9B","img_art/4.jpg","2","","","","","","","","","","","","","","","","","","","","","","","","",""
"4451","","image-button-response","159","1103622","0.0-157.0-0.0","AXU91NVCGW9B","img_art/4.jpg","3","","","","","","","","","","","","","","","","","","","","","","","","",""
"null","","html-keyboard-response","160","1104129","0.0-158.0","AXU91NVCGW9B","<p style=""font-size: 48px;"">+</p>","","","","","null","allTrialResponses","500","1","16","img_art/4.jpg","-50","common overdone  just blah","Madeline,Heather,Hannah,Sara,Katelyn,Breanna","Not impressed really,-20,40,20","looks like an award from an award show.,22,260,20","looks very rudimentary and too simple.,-14,240,20","Random swirls again,-30,160,20","I like the warmth in the colors. Its reassuring.,9,100,20","Looks like a hand, not very impressed,-22,380,20","Madeline","Not impressed really,-20,40,20","Hannah","looks very rudimentary and too simple.,-14,240,20","Sara","Random swirls again,-30,160,20","4"
"20859","","survey-text","161","1125021","0.0-159.0-0.0","AXU91NVCGW9B","","","","{""Q0"":""colorful beauty reminds me of the rockies""}","","","","","","","","","","","","","","","","","","","","","","",""
"3419.3999999910593","","image-slider-response","162","1128445","0.0-160.0","AXU91NVCGW9B","","","","","50","","","","","","","","","","","","","","","","","","","","","",""
"3509","","image-button-response","163","1133451","0.0-161.0","AXU91NVCGW9B","img_art/24.jpg","1","","","","","","","","","","","","","","","","","","","","","","","","",""
"2072","","image-button-response","164","1135534","0.0-162.0","AXU91NVCGW9B","img_art/24.jpg","4","","","","","","","","","","","","","","","","","","","","","","","","",""
"1099","","image-button-response","165","1136638","0.0-163.0-0.0","AXU91NVCGW9B","img_art/24.jpg","3","","","","","","","","","","","","","","","","","","","","","","","","",""
"1634","","image-button-response","166","1138279","0.0-164.0-0.0","AXU91NVCGW9B","img_art/24.jpg","5","","","","","","","","","","","","","","","","","","","","","","","","",""
"null","","html-keyboard-response","167","1138784","0.0-165.0","AXU91NVCGW9B","<p style=""font-size: 48px;"">+</p>","","","","","null","allTrialResponses","500","1","17","img_art/24.jpg","50","colorful beauty reminds me of the rockies","Madeline,Michaela,Hannah,Sara,Amanda,Katie","colors are good but the style is iffy,12,40,20","Very pretty and soft,37,260,20","It's okay but don't love it.,7,240,20","Beautiful scenic drawing with perfect color coordination,43,160,20","Beautiful,  peaceful,50,180,20","I see a waterfall, which is relaxing and peaceful!  I like the blue coloring,30,160,20","Amanda","Beautiful,  peaceful,50,180,20","Sara","Beautiful scenic drawing with perfect color coordination,43,160,20","Katie","I see a waterfall, which is relaxing and peaceful!  I like the blue coloring,30,160,20","4"
"24449","","survey-text","168","1163260","0.0-166.0-0.0","AXU91NVCGW9B","","","","{""Q0"":""dark reminds me of the executioner.too bust yuck""}","","","","","","","","","","","","","","","","","","","","","","",""
"2748.5999999940395","","image-slider-response","169","1166014","0.0-167.0","AXU91NVCGW9B","","","","","-50","","","","","","","","","","","","","","","","","","","","","",""
"3043","","image-button-response","170","1171021","0.0-168.0","AXU91NVCGW9B","img_art/28.jpg","0","","","","","","","","","","","","","","","","","","","","","","","","",""
"2646","","image-button-response","171","1173678","0.0-169.0","AXU91NVCGW9B","img_art/28.jpg","3","","","","","","","","","","","","","","","","","","","","","","","","",""
"2723","","image-button-response","172","1176406","0.0-170.0-0.0","AXU91NVCGW9B","img_art/28.jpg","4","","","","","","","","","","","","","","","","","","","","","","","","",""
"1482","","image-button-response","173","1177894","0.0-171.0-0.0","AXU91NVCGW9B","img_art/28.jpg","0","","","","","","","","","","","","","","","","","","","","","","","","",""
"null","","html-keyboard-response","174","1178406","0.0-172.0","AXU91NVCGW9B","<p style=""font-size: 48px;"">+</p>","","","","","null","allTrialResponses","500","1","18","img_art/28.jpg","-50","dark reminds me of the executioner.too bust yuck","Kathryn,Kelly,Sabrina,Sara,Amanda,Katie","My immediate reaction was to think of smog. It recalls choking on dirty air.,-20,140,20","This one is too bleak, not a fan of the image or colors.,-28,220,20","Self-hate and abuse at home, unsafe and torturing,-30,120,20","This swirly drawing i snot my type I get confused and dizzy,-20,160,20","Colors look too muddy for my liking,-33,180,20","Like the muted pink colors. However, the mood is sad because of the blurriness,22,160,20","Sara","This swirly drawing i snot my type I get confused and dizzy,-20,160,20","Amanda","Colors look too muddy for my liking,-33,180,20","Kathryn","My immediate reaction was to think of smog. It recalls choking on dirty air.,-20,140,20","4"
"27940","","survey-text","175","1206380","0.0-173.0-0.0","AXU91NVCGW9B","","","","{""Q0"":""town destroyed  chaos too busy""}","","","","","","","","","","","","","","","","","","","","","","",""
"2596.2999999970198","","image-slider-response","176","1208981","0.0-174.0","AXU91NVCGW9B","","","","","-50","","","","","","","","","","","","","","","","","","","","","",""
"4914","","image-button-response","177","1213995","0.0-175.0","AXU91NVCGW9B","img_art/11.jpg","0","","","","","","","","","","","","","","","","","","","","","","","","",""
"563","","image-button-response","178","1214565","0.0-176.0","AXU91NVCGW9B","img_art/11.jpg","0","","","","","","","","","","","","","","","","","","","","","","","","",""
"4029","","image-button-response","179","1218599","0.0-177.0-0.0","AXU91NVCGW9B","img_art/11.jpg","4","","","","","","","","","","","","","","","","","","","","","","","","",""
"6022","","image-button-response","180","1224630","0.0-178.0-0.0","AXU91NVCGW9B","img_art/11.jpg","5","","","","","","","","","","","","","","","","","","","","","","","","",""
"null","","html-keyboard-response","181","1226140","0.0-179.0","AXU91NVCGW9B","<p style=""font-size: 48px;"">+</p>","","","","","null","allTrialResponses","1500","1","19","img_art/11.jpg","-50","town destroyed  chaos too busy","Kathryn,Danielle,Alexandria,Sara,Amanda,Savannah","This is disorienting, like motion sickness.,-20,140,20","Reminds me of some of post-apocalyptic view of street lights or maybe a city,30,340,20","it reminds me of music,43,80,20","Looks sad but clean,31,160,20","It makes me feel angry and overwhelmed,-29,180,20","Not quite as abstract as I'd like- It's clearly a dingy city.,-18,200,20","Kathryn","This is disorienting, like motion sickness.,-20,140,20","Amanda","It makes me feel angry and overwhelmed,-29,180,20","Savannah","Not quite as abstract as I'd like- It's clearly a dingy city.,-18,200,20","4"
"29244","","survey-text","182","1255413","0.0-180.0-0.0","AXU91NVCGW9B","","","","{""Q0"":""happines memories childhood nice design not tooo hapy with color""}","","","","","","","","","","","","","","","","","","","","","","",""
"2724.4000000059605","","image-slider-response","183","1258142","0.0-181.0","AXU91NVCGW9B","","","","","50","","","","","","","","","","","","","","","","","","","","","",""
"1738","","image-button-response","184","1263147","0.0-182.0","AXU91NVCGW9B","img_art/16.jpg","1","","","","","","","","","","","","","","","","","","","","","","","","",""
"3744","","image-button-response","185","1266901","0.0-183.0","AXU91NVCGW9B","img_art/16.jpg","1","","","","","","","","","","","","","","","","","","","","","","","","",""
"5563","","image-button-response","186","1272469","0.0-184.0-0.0","AXU91NVCGW9B","img_art/16.jpg","0","","","","","","","","","","","","","","","","","","","","","","","","",""
"11891","","image-button-response","187","1284366","0.0-185.0-0.0","AXU91NVCGW9B","img_art/16.jpg","5","","","","","","","","","","","","","","","","","","","","","","","","",""
"null","","html-keyboard-response","188","1284870","0.0-186.0","AXU91NVCGW9B","<p style=""font-size: 48px;"">+</p>","","","","","null","allTrialResponses","500","1","20","img_art/16.jpg","50","happines memories childhood nice design not tooo hapy with color","Kathryn,Mary,Erika,Sophia,Amanda,Savannah","I see something that is supposed to be comforting but it's been discarded and lost.,-20,140,20","This is a neat piece. Sort of shocking. I think it's too monochromatic though.,19,180,20","Very emotional,23,100,20","This feels like there's some kind of pedofile thing going on here.,-50,280,20","Very modern, reminds me of bansky,43,180,20","A strange collage made by a child. Do not like the colored face of the bear.,-29,200,20","Mary","This is a neat piece. Sort of shocking. I think it's too monochromatic though.,19,180,20","Kathryn","I see something that is supposed to be comforting but it's been discarded and lost.,-20,140,20","Savannah","A strange collage made by a child. Do not like the colored face of the bear.,-29,200,20","4"
"3508","","survey-text","189","1288428","0.0-187.0-0.0","AXU91NVCGW9B","","","","{""Q0"":""we""}","","","","","","","","","","","","","","","","","","","","","","",""
"22380","","survey-text","190","1310812","0.0-188.0-0.0","AXU91NVCGW9B","","","","{""Q0"":""overdone very common as seen on tv""}","","","","","","","","","","","","","","","","","","","","","","",""
"2355.7000000029802","","image-slider-response","191","1313172","0.0-189.0","AXU91NVCGW9B","","","","","50","","","","","","","","","","","","","","","","","","","","","",""
"4923","","image-button-response","192","1318177","0.0-190.0","AXU91NVCGW9B","img_art/26.jpg","3","","","","","","","","","","","","","","","","","","","","","","","","",""
"1304","","image-button-response","193","1319485","0.0-191.0","AXU91NVCGW9B","img_art/26.jpg","3","","","","","","","","","","","","","","","","","","","","","","","","",""
"1899","","image-button-response","194","1321390","0.0-192.0-0.0","AXU91NVCGW9B","img_art/26.jpg","4","","","","","","","","","","","","","","","","","","","","","","","","",""
"2762","","image-button-response","195","1324158","0.0-193.0-0.0","AXU91NVCGW9B","img_art/26.jpg","2","","","","","","","","","","","","","","","","","","","","","","","","",""
"null","","html-keyboard-response","196","1325670","0.0-194.0","AXU91NVCGW9B","<p style=""font-size: 48px;"">+</p>","","","","","null","allTrialResponses","1500","1","21","img_art/26.jpg","50","overdone very common as seen on tv","Kathryn,Mary,Gabrielle,Abigail,Nicole,Savannah","This piece feels pretty chill like it's just a normal day in the city.,10,140,20","I can tell it's some sort of outdoor scene. It looks very amateurish.,-9,180,20","subtle use of colors, city street view?,8,160,20","Reminds me of walks in my dads city when I was little,22,20,20","It's relaxing to look at but I wish it was just a little more defined,20,20,20","Appears childish and unfinished.,-20,200,20","Abigail","Reminds me of walks in my dads city when I was little,22,20,20","Nicole","It's relaxing to look at but I wish it was just a little more defined,20,20,20","Gabrielle","subtle use of colors, city street view?,8,160,20","4"
"30943","","survey-text","197","1356653","0.0-195.0-0.0","AXU91NVCGW9B","","","","{""Q0"":""more colors used too much pointless""}","","","","","","","","","","","","","","","","","","","","","","",""
"2235.5999999940395","","image-slider-response","198","1358893","0.0-196.0","AXU91NVCGW9B","","","","","-50","","","","","","","","","","","","","","","","","","","","","",""
"3363","","image-button-response","199","1363899","0.0-197.0","AXU91NVCGW9B","img_art/23.jpg","1","","","","","","","","","","","","","","","","","","","","","","","","",""
"795","","image-button-response","200","1364702","0.0-198.0","AXU91NVCGW9B","img_art/23.jpg","1","","","","","","","","","","","","","","","","","","","","","","","","",""
"4083","","image-button-response","201","1368791","0.0-199.0-0.0","AXU91NVCGW9B","img_art/23.jpg","5","","","","","","","","","","","","","","","","","","","","","","","","",""
"2938","","image-button-response","202","1371734","0.0-200.0-0.0","AXU91NVCGW9B","img_art/23.jpg","2","","","","","","","","","","","","","","","","","","","","","","","","",""
"null","","html-keyboard-response","203","1373241","0.0-201.0","AXU91NVCGW9B","<p style=""font-size: 48px;"">+</p>","","","","","null","allTrialResponses","1500","1","22","img_art/23.jpg","-50","more colors used too much pointless","Alexa,Sierra,Gabrielle,Abigail,Nicole,Alicia","Very colorful and wild. It's cool and I like it,32,40,20","it makes me aggitated,-21,260,20","it's OK, but just OK, kind of interesting but I wouldn't spend money on it,4,160,20","I like the contrast,29,20,20","Those colors are awesome! And I love the strip of negative space that almost looks like a line of people,50,20,20","No reactions, childish.,-19,120,20","Sierra","it makes me aggitated,-21,260,20","Alicia","No reactions, childish.,-19,120,20","Gabrielle","it's OK, but just OK, kind of interesting but I wouldn't spend money on it,4,160,20","4"
"16083","","survey-text","204","1389349","0.0-202.0-0.0","AXU91NVCGW9B","","","","{""Q0"":""swirls again too common overdone""}","","","","","","","","","","","","","","","","","","","","","","",""
"3004.2000000029802","","image-slider-response","205","1392358","0.0-203.0","AXU91NVCGW9B","","","","","-50","","","","","","","","","","","","","","","","","","","","","",""
"2987","","image-button-response","206","1397375","0.0-204.0","AXU91NVCGW9B","img_art/30.jpg","0","","","","","","","","","","","","","","","","","","","","","","","","",""
"847","","image-button-response","207","1398230","0.0-205.0","AXU91NVCGW9B","img_art/30.jpg","0","","","","","","","","","","","","","","","","","","","","","","","","",""
"2787","","image-button-response","208","1401021","0.0-206.0-0.0","AXU91NVCGW9B","img_art/30.jpg","2","","","","","","","","","","","","","","","","","","","","","","","","",""
"2155","","image-button-response","209","1403181","0.0-207.0-0.0","AXU91NVCGW9B","img_art/30.jpg","1","","","","","","","","","","","","","","","","","","","","","","","","",""
"null","","html-keyboard-response","210","1404693","0.0-208.0","AXU91NVCGW9B","<p style=""font-size: 48px;"">+</p>","","","","","null","allTrialResponses","1500","1","23","img_art/30.jpg","-50","swirls again too common overdone","Angela,Sierra,Gabrielle,Cynthia,Jasmine,Alicia","Really don't like this piece. It feels very lazy to me.,-31,260,20","i dont like how the colors are mixed,-6,260,20","looks very childish, like your kid did it,-33,160,20","fun and imaginative,12,320,20","Pretty neutral about this one,0,340,20","Neat, but simple, I could make this. not skilled.,9,120,20","Angela","Really don't like this piece. It feels very lazy to me.,-31,260,20","Gabrielle","looks very childish, like your kid did it,-33,160,20","Sierra","i dont like how the colors are mixed,-6,260,20","4"
"25114","","survey-text","211","1429845","0.0-209.0-0.0","AXU91NVCGW9B","","","","{""Q0"":""nice colors just no point or reason for it""}","","","","","","","","","","","","","","","","","","","","","","",""
"2811.7000000029802","","image-slider-response","212","1432661","0.0-210.0","AXU91NVCGW9B","","","","","-50","","","","","","","","","","","","","","","","","","","","","",""
"2988","","image-button-response","213","1437670","0.0-211.0","AXU91NVCGW9B","img_art/21.jpg","5","","","","","","","","","","","","","","","","","","","","","","","","",""
"630","","image-button-response","214","1438310","0.0-212.0","AXU91NVCGW9B","img_art/21.jpg","5","","","","","","","","","","","","","","","","","","","","","","","","",""
"5419","","image-button-response","215","1443734","0.0-213.0-0.0","AXU91NVCGW9B","img_art/21.jpg","0","","","","","","","","","","","","","","","","","","","","","","","","",""
"8987","","image-button-response","216","1452726","0.0-214.0-0.0","AXU91NVCGW9B","img_art/21.jpg","3","","","","","","","","","","","","","","","","","","","","","","","","",""
"null","","html-keyboard-response","217","1453736","0.0-215.0","AXU91NVCGW9B","<p style=""font-size: 48px;"">+</p>","","","","","null","allTrialResponses","1000","1","24","img_art/21.jpg","-50","nice colors just no point or reason for it","Angela,Sierra,Gabrielle,Shelby,Chloe,Kylie","I feel like I'm looking at two different paintings mashed together in the middle.,20,260,20","i like the way the colors divide the canvas.,16,260,20","setting sun sky? nice colors and blending,14,160,20","Very calming and soft, makes me feel good,31,240,20","Lovely colors and emotive effects. Turner-esque in a not-so derivative way.,44,220,20","Makes me think of a battleship targeting a beautiful mountainside,0,300,20","Kylie","Makes me think of a battleship targeting a beautiful mountainside,0,300,20","Angela","I feel like I'm looking at two different paintings mashed together in the middle.,20,260,20","Shelby","Very calming and soft, makes me feel good,31,240,20","4"
"10957","","survey-text","218","1464726","0.0-216.0-0.0","AXU91NVCGW9B","","","","{""Q0"":""silly pointless useless""}","","","","","","","","","","","","","","","","","","","","","","",""
"2507.199999988079","","image-slider-response","219","1467238","0.0-217.0","AXU91NVCGW9B","","","","","-50","","","","","","","","","","","","","","","","","","","","","",""
"4971","","image-button-response","220","1472243","0.0-218.0","AXU91NVCGW9B","img_art/29.jpg","0","","","","","","","","","","","","","","","","","","","","","","","","",""
"943","","image-button-response","221","1473189","0.0-219.0","AXU91NVCGW9B","img_art/29.jpg","0","","","","","","","","","","","","","","","","","","","","","","","","",""
"2268","","image-button-response","222","1475462","0.0-220.0-0.0","AXU91NVCGW9B","img_art/29.jpg","4","","","","","","","","","","","","","","","","","","","","","","","","",""
"2396","","image-button-response","223","1477862","0.0-221.0-0.0","AXU91NVCGW9B","img_art/29.jpg","2","","","","","","","","","","","","","","","","","","","","","","","","",""
"null","","html-keyboard-response","224","1478380","0.0-222.0","AXU91NVCGW9B","<p style=""font-size: 48px;"">+</p>","","","","","null","allTrialResponses","500","1","25","img_art/29.jpg","-50","silly pointless useless","Angela,Andrea,Rachel,Shelby,Margaret,Kylie","I would like this piece better without the red X across it,-10,260,20","Bottomless pit and prison. Feels like its saying time is precious.,11,240,20","It looks like someone did not like their art and drew an x over it.,-32,80,20","Doesnt say much for me,0,240,20","this does nothing for me. hate the colors. hate the design,-50,100,20","Reminds me of graffitti gone wrong,15,300,20","Angela","I would like this piece better without the red X across it,-10,260,20","Margaret","this does nothing for me. hate the colors. hate the design,-50,100,20","Rachel","It looks like someone did not like their art and drew an x over it.,-32,80,20","4"
"8274","","survey-text","225","1486701","0.0-223.0-0.0","AXU91NVCGW9B","","","","{""Q0"":""table""}","","","","","","","","","","","","","","","","","","","","","","",""
"13837","","survey-text","226","1500542","0.0-224.0-0.0","AXU91NVCGW9B","","","","{""Q0"":""dark bad colors fear""}","","","","","","","","","","","","","","","","","","","","","","",""
"3058.199999988079","","image-slider-response","227","1503605","0.0-225.0","AXU91NVCGW9B","","","","","-50","","","","","","","","","","","","","","","","","","","","","",""
"4715","","image-button-response","228","1508628","0.0-226.0","AXU91NVCGW9B","img_art/25.jpg","0","","","","","","","","","","","","","","","","","","","","","","","","",""
"146","","image-button-response","229","1508782","0.0-227.0","AXU91NVCGW9B","img_art/25.jpg","0","","","","","","","","","","","","","","","","","","","","","","","","",""
"1804","","image-button-response","230","1510592","0.0-228.0-0.0","AXU91NVCGW9B","img_art/25.jpg","2","","","","","","","","","","","","","","","","","","","","","","","","",""
"1193","","image-button-response","231","1511789","0.0-229.0-0.0","AXU91NVCGW9B","img_art/25.jpg","2","","","","","","","","","","","","","","","","","","","","","","","","",""
"1893","","image-button-response","232","1517006","0.0-229.1-0.1","AXU91NVCGW9B","img_art/25.jpg","3","","","","","","","","","","","","","","","","","","","","","","","","",""
"null","","html-keyboard-response","233","1518518","0.0-230.0","AXU91NVCGW9B","<p style=""font-size: 48px;"">+</p>","","","","","null","allTrialResponses","1500","1","26","img_art/25.jpg","-50","dark bad colors fear","Angela,Kaitlyn,Rachel,Angelica,Margaret,Kimberly","Ugly green color and don't like it at all,-30,260,20","Love the simplicity and lines,20,80,20","I like the green color, but the combination of green and a person with a long neck reminds me of aliens,-27,80,20","This is strange and poorly done.,-2,280,20","love the color and the contrast of the black on teal,50,100,20","Cult-like, which to me makes it kind of creepy,-21,260,20","Angela","Ugly green color and don't like it at all,-30,260,20","Rachel","I like the green color, but the combination of green and a person with a long neck reminds me of aliens,-27,80,20","Angelica","This is strange and poorly done.,-2,280,20","6"
"16734","","survey-text","234","1535286","0.0-231.0-0.0","AXU91NVCGW9B","","","","{""Q0"":""pretty colors slightly busy ""}","","","","","","","","","","","","","","","","","","","","","","",""
"3770.699999988079","","image-slider-response","235","1539061","0.0-232.0","AXU91NVCGW9B","","","","","50","","","","","","","","","","","","","","","","","","","","","",""
"null","","image-button-response","236","1544067","0.0-233.0","AXU91NVCGW9B","img_art/18.jpg","null","","","","","","","","","","","","","","","","","","","","","","","","",""
"3212","","image-button-response","237","1547287","0.0-234.0","AXU91NVCGW9B","img_art/18.jpg","4","","","","","","","","","","","","","","","","","","","","","","","","",""
"3162","","image-button-response","238","1550454","0.0-235.0-0.0","AXU91NVCGW9B","img_art/18.jpg","5","","","","","","","","","","","","","","","","","","","","","","","","",""
"1778","","image-button-response","239","1552238","0.0-236.0-0.0","AXU91NVCGW9B","img_art/18.jpg","1","","","","","","","","","","","","","","","","","","","","","","","","",""
"null","","html-keyboard-response","240","1553753","0.0-237.0","AXU91NVCGW9B","<p style=""font-size: 48px;"">+</p>","","","","","null","allTrialResponses","1500","1","27","img_art/18.jpg","50","pretty colors slightly busy ","Angela,Mikayla,Rachel,Angelica,Leah,Jacqueline","like the grays and contrast of the yellow. This piece feels a bit angry,10,260,20","Kinda boring. Not my favorite,-34,300,20","This one seems rather ghoulish to me.,-41,80,20","It looks grotesque and violent.,-50,280,20","I really like it, like hells drivers,43,360,20","Kinda neat, looks like cavalry, or a knight.,15,300,20","Leah","I really like it, like hells drivers,43,360,20","Jacqueline","Kinda neat, looks like cavalry, or a knight.,15,300,20","Mikayla","Kinda boring. Not my favorite,-34,300,20","6"
"27703","","survey-text","241","1581501","0.0-238.0-0.0","AXU91NVCGW9B","","","","{""Q0"":""plain looks more like carpet designs""}","","","","","","","","","","","","","","","","","","","","","","",""
"2396","","image-slider-response","242","1583901","0.0-239.0","AXU91NVCGW9B","","","","","-50","","","","","","","","","","","","","","","","","","","","","",""
"4540","","image-button-response","243","1588919","0.0-240.0","AXU91NVCGW9B","img_art/7.jpg","0","","","","","","","","","","","","","","","","","","","","","","","","",""
"5384","","image-button-response","244","1594310","0.0-241.0","AXU91NVCGW9B","img_art/7.jpg","5","","","","","","","","","","","","","","","","","","","","","","","","",""
"4282","","image-button-response","245","1598598","0.0-242.0-0.0","AXU91NVCGW9B","img_art/7.jpg","3","","","","","","","","","","","","","","","","","","","","","","","","",""
"3442","","image-button-response","246","1602046","0.0-243.0-0.0","AXU91NVCGW9B","img_art/7.jpg","0","","","","","","","","","","","","","","","","","","","","","","","","",""
"null","","html-keyboard-response","247","1603558","0.0-244.0","AXU91NVCGW9B","<p style=""font-size: 48px;"">+</p>","","","","","null","allTrialResponses","1500","1","28","img_art/7.jpg","-50","plain looks more like carpet designs","Diana,Mikayla,Victoria,Maria,Leah,Jacqueline","This piece reminds me of ants and it makes my skin crawl.,-37,380,20","I love the texture.,20,300,20","looks like a photograph,-4,400,20","elicits no real response,0,120,20","I love it, it looks like a landscape photograph in desert or rocky mountain,50,360,20","Just looks like rocks or some kind of mineral.,0,300,20","Jacqueline","Just looks like rocks or some kind of mineral.,0,300,20","Maria","elicits no real response,0,120,20","Diana","This piece reminds me of ants and it makes my skin crawl.,-37,380,20","6"
"25115","","survey-text","248","1628717","0.0-245.0-0.0","AXU91NVCGW9B","","","","{""Q0"":""too dark no design pointless""}","","","","","","","","","","","","","","","","","","","","","","",""
"2611.6000000089407","","image-slider-response","249","1631333","0.0-246.0","AXU91NVCGW9B","","","","","-50","","","","","","","","","","","","","","","","","","","","","",""
"2372","","image-button-response","250","1636338","0.0-247.0","AXU91NVCGW9B","img_art/15.jpg","0","","","","","","","","","","","","","","","","","","","","","","","","",""
"2051","","image-button-response","251","1638398","0.0-248.0","AXU91NVCGW9B","img_art/15.jpg","2","","","","","","","","","","","","","","","","","","","","","","","","",""
"6371","","image-button-response","252","1644774","0.0-249.0-0.0","AXU91NVCGW9B","img_art/15.jpg","5","","","","","","","","","","","","","","","","","","","","","","","","",""
"3018","","image-button-response","253","1647797","0.0-250.0-0.0","AXU91NVCGW9B","img_art/15.jpg","1","","","","","","","","","","","","","","","","","","","","","","","","",""
"null","","html-keyboard-response","254","1648302","0.0-251.0","AXU91NVCGW9B","<p style=""font-size: 48px;"">+</p>","","","","","null","allTrialResponses","500","1","29","img_art/15.jpg","-50","too dark no design pointless","Diana,Cassidy,Monica,Maria,Destiny,Jacqueline","There should be more space between the black marks. The black comes off harsh and the blue between the trees can barely be seen.,-21,380,20","I like the random blue dabs to break up the black, but it looks unfinished.,4,140,20","I don't feel much of anything when looking at this, it's just a random pattern,1,360,20","i enjoy its apaprent simplicity (of colour and shape),32,120,20","I couldn't tell you why but I'm really into this,39,360,20","I don't like how the black dots are aligned.,-20,300,20","Monica","I don't feel much of anything when looking at this, it's just a random pattern,1,360,20","Jacqueline","I don't like how the black dots are aligned.,-20,300,20","Cassidy","I like the random blue dabs to break up the black, but it looks unfinished.,4,140,20","6"
"14379","","survey-text","255","1662717","0.0-252.0-0.0","AXU91NVCGW9B","","","","{""Q0"":""pointless dull common copies""}","","","","","","","","","","","","","","","","","","","","","","",""
"2851.7000000029802","","image-slider-response","256","1665572","0.0-253.0","AXU91NVCGW9B","","","","","-50","","","","","","","","","","","","","","","","","","","","","",""
"1988","","image-button-response","257","1670583","0.0-254.0","AXU91NVCGW9B","img_art/3.jpg","1","","","","","","","","","","","","","","","","","","","","","","","","",""
"337","","image-button-response","258","1670933","0.0-255.0","AXU91NVCGW9B","img_art/3.jpg","1","","","","","","","","","","","","","","","","","","","","","","","","",""
"700","","image-button-response","259","1671638","0.0-256.0-0.0","AXU91NVCGW9B","img_art/3.jpg","0","","","","","","","","","","","","","","","","","","","","","","","","",""
"1857","","image-button-response","260","1673502","0.0-257.0-0.0","AXU91NVCGW9B","img_art/3.jpg","2","","","","","","","","","","","","","","","","","","","","","","","","",""
"null","","html-keyboard-response","261","1674007","0.0-258.0","AXU91NVCGW9B","<p style=""font-size: 48px;"">+</p>","","","","","null","allTrialResponses","500","1","30","img_art/3.jpg","-50","pointless dull common copies","Courtney,Cassidy,Monica,Kelsey,Sydney,Jacqueline","That just looks like a mess..,-18,280,20","Again, looks like a child's work. I don't get these types of pieces. Too simple,-47,140,20","It looks like random scribbles by a child and not appealing,-38,360,20","just scribbles, not pleasing,-30,240,20","This piece makes me think it has a backstory or a reason which I like.,5,320,20","Looks like a bloody head with teeth.,-16,300,20","Cassidy","Again, looks like a child's work. I don't get these types of pieces. Too simple,-47,140,20","Courtney","That just looks like a mess..,-18,280,20","Monica","It looks like random scribbles by a child and not appealing,-38,360,20","6"
"8748","","image-button-response_instructions","262","1682789","0.0-259.0","AXU91NVCGW9B","","0","instructions","","","","","","","","","","","","","","","","","","","","","","","",""
"1600","","image-button-response","263","1684405","0.0-260.0","AXU91NVCGW9B","","0","","","","","","","","","","","","","","","","","","","","","","","","",""
