"rt","url","trial_type","trial_index","time_elapsed","internal_node_id","participant_id","stimulus","button_pressed","Name","responses","response","key_press","variableName","fixationTime","condition","trial","photo","subjectRating","subjectResponse","agentsNames","agent_1_Response","agent_2_Response","agent_3_Response","agent_4_Response","agent_5_Response","agent_6_Response","kept_1_name","kept_1_response","kept_2_name","kept_2_response","kept_3_name","kept_3_response","errorCounter"
"8100","external_page_harvard.html","external-html","0","8218","0.0-0.0","AZ2P6DGG5M6SH","","","","","","","","","","","","","","","","","","","","","","","","","","",""
"1418","","image-button-response","1","9637","0.0-1.0","AZ2P6DGG5M6SH","","0","","","","","","","","","","","","","","","","","","","","","","","","",""
"1609","","image-button-response","2","11248","0.0-2.0-0.0","AZ2P6DGG5M6SH","","1","phone","","","","","","","","","","","","","","","","","","","","","","","",""
"4446","","survey-text","3","15695","0.0-3.0-0.0","AZ2P6DGG5M6SH","","","","{""Q0"":""AZ2P6DGG5M6SH""}","","","","","","","","","","","","","","","","","","","","","","",""
"4419","","image-button-response_instructions","4","20115","0.0-4.0","AZ2P6DGG5M6SH","","0","instructions","","","","","","","","","","","","","","","","","","","","","","","",""
"8917","","image-button-response_instructions","5","29033","0.0-5.0","AZ2P6DGG5M6SH","img_art/ins/popularity/ins1.png","0","instructions","","","","","","","","","","","","","","","","","","","","","","","",""
"4734","","image-button-response_instructions","6","33768","0.0-6.0","AZ2P6DGG5M6SH","img_art/ins/popularity/ins2.png","0","instructions","","","","","","","","","","","","","","","","","","","","","","","",""
"4387","","image-button-response_instructions","7","38156","0.0-7.0","AZ2P6DGG5M6SH","img_art/ins/popularity/ins2Extreme.png","0","instructions","","","","","","","","","","","","","","","","","","","","","","","",""
"7230","","image-button-response_instructions","8","45387","0.0-8.0","AZ2P6DGG5M6SH","img_art/ins/popularity/ins3KEEPpop.PNG","0","instructions","","","","","","","","","","","","","","","","","","","","","","","",""
"7461","","image-button-response_instructions","9","52848","0.0-9.0","AZ2P6DGG5M6SH","img_art/ins/popularity/ins3ANamepop.PNG","0","instructions","","","","","","","","","","","","","","","","","","","","","","","",""
"3351","","image-button-response_instructions","10","56200","0.0-10.0","AZ2P6DGG5M6SH","img_art/ins/popularity/ins3ARatingpop.png","0","instructions","","","","","","","","","","","","","","","","","","","","","","","",""
"3146","","image-button-response_instructions","11","59347","0.0-11.0","AZ2P6DGG5M6SH","img_art/ins/popularity/ins3ATextpop.png","0","instructions","","","","","","","","","","","","","","","","","","","","","","","",""
"4422","","image-button-response_instructions","12","63769","0.0-12.0","AZ2P6DGG5M6SH","img_art/ins/popularity/ins3ALikespop.png","0","instructions","","","","","","","","","","","","","","","","","","","","","","","",""
"8487","","image-button-response_instructions","13","72256","0.0-13.0","AZ2P6DGG5M6SH","img_art/ins/popularity/ins3KEEPpop.PNG","0","instructions","","","","","","","","","","","","","","","","","","","","","","","",""
"7706","","image-button-response_instructions","14","79963","0.0-14.0","AZ2P6DGG5M6SH","img_art/ins/popularity/ins3_5RED.png","0","instructions","","","","","","","","","","","","","","","","","","","","","","","",""
"4301","","image-button-response_instructions","15","84264","0.0-15.0","AZ2P6DGG5M6SH","img_art/ins/popularity/ins3KEEPpop.PNG","0","instructions","","","","","","","","","","","","","","","","","","","","","","","",""
"9309","","image-button-response_instructions","16","93574","0.0-16.0","AZ2P6DGG5M6SH","img_art/ins/popularity/ins4KEEPpop.PNG","0","instructions","","","","","","","","","","","","","","","","","","","","","","","",""
"3839","","image-button-response_instructions","17","97414","0.0-17.0","AZ2P6DGG5M6SH","img_art/ins/popularity/ins5KEEPpop.PNG","0","instructions","","","","","","","","","","","","","","","","","","","","","","","",""
"2221","","image-button-response_instructions","18","99636","0.0-18.0","AZ2P6DGG5M6SH","","0","instructions","","","","","","","","","","","","","","","","","","","","","","","",""
"5517","","survey-text","19","105165","0.0-19.0-0.0","AZ2P6DGG5M6SH","","","","{""Q0"":""but""}","","","","","","","","","","","","","","","","","","","","","","",""
"10873","","survey-text","20","116039","0.0-20.0-0.0","AZ2P6DGG5M6SH","","","","{""Q0"":""looks like the person was in a hurry to make.""}","","","","","","","","","","","","","","","","","","","","","","",""
"4214.5","","image-slider-response","21","120255","0.0-21.0","AZ2P6DGG5M6SH","","","","","5","","","","","","","","","","","","","","","","","","","","","",""
"4568","","image-button-response","22","125257","0.0-22.0","AZ2P6DGG5M6SH","img_art/ins/1.jpg","3","","","","","","","","","","","","","","","","","","","","","","","","",""
"3890","","image-button-response","23","129147","0.0-23.0","AZ2P6DGG5M6SH","img_art/ins/1.jpg","3","","","","","","","","","","","","","","","","","","","","","","","","",""
"2517","","image-button-response","24","131665","0.0-24.0-0.0","AZ2P6DGG5M6SH","img_art/ins/1.jpg","1","","","","","","","","","","","","","","","","","","","","","","","","",""
"619","","image-button-response","25","132286","0.0-25.0-0.0","AZ2P6DGG5M6SH","img_art/ins/1.jpg","0","","","","","","","","","","","","","","","","","","","","","","","","",""
"null","","html-keyboard-response","26","132787","0.0-26.0","AZ2P6DGG5M6SH","<p style=""font-size: 48px;"">+</p>","","","","","null","allTrialResponses","500","1","-2","img_art/ins/1.jpg","5","looks like the person was in a hurry to make.","Adam,Alex,Ben,Carl,Daniel,Jack","Seems like doodles,-20,20,20","very creative work.,36,40,20","This color reminds me of poo,-46,60,20","very calming artwork,42,80,20","It looks like a murder scene.,-48,100,20","I like the sophisticated brushwork,40,120,20","Carl","very calming artwork,42,80,20","Alex","very creative work.,36,40,20","Adam","Seems like doodles,-20,20,20","0"
"13233","","survey-text","27","146023","0.0-27.0-0.0","AZ2P6DGG5M6SH","","","","{""Q0"":""looks like they slipped on the canvas""}","","","","","","","","","","","","","","","","","","","","","","",""
"2742.5","","image-slider-response","28","148766","0.0-28.0","AZ2P6DGG5M6SH","","","","","4","","","","","","","","","","","","","","","","","","","","","",""
"null","","image-button-response","29","153768","0.0-29.0","AZ2P6DGG5M6SH","img_art/ins/2.jpg","null","","","","","","","","","","","","","","","","","","","","","","","","",""
"1043","","image-button-response","30","154813","0.0-30.0","AZ2P6DGG5M6SH","img_art/ins/2.jpg","2","","","","","","","","","","","","","","","","","","","","","","","","",""
"2323","","image-button-response","31","157137","0.0-31.0-0.0","AZ2P6DGG5M6SH","img_art/ins/2.jpg","4","","","","","","","","","","","","","","","","","","","","","","","","",""
"2499","","image-button-response","32","159637","0.0-32.0-0.0","AZ2P6DGG5M6SH","img_art/ins/2.jpg","1","","","","","","","","","","","","","","","","","","","","","","","","",""
"null","","html-keyboard-response","33","160637","0.0-33.0","AZ2P6DGG5M6SH","<p style=""font-size: 48px;"">+</p>","","","","","null","allTrialResponses","1000","1","-1","img_art/ins/2.jpg","4","looks like they slipped on the canvas","Adam,Alex,James,Carl,John,Kyle","too much color,-18,20,20","I like the blocks of color arrangements,30,40,20","looks too angry,-50,140,20","I can feel the artist's passion in it,45,80,20","love the texture of paint,48,160,20","Idk, it is just annoying,-32,180,20","James","looks too angry,-50,140,20","John","love the texture of paint,48,160,20","Alex","I like the blocks of color arrangements,30,40,20","0"
"14140","","survey-text","34","174779","0.0-34.0-0.0","AZ2P6DGG5M6SH","","","","{""Q0"":""looks like the 90s soda design""}","","","","","","","","","","","","","","","","","","","","","","",""
"2646.2000000178814","","image-slider-response","35","177426","0.0-35.0","AZ2P6DGG5M6SH","","","","","-6","","","","","","","","","","","","","","","","","","","","","",""
"1201","","image-button-response","36","182428","0.0-36.0","AZ2P6DGG5M6SH","img_art/ins/3.jpg","5","","","","","","","","","","","","","","","","","","","","","","","","",""
"460","","image-button-response","37","182889","0.0-37.0","AZ2P6DGG5M6SH","img_art/ins/3.jpg","4","","","","","","","","","","","","","","","","","","","","","","","","",""
"1311","","image-button-response","38","184201","0.0-38.0-0.0","AZ2P6DGG5M6SH","img_art/ins/3.jpg","3","","","","","","","","","","","","","","","","","","","","","","","","",""
"1465","","image-button-response","39","185667","0.0-39.0-0.0","AZ2P6DGG5M6SH","img_art/ins/3.jpg","1","","","","","","","","","","","","","","","","","","","","","","","","",""
"null","","html-keyboard-response","40","187169","0.0-40.0","AZ2P6DGG5M6SH","<p style=""font-size: 48px;"">+</p>","","","","","null","allTrialResponses","1500","1","0","img_art/ins/3.jpg","-6","looks like the 90s soda design","Ron,Alex,James,Mike,John,Sam","It looks depressing,-26,220,20","calming blue is very nice,36,40,20","My worst nightmare,-42,140,20","enjoy the different shades of blue,22,200,20","I like the overlapping of brushes,41,160,20","I can feel a rainy day from this painting,18,240,20","John","I like the overlapping of brushes,41,160,20","Mike","enjoy the different shades of blue,22,200,20","Alex","calming blue is very nice,36,40,20","0"
"4247","","image-button-response_instructions","41","191418","0.0-41.0","AZ2P6DGG5M6SH","","0","instructions","","","","","","","","","","","","","","","","","","","","","","","",""
"8324","","survey-likert","42","199742","0.0-42.0-0.0","AZ2P6DGG5M6SH","","","","{""Q0"":"""",""Q1"":0,""Q2"":1}","","","","","","","","","","","","","","","","","","","","","","",""
"4379","","survey-text","43","204124","0.0-43.0-0.0","AZ2P6DGG5M6SH","","","","{""Q0"":""rock""}","","","","","","","","","","","","","","","","","","","","","","",""
"9762","","survey-text","44","213886","0.0-44.0-0.0","AZ2P6DGG5M6SH","","","","{""Q0"":""looks like a bird on a sun""}","","","","","","","","","","","","","","","","","","","","","","",""
"3602.0999999940395","","image-slider-response","45","217489","0.0-45.0","AZ2P6DGG5M6SH","","","","","12","","","","","","","","","","","","","","","","","","","","","",""
"null","","image-button-response","46","222501","0.0-46.0","AZ2P6DGG5M6SH","img_art/6.jpg","null","","","","","","","","","","","","","","","","","","","","","","","","",""
"1802","","image-button-response","47","224304","0.0-47.0","AZ2P6DGG5M6SH","img_art/6.jpg","3","","","","","","","","","","","","","","","","","","","","","","","","",""
"1952","","image-button-response","48","226257","0.0-48.0-0.0","AZ2P6DGG5M6SH","img_art/6.jpg","1","","","","","","","","","","","","","","","","","","","","","","","","",""
"1335","","image-button-response","49","227593","0.0-49.0-0.0","AZ2P6DGG5M6SH","img_art/6.jpg","0","","","","","","","","","","","","","","","","","","","","","","","","",""
"null","","html-keyboard-response","50","229095","0.0-50.0","AZ2P6DGG5M6SH","<p style=""font-size: 48px;"">+</p>","","","","","null","allTrialResponses","1500","1","1","img_art/6.jpg","12","looks like a bird on a sun","Vincent,Jeffrey,Tyler,Cameron,Nathaniel,Steven","Calm and catching,30,360,20","positive because of bright colours and a bird,20,40,20","Is this the villain from Despicable Me?,29,320,20","Kind of neat, but then that's a weird looking bird. too weird.,0,60,20","Not my favorite, but I like the empty vibe and the imagination it invokes. A skinny girl with long legs, perhaps, looking over a cliff,9,220,20","This is interesting, I feel solitude, and loneliness from this.,13,160,20","Cameron","Kind of neat, but then that's a weird looking bird. too weird.,0,60,20","Jeffrey","positive because of bright colours and a bird,20,40,20","Vincent","Calm and catching,30,360,20","0"
"10313","","survey-text","51","239410","0.0-51.0-0.0","AZ2P6DGG5M6SH","","","","{""Q0"":""reminds me of a cookie""}","","","","","","","","","","","","","","","","","","","","","","",""
"4356","","image-slider-response","52","243767","0.0-52.0","AZ2P6DGG5M6SH","","","","","12","","","","","","","","","","","","","","","","","","","","","",""
"null","","image-button-response","53","248768","0.0-53.0","AZ2P6DGG5M6SH","img_art/7.jpg","null","","","","","","","","","","","","","","","","","","","","","","","","",""
"2240","","image-button-response","54","251009","0.0-54.0","AZ2P6DGG5M6SH","img_art/7.jpg","3","","","","","","","","","","","","","","","","","","","","","","","","",""
"1881","","image-button-response","55","252891","0.0-55.0-0.0","AZ2P6DGG5M6SH","img_art/7.jpg","4","","","","","","","","","","","","","","","","","","","","","","","","",""
"1772","","image-button-response","56","254664","0.0-56.0-0.0","AZ2P6DGG5M6SH","img_art/7.jpg","2","","","","","","","","","","","","","","","","","","","","","","","","",""
"null","","html-keyboard-response","57","255165","0.0-57.0","AZ2P6DGG5M6SH","<p style=""font-size: 48px;"">+</p>","","","","","null","allTrialResponses","500","1","2","img_art/7.jpg","12","reminds me of a cookie","Vincent,Jeffrey,Mark,Cameron,Dalton,Lucas","One I would love to own . Calm relaxing spiritual and full of love,41,360,20","No not cause many emotions,1,40,20","Reminds me of mold. Repulsive.,-10,80,20","tracks in dirt?,-15,60,20","i dont like it. it looks like rocks,-40,300,20","Don't understand the meaning of this picture.,-30,380,20","Cameron","tracks in dirt?,-15,60,20","Dalton","i dont like it. it looks like rocks,-40,300,20","Mark","Reminds me of mold. Repulsive.,-10,80,20","0"
"24652","","survey-text","58","279820","0.0-58.0-0.0","AZ2P6DGG5M6SH","","","","{""Q0"":""i like the way the colors blend together.""}","","","","","","","","","","","","","","","","","","","","","","",""
"2103.100000023842","","image-slider-response","59","281924","0.0-59.0","AZ2P6DGG5M6SH","","","","","24","","","","","","","","","","","","","","","","","","","","","",""
"null","","image-button-response","60","286926","0.0-60.0","AZ2P6DGG5M6SH","img_art/20.jpg","null","","","","","","","","","","","","","","","","","","","","","","","","",""
"649","","image-button-response","61","287576","0.0-61.0","AZ2P6DGG5M6SH","img_art/20.jpg","1","","","","","","","","","","","","","","","","","","","","","","","","",""
"1880","","image-button-response","62","289458","0.0-62.0-0.0","AZ2P6DGG5M6SH","img_art/20.jpg","3","","","","","","","","","","","","","","","","","","","","","","","","",""
"4353","","image-button-response","63","293812","0.0-63.0-0.0","AZ2P6DGG5M6SH","img_art/20.jpg","5","","","","","","","","","","","","","","","","","","","","","","","","",""
"null","","html-keyboard-response","64","294313","0.0-64.0","AZ2P6DGG5M6SH","<p style=""font-size: 48px;"">+</p>","","","","","null","allTrialResponses","500","1","3","img_art/20.jpg","24","i like the way the colors blend together.","Shawn,Chase,Mark,Cameron,Dalton,Colton","Mood setting if a little dreary,20,100,20","Looks like a refinery dumping shit into the water.,-40,120,20","Reminds me of persistance of time (a favorite of mine).,30,80,20","Dinosaur skill and some dark shadow above,-30,60,20","make me feel like its a little country maybe a tractor and a skull head of a bull,1,300,20","reminds me of Salvadore Dali,24,220,20","Chase","Looks like a refinery dumping shit into the water.,-40,120,20","Cameron","Dinosaur skill and some dark shadow above,-30,60,20","Colton","reminds me of Salvadore Dali,24,220,20","0"
"22282","","survey-text","65","316597","0.0-65.0-0.0","AZ2P6DGG5M6SH","","","","{""Q0"":""looks like an explosion in the ocean.""}","","","","","","","","","","","","","","","","","","","","","","",""
"2528.9000000059605","","image-slider-response","66","319127","0.0-66.0","AZ2P6DGG5M6SH","","","","","12","","","","","","","","","","","","","","","","","","","","","",""
"null","","image-button-response","67","324128","0.0-67.0","AZ2P6DGG5M6SH","img_art/21.jpg","null","","","","","","","","","","","","","","","","","","","","","","","","",""
"1489","","image-button-response","68","325618","0.0-68.0","AZ2P6DGG5M6SH","img_art/21.jpg","5","","","","","","","","","","","","","","","","","","","","","","","","",""
"1612","","image-button-response","69","327231","0.0-69.0-0.0","AZ2P6DGG5M6SH","img_art/21.jpg","4","","","","","","","","","","","","","","","","","","","","","","","","",""
"4404","","image-button-response","70","331636","0.0-70.0-0.0","AZ2P6DGG5M6SH","img_art/21.jpg","1","","","","","","","","","","","","","","","","","","","","","","","","",""
"null","","html-keyboard-response","71","333138","0.0-71.0","AZ2P6DGG5M6SH","<p style=""font-size: 48px;"">+</p>","","","","","null","allTrialResponses","1500","1","4","img_art/21.jpg","12","looks like an explosion in the ocean.","Seth,Chase,Derek,Cameron,Shane,Colton","Makes me feel light and airy. Like I've gone back in time to 1700th century France.,43,60,20","Kind of looks like a sky with a storm or tornado.,10,120,20","I love the colors in this painting,30,360,20","Like the colors. Don't like the white dots on the right side of the painting though.,15,60,20","It reminds me of war, red blood and dark blue reminds me of an army,-20,80,20","i enjoy the clash of colors, reminds me of a storm at sea,32,220,20","Colton","i enjoy the clash of colors, reminds me of a storm at sea,32,220,20","Shane","It reminds me of war, red blood and dark blue reminds me of an army,-20,80,20","Chase","Kind of looks like a sky with a storm or tornado.,10,120,20","0"
"15972","","survey-text","72","349112","0.0-72.0-0.0","AZ2P6DGG5M6SH","","","","{""Q0"":""reminds me mc escher paintings.""}","","","","","","","","","","","","","","","","","","","","","","",""
"2479.9000000059605","","image-slider-response","73","351593","0.0-73.0","AZ2P6DGG5M6SH","","","","","31","","","","","","","","","","","","","","","","","","","","","",""
"null","","image-button-response","74","356595","0.0-74.0","AZ2P6DGG5M6SH","img_art/8.jpg","null","","","","","","","","","","","","","","","","","","","","","","","","",""
"532","","image-button-response","75","357128","0.0-75.0","AZ2P6DGG5M6SH","img_art/8.jpg","1","","","","","","","","","","","","","","","","","","","","","","","","",""
"2407","","image-button-response","76","359536","0.0-76.0-0.0","AZ2P6DGG5M6SH","img_art/8.jpg","3","","","","","","","","","","","","","","","","","","","","","","","","",""
"1799","","image-button-response","77","361337","0.0-77.0-0.0","AZ2P6DGG5M6SH","img_art/8.jpg","4","","","","","","","","","","","","","","","","","","","","","","","","",""
"null","","html-keyboard-response","78","362838","0.0-78.0","AZ2P6DGG5M6SH","<p style=""font-size: 48px;"">+</p>","","","","","null","allTrialResponses","1500","1","5","img_art/8.jpg","31","reminds me mc escher paintings.","Juan,Chase,Justin,Elijah,Shane,Colton","I don't like the negative emotion this picture makes me feel. It's also too abstract.,-30,260,20","This is kind of neat. I really like how things are oriented and the shapes used.,18,120,20","Interesting to look at, there are many things happening in the painting.,32,280,20","Makes me feel nice,23,80,20","Ancient city looked after by diety,38,80,20","looks like an aerial view, very pretty,32,220,20","Chase","This is kind of neat. I really like how things are oriented and the shapes used.,18,120,20","Elijah","Makes me feel nice,23,80,20","Shane","Ancient city looked after by diety,38,80,20","0"
"4021","","survey-text","79","366863","0.0-79.0-0.0","AZ2P6DGG5M6SH","","","","{""Q0"":""sky""}","","","","","","","","","","","","","","","","","","","","","","",""
"17929","","survey-text","80","384793","0.0-80.0-0.0","AZ2P6DGG5M6SH","","","","{""Q0"":""the bear looks like a real teddy bear.""}","","","","","","","","","","","","","","","","","","","","","","",""
"2693","","image-slider-response","81","387487","0.0-81.0","AZ2P6DGG5M6SH","","","","","6","","","","","","","","","","","","","","","","","","","","","",""
"null","","image-button-response","82","392490","0.0-82.0","AZ2P6DGG5M6SH","img_art/16.jpg","null","","","","","","","","","","","","","","","","","","","","","","","","",""
"472","","image-button-response","83","392962","0.0-83.0","AZ2P6DGG5M6SH","img_art/16.jpg","3","","","","","","","","","","","","","","","","","","","","","","","","",""
"5803","","image-button-response","84","398766","0.0-84.0-0.0","AZ2P6DGG5M6SH","img_art/16.jpg","4","","","","","","","","","","","","","","","","","","","","","","","","",""
"1416","","image-button-response","85","400183","0.0-85.0-0.0","AZ2P6DGG5M6SH","img_art/16.jpg","2","","","","","","","","","","","","","","","","","","","","","","","","",""
"null","","html-keyboard-response","86","401185","0.0-86.0","AZ2P6DGG5M6SH","<p style=""font-size: 48px;"">+</p>","","","","","null","allTrialResponses","1000","1","6","img_art/16.jpg","6","the bear looks like a real teddy bear.","Tristan,Chase,Cole,Elijah,Shane,Taylor","visceral and a little disturbing.,10,300,20","Seems very twisted and dark.,-35,120,20","Weird mixed media piece,-50,200,20","The bear is terrifying,-50,80,20","This looks chaotic,-25,80,20","It is sick to put a teddy bear and a gun on the same piece of canvas.,-40,200,20","Elijah","The bear is terrifying,-50,80,20","Shane","This looks chaotic,-25,80,20","Cole","Weird mixed media piece,-50,200,20","0"
"13452","","survey-text","87","414638","0.0-87.0-0.0","AZ2P6DGG5M6SH","","","","{""Q0"":""reminds me of someone sneezing on a mirror.""}","","","","","","","","","","","","","","","","","","","","","","",""
"2559.0999999940395","","image-slider-response","88","417198","0.0-88.0","AZ2P6DGG5M6SH","","","","","11","","","","","","","","","","","","","","","","","","","","","",""
"null","","image-button-response","89","422200","0.0-89.0","AZ2P6DGG5M6SH","img_art/13.jpg","null","","","","","","","","","","","","","","","","","","","","","","","","",""
"1089","","image-button-response","90","423291","0.0-90.0","AZ2P6DGG5M6SH","img_art/13.jpg","1","","","","","","","","","","","","","","","","","","","","","","","","",""
"959","","image-button-response","91","424251","0.0-91.0-0.0","AZ2P6DGG5M6SH","img_art/13.jpg","4","","","","","","","","","","","","","","","","","","","","","","","","",""
"1836","","image-button-response","92","426088","0.0-92.0-0.0","AZ2P6DGG5M6SH","img_art/13.jpg","0","","","","","","","","","","","","","","","","","","","","","","","","",""
"null","","html-keyboard-response","93","427090","0.0-93.0","AZ2P6DGG5M6SH","<p style=""font-size: 48px;"">+</p>","","","","","null","allTrialResponses","1000","1","7","img_art/13.jpg","11","reminds me of someone sneezing on a mirror.","Dustin,Carlos,Cole,Elijah,Shane,Adam","Cool and calming colors. I like splatter art.,10,20,20","Rain on a cold window.,22,80,20","The blue colors are very calming. Reminds me of water,33,200,20","Makes me feel nice and calm,18,80,20","Rain drops on a window,35,80,20","Generic mix of colors. Cool and messy.,10,40,20","Carlos","Rain on a cold window.,22,80,20","Shane","Rain drops on a window,35,80,20","Dustin","Cool and calming colors. I like splatter art.,10,20,20","0"
"22171","","survey-text","94","449263","0.0-94.0-0.0","AZ2P6DGG5M6SH","","","","{""Q0"":""looks like an painting of an old diety""}","","","","","","","","","","","","","","","","","","","","","","",""
"2916","","image-slider-response","95","452180","0.0-95.0","AZ2P6DGG5M6SH","","","","","-5","","","","","","","","","","","","","","","","","","","","","",""
"null","","image-button-response","96","457181","0.0-96.0","AZ2P6DGG5M6SH","img_art/25.jpg","null","","","","","","","","","","","","","","","","","","","","","","","","",""
"764","","image-button-response","97","457946","0.0-97.0","AZ2P6DGG5M6SH","img_art/25.jpg","0","","","","","","","","","","","","","","","","","","","","","","","","",""
"1463","","image-button-response","98","459410","0.0-98.0-0.0","AZ2P6DGG5M6SH","img_art/25.jpg","0","","","","","","","","","","","","","","","","","","","","","","","","",""
"2416","","image-button-response","99","465329","0.0-98.1-0.1","AZ2P6DGG5M6SH","img_art/25.jpg","1","","","","","","","","","","","","","","","","","","","","","","","","",""
"4703","","image-button-response","100","470033","0.0-99.0-0.0","AZ2P6DGG5M6SH","img_art/25.jpg","3","","","","","","","","","","","","","","","","","","","","","","","","",""
"null","","html-keyboard-response","101","470535","0.0-100.0","AZ2P6DGG5M6SH","<p style=""font-size: 48px;"">+</p>","","","","","null","allTrialResponses","500","1","8","img_art/25.jpg","-5","looks like an painting of an old diety","Dustin,Carlos,Miguel,Benjamin,Shane,Thomas","Reminds me of ancient civilization art. I like the aqua color; soothing to me.,1,20,20","The proportions are unpleasant.,-30,80,20","This is too simple,-22,160,20","Regal. Reminds me of Egyptian art.,11,260,20","I love the green and the figure is black but the green makes it pop,29,80,20","I like the design but the brightness of the color feels almost blinding to me.,-3,220,20","Dustin","Reminds me of ancient civilization art. I like the aqua color; soothing to me.,1,20,20","Carlos","The proportions are unpleasant.,-30,80,20","Benjamin","Regal. Reminds me of Egyptian art.,11,260,20","2"
"13619","","survey-text","102","484157","0.0-101.0-0.0","AZ2P6DGG5M6SH","","","","{""Q0"":""i can see a face and it looks mad.""}","","","","","","","","","","","","","","","","","","","","","","",""
"2383.0999999940395","","image-slider-response","103","486541","0.0-102.0","AZ2P6DGG5M6SH","","","","","7","","","","","","","","","","","","","","","","","","","","","",""
"null","","image-button-response","104","491542","0.0-103.0","AZ2P6DGG5M6SH","img_art/2.jpg","null","","","","","","","","","","","","","","","","","","","","","","","","",""
"2413","","image-button-response","105","493956","0.0-104.0","AZ2P6DGG5M6SH","img_art/2.jpg","1","","","","","","","","","","","","","","","","","","","","","","","","",""
"1765","","image-button-response","106","495722","0.0-105.0-0.0","AZ2P6DGG5M6SH","img_art/2.jpg","0","","","","","","","","","","","","","","","","","","","","","","","","",""
"1594","","image-button-response","107","497317","0.0-106.0-0.0","AZ2P6DGG5M6SH","img_art/2.jpg","4","","","","","","","","","","","","","","","","","","","","","","","","",""
"null","","html-keyboard-response","108","497820","0.0-107.0","AZ2P6DGG5M6SH","<p style=""font-size: 48px;"">+</p>","","","","","null","allTrialResponses","500","1","9","img_art/2.jpg","7","i can see a face and it looks mad.","Dustin,Carlos,Luis,Benjamin,Timothy,Bryce","Doesn't look like anything. Just a blob of colors.,1,20,20","The colors are soothing, but the composition feels thoughtless.,-11,80,20","I dont like the expression of this,-19,400,20","bright and happy,20,260,20","The contrasting colors are a bit harsh,-10,240,20","I love the colors in this.,29,20,20","Carlos","The colors are soothing, but the composition feels thoughtless.,-11,80,20","Dustin","Doesn't look like anything. Just a blob of colors.,1,20,20","Timothy","The contrasting colors are a bit harsh,-10,240,20","2"
"30011","","survey-text","109","527834","0.0-108.0-0.0","AZ2P6DGG5M6SH","","","","{""Q0"":""looks like they ran out of every color but brown.""}","","","","","","","","","","","","","","","","","","","","","","",""
"2703.300000011921","","image-slider-response","110","530538","0.0-109.0","AZ2P6DGG5M6SH","","","","","4","","","","","","","","","","","","","","","","","","","","","",""
"null","","image-button-response","111","535539","0.0-110.0","AZ2P6DGG5M6SH","img_art/28.jpg","null","","","","","","","","","","","","","","","","","","","","","","","","",""
"1651","","image-button-response","112","537192","0.0-111.0","AZ2P6DGG5M6SH","img_art/28.jpg","4","","","","","","","","","","","","","","","","","","","","","","","","",""
"2020","","image-button-response","113","539213","0.0-112.0-0.0","AZ2P6DGG5M6SH","img_art/28.jpg","2","","","","","","","","","","","","","","","","","","","","","","","","",""
"2361","","image-button-response","114","541575","0.0-113.0-0.0","AZ2P6DGG5M6SH","img_art/28.jpg","0","","","","","","","","","","","","","","","","","","","","","","","","",""
"null","","html-keyboard-response","115","542076","0.0-114.0","AZ2P6DGG5M6SH","<p style=""font-size: 48px;"">+</p>","","","","","null","allTrialResponses","500","1","10","img_art/28.jpg","4","looks like they ran out of every color but brown.","Dustin,Carlos,Victor,Andrew,Timothy,Connor","Like the muted pink colors. However, the mood is sad because of the blurriness,22,20,20","Colors are pleasing, shapes are vaguely unpleasant. Kidneys at a smoky bar.,5,80,20","Almost looks like child's artwork, sloppy and chaotic,6,340,20","Doesn't give me an emotional response,0,160,20","This one gives me an uneasy feeling,-10,240,20","Dislike color palette and amoeba,-9,240,20","Timothy","This one gives me an uneasy feeling,-10,240,20","Victor","Almost looks like child's artwork, sloppy and chaotic,6,340,20","Dustin","Like the muted pink colors. However, the mood is sad because of the blurriness,22,20,20","2"
"3030","","survey-text","116","545111","0.0-115.0-0.0","AZ2P6DGG5M6SH","","","","{""Q0"":""our""}","","","","","","","","","","","","","","","","","","","","","","",""
"11882","","survey-text","117","556993","0.0-116.0-0.0","AZ2P6DGG5M6SH","","","","{""Q0"":""reminds me of a chess board.""}","","","","","","","","","","","","","","","","","","","","","","",""
"3344.9000000059605","","image-slider-response","118","560339","0.0-117.0","AZ2P6DGG5M6SH","","","","","16","","","","","","","","","","","","","","","","","","","","","",""
"null","","image-button-response","119","565341","0.0-118.0","AZ2P6DGG5M6SH","img_art/12.jpg","null","","","","","","","","","","","","","","","","","","","","","","","","",""
"1830","","image-button-response","120","567172","0.0-119.0","AZ2P6DGG5M6SH","img_art/12.jpg","0","","","","","","","","","","","","","","","","","","","","","","","","",""
"1247","","image-button-response","121","568420","0.0-120.0-0.0","AZ2P6DGG5M6SH","img_art/12.jpg","2","","","","","","","","","","","","","","","","","","","","","","","","",""
"2713","","image-button-response","122","571134","0.0-121.0-0.0","AZ2P6DGG5M6SH","img_art/12.jpg","5","","","","","","","","","","","","","","","","","","","","","","","","",""
"null","","html-keyboard-response","123","571636","0.0-122.0","AZ2P6DGG5M6SH","<p style=""font-size: 48px;"">+</p>","","","","","null","allTrialResponses","500","1","11","img_art/12.jpg","16","reminds me of a chess board.","Dustin,Alexander,Victor,Joshua,Timothy,Noah","Squares are rigid. I'm ambivalent.,1,20,20","Ugly color combinations, no focus.,-25,120,20","I like the colors and pattern,21,340,20","I don't get this one. Doesn't evoke an emotional response.,-10,240,20","The shapes make me feel a bit uncomfortable,-10,240,20","evokes the 80s, and not in a necessarily good way,-10,260,20","Dustin","Squares are rigid. I'm ambivalent.,1,20,20","Victor","I like the colors and pattern,21,340,20","Noah","evokes the 80s, and not in a necessarily good way,-10,260,20","2"
"31057","","survey-text","124","602696","0.0-123.0-0.0","AZ2P6DGG5M6SH","","","","{""Q0"":""reminds me of simpler times. like the water colors.""}","","","","","","","","","","","","","","","","","","","","","","",""
"2415.0999999940395","","image-slider-response","125","605112","0.0-124.0","AZ2P6DGG5M6SH","","","","","32","","","","","","","","","","","","","","","","","","","","","",""
"null","","image-button-response","126","610114","0.0-125.0","AZ2P6DGG5M6SH","img_art/26.jpg","null","","","","","","","","","","","","","","","","","","","","","","","","",""
"1745","","image-button-response","127","611861","0.0-126.0","AZ2P6DGG5M6SH","img_art/26.jpg","0","","","","","","","","","","","","","","","","","","","","","","","","",""
"1159","","image-button-response","128","613021","0.0-127.0-0.0","AZ2P6DGG5M6SH","img_art/26.jpg","1","","","","","","","","","","","","","","","","","","","","","","","","",""
"3218","","image-button-response","129","616240","0.0-128.0-0.0","AZ2P6DGG5M6SH","img_art/26.jpg","5","","","","","","","","","","","","","","","","","","","","","","","","",""
"null","","html-keyboard-response","130","616741","0.0-129.0","AZ2P6DGG5M6SH","<p style=""font-size: 48px;"">+</p>","","","","","null","allTrialResponses","500","1","12","img_art/26.jpg","32","reminds me of simpler times. like the water colors.","Dustin,Jared,Victor,Stephen,Malik,Noah","Reminds me of watercolor. Muted tones and blurry soft brush strokes. Calm to me.,1,20,20","soothing and subtle,1,400,20","the trees are cool,1,340,20","No strong reaction but the color scheme is nice,10,140,20","Feels like still life,-13,40,20","fairly neutral, really,8,260,20","Dustin","Reminds me of watercolor. Muted tones and blurry soft brush strokes. Calm to me.,1,20,20","Jared","soothing and subtle,1,400,20","Noah","fairly neutral, really,8,260,20","2"
"20539","","survey-text","131","637283","0.0-130.0-0.0","AZ2P6DGG5M6SH","","","","{""Q0"":""looks like an oil spill in water.""}","","","","","","","","","","","","","","","","","","","","","","",""
"3510.0999999940395","","image-slider-response","132","640794","0.0-131.0","AZ2P6DGG5M6SH","","","","","11","","","","","","","","","","","","","","","","","","","","","",""
"null","","image-button-response","133","645796","0.0-132.0","AZ2P6DGG5M6SH","img_art/1.jpg","null","","","","","","","","","","","","","","","","","","","","","","","","",""
"736","","image-button-response","134","646533","0.0-133.0","AZ2P6DGG5M6SH","img_art/1.jpg","0","","","","","","","","","","","","","","","","","","","","","","","","",""
"1944","","image-button-response","135","648478","0.0-134.0-0.0","AZ2P6DGG5M6SH","img_art/1.jpg","4","","","","","","","","","","","","","","","","","","","","","","","","",""
"4373","","image-button-response","136","652852","0.0-135.0-0.0","AZ2P6DGG5M6SH","img_art/1.jpg","5","","","","","","","","","","","","","","","","","","","","","","","","",""
"null","","html-keyboard-response","137","654353","0.0-136.0","AZ2P6DGG5M6SH","<p style=""font-size: 48px;"">+</p>","","","","","null","allTrialResponses","1500","1","13","img_art/1.jpg","11","looks like an oil spill in water.","Dustin,Jared,Alex,Cody,Kevin,Noah","Too messy. Just looks like a mess of dark colors.,-20,20,20","there isnt anything clear to look at,-2,400,20","Random paint does not make art,-5,100,20","Pretty, nice use of color,40,180,20","I cant make anything of this one.,-7,320,20","the bright colours evoke the 90s, and not their best part,-10,260,20","Dustin","Too messy. Just looks like a mess of dark colors.,-20,20,20","Kevin","I cant make anything of this one.,-7,320,20","Noah","the bright colours evoke the 90s, and not their best part,-10,260,20","2"
"24842","","survey-text","138","679198","0.0-137.0-0.0","AZ2P6DGG5M6SH","","","","{""Q0"":""looks to me like a tree is growing out of a building. nice use of whitespace.""}","","","","","","","","","","","","","","","","","","","","","","",""
"4110.0999999940395","","image-slider-response","139","683308","0.0-138.0","AZ2P6DGG5M6SH","","","","","35","","","","","","","","","","","","","","","","","","","","","",""
"null","","image-button-response","140","688311","0.0-139.0","AZ2P6DGG5M6SH","img_art/17.jpg","null","","","","","","","","","","","","","","","","","","","","","","","","",""
"1045","","image-button-response","141","689357","0.0-140.0","AZ2P6DGG5M6SH","img_art/17.jpg","1","","","","","","","","","","","","","","","","","","","","","","","","",""
"3843","","image-button-response","142","693201","0.0-141.0-0.0","AZ2P6DGG5M6SH","img_art/17.jpg","0","","","","","","","","","","","","","","","","","","","","","","","","",""
"3364","","image-button-response","143","696566","0.0-142.0-0.0","AZ2P6DGG5M6SH","img_art/17.jpg","2","","","","","","","","","","","","","","","","","","","","","","","","",""
"null","","html-keyboard-response","144","698067","0.0-143.0","AZ2P6DGG5M6SH","<p style=""font-size: 48px;"">+</p>","","","","","null","allTrialResponses","1500","1","14","img_art/17.jpg","35","looks to me like a tree is growing out of a building. nice use of whitespace.","Dustin,Anthony,Corey,Austin,Kevin,Noah","Is it a tree/plant of some sort?  Or, I see hair?  I don't get it. But, the colors are pleasing to me.,1,20,20","Very elegant, this design reminds me of trees,31,200,20","gentle watercolor vibes,12,260,20","Has a unique vibe to it,50,240,20","Some new perm we got there.,12,320,20","feel close to nature,30,260,20","Anthony","Very elegant, this design reminds me of trees,31,200,20","Dustin","Is it a tree/plant of some sort?  Or, I see hair?  I don't get it. But, the colors are pleasing to me.,1,20,20","Corey","gentle watercolor vibes,12,260,20","2"
"33529","","survey-text","145","731599","0.0-144.0-0.0","AZ2P6DGG5M6SH","","","","{""Q0"":""looks like someone didn't clip their fingernails ever.""}","","","","","","","","","","","","","","","","","","","","","","",""
"3551.899999976158","","image-slider-response","146","735152","0.0-145.0","AZ2P6DGG5M6SH","","","","","-19","","","","","","","","","","","","","","","","","","","","","",""
"null","","image-button-response","147","740154","0.0-146.0","AZ2P6DGG5M6SH","img_art/4.jpg","null","","","","","","","","","","","","","","","","","","","","","","","","",""
"885","","image-button-response","148","741040","0.0-147.0","AZ2P6DGG5M6SH","img_art/4.jpg","0","","","","","","","","","","","","","","","","","","","","","","","","",""
"2576","","image-button-response","149","743617","0.0-148.0-0.0","AZ2P6DGG5M6SH","img_art/4.jpg","3","","","","","","","","","","","","","","","","","","","","","","","","",""
"3642","","image-button-response","150","747260","0.0-149.0-0.0","AZ2P6DGG5M6SH","img_art/4.jpg","4","","","","","","","","","","","","","","","","","","","","","","","","",""
"null","","html-keyboard-response","151","747762","0.0-150.0","AZ2P6DGG5M6SH","<p style=""font-size: 48px;"">+</p>","","","","","null","allTrialResponses","500","1","15","img_art/4.jpg","-19","looks like someone didn't clip their fingernails ever.","Dustin,Anthony,Corey,Logan,Christian,Devon","Warm colors, but too random. I feel like I'm seeing something mangled. It is unpleasant.,-30,20,20","Ugly and bland compared to the other pieces.,-33,200,20","doesn't do anything for me,-4,260,20","it looks like a preschooler just dragged his fingers around,-36,360,20","no sorry i can't really understand,-18,140,20","heart symbol - this tells a story of hidden love,30,400,20","Dustin","Warm colors, but too random. I feel like I'm seeing something mangled. It is unpleasant.,-30,20,20","Logan","it looks like a preschooler just dragged his fingers around,-36,360,20","Christian","no sorry i can't really understand,-18,140,20","2"
"5736","","survey-text","152","753502","0.0-151.0-0.0","AZ2P6DGG5M6SH","","","","{""Q0"":""course""}","","","","","","","","","","","","","","","","","","","","","","",""
"18077","","survey-text","153","771580","0.0-152.0-0.0","AZ2P6DGG5M6SH","","","","{""Q0"":""reminds me of bushes and birds sitting in them.""}","","","","","","","","","","","","","","","","","","","","","","",""
"2216","","image-slider-response","154","773797","0.0-153.0","AZ2P6DGG5M6SH","","","","","6","","","","","","","","","","","","","","","","","","","","","",""
"null","","image-button-response","155","778800","0.0-154.0","AZ2P6DGG5M6SH","img_art/15.jpg","null","","","","","","","","","","","","","","","","","","","","","","","","",""
"961","","image-button-response","156","779762","0.0-155.0","AZ2P6DGG5M6SH","img_art/15.jpg","0","","","","","","","","","","","","","","","","","","","","","","","","",""
"2801","","image-button-response","157","782564","0.0-156.0-0.0","AZ2P6DGG5M6SH","img_art/15.jpg","3","","","","","","","","","","","","","","","","","","","","","","","","",""
"1809","","image-button-response","158","784375","0.0-157.0-0.0","AZ2P6DGG5M6SH","img_art/15.jpg","5","","","","","","","","","","","","","","","","","","","","","","","","",""
"null","","html-keyboard-response","159","785377","0.0-158.0","AZ2P6DGG5M6SH","<p style=""font-size: 48px;"">+</p>","","","","","null","allTrialResponses","1000","1","16","img_art/15.jpg","6","reminds me of bushes and birds sitting in them.","Dustin,Trevor,Devin,Logan,Christian,Alexis","Too much black. I see weeds or dead/dying flowers.,-40,20,20","I really like the colors,14,280,20","Simple but needs some more detail somehow,-3,380,20","I couldn't tell you why but I'm really into this,39,360,20","very unsettling! like reverse porcelain esp because of the colors,28,140,20","it is dark and gloomy,-9,140,20","Dustin","Too much black. I see weeds or dead/dying flowers.,-40,20,20","Logan","I couldn't tell you why but I'm really into this,39,360,20","Alexis","it is dark and gloomy,-9,140,20","2"
"26271","","survey-text","160","811650","0.0-159.0-0.0","AZ2P6DGG5M6SH","","","","{""Q0"":""the waterfall from above view looks great.""}","","","","","","","","","","","","","","","","","","","","","","",""
"2897.0999999940395","","image-slider-response","161","814548","0.0-160.0","AZ2P6DGG5M6SH","","","","","39","","","","","","","","","","","","","","","","","","","","","",""
"null","","image-button-response","162","819550","0.0-161.0","AZ2P6DGG5M6SH","img_art/24.jpg","null","","","","","","","","","","","","","","","","","","","","","","","","",""
"760","","image-button-response","163","820311","0.0-162.0","AZ2P6DGG5M6SH","img_art/24.jpg","0","","","","","","","","","","","","","","","","","","","","","","","","",""
"5832","","image-button-response","164","826145","0.0-163.0-0.0","AZ2P6DGG5M6SH","img_art/24.jpg","4","","","","","","","","","","","","","","","","","","","","","","","","",""
"1936","","image-button-response","165","828081","0.0-164.0-0.0","AZ2P6DGG5M6SH","img_art/24.jpg","5","","","","","","","","","","","","","","","","","","","","","","","","",""
"null","","html-keyboard-response","166","829083","0.0-165.0","AZ2P6DGG5M6SH","<p style=""font-size: 48px;"">+</p>","","","","","null","allTrialResponses","1000","1","17","img_art/24.jpg","39","the waterfall from above view looks great.","Dustin,Hunter,Joseph,Logan,Kenneth,Alexis","I see a waterfall, which is relaxing and peaceful!  I like the blue coloring,30,20,20","feels overdone, but still executed well,0,240,20","It looks like a poor dead bunny in a field of flowers. I don't want the bunny to be dead.,-37,220,20","brick wall waterfall girl you think you got it all,50,360,20","Cute; I like what the image itself & the colors.,25,300,20","I love how bold and vibrant the colors are,40,140,20","Dustin","I see a waterfall, which is relaxing and peaceful!  I like the blue coloring,30,20,20","Kenneth","Cute; I like what the image itself & the colors.,25,300,20","Alexis","I love how bold and vibrant the colors are,40,140,20","2"
"31274","","survey-text","167","860360","0.0-166.0-0.0","AZ2P6DGG5M6SH","","","","{""Q0"":""reminds me of the inflated tube men advertisements.""}","","","","","","","","","","","","","","","","","","","","","","",""
"2699.100000023842","","image-slider-response","168","863060","0.0-167.0","AZ2P6DGG5M6SH","","","","","19","","","","","","","","","","","","","","","","","","","","","",""
"null","","image-button-response","169","868061","0.0-168.0","AZ2P6DGG5M6SH","img_art/30.jpg","null","","","","","","","","","","","","","","","","","","","","","","","","",""
"1055","","image-button-response","170","869118","0.0-169.0","AZ2P6DGG5M6SH","img_art/30.jpg","2","","","","","","","","","","","","","","","","","","","","","","","","",""
"2911","","image-button-response","171","872030","0.0-170.0-0.0","AZ2P6DGG5M6SH","img_art/30.jpg","5","","","","","","","","","","","","","","","","","","","","","","","","",""
"1706","","image-button-response","172","873738","0.0-171.0-0.0","AZ2P6DGG5M6SH","img_art/30.jpg","4","","","","","","","","","","","","","","","","","","","","","","","","",""
"null","","html-keyboard-response","173","875239","0.0-172.0","AZ2P6DGG5M6SH","<p style=""font-size: 48px;"">+</p>","","","","","null","allTrialResponses","1500","1","18","img_art/30.jpg","19","reminds me of the inflated tube men advertisements.","Dustin,David,Evan,Spencer,Kenneth,Alexis","Soothing color palette, but doesn't look like anything. All I see are random brush strokes.,1,20,20","I like how the strokes invokes a sense of fluidity.,20,340,20","I really like the broad and colorful strokes,21,140,20","Interesting, almost an underworld of plant life,11,120,20","The red helps it to pop.,13,300,20","I like the strong lines or brush strokes. It looks modern and bold,21,140,20","Evan","I really like the broad and colorful strokes,21,140,20","Alexis","I like the strong lines or brush strokes. It looks modern and bold,21,140,20","Kenneth","The red helps it to pop.,13,300,20","2"
"20526","","survey-text","174","895768","0.0-173.0-0.0","AZ2P6DGG5M6SH","","","","{""Q0"":""this city view looks very crowded.""}","","","","","","","","","","","","","","","","","","","","","","",""
"3880","","image-slider-response","175","899649","0.0-174.0","AZ2P6DGG5M6SH","","","","","17","","","","","","","","","","","","","","","","","","","","","",""
"null","","image-button-response","176","904651","0.0-175.0","AZ2P6DGG5M6SH","img_art/11.jpg","null","","","","","","","","","","","","","","","","","","","","","","","","",""
"809","","image-button-response","177","905461","0.0-176.0","AZ2P6DGG5M6SH","img_art/11.jpg","1","","","","","","","","","","","","","","","","","","","","","","","","",""
"767","","image-button-response","178","906230","0.0-177.0-0.0","AZ2P6DGG5M6SH","img_art/11.jpg","0","","","","","","","","","","","","","","","","","","","","","","","","",""
"5444","","image-button-response","179","911674","0.0-178.0-0.0","AZ2P6DGG5M6SH","img_art/11.jpg","3","","","","","","","","","","","","","","","","","","","","","","","","",""
"null","","html-keyboard-response","180","912676","0.0-179.0","AZ2P6DGG5M6SH","<p style=""font-size: 48px;"">+</p>","","","","","null","allTrialResponses","1000","1","19","img_art/11.jpg","17","this city view looks very crowded.","Jason,Paul,Evan,Daniel,Kenneth,Alexis","Interesting use of color,9,20,20","I like how it reminds me of music and at the same time it looks like colorful train tracks.,10,300,20","I dislike how dark this is,-21,140,20","Some interesting color but scratchy train mess.,-14,320,20","Its a little psychedelic.,10,300,20","This photo makes me feel bleak,-16,140,20","Paul","I like how it reminds me of music and at the same time it looks like colorful train tracks.,10,300,20","Jason","Interesting use of color,9,20,20","Daniel","Some interesting color but scratchy train mess.,-14,320,20","2"
"17979","","survey-text","181","930658","0.0-180.0-0.0","AZ2P6DGG5M6SH","","","","{""Q0"":""looks like two people merging into one.""}","","","","","","","","","","","","","","","","","","","","","","",""
"2171","","image-slider-response","182","932830","0.0-181.0","AZ2P6DGG5M6SH","","","","","-5","","","","","","","","","","","","","","","","","","","","","",""
"null","","image-button-response","183","937832","0.0-182.0","AZ2P6DGG5M6SH","img_art/9.jpg","null","","","","","","","","","","","","","","","","","","","","","","","","",""
"5334","","image-button-response","184","943167","0.0-183.0","AZ2P6DGG5M6SH","img_art/9.jpg","1","","","","","","","","","","","","","","","","","","","","","","","","",""
"1252","","image-button-response","185","944421","0.0-184.0-0.0","AZ2P6DGG5M6SH","img_art/9.jpg","0","","","","","","","","","","","","","","","","","","","","","","","","",""
"6092","","image-button-response","186","950515","0.0-185.0-0.0","AZ2P6DGG5M6SH","img_art/9.jpg","3","","","","","","","","","","","","","","","","","","","","","","","","",""
"null","","html-keyboard-response","187","951016","0.0-186.0","AZ2P6DGG5M6SH","<p style=""font-size: 48px;"">+</p>","","","","","null","allTrialResponses","500","1","20","img_art/9.jpg","-5","looks like two people merging into one.","Jason,Paul,Jesse,Daniel,Eric,Mitchell","Focal point is interesting,2,20,20","I like the greens and blues around the sides and the person reclining in the center makes me feel relaxed,24,300,20","The lack of concrete form kind of turns me off,-2,80,20","A troubled painter was influenced by anger and mad at the woman in the middle, color not bad,-32,320,20","I see some of my favorite colors which I like, but I don't like what's portrayed.,35,100,20","Cozy, In her own world. feminine .,30,180,20","Paul","I like the greens and blues around the sides and the person reclining in the center makes me feel relaxed,24,300,20","Jason","Focal point is interesting,2,20,20","Daniel","A troubled painter was influenced by anger and mad at the woman in the middle, color not bad,-32,320,20","2"
"4725","","survey-text","188","955747","0.0-187.0-0.0","AZ2P6DGG5M6SH","","","","{""Q0"":""we""}","","","","","","","","","","","","","","","","","","","","","","",""
"22210","","survey-text","189","977957","0.0-188.0-0.0","AZ2P6DGG5M6SH","","","","{""Q0"":""reminds me of a field of grass and trees.""}","","","","","","","","","","","","","","","","","","","","","","",""
"2032","","image-slider-response","190","979990","0.0-189.0","AZ2P6DGG5M6SH","","","","","9","","","","","","","","","","","","","","","","","","","","","",""
"null","","image-button-response","191","984992","0.0-190.0","AZ2P6DGG5M6SH","img_art/27.jpg","null","","","","","","","","","","","","","","","","","","","","","","","","",""
"994","","image-button-response","192","985987","0.0-191.0","AZ2P6DGG5M6SH","img_art/27.jpg","3","","","","","","","","","","","","","","","","","","","","","","","","",""
"1659","","image-button-response","193","987647","0.0-192.0-0.0","AZ2P6DGG5M6SH","img_art/27.jpg","0","","","","","","","","","","","","","","","","","","","","","","","","",""
"5267","","image-button-response","194","992915","0.0-193.0-0.0","AZ2P6DGG5M6SH","img_art/27.jpg","5","","","","","","","","","","","","","","","","","","","","","","","","",""
"null","","html-keyboard-response","195","993418","0.0-194.0","AZ2P6DGG5M6SH","<p style=""font-size: 48px;"">+</p>","","","","","null","allTrialResponses","500","1","21","img_art/27.jpg","9","reminds me of a field of grass and trees.","Jason,Paul,Ian,Daniel,Nicholas,Jonathan","The variation of orange is nice,9,20,20","It tries to remind me of the autumn season but it's grey and looks dirty,-5,300,20","I'm not a fan. It looks like something my nephews (1 and 2) would make,-8,260,20","Nice back ground with childish scribble on top,-30,320,20","I like all it has going but i wouldnt put it in my house unless my child did it,25,240,20","Very cool colors and I like the contrast of lights and darks,30,140,20","Daniel","Nice back ground with childish scribble on top,-30,320,20","Jason","The variation of orange is nice,9,20,20","Jonathan","Very cool colors and I like the contrast of lights and darks,30,140,20","2"
"35822","","survey-text","196","1029243","0.0-195.0-0.0","AZ2P6DGG5M6SH","","","","{""Q0"":""looks like they just threw their brushes on top of a canvas.""}","","","","","","","","","","","","","","","","","","","","","","",""
"3131.199999988079","","image-slider-response","197","1032375","0.0-196.0","AZ2P6DGG5M6SH","","","","","-14","","","","","","","","","","","","","","","","","","","","","",""
"null","","image-button-response","198","1037378","0.0-197.0","AZ2P6DGG5M6SH","img_art/18.jpg","null","","","","","","","","","","","","","","","","","","","","","","","","",""
"1034","","image-button-response","199","1038412","0.0-198.0","AZ2P6DGG5M6SH","img_art/18.jpg","1","","","","","","","","","","","","","","","","","","","","","","","","",""
"805","","image-button-response","200","1039218","0.0-199.0-0.0","AZ2P6DGG5M6SH","img_art/18.jpg","0","","","","","","","","","","","","","","","","","","","","","","","","",""
"2629","","image-button-response","201","1041848","0.0-200.0-0.0","AZ2P6DGG5M6SH","img_art/18.jpg","4","","","","","","","","","","","","","","","","","","","","","","","","",""
"null","","html-keyboard-response","202","1042849","0.0-201.0","AZ2P6DGG5M6SH","<p style=""font-size: 48px;"">+</p>","","","","","null","allTrialResponses","1000","1","22","img_art/18.jpg","-14","looks like they just threw their brushes on top of a canvas.","Jason,Kyle,Ethan,Daniel,Brendan,Jonathan","Umclear what is present in the picture,0,20,20","I feel indifferent about this one,0,340,20","I like the expression of this piece. The colors are very outdated though.,-5,120,20","Nice palette with complexity becoming nice at the center,34,320,20","looks like a war,22,340,20","There's danger in this painting and it's awesome,40,140,20","Kyle","I feel indifferent about this one,0,340,20","Jason","Umclear what is present in the picture,0,20,20","Brendan","looks like a war,22,340,20","2"
"22372","","survey-text","203","1065226","0.0-202.0-0.0","AZ2P6DGG5M6SH","","","","{""Q0"":""reminds me of a city on fire.""}","","","","","","","","","","","","","","","","","","","","","","",""
"3040.199999988079","","image-slider-response","204","1068267","0.0-203.0","AZ2P6DGG5M6SH","","","","","17","","","","","","","","","","","","","","","","","","","","","",""
"null","","image-button-response","205","1073268","0.0-204.0","AZ2P6DGG5M6SH","img_art/22.jpg","null","","","","","","","","","","","","","","","","","","","","","","","","",""
"394","","image-button-response","206","1073663","0.0-205.0","AZ2P6DGG5M6SH","img_art/22.jpg","0","","","","","","","","","","","","","","","","","","","","","","","","",""
"2587","","image-button-response","207","1076252","0.0-206.0-0.0","AZ2P6DGG5M6SH","img_art/22.jpg","5","","","","","","","","","","","","","","","","","","","","","","","","",""
"2285","","image-button-response","208","1078538","0.0-207.0-0.0","AZ2P6DGG5M6SH","img_art/22.jpg","3","","","","","","","","","","","","","","","","","","","","","","","","",""
"null","","html-keyboard-response","209","1080039","0.0-208.0","AZ2P6DGG5M6SH","<p style=""font-size: 48px;"">+</p>","","","","","null","allTrialResponses","1500","1","23","img_art/22.jpg","17","reminds me of a city on fire.","Jason,Kyle,Blake,Garrett,Brendan,Samuel","Would be better if random black object was not present,11,20,20","I appreciate the artistic effort but it's not for me,0,340,20","a lost balloon in outer space,12,280,20","I think this picture looks interesting because of the way the colors work together.,20,180,20","its just ugly for me,-50,340,20","ball of light in 90s,8,400,20","Jason","Would be better if random black object was not present,11,20,20","Samuel","ball of light in 90s,8,400,20","Garrett","I think this picture looks interesting because of the way the colors work together.,20,180,20","2"
"25687","","survey-text","210","1105729","0.0-209.0-0.0","AZ2P6DGG5M6SH","","","","{""Q0"":""looks like a bell from a top view.""}","","","","","","","","","","","","","","","","","","","","","","",""
"3377.9000000059605","","image-slider-response","211","1109108","0.0-210.0","AZ2P6DGG5M6SH","","","","","-14","","","","","","","","","","","","","","","","","","","","","",""
"null","","image-button-response","212","1114110","0.0-211.0","AZ2P6DGG5M6SH","img_art/5.jpg","null","","","","","","","","","","","","","","","","","","","","","","","","",""
"693","","image-button-response","213","1114803","0.0-212.0","AZ2P6DGG5M6SH","img_art/5.jpg","1","","","","","","","","","","","","","","","","","","","","","","","","",""
"1554","","image-button-response","214","1116358","0.0-213.0-0.0","AZ2P6DGG5M6SH","img_art/5.jpg","2","","","","","","","","","","","","","","","","","","","","","","","","",""
"5531","","image-button-response","215","1121890","0.0-214.0-0.0","AZ2P6DGG5M6SH","img_art/5.jpg","0","","","","","","","","","","","","","","","","","","","","","","","","",""
"null","","html-keyboard-response","216","1122891","0.0-215.0","AZ2P6DGG5M6SH","<p style=""font-size: 48px;"">+</p>","","","","","null","allTrialResponses","1000","1","24","img_art/5.jpg","-14","looks like a bell from a top view.","Jason,Mason,Brandon,Garrett,Ryan,Samuel","Wish the background had been kept clean; distracts from main object,11,20,20","pointless, ugly, not creative.,-50,100,20","Kindergarten art. I really don't like this style.,-50,320,20","I don't know what it's supposed to be and it looks ugly the way the colors are on the yellow cube.,-50,180,20","Very good color coordination,41,380,20","a brush in time,-14,400,20","Mason","pointless, ugly, not creative.,-50,100,20","Brandon","Kindergarten art. I really don't like this style.,-50,320,20","Jason","Wish the background had been kept clean; distracts from main object,11,20,20","2"
"30129","","survey-text","217","1153023","0.0-216.0-0.0","AZ2P6DGG5M6SH","","","","{""Q0"":""looks like a city that is very compacted together.""}","","","","","","","","","","","","","","","","","","","","","","",""
"2001.2000000178814","","image-slider-response","218","1155025","0.0-217.0","AZ2P6DGG5M6SH","","","","","5","","","","","","","","","","","","","","","","","","","","","",""
"null","","image-button-response","219","1160027","0.0-218.0","AZ2P6DGG5M6SH","img_art/19.jpg","null","","","","","","","","","","","","","","","","","","","","","","","","",""
"530","","image-button-response","220","1160557","0.0-219.0","AZ2P6DGG5M6SH","img_art/19.jpg","4","","","","","","","","","","","","","","","","","","","","","","","","",""
"1533","","image-button-response","221","1162091","0.0-220.0-0.0","AZ2P6DGG5M6SH","img_art/19.jpg","3","","","","","","","","","","","","","","","","","","","","","","","","",""
"2375","","image-button-response","222","1164467","0.0-221.0-0.0","AZ2P6DGG5M6SH","img_art/19.jpg","2","","","","","","","","","","","","","","","","","","","","","","","","",""
"null","","html-keyboard-response","223","1165468","0.0-222.0","AZ2P6DGG5M6SH","<p style=""font-size: 48px;"">+</p>","","","","","null","allTrialResponses","1000","1","25","img_art/19.jpg","5","looks like a city that is very compacted together.","Jason,Mason,Brandon,Dylan,Bradley,Jake","The picture contains a lot of brown and weird drips,-4,20,20","calming, like the drips,25,100,20","Not a fan of the blobbiness,-22,320,20","This photo has too much going on.,-19,40,20","This looks like a child's piece. I appreciate the artistic value, but not for me.,-20,300,20","This is like an ugly version of a Basquiat.,-24,360,20","Bradley","This looks like a child's piece. I appreciate the artistic value, but not for me.,-20,300,20","Dylan","This photo has too much going on.,-19,40,20","Brandon","Not a fan of the blobbiness,-22,320,20","2"
"3421","","survey-text","224","1168894","0.0-223.0-0.0","AZ2P6DGG5M6SH","","","","{""Q0"":""table""}","","","","","","","","","","","","","","","","","","","","","","",""
"15428","","survey-text","225","1184322","0.0-224.0-0.0","AZ2P6DGG5M6SH","","","","{""Q0"":""looks like someone ran out of time and started to scribble.""}","","","","","","","","","","","","","","","","","","","","","","",""
"7406.899999976158","","image-slider-response","226","1191730","0.0-225.0","AZ2P6DGG5M6SH","","","","","-30","","","","","","","","","","","","","","","","","","","","","",""
"null","","image-button-response","227","1196731","0.0-226.0","AZ2P6DGG5M6SH","img_art/3.jpg","null","","","","","","","","","","","","","","","","","","","","","","","","",""
"434","","image-button-response","228","1197168","0.0-227.0","AZ2P6DGG5M6SH","img_art/3.jpg","2","","","","","","","","","","","","","","","","","","","","","","","","",""
"647","","image-button-response","229","1197817","0.0-228.0-0.0","AZ2P6DGG5M6SH","img_art/3.jpg","1","","","","","","","","","","","","","","","","","","","","","","","","",""
"2319","","image-button-response","230","1200137","0.0-229.0-0.0","AZ2P6DGG5M6SH","img_art/3.jpg","3","","","","","","","","","","","","","","","","","","","","","","","","",""
"null","","html-keyboard-response","231","1201137","0.0-230.0","AZ2P6DGG5M6SH","<p style=""font-size: 48px;"">+</p>","","","","","null","allTrialResponses","1000","1","26","img_art/3.jpg","-30","looks like someone ran out of time and started to scribble.","Grant,Michael,Brandon,Dylan,Bradley,William","It looks like the artist was trying too hard to make it chaotic and emotional.,-25,200,20","Looks like someone mentalyl unstable drew and is ready to go a a killing spree.,-50,140,20","Just scribbles. Not a fan.,-40,320,20","I could scribble on paper and mimic this,-48,40,20","Marker gone wild?  Not sure what's going on here.,-21,300,20","makes me think of anger,-33,380,20","Brandon","Just scribbles. Not a fan.,-40,320,20","Michael","Looks like someone mentalyl unstable drew and is ready to go a a killing spree.,-50,140,20","Dylan","I could scribble on paper and mimic this,-48,40,20","2"
"20751","","survey-text","232","1221891","0.0-231.0-0.0","AZ2P6DGG5M6SH","","","","{""Q0"":""reminds me of a field next to a large city.""}","","","","","","","","","","","","","","","","","","","","","","",""
"3213","","image-slider-response","233","1225105","0.0-232.0","AZ2P6DGG5M6SH","","","","","18","","","","","","","","","","","","","","","","","","","","","",""
"null","","image-button-response","234","1230107","0.0-233.0","AZ2P6DGG5M6SH","img_art/14.jpg","null","","","","","","","","","","","","","","","","","","","","","","","","",""
"478","","image-button-response","235","1230586","0.0-234.0","AZ2P6DGG5M6SH","img_art/14.jpg","1","","","","","","","","","","","","","","","","","","","","","","","","",""
"740","","image-button-response","236","1231327","0.0-235.0-0.0","AZ2P6DGG5M6SH","img_art/14.jpg","0","","","","","","","","","","","","","","","","","","","","","","","","",""
"2096","","image-button-response","237","1233424","0.0-236.0-0.0","AZ2P6DGG5M6SH","img_art/14.jpg","4","","","","","","","","","","","","","","","","","","","","","","","","",""
"null","","html-keyboard-response","238","1233926","0.0-237.0","AZ2P6DGG5M6SH","<p style=""font-size: 48px;"">+</p>","","","","","null","allTrialResponses","500","1","27","img_art/14.jpg","18","reminds me of a field next to a large city.","Antonio,Michael,Brandon,Dylan,Tanner,Brian","Makes me think of trees and spring. A good feeling,26,220,20","Looks like there is some skill but also at the same time parts look unskilled.,-16,140,20","Don't like the colors on this. Too simple,-20,320,20","Pretty, dainty, unique,22,40,20","somewhat stressful, crazy,-3,180,20","I don't care for the style,-38,380,20","Michael","Looks like there is some skill but also at the same time parts look unskilled.,-16,140,20","Antonio","Makes me think of trees and spring. A good feeling,26,220,20","Tanner","somewhat stressful, crazy,-3,180,20","2"
"25011","","survey-text","239","1258941","0.0-238.0-0.0","AZ2P6DGG5M6SH","","","","{""Q0"":""i like how it looks like a guitar and a train.""}","","","","","","","","","","","","","","","","","","","","","","",""
"2383","","image-slider-response","240","1261325","0.0-239.0","AZ2P6DGG5M6SH","","","","","25","","","","","","","","","","","","","","","","","","","","","",""
"null","","image-button-response","241","1266327","0.0-240.0","AZ2P6DGG5M6SH","img_art/10.jpg","null","","","","","","","","","","","","","","","","","","","","","","","","",""
"460","","image-button-response","242","1266789","0.0-241.0","AZ2P6DGG5M6SH","img_art/10.jpg","4","","","","","","","","","","","","","","","","","","","","","","","","",""
"581","","image-button-response","243","1267371","0.0-242.0-0.0","AZ2P6DGG5M6SH","img_art/10.jpg","3","","","","","","","","","","","","","","","","","","","","","","","","",""
"8962","","image-button-response","244","1276335","0.0-243.0-0.0","AZ2P6DGG5M6SH","img_art/10.jpg","0","","","","","","","","","","","","","","","","","","","","","","","","",""
"null","","html-keyboard-response","245","1277836","0.0-244.0","AZ2P6DGG5M6SH","<p style=""font-size: 48px;"">+</p>","","","","","null","allTrialResponses","1500","1","28","img_art/10.jpg","25","i like how it looks like a guitar and a train.","Antonio,Michael,Alejandro,Brett,Tanner,Gregory","This painting made me think of a guitar which made me think of music which envoked happy feelings.,28,220,20","Ugly and low skill. I wouldn't want it.,-50,140,20","The contrast between the messy dots/dabs vs the straight affluent lines is unappealing,-20,80,20","Musical guitar whimsy,45,360,20","music, serenity, love,33,180,20","Well done designs for being considered abstract,45,220,20","Tanner","music, serenity, love,33,180,20","Brett","Musical guitar whimsy,45,360,20","Antonio","This painting made me think of a guitar which made me think of music which envoked happy feelings.,28,220,20","2"
"17314","","survey-text","246","1295155","0.0-245.0-0.0","AZ2P6DGG5M6SH","","","","{""Q0"":""reminds me of a party where lots of drugs are happening.""}","","","","","","","","","","","","","","","","","","","","","","",""
"2399.4000000059605","","image-slider-response","247","1297556","0.0-246.0","AZ2P6DGG5M6SH","","","","","20","","","","","","","","","","","","","","","","","","","","","",""
"null","","image-button-response","248","1302558","0.0-247.0","AZ2P6DGG5M6SH","img_art/23.jpg","null","","","","","","","","","","","","","","","","","","","","","","","","",""
"478","","image-button-response","249","1303037","0.0-248.0","AZ2P6DGG5M6SH","img_art/23.jpg","4","","","","","","","","","","","","","","","","","","","","","","","","",""
"536","","image-button-response","250","1303574","0.0-249.0-0.0","AZ2P6DGG5M6SH","img_art/23.jpg","3","","","","","","","","","","","","","","","","","","","","","","","","",""
"1807","","image-button-response","251","1305382","0.0-250.0-0.0","AZ2P6DGG5M6SH","img_art/23.jpg","5","","","","","","","","","","","","","","","","","","","","","","","","",""
"null","","html-keyboard-response","252","1306384","0.0-251.0","AZ2P6DGG5M6SH","<p style=""font-size: 48px;"">+</p>","","","","","null","allTrialResponses","1000","1","29","img_art/23.jpg","20","reminds me of a party where lots of drugs are happening.","Antonio,Travis,Christopher,Brett,Tanner,John","Like the colors and made me feel happy,23,220,20","I had a very neutral feeling to this,no feelings at all.,1,260,20","it's not uninteresting, but i'm not responding to it,-7,160,20","Universal celebration,40,360,20","fsiries, happy, spiritual,16,180,20","Very bright and eye catching.The White silhouettes remind me of people celebrating.,31,120,20","Tanner","fsiries, happy, spiritual,16,180,20","Brett","Universal celebration,40,360,20","John","Very bright and eye catching.The White silhouettes remind me of people celebrating.,31,120,20","2"
"22574","","survey-text","253","1328962","0.0-252.0-0.0","AZ2P6DGG5M6SH","","","","{""Q0"":""looks like graffiti on a brick wall. very modern like.""}","","","","","","","","","","","","","","","","","","","","","","",""
"2859.0999999940395","","image-slider-response","254","1331822","0.0-253.0","AZ2P6DGG5M6SH","","","","","5","","","","","","","","","","","","","","","","","","","","","",""
"null","","image-button-response","255","1336824","0.0-254.0","AZ2P6DGG5M6SH","img_art/29.jpg","null","","","","","","","","","","","","","","","","","","","","","","","","",""
"360","","image-button-response","256","1337186","0.0-255.0","AZ2P6DGG5M6SH","img_art/29.jpg","3","","","","","","","","","","","","","","","","","","","","","","","","",""
"694","","image-button-response","257","1337881","0.0-256.0-0.0","AZ2P6DGG5M6SH","img_art/29.jpg","4","","","","","","","","","","","","","","","","","","","","","","","","",""
"3228","","image-button-response","258","1341110","0.0-257.0-0.0","AZ2P6DGG5M6SH","img_art/29.jpg","1","","","","","","","","","","","","","","","","","","","","","","","","",""
"null","","html-keyboard-response","259","1342612","0.0-258.0","AZ2P6DGG5M6SH","<p style=""font-size: 48px;"">+</p>","","","","","null","allTrialResponses","1500","1","30","img_art/29.jpg","5","looks like graffiti on a brick wall. very modern like.","Aaron,Matthew,Robert,Brett,Tanner,John","I like the texture and colors and how it makes me feel. I like how it's different from other abstract art.,45,20,20","It that an actual PAINTBUSH! Love it.,50,120,20","Looks like a murder,-50,360,20","Reminds me of graffitti gone wrong,15,360,20","danger, crime scene,,10,180,20","Its interesting although doesnt illicit any strong emotions from me,10,120,20","Brett","Reminds me of graffitti gone wrong,15,360,20","Tanner","danger, crime scene,,10,180,20","Matthew","It that an actual PAINTBUSH! Love it.,50,120,20","2"
"2604","","image-button-response_instructions","260","1345219","0.0-259.0","AZ2P6DGG5M6SH","","0","instructions","","","","","","","","","","","","","","","","","","","","","","","",""
"917","","image-button-response","261","1346139","0.0-260.0","AZ2P6DGG5M6SH","","0","","","","","","","","","","","","","","","","","","","","","","","","",""
