"rt","url","trial_type","trial_index","time_elapsed","internal_node_id","participant_id","stimulus","button_pressed","Name","responses","response","key_press","variableName","fixationTime","condition","trial","photo","subjectRating","subjectResponse","agentsNames","agent_1_Response","agent_2_Response","agent_3_Response","agent_4_Response","agent_5_Response","agent_6_Response","kept_1_name","kept_1_response","kept_2_name","kept_2_response","kept_3_name","kept_3_response","errorCounter"
"30136","external_page_harvard.html","external-html","0","30254","0.0-0.0","AZ4MMVSAY9L3X","","","","","","","","","","","","","","","","","","","","","","","","","","",""
"1451","","image-button-response","1","31708","0.0-1.0","AZ4MMVSAY9L3X","","0","","","","","","","","","","","","","","","","","","","","","","","","",""
"1646","","image-button-response","2","33359","0.0-2.0-0.0","AZ4MMVSAY9L3X","","1","phone","","","","","","","","","","","","","","","","","","","","","","","",""
"4430","","survey-text","3","37791","0.0-3.0-0.0","AZ4MMVSAY9L3X","","","","{""Q0"":""""}","","","","","","","","","","","","","","","","","","","","","","",""
"1829","","survey-text","4","41239","0.0-3.1-0.1","AZ4MMVSAY9L3X","","","","{""Q0"":""AZ4MMVSAY9L3X""}","","","","","","","","","","","","","","","","","","","","","","",""
"48817","","image-button-response_instructions","5","90057","0.0-4.0","AZ4MMVSAY9L3X","","0","instructions","","","","","","","","","","","","","","","","","","","","","","","",""
"11121","","image-button-response_instructions","6","101179","0.0-5.0","AZ4MMVSAY9L3X","img_art/ins/popularity/ins1.png","0","instructions","","","","","","","","","","","","","","","","","","","","","","","",""
"3546","","image-button-response_instructions","7","104726","0.0-6.0","AZ4MMVSAY9L3X","img_art/ins/popularity/ins2.png","0","instructions","","","","","","","","","","","","","","","","","","","","","","","",""
"4710","","image-button-response_instructions","8","109438","0.0-7.0","AZ4MMVSAY9L3X","img_art/ins/popularity/ins2Extreme.png","0","instructions","","","","","","","","","","","","","","","","","","","","","","","",""
"5968","","image-button-response_instructions","9","115407","0.0-8.0","AZ4MMVSAY9L3X","img_art/ins/popularity/ins3KEEPpop.PNG","0","instructions","","","","","","","","","","","","","","","","","","","","","","","",""
"3091","","image-button-response_instructions","10","118499","0.0-9.0","AZ4MMVSAY9L3X","img_art/ins/popularity/ins3ANamepop.PNG","0","instructions","","","","","","","","","","","","","","","","","","","","","","","",""
"4128","","image-button-response_instructions","11","122629","0.0-10.0","AZ4MMVSAY9L3X","img_art/ins/popularity/ins3ARatingpop.png","0","instructions","","","","","","","","","","","","","","","","","","","","","","","",""
"5617","","image-button-response_instructions","12","128247","0.0-11.0","AZ4MMVSAY9L3X","img_art/ins/popularity/ins3ATextpop.png","0","instructions","","","","","","","","","","","","","","","","","","","","","","","",""
"5466","","image-button-response_instructions","13","133714","0.0-12.0","AZ4MMVSAY9L3X","img_art/ins/popularity/ins3ALikespop.png","0","instructions","","","","","","","","","","","","","","","","","","","","","","","",""
"11759","","image-button-response_instructions","14","145474","0.0-13.0","AZ4MMVSAY9L3X","img_art/ins/popularity/ins3KEEPpop.PNG","0","instructions","","","","","","","","","","","","","","","","","","","","","","","",""
"11504","","image-button-response_instructions","15","156979","0.0-14.0","AZ4MMVSAY9L3X","img_art/ins/popularity/ins3_5RED.png","0","instructions","","","","","","","","","","","","","","","","","","","","","","","",""
"2872","","image-button-response_instructions","16","159852","0.0-15.0","AZ4MMVSAY9L3X","img_art/ins/popularity/ins3KEEPpop.PNG","0","instructions","","","","","","","","","","","","","","","","","","","","","","","",""
"67198","","image-button-response_instructions","17","227051","0.0-16.0","AZ4MMVSAY9L3X","img_art/ins/popularity/ins4KEEPpop.PNG","0","instructions","","","","","","","","","","","","","","","","","","","","","","","",""
"14638","","image-button-response_instructions","18","241691","0.0-17.0","AZ4MMVSAY9L3X","img_art/ins/popularity/ins5KEEPpop.PNG","0","instructions","","","","","","","","","","","","","","","","","","","","","","","",""
"1620","","image-button-response_instructions","19","243311","0.0-18.0","AZ4MMVSAY9L3X","","0","instructions","","","","","","","","","","","","","","","","","","","","","","","",""
"5205","","survey-text","20","248538","0.0-19.0-0.0","AZ4MMVSAY9L3X","","","","{""Q0"":""but""}","","","","","","","","","","","","","","","","","","","","","","",""
"10641","","survey-text","21","259181","0.0-20.0-0.0","AZ4MMVSAY9L3X","","","","{""Q0"":""interesting painting lots of streaks""}","","","","","","","","","","","","","","","","","","","","","","",""
"3987.9000000059605","","image-slider-response","22","263171","0.0-21.0","AZ4MMVSAY9L3X","","","","","5","","","","","","","","","","","","","","","","","","","","","",""
"null","","image-button-response","23","268181","0.0-22.0","AZ4MMVSAY9L3X","img_art/ins/1.jpg","null","","","","","","","","","","","","","","","","","","","","","","","","",""
"334","","image-button-response","24","268518","0.0-23.0","AZ4MMVSAY9L3X","img_art/ins/1.jpg","3","","","","","","","","","","","","","","","","","","","","","","","","",""
"3845","","image-button-response","25","272366","0.0-24.0-0.0","AZ4MMVSAY9L3X","img_art/ins/1.jpg","4","","","","","","","","","","","","","","","","","","","","","","","","",""
"2150","","image-button-response","26","274519","0.0-25.0-0.0","AZ4MMVSAY9L3X","img_art/ins/1.jpg","5","","","","","","","","","","","","","","","","","","","","","","","","",""
"null","","html-keyboard-response","27","276022","0.0-26.0","AZ4MMVSAY9L3X","<p style=""font-size: 48px;"">+</p>","","","","","null","allTrialResponses","1500","1","-2","img_art/ins/1.jpg","5","interesting painting lots of streaks","Adam,Alex,Ben,Carl,Daniel,Jack","Seems like doodles,-20,20,20","very creative work.,36,40,20","This color reminds me of poo,-46,60,20","very calming artwork,42,80,20","It looks like a murder scene.,-48,100,20","I like the sophisticated brushwork,40,120,20","Carl","very calming artwork,42,80,20","Daniel","It looks like a murder scene.,-48,100,20","Jack","I like the sophisticated brushwork,40,120,20","0"
"8743","","survey-text","28","284778","0.0-27.0-0.0","AZ4MMVSAY9L3X","","","","{""Q0"":""Cool picture""}","","","","","","","","","","","","","","","","","","","","","","",""
"3352.2000000029802","","image-slider-response","29","288131","0.0-28.0","AZ4MMVSAY9L3X","","","","","19","","","","","","","","","","","","","","","","","","","","","",""
"2735","","image-button-response","30","293134","0.0-29.0","AZ4MMVSAY9L3X","img_art/ins/2.jpg","1","","","","","","","","","","","","","","","","","","","","","","","","",""
"2043","","image-button-response","31","295181","0.0-30.0","AZ4MMVSAY9L3X","img_art/ins/2.jpg","1","","","","","","","","","","","","","","","","","","","","","","","","",""
"4093","","image-button-response","32","299276","0.0-31.0-0.0","AZ4MMVSAY9L3X","img_art/ins/2.jpg","5","","","","","","","","","","","","","","","","","","","","","","","","",""
"2720","","image-button-response","33","301998","0.0-32.0-0.0","AZ4MMVSAY9L3X","img_art/ins/2.jpg","3","","","","","","","","","","","","","","","","","","","","","","","","",""
"null","","html-keyboard-response","34","303501","0.0-33.0","AZ4MMVSAY9L3X","<p style=""font-size: 48px;"">+</p>","","","","","null","allTrialResponses","1500","1","-1","img_art/ins/2.jpg","19","Cool picture","James,John,Kyle,Carl,Daniel,Jack","looks too angry,-50,140,20","love the texture of paint,48,160,20","Idk, it is just annoying,-32,180,20","I can feel the artist's passion in it,45,80,20","One of my pet peevs,-48,100,20","I would never be able to compose a sophisticated pallete like this,48,120,20","John","love the texture of paint,48,160,20","Jack","I would never be able to compose a sophisticated pallete like this,48,120,20","Carl","I can feel the artist's passion in it,45,80,20","0"
"11725","","survey-text","35","315234","0.0-34.0-0.0","AZ4MMVSAY9L3X","","","","{""Q0"":""Reminds me of winter""}","","","","","","","","","","","","","","","","","","","","","","",""
"3397.2999999970198","","image-slider-response","36","318633","0.0-35.0","AZ4MMVSAY9L3X","","","","","5","","","","","","","","","","","","","","","","","","","","","",""
"4588","","image-button-response","37","323636","0.0-36.0","AZ4MMVSAY9L3X","img_art/ins/3.jpg","0","","","","","","","","","","","","","","","","","","","","","","","","",""
"679","","image-button-response","38","324319","0.0-37.0","AZ4MMVSAY9L3X","img_art/ins/3.jpg","0","","","","","","","","","","","","","","","","","","","","","","","","",""
"455","","image-button-response","39","324776","0.0-38.0-0.0","AZ4MMVSAY9L3X","img_art/ins/3.jpg","1","","","","","","","","","","","","","","","","","","","","","","","","",""
"816","","image-button-response","40","325593","0.0-39.0-0.0","AZ4MMVSAY9L3X","img_art/ins/3.jpg","0","","","","","","","","","","","","","","","","","","","","","","","","",""
"2413","","image-button-response","41","330963","0.0-39.1-0.1","AZ4MMVSAY9L3X","img_art/ins/3.jpg","2","","","","","","","","","","","","","","","","","","","","","","","","",""
"null","","html-keyboard-response","42","331468","0.0-40.0","AZ4MMVSAY9L3X","<p style=""font-size: 48px;"">+</p>","","","","","null","allTrialResponses","500","1","0","img_art/ins/3.jpg","5","Reminds me of winter","Mike,John,Sam,Carl,Ron,Jack","enjoy the different shades of blue,22,200,20","I like the overlapping of brushes,41,160,20","I can feel a rainy day from this painting,18,240,20","It's an alright work,15,80,20","It looks depressing,-26,220,20","I feel connected to the artist,40,120,20","Mike","enjoy the different shades of blue,22,200,20","John","I like the overlapping of brushes,41,160,20","Sam","I can feel a rainy day from this painting,18,240,20","2"
"4874","","image-button-response_instructions","43","336348","0.0-41.0","AZ4MMVSAY9L3X","","0","instructions","","","","","","","","","","","","","","","","","","","","","","","",""
"13288","","survey-likert","44","349637","0.0-42.0-0.0","AZ4MMVSAY9L3X","","","","{""Q0"":"""",""Q1"":0,""Q2"":0}","","","","","","","","","","","","","","","","","","","","","","",""
"3292","","survey-likert","45","354963","0.0-42.1-0.1","AZ4MMVSAY9L3X","","","","{""Q0"":"""",""Q1"":0,""Q2"":1}","","","","","","","","","","","","","","","","","","","","","","",""
"3510","","survey-text","46","358479","0.0-43.0-0.0","AZ4MMVSAY9L3X","","","","{""Q0"":""rock""}","","","","","","","","","","","","","","","","","","","","","","",""
"10221","","survey-text","47","368700","0.0-44.0-0.0","AZ4MMVSAY9L3X","","","","{""Q0"":""Looks like a child painted it.""}","","","","","","","","","","","","","","","","","","","","","","",""
"3113.3999999910593","","image-slider-response","48","371815","0.0-45.0","AZ4MMVSAY9L3X","","","","","-11","","","","","","","","","","","","","","","","","","","","","",""
"null","","image-button-response","49","376855","0.0-46.0","AZ4MMVSAY9L3X","img_art/2.jpg","null","","","","","","","","","","","","","","","","","","","","","","","","",""
"319","","image-button-response","50","377178","0.0-47.0","AZ4MMVSAY9L3X","img_art/2.jpg","1","","","","","","","","","","","","","","","","","","","","","","","","",""
"5736","","image-button-response","51","382916","0.0-48.0-0.0","AZ4MMVSAY9L3X","img_art/2.jpg","3","","","","","","","","","","","","","","","","","","","","","","","","",""
"1276","","image-button-response","52","384194","0.0-49.0-0.0","AZ4MMVSAY9L3X","img_art/2.jpg","2","","","","","","","","","","","","","","","","","","","","","","","","",""
"null","","html-keyboard-response","53","385196","0.0-50.0","AZ4MMVSAY9L3X","<p style=""font-size: 48px;"">+</p>","","","","","null","allTrialResponses","1000","1","1","img_art/2.jpg","-11","Looks like a child painted it.","Peter,Andrew,Kenneth,Nathaniel,Paul,Richard","I don't feel indifferent,4,320,20","Doesn't give me a reaction,10,160,20","I cant tell whats happening here and that shade of green is just not my thing.,-17,300,20","Too gloopy and unfocused,-38,220,20","I like the blue color in the center but that's it, the green is a gross color,-3,300,20","doctor's office art work, nice colors and not offensive,23,340,20","Andrew","Doesn't give me a reaction,10,160,20","Nathaniel","Too gloopy and unfocused,-38,220,20","Kenneth","I cant tell whats happening here and that shade of green is just not my thing.,-17,300,20","3"
"11121","","survey-text","54","396329","0.0-51.0-0.0","AZ4MMVSAY9L3X","","","","{""Q0"":""Cool streaks, reminds me of seaweed""}","","","","","","","","","","","","","","","","","","","","","","",""
"3414.7999999970198","","image-slider-response","55","399745","0.0-52.0","AZ4MMVSAY9L3X","","","","","16","","","","","","","","","","","","","","","","","","","","","",""
"3374","","image-button-response","56","404748","0.0-53.0","AZ4MMVSAY9L3X","img_art/30.jpg","1","","","","","","","","","","","","","","","","","","","","","","","","",""
"5411","","image-button-response","57","410163","0.0-54.0","AZ4MMVSAY9L3X","img_art/30.jpg","4","","","","","","","","","","","","","","","","","","","","","","","","",""
"1445","","image-button-response","58","411610","0.0-55.0-0.0","AZ4MMVSAY9L3X","img_art/30.jpg","1","","","","","","","","","","","","","","","","","","","","","","","","",""
"801","","image-button-response","59","412413","0.0-56.0-0.0","AZ4MMVSAY9L3X","img_art/30.jpg","2","","","","","","","","","","","","","","","","","","","","","","","","",""
"null","","html-keyboard-response","60","413916","0.0-57.0","AZ4MMVSAY9L3X","<p style=""font-size: 48px;"">+</p>","","","","","null","allTrialResponses","1500","1","2","img_art/30.jpg","16","Cool streaks, reminds me of seaweed","Scott,Andrew,Kenneth,Nathaniel,Noah,Aaron","nothing special about it,1,20,20","It's a really interesting piece,20,160,20","The red helps it to pop.,13,300,20","No my favorite, but I do like the long strokes of color,11,220,20","uplifted and yet calmed,15,260,20","It looks like a pretty but unremarkable painting in a doctors office,15,20,20","Noah","uplifted and yet calmed,15,260,20","Andrew","It's a really interesting piece,20,160,20","Kenneth","The red helps it to pop.,13,300,20","3"
"9045","","survey-text","61","422971","0.0-58.0-0.0","AZ4MMVSAY9L3X","","","","{""Q0"":""Simple but intriguing""}","","","","","","","","","","","","","","","","","","","","","","",""
"4941.79999999702","","image-slider-response","62","427915","0.0-59.0","AZ4MMVSAY9L3X","","","","","2","","","","","","","","","","","","","","","","","","","","","",""
"3232","","image-button-response","63","432918","0.0-60.0","AZ4MMVSAY9L3X","img_art/5.jpg","1","","","","","","","","","","","","","","","","","","","","","","","","",""
"3792","","image-button-response","64","436713","0.0-61.0","AZ4MMVSAY9L3X","img_art/5.jpg","4","","","","","","","","","","","","","","","","","","","","","","","","",""
"3170","","image-button-response","65","439885","0.0-62.0-0.0","AZ4MMVSAY9L3X","img_art/5.jpg","5","","","","","","","","","","","","","","","","","","","","","","","","",""
"2405","","image-button-response","66","442292","0.0-63.0-0.0","AZ4MMVSAY9L3X","img_art/5.jpg","1","","","","","","","","","","","","","","","","","","","","","","","","",""
"null","","html-keyboard-response","67","443795","0.0-64.0","AZ4MMVSAY9L3X","<p style=""font-size: 48px;"">+</p>","","","","","null","allTrialResponses","1500","1","3","img_art/5.jpg","2","Simple but intriguing","Dakota,Andrew,Kenneth,Adam,Noah,Chase","fresh and fun - bright and active,16,280,20","Doesn't make me think anything,-1,160,20","It looks like daffy duck's leg with a random trail of pink.,-22,300,20","Too loud. Dislike the bright yellow.,-5,40,20","this feels like something I should like, but I'm not feeling the execution,-10,260,20","Seems very basic and uninteresting.,-15,120,20","Noah","this feels like something I should like, but I'm not feeling the execution,-10,260,20","Chase","Seems very basic and uninteresting.,-15,120,20","Andrew","Doesn't make me think anything,-1,160,20","3"
"5278","","survey-text","68","449079","0.0-65.0-0.0","AZ4MMVSAY9L3X","","","","{""Q0"":""Cool Piece""}","","","","","","","","","","","","","","","","","","","","","","",""
"5001.79999999702","","image-slider-response","69","454082","0.0-66.0","AZ4MMVSAY9L3X","","","","","16","","","","","","","","","","","","","","","","","","","","","",""
"null","","image-button-response","70","459085","0.0-67.0","AZ4MMVSAY9L3X","img_art/12.jpg","null","","","","","","","","","","","","","","","","","","","","","","","","",""
"1631","","image-button-response","71","460719","0.0-68.0","AZ4MMVSAY9L3X","img_art/12.jpg","2","","","","","","","","","","","","","","","","","","","","","","","","",""
"3043","","image-button-response","72","463763","0.0-69.0-0.0","AZ4MMVSAY9L3X","img_art/12.jpg","3","","","","","","","","","","","","","","","","","","","","","","","","",""
"6126","","image-button-response","73","469891","0.0-70.0-0.0","AZ4MMVSAY9L3X","img_art/12.jpg","0","","","","","","","","","","","","","","","","","","","","","","","","",""
"null","","html-keyboard-response","74","471393","0.0-71.0","AZ4MMVSAY9L3X","<p style=""font-size: 48px;"">+</p>","","","","","null","allTrialResponses","1500","1","4","img_art/12.jpg","16","Cool Piece","Marcus,Andrew,Antonio,Derek,Noah,Chase","I like the colors in the bottom half of the painting,10,60,20","It's kind of ominous,-15,160,20","I like the colors in both sections, brights compared to neutrals. Each block has a different view. I think of the future,11,220,20","I love the pattern and this looks like it took a good deal of effort,35,360,20","evokes the 80s, and not in a necessarily good way,-10,260,20","It's not particularly interesting or ugly.,-7,120,20","Antonio","I like the colors in both sections, brights compared to neutrals. Each block has a different view. I think of the future,11,220,20","Derek","I love the pattern and this looks like it took a good deal of effort,35,360,20","Marcus","I like the colors in the bottom half of the painting,10,60,20","3"
"8338","","survey-text","75","479738","0.0-72.0-0.0","AZ4MMVSAY9L3X","","","","{""Q0"":""Seems like something i could paint""}","","","","","","","","","","","","","","","","","","","","","","",""
"3855.1000000089407","","image-slider-response","76","483594","0.0-73.0","AZ4MMVSAY9L3X","","","","","-4","","","","","","","","","","","","","","","","","","","","","",""
"3336","","image-button-response","77","488608","0.0-74.0","AZ4MMVSAY9L3X","img_art/26.jpg","0","","","","","","","","","","","","","","","","","","","","","","","","",""
"1514","","image-button-response","78","490126","0.0-75.0","AZ4MMVSAY9L3X","img_art/26.jpg","0","","","","","","","","","","","","","","","","","","","","","","","","",""
"1139","","image-button-response","79","491266","0.0-76.0-0.0","AZ4MMVSAY9L3X","img_art/26.jpg","0","","","","","","","","","","","","","","","","","","","","","","","","",""
"4544","","image-button-response","80","498264","0.0-76.1-0.1","AZ4MMVSAY9L3X","img_art/26.jpg","4","","","","","","","","","","","","","","","","","","","","","","","","",""
"1941","","image-button-response","81","500206","0.0-77.0-0.0","AZ4MMVSAY9L3X","img_art/26.jpg","2","","","","","","","","","","","","","","","","","","","","","","","","",""
"null","","html-keyboard-response","82","501708","0.0-78.0","AZ4MMVSAY9L3X","<p style=""font-size: 48px;"">+</p>","","","","","null","allTrialResponses","1500","1","5","img_art/26.jpg","-4","Seems like something i could paint","Marcus,Alejandro,Antonio,Derek,Dalton,Tristan","Nice, but not very interesting. I do like the blue tree though.,6,60,20","Do not like water colors at all,-50,80,20","Calming and relaxing,28,220,20","Looks messy and like it was painted by a small child,-48,360,20","neighborhood and trees. i wonder if this is water paint.,1,300,20","The feeling that I am looking at the world through a dingy filter makes this unpleasant for me.,-20,300,20","Marcus","Nice, but not very interesting. I do like the blue tree though.,6,60,20","Dalton","neighborhood and trees. i wonder if this is water paint.,1,300,20","Antonio","Calming and relaxing,28,220,20","5"
"2506","","survey-text","83","504235","0.0-79.0-0.0","AZ4MMVSAY9L3X","","","","{""Q0"":""sky""}","","","","","","","","","","","","","","","","","","","","","","",""
"9310","","survey-text","84","513547","0.0-80.0-0.0","AZ4MMVSAY9L3X","","","","{""Q0"":""Really cool, like the white against the other colors""}","","","","","","","","","","","","","","","","","","","","","","",""
"3361","","image-slider-response","85","516909","0.0-81.0","AZ4MMVSAY9L3X","","","","","37","","","","","","","","","","","","","","","","","","","","","",""
"2466","","image-button-response","86","521927","0.0-82.0","AZ4MMVSAY9L3X","img_art/23.jpg","1","","","","","","","","","","","","","","","","","","","","","","","","",""
"641","","image-button-response","87","522571","0.0-83.0","AZ4MMVSAY9L3X","img_art/23.jpg","1","","","","","","","","","","","","","","","","","","","","","","","","",""
"2347","","image-button-response","88","524920","0.0-84.0-0.0","AZ4MMVSAY9L3X","img_art/23.jpg","2","","","","","","","","","","","","","","","","","","","","","","","","",""
"5038","","image-button-response","89","529960","0.0-85.0-0.0","AZ4MMVSAY9L3X","img_art/23.jpg","3","","","","","","","","","","","","","","","","","","","","","","","","",""
"null","","html-keyboard-response","90","531474","0.0-86.0","AZ4MMVSAY9L3X","<p style=""font-size: 48px;"">+</p>","","","","","null","allTrialResponses","1500","1","6","img_art/23.jpg","37","Really cool, like the white against the other colors","Marcus,Dylan,Antonio,Edward,Dalton,Robert","Like the background colors and the energy, but the white bits ruin it for me,-7,60,20","This is my favorite of them all. I love the colors.,41,40,20","Like the colors and made me feel happy,23,220,20","This would make a great mural,37,60,20","illegible wording with a graffiti background,1,300,20","This makes me think of an orchestra playing a forth of july song,12,360,20","Dylan","This is my favorite of them all. I love the colors.,41,40,20","Antonio","Like the colors and made me feel happy,23,220,20","Edward","This would make a great mural,37,60,20","5"
"14875","","survey-text","91","546355","0.0-87.0-0.0","AZ4MMVSAY9L3X","","","","{""Q0"":""Kind of creepy but also cool, I like the frame""}","","","","","","","","","","","","","","","","","","","","","","",""
"3447.7999999970198","","image-slider-response","92","549804","0.0-88.0","AZ4MMVSAY9L3X","","","","","22","","","","","","","","","","","","","","","","","","","","","",""
"null","","image-button-response","93","554807","0.0-89.0","AZ4MMVSAY9L3X","img_art/20.jpg","null","","","","","","","","","","","","","","","","","","","","","","","","",""
"3162","","image-button-response","94","557972","0.0-90.0","AZ4MMVSAY9L3X","img_art/20.jpg","3","","","","","","","","","","","","","","","","","","","","","","","","",""
"1228","","image-button-response","95","559202","0.0-91.0-0.0","AZ4MMVSAY9L3X","img_art/20.jpg","0","","","","","","","","","","","","","","","","","","","","","","","","",""
"2559","","image-button-response","96","561763","0.0-92.0-0.0","AZ4MMVSAY9L3X","img_art/20.jpg","2","","","","","","","","","","","","","","","","","","","","","","","","",""
"null","","html-keyboard-response","97","562764","0.0-93.0","AZ4MMVSAY9L3X","<p style=""font-size: 48px;"">+</p>","","","","","null","allTrialResponses","1000","1","7","img_art/20.jpg","22","Kind of creepy but also cool, I like the frame","Austin,Dylan,Antonio,Edward,Brendan,Brett","This painting would make a great display art,50,240,20","The white blob looks like a face and it's creepy,-30,40,20","Makes me feel weary,21,220,20","I can't tell what's going on but I like the colors,12,60,20","i can see a car crash,13,340,20","City life vs shore life,40,360,20","Edward","I can't tell what's going on but I like the colors,12,60,20","Austin","This painting would make a great display art,50,240,20","Antonio","Makes me feel weary,21,220,20","5"
"9981","","survey-text","98","572757","0.0-94.0-0.0","AZ4MMVSAY9L3X","","","","{""Q0"":""Looks old fashioned, kind of like a sketch""}","","","","","","","","","","","","","","","","","","","","","","",""
"6010.29999999702","","image-slider-response","99","578769","0.0-95.0","AZ4MMVSAY9L3X","","","","","1","","","","","","","","","","","","","","","","","","","","","",""
"null","","image-button-response","100","583789","0.0-96.0","AZ4MMVSAY9L3X","img_art/28.jpg","null","","","","","","","","","","","","","","","","","","","","","","","","",""
"7008","","image-button-response","101","590799","0.0-97.0","AZ4MMVSAY9L3X","img_art/28.jpg","3","","","","","","","","","","","","","","","","","","","","","","","","",""
"4318","","image-button-response","102","595119","0.0-98.0-0.0","AZ4MMVSAY9L3X","img_art/28.jpg","1","","","","","","","","","","","","","","","","","","","","","","","","",""
"785","","image-button-response","103","595906","0.0-99.0-0.0","AZ4MMVSAY9L3X","img_art/28.jpg","1","","","","","","","","","","","","","","","","","","","","","","","","",""
"763","","image-button-response","104","601276","0.0-99.1-0.1","AZ4MMVSAY9L3X","img_art/28.jpg","2","","","","","","","","","","","","","","","","","","","","","","","","",""
"null","","html-keyboard-response","105","602280","0.0-100.0","AZ4MMVSAY9L3X","<p style=""font-size: 48px;"">+</p>","","","","","null","allTrialResponses","1000","1","8","img_art/28.jpg","1","Looks old fashioned, kind of like a sketch","Austin,Caleb,Antonio,Edward,Justin,Timothy","Not really exciting,23,240,20","White and dark balance is way off- Seems dull.,-33,40,20","Colors are pleasing. Made me think of two people kneeling and talking. A curious feeling.,15,220,20","Salvador Dali called and he thinks this looks pretty good,27,60,20","I don't like the colors or the design.,-20,280,20","This one gives me an uneasy feeling,-10,240,20","Edward","Salvador Dali called and he thinks this looks pretty good,27,60,20","Caleb","White and dark balance is way off- Seems dull.,-33,40,20","Antonio","Colors are pleasing. Made me think of two people kneeling and talking. A curious feeling.,15,220,20","7"
"9408","","survey-text","106","611695","0.0-101.0-0.0","AZ4MMVSAY9L3X","","","","{""Q0"":""Looks like a bird on the beach""}","","","","","","","","","","","","","","","","","","","","","","",""
"3335.0999999940395","","image-slider-response","107","615031","0.0-102.0","AZ4MMVSAY9L3X","","","","","3","","","","","","","","","","","","","","","","","","","","","",""
"null","","image-button-response","108","620036","0.0-103.0","AZ4MMVSAY9L3X","img_art/6.jpg","null","","","","","","","","","","","","","","","","","","","","","","","","",""
"2020","","image-button-response","109","622059","0.0-104.0","AZ4MMVSAY9L3X","img_art/6.jpg","3","","","","","","","","","","","","","","","","","","","","","","","","",""
"1161","","image-button-response","110","623221","0.0-105.0-0.0","AZ4MMVSAY9L3X","img_art/6.jpg","4","","","","","","","","","","","","","","","","","","","","","","","","",""
"1228","","image-button-response","111","624451","0.0-106.0-0.0","AZ4MMVSAY9L3X","img_art/6.jpg","5","","","","","","","","","","","","","","","","","","","","","","","","",""
"null","","html-keyboard-response","112","625959","0.0-107.0","AZ4MMVSAY9L3X","<p style=""font-size: 48px;"">+</p>","","","","","null","allTrialResponses","1500","1","9","img_art/6.jpg","3","Looks like a bird on the beach","Cole,Caleb,Antonio,Edward,Jacob,Cody","Close up peach? Hate it,-16,200,20","Despite how simple it is, this piece has clear meaning.,34,40,20","Lonely and kinda sad,-25,220,20","It looks like a bird looking away,32,60,20","Is this a leaf?,4,340,20","Birds are cool but I don't love it,10,180,20","Edward","It looks like a bird looking away,32,60,20","Jacob","Is this a leaf?,4,340,20","Cody","Birds are cool but I don't love it,10,180,20","7"
"10271","","survey-text","113","636242","0.0-108.0-0.0","AZ4MMVSAY9L3X","","","","{""Q0"":""Cool abstract waterfall feeling""}","","","","","","","","","","","","","","","","","","","","","","",""
"4722.20000000298","","image-slider-response","114","640966","0.0-109.0","AZ4MMVSAY9L3X","","","","","37","","","","","","","","","","","","","","","","","","","","","",""
"null","","image-button-response","115","645971","0.0-110.0","AZ4MMVSAY9L3X","img_art/24.jpg","null","","","","","","","","","","","","","","","","","","","","","","","","",""
"475","","image-button-response","116","646449","0.0-111.0","AZ4MMVSAY9L3X","img_art/24.jpg","1","","","","","","","","","","","","","","","","","","","","","","","","",""
"6111","","image-button-response","117","652561","0.0-112.0-0.0","AZ4MMVSAY9L3X","img_art/24.jpg","4","","","","","","","","","","","","","","","","","","","","","","","","",""
"1595","","image-button-response","118","654159","0.0-113.0-0.0","AZ4MMVSAY9L3X","img_art/24.jpg","5","","","","","","","","","","","","","","","","","","","","","","","","",""
"null","","html-keyboard-response","119","654661","0.0-114.0","AZ4MMVSAY9L3X","<p style=""font-size: 48px;"">+</p>","","","","","null","allTrialResponses","500","1","10","img_art/24.jpg","37","Cool abstract waterfall feeling","Eric,David,Garrett,Edward,Jacob,Cody","I'm reminded of a waterfall, but I feel like it could've been better portrayed.,5,100,20","Invokes a strong sense of nature, since the piece can interpreted as a stream or an abstracted bird.,40,340,20","I like the way the colors are put together, and I can imagine this picture in real life.,40,180,20","Very pretty and soft,37,60,20","Vibrant, beautiful depiction.,50,340,20","Beautiful, good colors, love water,50,180,20","David","Invokes a strong sense of nature, since the piece can interpreted as a stream or an abstracted bird.,40,340,20","Jacob","Vibrant, beautiful depiction.,50,340,20","Cody","Beautiful, good colors, love water,50,180,20","7"
"3195","","survey-text","120","657874","0.0-115.0-0.0","AZ4MMVSAY9L3X","","","","{""Q0"":""our""}","","","","","","","","","","","","","","","","","","","","","","",""
"11998","","survey-text","121","669872","0.0-116.0-0.0","AZ4MMVSAY9L3X","","","","{""Q0"":""Neat yet weird and abstract""}","","","","","","","","","","","","","","","","","","","","","","",""
"4122","","image-slider-response","122","673996","0.0-117.0","AZ4MMVSAY9L3X","","","","","24","","","","","","","","","","","","","","","","","","","","","",""
"null","","image-button-response","123","678999","0.0-118.0","AZ4MMVSAY9L3X","img_art/17.jpg","null","","","","","","","","","","","","","","","","","","","","","","","","",""
"2630","","image-button-response","124","681632","0.0-119.0","AZ4MMVSAY9L3X","img_art/17.jpg","4","","","","","","","","","","","","","","","","","","","","","","","","",""
"874","","image-button-response","125","682508","0.0-120.0-0.0","AZ4MMVSAY9L3X","img_art/17.jpg","5","","","","","","","","","","","","","","","","","","","","","","","","",""
"794","","image-button-response","126","683304","0.0-121.0-0.0","AZ4MMVSAY9L3X","img_art/17.jpg","0","","","","","","","","","","","","","","","","","","","","","","","","",""
"null","","html-keyboard-response","127","684312","0.0-122.0","AZ4MMVSAY9L3X","<p style=""font-size: 48px;"">+</p>","","","","","null","allTrialResponses","1000","1","11","img_art/17.jpg","24","Neat yet weird and abstract","Patrick,David,Daniel,Ryan,Jacob,Cody","Beautiful patterns but evokes sad emotions in me due to the color shades,31,280,20","I like how the image gives an impression of gaseous tree.,15,340,20","2 paintings in 1 with shared colors,5,320,20","Feels supernatural and scary,-16,380,20","The way they painted the trees is so cool.,27,340,20","Love the colors and the movement,46,180,20","Jacob","The way they painted the trees is so cool.,27,340,20","Cody","Love the colors and the movement,46,180,20","Patrick","Beautiful patterns but evokes sad emotions in me due to the color shades,31,280,20","7"
"12476","","survey-text","128","696794","0.0-123.0-0.0","AZ4MMVSAY9L3X","","","","{""Q0"":""Looks like a picture of the moon""}","","","","","","","","","","","","","","","","","","","","","","",""
"3629.699999988079","","image-slider-response","129","700426","0.0-124.0","AZ4MMVSAY9L3X","","","","","1","","","","","","","","","","","","","","","","","","","","","",""
"null","","image-button-response","130","705439","0.0-125.0","AZ4MMVSAY9L3X","img_art/7.jpg","null","","","","","","","","","","","","","","","","","","","","","","","","",""
"3548","","image-button-response","131","708991","0.0-126.0","AZ4MMVSAY9L3X","img_art/7.jpg","4","","","","","","","","","","","","","","","","","","","","","","","","",""
"1257","","image-button-response","132","710251","0.0-127.0-0.0","AZ4MMVSAY9L3X","img_art/7.jpg","5","","","","","","","","","","","","","","","","","","","","","","","","",""
"2556","","image-button-response","133","712808","0.0-128.0-0.0","AZ4MMVSAY9L3X","img_art/7.jpg","2","","","","","","","","","","","","","","","","","","","","","","","","",""
"null","","html-keyboard-response","134","713812","0.0-129.0","AZ4MMVSAY9L3X","<p style=""font-size: 48px;"">+</p>","","","","","null","allTrialResponses","1000","1","12","img_art/7.jpg","1","Looks like a picture of the moon","Patrick,Seth,John,Brandon,Jacob,Cody","It feels cold and hard,-40,280,20","This piece reminds me of ants and it makes my skin crawl.,-37,60,20","It looks like someone took a picture of a muddy ground and called it art.,-41,120,20","Looks like bad wallpaper,-29,320,20","Looks like a natural texture, reminds me of rocks.,0,340,20","Cool, makes me think of archeology,15,180,20","Jacob","Looks like a natural texture, reminds me of rocks.,0,340,20","Cody","Cool, makes me think of archeology,15,180,20","John","It looks like someone took a picture of a muddy ground and called it art.,-41,120,20","7"
"5931","","survey-text","135","719756","0.0-130.0-0.0","AZ4MMVSAY9L3X","","","","{""Q0"":""Love it""}","","","","","","","","","","","","","","","","","","","","","","",""
"12505.79999999702","","image-slider-response","136","732263","0.0-131.0","AZ4MMVSAY9L3X","","","","","31","","","","","","","","","","","","","","","","","","","","","",""
"3111","","image-button-response","137","737266","0.0-132.0","AZ4MMVSAY9L3X","img_art/8.jpg","0","","","","","","","","","","","","","","","","","","","","","","","","",""
"543","","image-button-response","138","737813","0.0-133.0","AZ4MMVSAY9L3X","img_art/8.jpg","0","","","","","","","","","","","","","","","","","","","","","","","","",""
"1280","","image-button-response","139","739095","0.0-134.0-0.0","AZ4MMVSAY9L3X","img_art/8.jpg","4","","","","","","","","","","","","","","","","","","","","","","","","",""
"1792","","image-button-response","140","740888","0.0-135.0-0.0","AZ4MMVSAY9L3X","img_art/8.jpg","5","","","","","","","","","","","","","","","","","","","","","","","","",""
"null","","html-keyboard-response","141","741893","0.0-136.0","AZ4MMVSAY9L3X","<p style=""font-size: 48px;"">+</p>","","","","","null","allTrialResponses","1000","1","13","img_art/8.jpg","31","Love it","Bryan,Vincent,John,Mitchell,Jacob,Cody","Like the colors & the imagery - old city, native peoples maybe.,20,400,20","This speaks volumes to me and is another favorite I'm sure by many,40,360,20","I like how the more you like at it there are more things to discover.Very creative.,33,120,20","Lost in a big city confuse as to where to go to next. No matter if you live in a mansion or homeless. Being bigger than what is going on around you,30,180,20","Very cool! I like this piece,9,340,20","Love the colors & block-style,50,180,20","Bryan","Like the colors & the imagery - old city, native peoples maybe.,20,400,20","Jacob","Very cool! I like this piece,9,340,20","Cody","Love the colors & block-style,50,180,20","7"
"21957","","survey-text","142","763862","0.0-137.0-0.0","AZ4MMVSAY9L3X","","","","{""Q0"":""Looks like an old settlement of some kind by a stormy sea.""}","","","","","","","","","","","","","","","","","","","","","","",""
"6371.5","","image-slider-response","143","770235","0.0-138.0","AZ4MMVSAY9L3X","","","","","3","","","","","","","","","","","","","","","","","","","","","",""
"null","","image-button-response","144","775245","0.0-139.0","AZ4MMVSAY9L3X","img_art/21.jpg","null","","","","","","","","","","","","","","","","","","","","","","","","",""
"3439","","image-button-response","145","778687","0.0-140.0","AZ4MMVSAY9L3X","img_art/21.jpg","0","","","","","","","","","","","","","","","","","","","","","","","","",""
"1611","","image-button-response","146","780300","0.0-141.0-0.0","AZ4MMVSAY9L3X","img_art/21.jpg","4","","","","","","","","","","","","","","","","","","","","","","","","",""
"921","","image-button-response","147","781222","0.0-142.0-0.0","AZ4MMVSAY9L3X","img_art/21.jpg","2","","","","","","","","","","","","","","","","","","","","","","","","",""
"null","","html-keyboard-response","148","781725","0.0-143.0","AZ4MMVSAY9L3X","<p style=""font-size: 48px;"">+</p>","","","","","null","allTrialResponses","500","1","14","img_art/21.jpg","3","Looks like an old settlement of some kind by a stormy sea.","Bryan,Connor,Bryce,Joshua,Jacob,Cody","Like the colors, the cloudy, airy effects. Nice.,46,400,20","Love the colors and hue, ocean,38,240,20","Nothing exciting in this one.,-36,20,20","Boring colors and look. Too much 1980s.,-20,240,20","I like how the colors blend together like a beautiful sunset.,25,340,20","Pretty, good colors,30,180,20","Bryan","Like the colors, the cloudy, airy effects. Nice.,46,400,20","Jacob","I like how the colors blend together like a beautiful sunset.,25,340,20","Bryce","Nothing exciting in this one.,-36,20,20","7"
"11138","","survey-text","149","792876","0.0-144.0-0.0","AZ4MMVSAY9L3X","","","","{""Q0"":""Weird looks like something a serial killer would o""}","","","","","","","","","","","","","","","","","","","","","","",""
"3650.9000000059605","","image-slider-response","150","796529","0.0-145.0","AZ4MMVSAY9L3X","","","","","-18","","","","","","","","","","","","","","","","","","","","","",""
"4417","","image-button-response","151","801542","0.0-146.0","AZ4MMVSAY9L3X","img_art/16.jpg","1","","","","","","","","","","","","","","","","","","","","","","","","",""
"3069","","image-button-response","152","804614","0.0-147.0","AZ4MMVSAY9L3X","img_art/16.jpg","2","","","","","","","","","","","","","","","","","","","","","","","","",""
"599","","image-button-response","153","805215","0.0-148.0-0.0","AZ4MMVSAY9L3X","img_art/16.jpg","1","","","","","","","","","","","","","","","","","","","","","","","","",""
"1701","","image-button-response","154","806917","0.0-149.0-0.0","AZ4MMVSAY9L3X","img_art/16.jpg","0","","","","","","","","","","","","","","","","","","","","","","","","",""
"null","","html-keyboard-response","155","807919","0.0-150.0","AZ4MMVSAY9L3X","<p style=""font-size: 48px;"">+</p>","","","","","null","allTrialResponses","1000","1","15","img_art/16.jpg","-18","Weird looks like something a serial killer would o","Bryan,Cameron,Bryce,James,Jacob,Travis","Something terrible happened. Either the figure on the right is the victim or another shredded toy.,-49,400,20","Don't like teddy bears in art. I could draw that house.,-20,60,20","The teddy bear is scary as hell.,-44,20,20","It is interesting to say the least,0,380,20","Cool but the bear creeps me out?,8,340,20","I like the teddy bear,but a neutral feeling,5,260,20","Bryce","The teddy bear is scary as hell.,-44,20,20","Cameron","Don't like teddy bears in art. I could draw that house.,-20,60,20","Bryan","Something terrible happened. Either the figure on the right is the victim or another shredded toy.,-49,400,20","7"
"2296","","survey-text","156","810240","0.0-151.0-0.0","AZ4MMVSAY9L3X","","","","{""Q0"":""course""}","","","","","","","","","","","","","","","","","","","","","","",""
"7242","","survey-text","157","817484","0.0-152.0-0.0","AZ4MMVSAY9L3X","","","","{""Q0"":""Kind of cool and abstract""}","","","","","","","","","","","","","","","","","","","","","","",""
"5308.5","","image-slider-response","158","822794","0.0-153.0","AZ4MMVSAY9L3X","","","","","9","","","","","","","","","","","","","","","","","","","","","",""
"4874","","image-button-response","159","827796","0.0-154.0","AZ4MMVSAY9L3X","img_art/9.jpg","2","","","","","","","","","","","","","","","","","","","","","","","","",""
"1619","","image-button-response","160","829417","0.0-155.0","AZ4MMVSAY9L3X","img_art/9.jpg","2","","","","","","","","","","","","","","","","","","","","","","","","",""
"590","","image-button-response","161","830009","0.0-156.0-0.0","AZ4MMVSAY9L3X","img_art/9.jpg","4","","","","","","","","","","","","","","","","","","","","","","","","",""
"2067","","image-button-response","162","832079","0.0-157.0-0.0","AZ4MMVSAY9L3X","img_art/9.jpg","3","","","","","","","","","","","","","","","","","","","","","","","","",""
"null","","html-keyboard-response","163","832590","0.0-158.0","AZ4MMVSAY9L3X","<p style=""font-size: 48px;"">+</p>","","","","","null","allTrialResponses","500","1","16","img_art/9.jpg","9","Kind of cool and abstract","Bryan,Cameron,Bryce,Jeffrey,Corey,Steven","Huh?  Doesn't invoke much.,-37,400,20","Dark fantasy seaside cave carnival? Fun.,15,60,20","Looks like a crayon drawing.,21,20,20","Looks very relaxing; someone laying in a meadow,13,40,20","keeps me interested. like the colors,17,260,20","I just dont like it, no reaction from me at all,-50,160,20","Bryce","Looks like a crayon drawing.,21,20,20","Corey","keeps me interested. like the colors,17,260,20","Jeffrey","Looks very relaxing; someone laying in a meadow,13,40,20","7"
"7429","","survey-text","164","840033","0.0-159.0-0.0","AZ4MMVSAY9L3X","","","","{""Q0"":""Looks like a sparkler outline""}","","","","","","","","","","","","","","","","","","","","","","",""
"5087.4000000059605","","image-slider-response","165","845122","0.0-160.0","AZ4MMVSAY9L3X","","","","","3","","","","","","","","","","","","","","","","","","","","","",""
"3988","","image-button-response","166","850130","0.0-161.0","AZ4MMVSAY9L3X","img_art/4.jpg","3","","","","","","","","","","","","","","","","","","","","","","","","",""
"413","","image-button-response","167","850544","0.0-162.0","AZ4MMVSAY9L3X","img_art/4.jpg","3","","","","","","","","","","","","","","","","","","","","","","","","",""
"358","","image-button-response","168","850904","0.0-163.0-0.0","AZ4MMVSAY9L3X","img_art/4.jpg","4","","","","","","","","","","","","","","","","","","","","","","","","",""
"2961","","image-button-response","169","853867","0.0-164.0-0.0","AZ4MMVSAY9L3X","img_art/4.jpg","2","","","","","","","","","","","","","","","","","","","","","","","","",""
"null","","html-keyboard-response","170","854368","0.0-165.0","AZ4MMVSAY9L3X","<p style=""font-size: 48px;"">+</p>","","","","","null","allTrialResponses","500","1","17","img_art/4.jpg","3","Looks like a sparkler outline","William,Tyler,Bryce,Jeffrey,Corey,Tanner","dont like the colors,-31,380,20","This is what makes suburban dads say, ""my 4-year-old can do that."",-49,320,20","Not very interesting to look at.,-34,20,20","Easy and relaxing,23,40,20","doesn't do anything for me,-4,260,20","stresses me out, uncomfortable,-18,180,20","Jeffrey","Easy and relaxing,23,40,20","Corey","doesn't do anything for me,-4,260,20","Bryce","Not very interesting to look at.,-34,20,20","7"
"15175","","survey-text","171","869554","0.0-166.0-0.0","AZ4MMVSAY9L3X","","","","{""Q0"":""Seems like a weird painting a rich person would have in their house""}","","","","","","","","","","","","","","","","","","","","","","",""
"2829","","image-slider-response","172","872384","0.0-167.0","AZ4MMVSAY9L3X","","","","","-6","","","","","","","","","","","","","","","","","","","","","",""
"4580","","image-button-response","173","877401","0.0-168.0","AZ4MMVSAY9L3X","img_art/15.jpg","5","","","","","","","","","","","","","","","","","","","","","","","","",""
"657","","image-button-response","174","878061","0.0-169.0","AZ4MMVSAY9L3X","img_art/15.jpg","5","","","","","","","","","","","","","","","","","","","","","","","","",""
"4086","","image-button-response","175","882149","0.0-170.0-0.0","AZ4MMVSAY9L3X","img_art/15.jpg","3","","","","","","","","","","","","","","","","","","","","","","","","",""
"951","","image-button-response","176","883101","0.0-171.0-0.0","AZ4MMVSAY9L3X","img_art/15.jpg","0","","","","","","","","","","","","","","","","","","","","","","","","",""
"null","","html-keyboard-response","177","884118","0.0-172.0","AZ4MMVSAY9L3X","<p style=""font-size: 48px;"">+</p>","","","","","null","allTrialResponses","1000","1","18","img_art/15.jpg","-6","Seems like a weird painting a rich person would have in their house","Matthew,Trevor,Bryce,Jeffrey,Corey,Mason","I think of birds, nature, levels of space.,18,120,20","I really like the colors,14,280,20","The dots are cool with the blue accents.,24,20,20","dark and I can not see a meaning behind it,-31,40,20","i like the pop of blue within all the black,8,260,20","It's ok, it makes me think. That's something I guess.,8,100,20","Mason","It's ok, it makes me think. That's something I guess.,8,100,20","Jeffrey","dark and I can not see a meaning behind it,-31,40,20","Matthew","I think of birds, nature, levels of space.,18,120,20","7"
"11563","","survey-text","178","895687","0.0-173.0-0.0","AZ4MMVSAY9L3X","","","","{""Q0"":""Like it a  lot, kind of a ship on the water feeling but not""}","","","","","","","","","","","","","","","","","","","","","","",""
"3372.7999999970198","","image-slider-response","179","899061","0.0-174.0","AZ4MMVSAY9L3X","","","","","31","","","","","","","","","","","","","","","","","","","","","",""
"null","","image-button-response","180","904067","0.0-175.0","AZ4MMVSAY9L3X","img_art/10.jpg","null","","","","","","","","","","","","","","","","","","","","","","","","",""
"857","","image-button-response","181","904927","0.0-176.0","AZ4MMVSAY9L3X","img_art/10.jpg","5","","","","","","","","","","","","","","","","","","","","","","","","",""
"5420","","image-button-response","182","910349","0.0-177.0-0.0","AZ4MMVSAY9L3X","img_art/10.jpg","2","","","","","","","","","","","","","","","","","","","","","","","","",""
"778","","image-button-response","183","911129","0.0-178.0-0.0","AZ4MMVSAY9L3X","img_art/10.jpg","3","","","","","","","","","","","","","","","","","","","","","","","","",""
"null","","html-keyboard-response","184","912635","0.0-179.0","AZ4MMVSAY9L3X","<p style=""font-size: 48px;"">+</p>","","","","","null","allTrialResponses","1500","1","19","img_art/10.jpg","31","Like it a  lot, kind of a ship on the water feeling but not","Matthew,Charles,Logan,Jeffrey,Adrian,Mason","AWESOME VIOLIN!`,26,120,20","Also too all over the place, I don't see any pattern or anything that's supposed to stand out,-19,100,20","The more I look the more I like. Reminds me of a rollercoaster and a war scene. A lot going on which is unnerving, like a rollercoaster but still fun,22,360,20","Relaxing; a lot of going on but colours make it easy to look at,20,40,20","Looks like a violin. Not a fan of the smudges and smears, but my initial reaction was positive.,11,60,20","It's art. (for some),7,100,20","Mason","It's art. (for some),7,100,20","Logan","The more I look the more I like. Reminds me of a rollercoaster and a war scene. A lot going on which is unnerving, like a rollercoaster but still fun,22,360,20","Jeffrey","Relaxing; a lot of going on but colours make it easy to look at,20,40,20","7"
"6886","","survey-text","185","919529","0.0-180.0-0.0","AZ4MMVSAY9L3X","","","","{""Q0"":""Cool and very unique""}","","","","","","","","","","","","","","","","","","","","","","",""
"4174.20000000298","","image-slider-response","186","923705","0.0-181.0","AZ4MMVSAY9L3X","","","","","22","","","","","","","","","","","","","","","","","","","","","",""
"null","","image-button-response","187","928712","0.0-182.0","AZ4MMVSAY9L3X","img_art/11.jpg","null","","","","","","","","","","","","","","","","","","","","","","","","",""
"647","","image-button-response","188","929360","0.0-183.0","AZ4MMVSAY9L3X","img_art/11.jpg","2","","","","","","","","","","","","","","","","","","","","","","","","",""
"757","","image-button-response","189","930119","0.0-184.0-0.0","AZ4MMVSAY9L3X","img_art/11.jpg","4","","","","","","","","","","","","","","","","","","","","","","","","",""
"853","","image-button-response","190","930973","0.0-185.0-0.0","AZ4MMVSAY9L3X","img_art/11.jpg","0","","","","","","","","","","","","","","","","","","","","","","","","",""
"null","","html-keyboard-response","191","931475","0.0-186.0","AZ4MMVSAY9L3X","<p style=""font-size: 48px;"">+</p>","","","","","null","allTrialResponses","500","1","20","img_art/11.jpg","22","Cool and very unique","Kyle,Jake,Logan,Jeffrey,Jorge,Mason","Reminds me of a city on a grey/rainy winter's day,25,340,20","This is very unappealing.,-11,360,20","life is a highway,12,360,20","a lot of dark colours,-8,40,20","Sad but hopeful,43,180,20","dna, odd but nice.,25,100,20","Logan","life is a highway,12,360,20","Jorge","Sad but hopeful,43,180,20","Kyle","Reminds me of a city on a grey/rainy winter's day,25,340,20","7"
"2077","","survey-text","192","933577","0.0-187.0-0.0","AZ4MMVSAY9L3X","","","","{""Q0"":""we""}","","","","","","","","","","","","","","","","","","","","","","",""
"6599","","survey-text","193","940178","0.0-188.0-0.0","AZ4MMVSAY9L3X","","","","{""Q0"":""looks kind of like grafiti""}","","","","","","","","","","","","","","","","","","","","","","",""
"2870","","image-slider-response","194","943049","0.0-189.0","AZ4MMVSAY9L3X","","","","","5","","","","","","","","","","","","","","","","","","","","","",""
"null","","image-button-response","195","948062","0.0-190.0","AZ4MMVSAY9L3X","img_art/19.jpg","null","","","","","","","","","","","","","","","","","","","","","","","","",""
"676","","image-button-response","196","948741","0.0-191.0","AZ4MMVSAY9L3X","img_art/19.jpg","1","","","","","","","","","","","","","","","","","","","","","","","","",""
"3329","","image-button-response","197","952072","0.0-192.0-0.0","AZ4MMVSAY9L3X","img_art/19.jpg","5","","","","","","","","","","","","","","","","","","","","","","","","",""
"644","","image-button-response","198","952717","0.0-193.0-0.0","AZ4MMVSAY9L3X","img_art/19.jpg","2","","","","","","","","","","","","","","","","","","","","","","","","",""
"null","","html-keyboard-response","199","953725","0.0-194.0","AZ4MMVSAY9L3X","<p style=""font-size: 48px;"">+</p>","","","","","null","allTrialResponses","1000","1","21","img_art/19.jpg","5","looks kind of like grafiti","Kyle,Christian,Logan,Bradley,Jorge,Miguel","Just stirred a negative reaction. Don't really like it perhaps because of the structure?,-8,340,20","interesting take on depth (reminds me of those 1000 piece puzzles),2,140,20","this flow I just really like how everything blends but also doesn't,45,360,20","This looks like a child's piece. I appreciate the artistic value, but not for me.,-20,300,20","confused and emotional,-4,180,20","Messy and kid like.,-36,160,20","Christian","interesting take on depth (reminds me of those 1000 piece puzzles),2,140,20","Miguel","Messy and kid like.,-36,160,20","Logan","this flow I just really like how everything blends but also doesn't,45,360,20","7"
"5922","","survey-text","200","959653","0.0-195.0-0.0","AZ4MMVSAY9L3X","","","","{""Q0"":""Day of the dead feeling""}","","","","","","","","","","","","","","","","","","","","","","",""
"3276.5999999940395","","image-slider-response","201","962932","0.0-196.0","AZ4MMVSAY9L3X","","","","","-2","","","","","","","","","","","","","","","","","","","","","",""
"null","","image-button-response","202","967948","0.0-197.0","AZ4MMVSAY9L3X","img_art/25.jpg","null","","","","","","","","","","","","","","","","","","","","","","","","",""
"771","","image-button-response","203","968721","0.0-198.0","AZ4MMVSAY9L3X","img_art/25.jpg","0","","","","","","","","","","","","","","","","","","","","","","","","",""
"1379","","image-button-response","204","970102","0.0-199.0-0.0","AZ4MMVSAY9L3X","img_art/25.jpg","2","","","","","","","","","","","","","","","","","","","","","","","","",""
"725","","image-button-response","205","970829","0.0-200.0-0.0","AZ4MMVSAY9L3X","img_art/25.jpg","3","","","","","","","","","","","","","","","","","","","","","","","","",""
"null","","html-keyboard-response","206","972347","0.0-201.0","AZ4MMVSAY9L3X","<p style=""font-size: 48px;"">+</p>","","","","","null","allTrialResponses","1500","1","22","img_art/25.jpg","-2","Day of the dead feeling","Jesse,Christian,Logan,Nicholas,Victor,Miguel","Creates a bit of fear in me for some reason,-26,80,20","I'm sorry but I don't uderstand this,-20,140,20","creeeeeppyyyyyyy but mad cool,-26,360,20","It is interesting but too creapy for me,-29,240,20","Love the colors, and how it's simple yet complex,25,340,20","This is too simple,-22,160,20","Jesse","Creates a bit of fear in me for some reason,-26,80,20","Logan","creeeeeppyyyyyyy but mad cool,-26,360,20","Nicholas","It is interesting but too creapy for me,-29,240,20","7"
"5794","","survey-text","207","978149","0.0-202.0-0.0","AZ4MMVSAY9L3X","","","","{""Q0"":""Looks like junk""}","","","","","","","","","","","","","","","","","","","","","","",""
"2646.2000000029802","","image-slider-response","208","980796","0.0-203.0","AZ4MMVSAY9L3X","","","","","-7","","","","","","","","","","","","","","","","","","","","","",""
"4678","","image-button-response","209","985810","0.0-204.0","AZ4MMVSAY9L3X","img_art/29.jpg","0","","","","","","","","","","","","","","","","","","","","","","","","",""
"398","","image-button-response","210","986211","0.0-205.0","AZ4MMVSAY9L3X","img_art/29.jpg","0","","","","","","","","","","","","","","","","","","","","","","","","",""
"621","","image-button-response","211","986833","0.0-206.0-0.0","AZ4MMVSAY9L3X","img_art/29.jpg","2","","","","","","","","","","","","","","","","","","","","","","","","",""
"1078","","image-button-response","212","987914","0.0-207.0-0.0","AZ4MMVSAY9L3X","img_art/29.jpg","4","","","","","","","","","","","","","","","","","","","","","","","","",""
"null","","html-keyboard-response","213","989421","0.0-208.0","AZ4MMVSAY9L3X","<p style=""font-size: 48px;"">+</p>","","","","","null","allTrialResponses","1500","1","23","img_art/29.jpg","-7","Looks like junk","Jesse,Devon,Logan,Nicholas,Shawn,Jose","Grabs interest but then confuses me,6,80,20","seems fun, looks like a battle zone,22,400,20","is this supposed to be edgy,-21,360,20","I love this things almost hidden in it like paint brush and other details,50,240,20","Looks muddy and sticky,-31,100,20","I think the grey and red inspire negative feelings but it's not the worst thing.,13,200,20","Jesse","Grabs interest but then confuses me,6,80,20","Logan","is this supposed to be edgy,-21,360,20","Shawn","Looks muddy and sticky,-31,100,20","7"
"6206","","survey-text","214","995635","0.0-209.0-0.0","AZ4MMVSAY9L3X","","","","{""Q0"":""Kid drawing?""}","","","","","","","","","","","","","","","","","","","","","","",""
"2978.4000000059605","","image-slider-response","215","998615","0.0-210.0","AZ4MMVSAY9L3X","","","","","-10","","","","","","","","","","","","","","","","","","","","","",""
"null","","image-button-response","216","1003618","0.0-211.0","AZ4MMVSAY9L3X","img_art/27.jpg","null","","","","","","","","","","","","","","","","","","","","","","","","",""
"2479","","image-button-response","217","1006101","0.0-212.0","AZ4MMVSAY9L3X","img_art/27.jpg","5","","","","","","","","","","","","","","","","","","","","","","","","",""
"681","","image-button-response","218","1006784","0.0-213.0-0.0","AZ4MMVSAY9L3X","img_art/27.jpg","4","","","","","","","","","","","","","","","","","","","","","","","","",""
"717","","image-button-response","219","1007503","0.0-214.0-0.0","AZ4MMVSAY9L3X","img_art/27.jpg","0","","","","","","","","","","","","","","","","","","","","","","","","",""
"null","","html-keyboard-response","220","1008508","0.0-215.0","AZ4MMVSAY9L3X","<p style=""font-size: 48px;"">+</p>","","","","","null","allTrialResponses","1000","1","24","img_art/27.jpg","-10","Kid drawing?","Jesse,Blake,Logan,Jonathan,Shawn,Thomas","Doesnt look like anything to me. Doesnt capture my attention.,-25,80,20","fruity and sweet. warm and juicy,10,280,20","demon vs angel brawl over lemon lime sprite,-10,360,20","Very cool colors and I like the contrast of lights and darks,30,140,20","Like the movement of the lines and dripping paint.,30,100,20","First thought is again, that this looks like a child's art assignment,-20,220,20","Thomas","First thought is again, that this looks like a child's art assignment,-20,220,20","Shawn","Like the movement of the lines and dripping paint.,30,100,20","Jesse","Doesnt look like anything to me. Doesnt capture my attention.,-25,80,20","7"
"5808","","survey-text","221","1014321","0.0-216.0-0.0","AZ4MMVSAY9L3X","","","","{""Q0"":""Too abstract for me""}","","","","","","","","","","","","","","","","","","","","","","",""
"4624.79999999702","","image-slider-response","222","1018948","0.0-217.0","AZ4MMVSAY9L3X","","","","","-6","","","","","","","","","","","","","","","","","","","","","",""
"null","","image-button-response","223","1023965","0.0-218.0","AZ4MMVSAY9L3X","img_art/1.jpg","null","","","","","","","","","","","","","","","","","","","","","","","","",""
"387","","image-button-response","224","1024354","0.0-219.0","AZ4MMVSAY9L3X","img_art/1.jpg","0","","","","","","","","","","","","","","","","","","","","","","","","",""
"1882","","image-button-response","225","1026238","0.0-220.0-0.0","AZ4MMVSAY9L3X","img_art/1.jpg","3","","","","","","","","","","","","","","","","","","","","","","","","",""
"1941","","image-button-response","226","1028181","0.0-221.0-0.0","AZ4MMVSAY9L3X","img_art/1.jpg","5","","","","","","","","","","","","","","","","","","","","","","","","",""
"null","","html-keyboard-response","227","1028683","0.0-222.0","AZ4MMVSAY9L3X","<p style=""font-size: 48px;"">+</p>","","","","","null","allTrialResponses","500","1","25","img_art/1.jpg","-6","Too abstract for me","Jesse,Isaac,Benjamin,Juan,Shawn,Thomas","Im not a fan of the bluriness,-18,80,20","The colors are a little too intense.,1,280,20","Really like all of the colors and how they mesh well.,27,260,20","I don't like how this one makes me feel.,-32,260,20","Powerful colors.,31,100,20","Pleasant, but a tad too monochromatic in some areas for my taste,7,220,20","Jesse","Im not a fan of the bluriness,-18,80,20","Juan","I don't like how this one makes me feel.,-32,260,20","Thomas","Pleasant, but a tad too monochromatic in some areas for my taste,7,220,20","7"
"3669","","survey-text","228","1032374","0.0-223.0-0.0","AZ4MMVSAY9L3X","","","","{""Q0"":""table""}","","","","","","","","","","","","","","","","","","","","","","",""
"8524","","survey-text","229","1040899","0.0-224.0-0.0","AZ4MMVSAY9L3X","","","","{""Q0"":""Seems like something my grandma would have""}","","","","","","","","","","","","","","","","","","","","","","",""
"3786.7000000029802","","image-slider-response","230","1044688","0.0-225.0","AZ4MMVSAY9L3X","","","","","11","","","","","","","","","","","","","","","","","","","","","",""
"3305","","image-button-response","231","1049692","0.0-226.0","AZ4MMVSAY9L3X","img_art/14.jpg","1","","","","","","","","","","","","","","","","","","","","","","","","",""
"2186","","image-button-response","232","1051880","0.0-227.0","AZ4MMVSAY9L3X","img_art/14.jpg","1","","","","","","","","","","","","","","","","","","","","","","","","",""
"1319","","image-button-response","233","1053200","0.0-228.0-0.0","AZ4MMVSAY9L3X","img_art/14.jpg","4","","","","","","","","","","","","","","","","","","","","","","","","",""
"950","","image-button-response","234","1054153","0.0-229.0-0.0","AZ4MMVSAY9L3X","img_art/14.jpg","0","","","","","","","","","","","","","","","","","","","","","","","","",""
"null","","html-keyboard-response","235","1055668","0.0-230.0","AZ4MMVSAY9L3X","<p style=""font-size: 48px;"">+</p>","","","","","null","allTrialResponses","1500","1","26","img_art/14.jpg","11","Seems like something my grandma would have","Jesse,Evan,Jeremy,Juan,Joseph,Thomas","Its cute. Not striking but i would keep it in my home.,10,80,20","I like the sharpness of the lines,20,140,20","It didn't really do anything to excite me.,21,60,20","I don't like the colors, but I espeically don't like all the negative space.,-20,260,20","I like that it looks like plants on a table, which reminds me of life.,4,220,20","I like the colors in the background, but not the bottom/center. It almost looks sloppy.,-20,220,20","Evan","I like the sharpness of the lines,20,140,20","Joseph","I like that it looks like plants on a table, which reminds me of life.,4,220,20","Jesse","Its cute. Not striking but i would keep it in my home.,10,80,20","7"
"5258","","survey-text","236","1060933","0.0-231.0-0.0","AZ4MMVSAY9L3X","","","","{""Q0"":""Reminds me of space""}","","","","","","","","","","","","","","","","","","","","","","",""
"3410.199999988079","","image-slider-response","237","1064345","0.0-232.0","AZ4MMVSAY9L3X","","","","","22","","","","","","","","","","","","","","","","","","","","","",""
"null","","image-button-response","238","1069680","0.0-233.0","AZ4MMVSAY9L3X","img_art/13.jpg","null","","","","","","","","","","","","","","","","","","","","","","","","",""
"8906","","image-button-response","239","1078588","0.0-234.0","AZ4MMVSAY9L3X","img_art/13.jpg","0","","","","","","","","","","","","","","","","","","","","","","","","",""
"1318","","image-button-response","240","1079907","0.0-235.0-0.0","AZ4MMVSAY9L3X","img_art/13.jpg","3","","","","","","","","","","","","","","","","","","","","","","","","",""
"711","","image-button-response","241","1080621","0.0-236.0-0.0","AZ4MMVSAY9L3X","img_art/13.jpg","4","","","","","","","","","","","","","","","","","","","","","","","","",""
"null","","html-keyboard-response","242","1081624","0.0-237.0","AZ4MMVSAY9L3X","<p style=""font-size: 48px;"">+</p>","","","","","null","allTrialResponses","1000","1","27","img_art/13.jpg","22","Reminds me of space","Jesse,Evan,Michael,Anthony,Joseph,Ethan","Really like this. Its like looking out a window into a beautiful storm,39,80,20","It reminds me of looking out the window on a stormy night at cars drive by,21,140,20","I don't car for it but it does seem organized and like it took considereably more skill that others.,9,140,20","I like the color scheme,41,200,20","Pleasing, happy, rainy.,12,220,20","I do not care for the colors in this art. it doesnt go well at all.,-15,120,20","Jesse","Really like this. Its like looking out a window into a beautiful storm,39,80,20","Anthony","I like the color scheme,41,200,20","Joseph","Pleasing, happy, rainy.,12,220,20","7"
"5255","","survey-text","243","1086885","0.0-238.0-0.0","AZ4MMVSAY9L3X","","","","{""Q0"":""looks like a picasso""}","","","","","","","","","","","","","","","","","","","","","","",""
"2740.1000000089407","","image-slider-response","244","1089627","0.0-239.0","AZ4MMVSAY9L3X","","","","","10","","","","","","","","","","","","","","","","","","","","","",""
"null","","image-button-response","245","1094637","0.0-240.0","AZ4MMVSAY9L3X","img_art/3.jpg","null","","","","","","","","","","","","","","","","","","","","","","","","",""
"1183","","image-button-response","246","1095822","0.0-241.0","AZ4MMVSAY9L3X","img_art/3.jpg","4","","","","","","","","","","","","","","","","","","","","","","","","",""
"1544","","image-button-response","247","1097367","0.0-242.0-0.0","AZ4MMVSAY9L3X","img_art/3.jpg","1","","","","","","","","","","","","","","","","","","","","","","","","",""
"403","","image-button-response","248","1097772","0.0-243.0-0.0","AZ4MMVSAY9L3X","img_art/3.jpg","0","","","","","","","","","","","","","","","","","","","","","","","","",""
"null","","html-keyboard-response","249","1098274","0.0-244.0","AZ4MMVSAY9L3X","<p style=""font-size: 48px;"">+</p>","","","","","null","allTrialResponses","500","1","28","img_art/3.jpg","10","looks like a picasso","Jesse,Mark,Samuel,Anthony,Joseph,Colton","No substance or feeling to it,-20,80,20","I don't feel anything, it seems childish.,-25,80,20","confusing taking over,-15,400,20","This looks like something a child created in 5 minutes.,-50,200,20","Really have no idea what I'm looking at.,1,220,20","looks like a kid scribbled with crayon,-35,220,20","Joseph","Really have no idea what I'm looking at.,1,220,20","Mark","I don't feel anything, it seems childish.,-25,80,20","Jesse","No substance or feeling to it,-20,80,20","7"
"10039","","survey-text","250","1108329","0.0-245.0-0.0","AZ4MMVSAY9L3X","","","","{""Q0"":""Looks cool, I like the horse ""}","","","","","","","","","","","","","","","","","","","","","","",""
"2446.4000000059605","","image-slider-response","251","1110777","0.0-246.0","AZ4MMVSAY9L3X","","","","","11","","","","","","","","","","","","","","","","","","","","","",""
"null","","image-button-response","252","1115789","0.0-247.0","AZ4MMVSAY9L3X","img_art/18.jpg","null","","","","","","","","","","","","","","","","","","","","","","","","",""
"1466","","image-button-response","253","1117257","0.0-248.0","AZ4MMVSAY9L3X","img_art/18.jpg","1","","","","","","","","","","","","","","","","","","","","","","","","",""
"1641","","image-button-response","254","1118900","0.0-249.0-0.0","AZ4MMVSAY9L3X","img_art/18.jpg","2","","","","","","","","","","","","","","","","","","","","","","","","",""
"2699","","image-button-response","255","1121601","0.0-250.0-0.0","AZ4MMVSAY9L3X","img_art/18.jpg","3","","","","","","","","","","","","","","","","","","","","","","","","",""
"null","","html-keyboard-response","256","1122603","0.0-251.0","AZ4MMVSAY9L3X","<p style=""font-size: 48px;"">+</p>","","","","","null","allTrialResponses","1000","1","29","img_art/18.jpg","11","Looks cool, I like the horse ","Jesse,Mark,Grant,Angel,Joseph,Alexander","It reminds me of ghosts on a boat. Makes me nervous.,-27,80,20","I see an artistic representation of the riding of last of the four horseman. Its stunning.,45,80,20","This is a very energetic painting, and brings to mind scenes of battle.,50,200,20","Like riding into battle. A sense of confidence, but also trepidation for what's coming. Could be a personification of death.,-10,180,20","It's like a ship, but a freaky ship.,-11,220,20","Ghostly sea adventure.,20,120,20","Mark","I see an artistic representation of the riding of last of the four horseman. Its stunning.,45,80,20","Grant","This is a very energetic painting, and brings to mind scenes of battle.,50,200,20","Angel","Like riding into battle. A sense of confidence, but also trepidation for what's coming. Could be a personification of death.,-10,180,20","7"
"3926","","survey-text","257","1126543","0.0-252.0-0.0","AZ4MMVSAY9L3X","","","","{""Q0"":""okay i guess""}","","","","","","","","","","","","","","","","","","","","","","",""
"2967.2000000029802","","image-slider-response","258","1129512","0.0-253.0","AZ4MMVSAY9L3X","","","","","3","","","","","","","","","","","","","","","","","","","","","",""
"null","","image-button-response","259","1134520","0.0-254.0","AZ4MMVSAY9L3X","img_art/22.jpg","null","","","","","","","","","","","","","","","","","","","","","","","","",""
"802","","image-button-response","260","1135324","0.0-255.0","AZ4MMVSAY9L3X","img_art/22.jpg","1","","","","","","","","","","","","","","","","","","","","","","","","",""
"6569","","image-button-response","261","1141895","0.0-256.0-0.0","AZ4MMVSAY9L3X","img_art/22.jpg","2","","","","","","","","","","","","","","","","","","","","","","","","",""
"2098","","image-button-response","262","1143995","0.0-257.0-0.0","AZ4MMVSAY9L3X","img_art/22.jpg","5","","","","","","","","","","","","","","","","","","","","","","","","",""
"null","","html-keyboard-response","263","1144497","0.0-258.0","AZ4MMVSAY9L3X","<p style=""font-size: 48px;"">+</p>","","","","","null","allTrialResponses","500","1","30","img_art/22.jpg","3","okay i guess","Jason,Mark,Grant,Angel,Jesus,Elijah","Would be better if random black object was not present,11,20,20","I don't feel much of anything.,0,80,20","The way the colors seem to be reflected is a bit mesmerizing.,10,200,20","This piece gives off a cool vibe. Reminds me of being out in the city at night.,20,180,20","Different shapes within the image make it interesting to look at,20,100,20","Makes me feel a bit anxious,6,80,20","Mark","I don't feel much of anything.,0,80,20","Grant","The way the colors seem to be reflected is a bit mesmerizing.,10,200,20","Elijah","Makes me feel a bit anxious,6,80,20","7"
"3512","","image-button-response_instructions","264","1148014","0.0-259.0","AZ4MMVSAY9L3X","","0","instructions","","","","","","","","","","","","","","","","","","","","","","","",""
"946","","image-button-response","265","1148967","0.0-260.0","AZ4MMVSAY9L3X","","0","","","","","","","","","","","","","","","","","","","","","","","","",""
