"rt","url","trial_type","trial_index","time_elapsed","internal_node_id","participant_id","stimulus","button_pressed","Name","responses","response","key_press","variableName","fixationTime","condition","trial","photo","subjectRating","subjectResponse","agentsNames","agent_1_Response","agent_2_Response","agent_3_Response","agent_4_Response","agent_5_Response","agent_6_Response","kept_1_name","kept_1_response","kept_2_name","kept_2_response","kept_3_name","kept_3_response","errorCounter"
"7124","external_page_harvard.html","external-html","0","7217","0.0-0.0","AZ5LPHW1NBB50","","","","","","","","","","","","","","","","","","","","","","","","","","",""
"1411","","image-button-response","1","8633","0.0-1.0","AZ5LPHW1NBB50","","0","","","","","","","","","","","","","","","","","","","","","","","","",""
"1352","","image-button-response","2","9990","0.0-2.0-0.0","AZ5LPHW1NBB50","","1","phone","","","","","","","","","","","","","","","","","","","","","","","",""
"17003","","survey-text","3","26994","0.0-3.0-0.0","AZ5LPHW1NBB50","","","","{""Q0"":""AZ5LPHW1NBB50""}","","","","","","","","","","","","","","","","","","","","","","",""
"4265","","image-button-response_instructions","4","31262","0.0-4.0","AZ5LPHW1NBB50","","0","instructions","","","","","","","","","","","","","","","","","","","","","","","",""
"5635","","image-button-response_instructions","5","36897","0.0-5.0","AZ5LPHW1NBB50","img_art/ins/popularity/ins1.png","0","instructions","","","","","","","","","","","","","","","","","","","","","","","",""
"6397","","image-button-response_instructions","6","43296","0.0-6.0","AZ5LPHW1NBB50","img_art/ins/popularity/ins2.png","0","instructions","","","","","","","","","","","","","","","","","","","","","","","",""
"9527","","image-button-response_instructions","7","52823","0.0-7.0","AZ5LPHW1NBB50","img_art/ins/popularity/ins2Extreme.png","0","instructions","","","","","","","","","","","","","","","","","","","","","","","",""
"942","","image-button-response_instructions","8","53766","0.0-8.0","AZ5LPHW1NBB50","img_art/ins/popularity/ins3KEEPpop.PNG","0","instructions","","","","","","","","","","","","","","","","","","","","","","","",""
"3828","","image-button-response_instructions","9","57595","0.0-9.0","AZ5LPHW1NBB50","img_art/ins/popularity/ins3ANamepop.PNG","0","instructions","","","","","","","","","","","","","","","","","","","","","","","",""
"2182","","image-button-response_instructions","10","59777","0.0-10.0","AZ5LPHW1NBB50","img_art/ins/popularity/ins3ARatingpop.png","0","instructions","","","","","","","","","","","","","","","","","","","","","","","",""
"1557","","image-button-response_instructions","11","61335","0.0-11.0","AZ5LPHW1NBB50","img_art/ins/popularity/ins3ATextpop.png","0","instructions","","","","","","","","","","","","","","","","","","","","","","","",""
"2298","","image-button-response_instructions","12","63634","0.0-12.0","AZ5LPHW1NBB50","img_art/ins/popularity/ins3ALikespop.png","0","instructions","","","","","","","","","","","","","","","","","","","","","","","",""
"10905","","image-button-response_instructions","13","74540","0.0-13.0","AZ5LPHW1NBB50","img_art/ins/popularity/ins3KEEPpop.PNG","0","instructions","","","","","","","","","","","","","","","","","","","","","","","",""
"4854","","image-button-response_instructions","14","79396","0.0-14.0","AZ5LPHW1NBB50","img_art/ins/popularity/ins3_5RED.png","0","instructions","","","","","","","","","","","","","","","","","","","","","","","",""
"5977","","image-button-response_instructions","15","85374","0.0-15.0","AZ5LPHW1NBB50","img_art/ins/popularity/ins3KEEPpop.PNG","0","instructions","","","","","","","","","","","","","","","","","","","","","","","",""
"9467","","image-button-response_instructions","16","94841","0.0-16.0","AZ5LPHW1NBB50","img_art/ins/popularity/ins4KEEPpop.PNG","0","instructions","","","","","","","","","","","","","","","","","","","","","","","",""
"3751","","image-button-response_instructions","17","98594","0.0-17.0","AZ5LPHW1NBB50","img_art/ins/popularity/ins5KEEPpop.PNG","0","instructions","","","","","","","","","","","","","","","","","","","","","","","",""
"1516","","image-button-response_instructions","18","100111","0.0-18.0","AZ5LPHW1NBB50","","0","instructions","","","","","","","","","","","","","","","","","","","","","","","",""
"4844","","survey-text","19","104981","0.0-19.0-0.0","AZ5LPHW1NBB50","","","","{""Q0"":""but""}","","","","","","","","","","","","","","","","","","","","","","",""
"11470","","survey-text","20","116454","0.0-20.0-0.0","AZ5LPHW1NBB50","","","","{""Q0"":""It is wave-like, and calming""}","","","","","","","","","","","","","","","","","","","","","","",""
"3382.9999999999854","","image-slider-response","21","119838","0.0-21.0","AZ5LPHW1NBB50","","","","","10","","","","","","","","","","","","","","","","","","","","","",""
"4035","","image-button-response","22","124840","0.0-22.0","AZ5LPHW1NBB50","img_art/ins/1.jpg","3","","","","","","","","","","","","","","","","","","","","","","","","",""
"936","","image-button-response","23","125777","0.0-23.0","AZ5LPHW1NBB50","img_art/ins/1.jpg","3","","","","","","","","","","","","","","","","","","","","","","","","",""
"6050","","image-button-response","24","131829","0.0-24.0-0.0","AZ5LPHW1NBB50","img_art/ins/1.jpg","0","","","","","","","","","","","","","","","","","","","","","","","","",""
"482","","image-button-response","25","132313","0.0-25.0-0.0","AZ5LPHW1NBB50","img_art/ins/1.jpg","1","","","","","","","","","","","","","","","","","","","","","","","","",""
"null","","html-keyboard-response","26","133815","0.0-26.0","AZ5LPHW1NBB50","<p style=""font-size: 48px;"">+</p>","","","","","null","allTrialResponses","1500","1","-2","img_art/ins/1.jpg","10","It is wave-like, and calming","Adam,Alex,Ben,Carl,Daniel,Jack","Seems like doodles,-20,20,20","very creative work.,36,40,20","This color reminds me of poo,-46,60,20","very calming artwork,42,80,20","It looks like a murder scene.,-48,100,20","I like the sophisticated brushwork,40,120,20","Carl","very calming artwork,42,80,20","Adam","Seems like doodles,-20,20,20","Alex","very creative work.,36,40,20","0"
"10633","","survey-text","27","144453","0.0-27.0-0.0","AZ5LPHW1NBB50","","","","{""Q0"":""Very structured in colors. ""}","","","","","","","","","","","","","","","","","","","","","","",""
"4182.000000000029","","image-slider-response","28","148638","0.0-28.0","AZ5LPHW1NBB50","","","","","37","","","","","","","","","","","","","","","","","","","","","",""
"3941","","image-button-response","29","153641","0.0-29.0","AZ5LPHW1NBB50","img_art/ins/2.jpg","3","","","","","","","","","","","","","","","","","","","","","","","","",""
"1096","","image-button-response","30","154738","0.0-30.0","AZ5LPHW1NBB50","img_art/ins/2.jpg","3","","","","","","","","","","","","","","","","","","","","","","","","",""
"2097","","image-button-response","31","156838","0.0-31.0-0.0","AZ5LPHW1NBB50","img_art/ins/2.jpg","4","","","","","","","","","","","","","","","","","","","","","","","","",""
"3022","","image-button-response","32","159863","0.0-32.0-0.0","AZ5LPHW1NBB50","img_art/ins/2.jpg","1","","","","","","","","","","","","","","","","","","","","","","","","",""
"null","","html-keyboard-response","33","160865","0.0-33.0","AZ5LPHW1NBB50","<p style=""font-size: 48px;"">+</p>","","","","","null","allTrialResponses","1000","1","-1","img_art/ins/2.jpg","37","Very structured in colors. ","Adam,Alex,James,Carl,John,Kyle","too much color,-18,20,20","I like the blocks of color arrangements,30,40,20","looks too angry,-50,140,20","I can feel the artist's passion in it,45,80,20","love the texture of paint,48,160,20","Idk, it is just annoying,-32,180,20","Carl","I can feel the artist's passion in it,45,80,20","John","love the texture of paint,48,160,20","Alex","I like the blocks of color arrangements,30,40,20","0"
"11117","","survey-text","34","171987","0.0-34.0-0.0","AZ5LPHW1NBB50","","","","{""Q0"":""Looks icy and cool.""}","","","","","","","","","","","","","","","","","","","","","","",""
"3001","","image-slider-response","35","174990","0.0-35.0","AZ5LPHW1NBB50","","","","","17","","","","","","","","","","","","","","","","","","","","","",""
"4827","","image-button-response","36","179993","0.0-36.0","AZ5LPHW1NBB50","img_art/ins/3.jpg","3","","","","","","","","","","","","","","","","","","","","","","","","",""
"1063","","image-button-response","37","181056","0.0-37.0","AZ5LPHW1NBB50","img_art/ins/3.jpg","3","","","","","","","","","","","","","","","","","","","","","","","","",""
"704","","image-button-response","38","181761","0.0-38.0-0.0","AZ5LPHW1NBB50","img_art/ins/3.jpg","4","","","","","","","","","","","","","","","","","","","","","","","","",""
"229","","image-button-response","39","181991","0.0-39.0-0.0","AZ5LPHW1NBB50","img_art/ins/3.jpg","4","","","","","","","","","","","","","","","","","","","","","","","","",""
"3143","","image-button-response","40","188518","0.0-39.1-0.1","AZ5LPHW1NBB50","img_art/ins/3.jpg","1","","","","","","","","","","","","","","","","","","","","","","","","",""
"null","","html-keyboard-response","41","190020","0.0-40.0","AZ5LPHW1NBB50","<p style=""font-size: 48px;"">+</p>","","","","","null","allTrialResponses","1500","1","0","img_art/ins/3.jpg","17","Looks icy and cool.","Mike,Alex,Ron,Carl,John,Sam","enjoy the different shades of blue,22,200,20","calming blue is very nice,36,40,20","It looks depressing,-26,220,20","It's an alright work,15,80,20","I like the overlapping of brushes,41,160,20","I can feel a rainy day from this painting,18,240,20","Carl","It's an alright work,15,80,20","John","I like the overlapping of brushes,41,160,20","Alex","calming blue is very nice,36,40,20","2"
"4101","","image-button-response_instructions","42","194127","0.0-41.0","AZ5LPHW1NBB50","","0","instructions","","","","","","","","","","","","","","","","","","","","","","","",""
"8876","","survey-likert","43","203004","0.0-42.0-0.0","AZ5LPHW1NBB50","","","","{""Q0"":"""",""Q1"":0,""Q2"":0}","","","","","","","","","","","","","","","","","","","","","","",""
"3194","","survey-likert","44","208449","0.0-42.1-0.1","AZ5LPHW1NBB50","","","","{""Q0"":"""",""Q1"":0,""Q2"":1}","","","","","","","","","","","","","","","","","","","","","","",""
"3010","","survey-text","45","211464","0.0-43.0-0.0","AZ5LPHW1NBB50","","","","{""Q0"":""rock""}","","","","","","","","","","","","","","","","","","","","","","",""
"11846","","survey-text","46","223311","0.0-44.0-0.0","AZ5LPHW1NBB50","","","","{""Q0"":""Seems a little crazy, not for me""}","","","","","","","","","","","","","","","","","","","","","","",""
"4174","","image-slider-response","47","227487","0.0-45.0","AZ5LPHW1NBB50","","","","","-11","","","","","","","","","","","","","","","","","","","","","",""
"4985","","image-button-response","48","232512","0.0-46.0","AZ5LPHW1NBB50","img_art/16.jpg","1","","","","","","","","","","","","","","","","","","","","","","","","",""
"1983","","image-button-response","49","234497","0.0-47.0","AZ5LPHW1NBB50","img_art/16.jpg","2","","","","","","","","","","","","","","","","","","","","","","","","",""
"3131","","image-button-response","50","237629","0.0-48.0-0.0","AZ5LPHW1NBB50","img_art/16.jpg","5","","","","","","","","","","","","","","","","","","","","","","","","",""
"1926","","image-button-response","51","239556","0.0-49.0-0.0","AZ5LPHW1NBB50","img_art/16.jpg","4","","","","","","","","","","","","","","","","","","","","","","","","",""
"null","","html-keyboard-response","52","240059","0.0-50.0","AZ5LPHW1NBB50","<p style=""font-size: 48px;"">+</p>","","","","","null","allTrialResponses","500","1","1","img_art/16.jpg","-11","Seems a little crazy, not for me","Taylor,Alejandro,Adrian,Richard,Mark,Austin","It is sick to put a teddy bear and a gun on the same piece of canvas.,-40,200,20","Garble and nonsense,-50,80,20","It's depressing. Probably achieved its goal. But I wouldn't want it hanging in my home.,-31,60,20","nonsense art, not really art,-44,340,20","I think it's about child abuse. The teddy bear represents innocence and the dark shape is approaching it.,40,80,20","Picture seems unique,12,240,20","Adrian","It's depressing. Probably achieved its goal. But I wouldn't want it hanging in my home.,-31,60,20","Austin","Picture seems unique,12,240,20","Mark","I think it's about child abuse. The teddy bear represents innocence and the dark shape is approaching it.,40,80,20","3"
"14485","","survey-text","53","254550","0.0-51.0-0.0","AZ5LPHW1NBB50","","","","{""Q0"":""The green and black seem ominous.""}","","","","","","","","","","","","","","","","","","","","","","",""
"5442.000000000058","","image-slider-response","54","259993","0.0-52.0","AZ5LPHW1NBB50","","","","","9","","","","","","","","","","","","","","","","","","","","","",""
"1776","","image-button-response","55","265011","0.0-53.0","AZ5LPHW1NBB50","img_art/25.jpg","0","","","","","","","","","","","","","","","","","","","","","","","","",""
"275","","image-button-response","56","265288","0.0-54.0","AZ5LPHW1NBB50","img_art/25.jpg","0","","","","","","","","","","","","","","","","","","","","","","","","",""
"2894","","image-button-response","57","268183","0.0-55.0-0.0","AZ5LPHW1NBB50","img_art/25.jpg","3","","","","","","","","","","","","","","","","","","","","","","","","",""
"1057","","image-button-response","58","269244","0.0-56.0-0.0","AZ5LPHW1NBB50","img_art/25.jpg","4","","","","","","","","","","","","","","","","","","","","","","","","",""
"null","","html-keyboard-response","59","269746","0.0-57.0","AZ5LPHW1NBB50","<p style=""font-size: 48px;"">+</p>","","","","","null","allTrialResponses","500","1","2","img_art/25.jpg","9","The green and black seem ominous.","Dalton,Thomas,Adrian,Evan,Mark,Austin","This reminds me of royalty and servants.,32,300,20","I like the design but the brightness of the color feels almost blinding to me.,-3,220,20","This piece makes me think of oppression and fighting it. Makes me feel calm, sad and strong.,11,60,20","I really like the green and the fact that it is tattered on the edges,23,140,20","Looks like Burning Man, dont care for the colors.,-5,80,20","Love the color hues and the texture it creates,50,240,20","Dalton","This reminds me of royalty and servants.,32,300,20","Evan","I really like the green and the fact that it is tattered on the edges,23,140,20","Mark","Looks like Burning Man, dont care for the colors.,-5,80,20","3"
"12468","","survey-text","60","282220","0.0-58.0-0.0","AZ5LPHW1NBB50","","","","{""Q0"":""I am a little confused about this one.""}","","","","","","","","","","","","","","","","","","","","","","",""
"3610","","image-slider-response","61","285831","0.0-59.0","AZ5LPHW1NBB50","","","","","-11","","","","","","","","","","","","","","","","","","","","","",""
"3310","","image-button-response","62","290834","0.0-60.0","AZ5LPHW1NBB50","img_art/5.jpg","0","","","","","","","","","","","","","","","","","","","","","","","","",""
"619","","image-button-response","63","291455","0.0-61.0","AZ5LPHW1NBB50","img_art/5.jpg","1","","","","","","","","","","","","","","","","","","","","","","","","",""
"4980","","image-button-response","64","296436","0.0-62.0-0.0","AZ5LPHW1NBB50","img_art/5.jpg","3","","","","","","","","","","","","","","","","","","","","","","","","",""
"1777","","image-button-response","65","298216","0.0-63.0-0.0","AZ5LPHW1NBB50","img_art/5.jpg","5","","","","","","","","","","","","","","","","","","","","","","","","",""
"null","","html-keyboard-response","66","299219","0.0-64.0","AZ5LPHW1NBB50","<p style=""font-size: 48px;"">+</p>","","","","","null","allTrialResponses","1000","1","3","img_art/5.jpg","-11","I am a little confused about this one.","Dalton,Brian,Shane,Evan,Mark,Nicholas","its something. i just dont know what it is.,1,300,20","I like this one but wish it had more context around it,18,380,20","Seems clean and neat,11,80,20","I am confused as to what I am seeing is it a handbag, duck foot, bell?,-18,140,20","Perfume bottle, reminds of fancy nights out.,11,80,20","I cant explain why i like this so much but it really calls out to me,50,240,20","Brian","I like this one but wish it had more context around it,18,380,20","Evan","I am confused as to what I am seeing is it a handbag, duck foot, bell?,-18,140,20","Nicholas","I cant explain why i like this so much but it really calls out to me,50,240,20","3"
"15495","","survey-text","67","314719","0.0-65.0-0.0","AZ5LPHW1NBB50","","","","{""Q0"":""It seems chaotic, but a controlled chaos.""}","","","","","","","","","","","","","","","","","","","","","","",""
"3228.999999999942","","image-slider-response","68","317949","0.0-66.0","AZ5LPHW1NBB50","","","","","11","","","","","","","","","","","","","","","","","","","","","",""
"4725","","image-button-response","69","322956","0.0-67.0","AZ5LPHW1NBB50","img_art/17.jpg","0","","","","","","","","","","","","","","","","","","","","","","","","",""
"1675","","image-button-response","70","324632","0.0-68.0","AZ5LPHW1NBB50","img_art/17.jpg","0","","","","","","","","","","","","","","","","","","","","","","","","",""
"2228","","image-button-response","71","326861","0.0-69.0-0.0","AZ5LPHW1NBB50","img_art/17.jpg","2","","","","","","","","","","","","","","","","","","","","","","","","",""
"1935","","image-button-response","72","328797","0.0-70.0-0.0","AZ5LPHW1NBB50","img_art/17.jpg","5","","","","","","","","","","","","","","","","","","","","","","","","",""
"null","","html-keyboard-response","73","330301","0.0-71.0","AZ5LPHW1NBB50","<p style=""font-size: 48px;"">+</p>","","","","","null","allTrialResponses","1500","1","4","img_art/17.jpg","11","It seems chaotic, but a controlled chaos.","Jack,Brian,Juan,Evan,Brendan,Nicholas","stunning. makes me feel happy, hopeful, serene, and a little wistful.,50,320,20","I'm not into paintings of trees,-18,380,20","I want to know more about this picture and where it leads if you could get inside it.,27,260,20","This reminds me of spring,24,140,20","colorful tree really cool,27,340,20","Nice colors, shapes, flow,31,240,20","Jack","stunning. makes me feel happy, hopeful, serene, and a little wistful.,50,320,20","Juan","I want to know more about this picture and where it leads if you could get inside it.,27,260,20","Nicholas","Nice colors, shapes, flow,31,240,20","3"
"13182","","survey-text","74","343488","0.0-72.0-0.0","AZ5LPHW1NBB50","","","","{""Q0"":""This reminds me of music, interesting.""}","","","","","","","","","","","","","","","","","","","","","","",""
"2427","","image-slider-response","75","345917","0.0-73.0","AZ5LPHW1NBB50","","","","","7","","","","","","","","","","","","","","","","","","","","","",""
"null","","image-button-response","76","350920","0.0-74.0","AZ5LPHW1NBB50","img_art/10.jpg","null","","","","","","","","","","","","","","","","","","","","","","","","",""
"1077","","image-button-response","77","352001","0.0-75.0","AZ5LPHW1NBB50","img_art/10.jpg","5","","","","","","","","","","","","","","","","","","","","","","","","",""
"1416","","image-button-response","78","353419","0.0-76.0-0.0","AZ5LPHW1NBB50","img_art/10.jpg","2","","","","","","","","","","","","","","","","","","","","","","","","",""
"1055","","image-button-response","79","354477","0.0-77.0-0.0","AZ5LPHW1NBB50","img_art/10.jpg","1","","","","","","","","","","","","","","","","","","","","","","","","",""
"null","","html-keyboard-response","80","354980","0.0-78.0","AZ5LPHW1NBB50","<p style=""font-size: 48px;"">+</p>","","","","","null","allTrialResponses","500","1","5","img_art/10.jpg","7","This reminds me of music, interesting.","Jack,Cole,Juan,Noah,Carlos,Nicholas","this piece is okay. I wish it was more colorful, but it is certainly intriguing.,23,320,20","It confuses me. I dont know whats going on,14,200,20","It's interesting and my eyes keep being drawn to different parts of the picture.,11,260,20","not sure what to make of this one,0,260,20","The colors and shapes are soothing but also disconcerting.,21,80,20","I like it but do not love it. It is sort of depressing,13,240,20","Nicholas","I like it but do not love it. It is sort of depressing,13,240,20","Juan","It's interesting and my eyes keep being drawn to different parts of the picture.,11,260,20","Cole","It confuses me. I dont know whats going on,14,200,20","3"
"5084","","survey-text","81","360075","0.0-79.0-0.0","AZ5LPHW1NBB50","","","","{""Q0"":""sky""}","","","","","","","","","","","","","","","","","","","","","","",""
"17962","","survey-text","82","378038","0.0-80.0-0.0","AZ5LPHW1NBB50","","","","{""Q0"":""I like all of the different things going on on this painting.""}","","","","","","","","","","","","","","","","","","","","","","",""
"2146.000000000058","","image-slider-response","83","380185","0.0-81.0","AZ5LPHW1NBB50","","","","","14","","","","","","","","","","","","","","","","","","","","","",""
"1749","","image-button-response","84","385187","0.0-82.0","AZ5LPHW1NBB50","img_art/8.jpg","3","","","","","","","","","","","","","","","","","","","","","","","","",""
"444","","image-button-response","85","385632","0.0-83.0","AZ5LPHW1NBB50","img_art/8.jpg","4","","","","","","","","","","","","","","","","","","","","","","","","",""
"1450","","image-button-response","86","387084","0.0-84.0-0.0","AZ5LPHW1NBB50","img_art/8.jpg","5","","","","","","","","","","","","","","","","","","","","","","","","",""
"2255","","image-button-response","87","389340","0.0-85.0-0.0","AZ5LPHW1NBB50","img_art/8.jpg","1","","","","","","","","","","","","","","","","","","","","","","","","",""
"null","","html-keyboard-response","88","389843","0.0-86.0","AZ5LPHW1NBB50","<p style=""font-size: 48px;"">+</p>","","","","","null","allTrialResponses","500","1","6","img_art/8.jpg","14","I like all of the different things going on on this painting.","Isaiah,Cole,Juan,Luke,John,Nicholas","It makes me feel nervous. I can't tell ifI'm looking at an apartment, or a hellscape.,-18,300,20","Its abstract and interesting,24,200,20","I don't like the negative emotion this picture makes me feel. It's also too abstract.,-30,260,20","It is very colorful with a deeper meaning,25,20,20","I like how the more you like at it there are more things to discover.Very creative.,33,120,20","The face bothers me,-25,240,20","John","I like how the more you like at it there are more things to discover.Very creative.,33,120,20","Nicholas","The face bothers me,-25,240,20","Cole","Its abstract and interesting,24,200,20","3"
"18974","","survey-text","89","408823","0.0-87.0-0.0","AZ5LPHW1NBB50","","","","{""Q0"":""I wish this had more to it, a little difficult to find meaning ""}","","","","","","","","","","","","","","","","","","","","","","",""
"2889","","image-slider-response","90","411713","0.0-88.0","AZ5LPHW1NBB50","","","","","-9","","","","","","","","","","","","","","","","","","","","","",""
"1471","","image-button-response","91","416719","0.0-89.0","AZ5LPHW1NBB50","img_art/27.jpg","1","","","","","","","","","","","","","","","","","","","","","","","","",""
"680","","image-button-response","92","417400","0.0-90.0","AZ5LPHW1NBB50","img_art/27.jpg","1","","","","","","","","","","","","","","","","","","","","","","","","",""
"6854","","image-button-response","93","424255","0.0-91.0-0.0","AZ5LPHW1NBB50","img_art/27.jpg","4","","","","","","","","","","","","","","","","","","","","","","","","",""
"1295","","image-button-response","94","425552","0.0-92.0-0.0","AZ5LPHW1NBB50","img_art/27.jpg","3","","","","","","","","","","","","","","","","","","","","","","","","",""
"null","","html-keyboard-response","95","426054","0.0-93.0","AZ5LPHW1NBB50","<p style=""font-size: 48px;"">+</p>","","","","","null","allTrialResponses","500","1","7","img_art/27.jpg","-9","I wish this had more to it, a little difficult to find meaning ","Dylan,Cole,Devon,Mitchell,John,Nicholas","This is ugly and looks like a child did this,-36,40,20","Unfinished something?,-30,200,20","this reminds me of simpler time,31,400,20","Angelic, childlike. happiness but also with sadness.,40,180,20","Looks as if a toddler painted it,-20,120,20","I like all it has going but i wouldnt put it in my house unless my child did it,25,240,20","Cole","Unfinished something?,-30,200,20","John","Looks as if a toddler painted it,-20,120,20","Mitchell","Angelic, childlike. happiness but also with sadness.,40,180,20","3"
"14313","","survey-text","96","440373","0.0-94.0-0.0","AZ5LPHW1NBB50","","","","{""Q0"":""Looks good, but too blended for my liking.""}","","","","","","","","","","","","","","","","","","","","","","",""
"2601","","image-slider-response","97","442975","0.0-95.0","AZ5LPHW1NBB50","","","","","-11","","","","","","","","","","","","","","","","","","","","","",""
"1603","","image-button-response","98","447978","0.0-96.0","AZ5LPHW1NBB50","img_art/22.jpg","0","","","","","","","","","","","","","","","","","","","","","","","","",""
"1463","","image-button-response","99","449442","0.0-97.0","AZ5LPHW1NBB50","img_art/22.jpg","0","","","","","","","","","","","","","","","","","","","","","","","","",""
"1813","","image-button-response","100","451256","0.0-98.0-0.0","AZ5LPHW1NBB50","img_art/22.jpg","3","","","","","","","","","","","","","","","","","","","","","","","","",""
"1433","","image-button-response","101","452690","0.0-99.0-0.0","AZ5LPHW1NBB50","img_art/22.jpg","4","","","","","","","","","","","","","","","","","","","","","","","","",""
"null","","html-keyboard-response","102","453693","0.0-100.0","AZ5LPHW1NBB50","<p style=""font-size: 48px;"">+</p>","","","","","null","allTrialResponses","1000","1","8","img_art/22.jpg","-11","Looks good, but too blended for my liking.","Adam,Cole,Devin,Mitchell,John,Seth","Very generic mix of primary colors and shapes. Not a huge fan.,-10,40,20","Bright colors feel warm,22,200,20","I really like the colors here,3,380,20","Scary monsters lurking causing confusion.,-40,180,20","Its okay,it doesnt make me feel any sort of strong emotion,1,120,20","I think the colors are beautiful they remind me of a sunset.,13,60,20","Adam","Very generic mix of primary colors and shapes. Not a huge fan.,-10,40,20","Mitchell","Scary monsters lurking causing confusion.,-40,180,20","John","Its okay,it doesnt make me feel any sort of strong emotion,1,120,20","3"
"10709","","survey-text","103","464407","0.0-101.0-0.0","AZ5LPHW1NBB50","","","","{""Q0"":""I like the red strokes, very vivid.""}","","","","","","","","","","","","","","","","","","","","","","",""
"2871","","image-slider-response","104","467279","0.0-102.0","AZ5LPHW1NBB50","","","","","20","","","","","","","","","","","","","","","","","","","","","",""
"1922","","image-button-response","105","472285","0.0-103.0","AZ5LPHW1NBB50","img_art/30.jpg","3","","","","","","","","","","","","","","","","","","","","","","","","",""
"2291","","image-button-response","106","474578","0.0-104.0","AZ5LPHW1NBB50","img_art/30.jpg","3","","","","","","","","","","","","","","","","","","","","","","","","",""
"11774","","image-button-response","107","486354","0.0-105.0-0.0","AZ5LPHW1NBB50","img_art/30.jpg","5","","","","","","","","","","","","","","","","","","","","","","","","",""
"1762","","image-button-response","108","488117","0.0-106.0-0.0","AZ5LPHW1NBB50","img_art/30.jpg","1","","","","","","","","","","","","","","","","","","","","","","","","",""
"null","","html-keyboard-response","109","489120","0.0-107.0","AZ5LPHW1NBB50","<p style=""font-size: 48px;"">+</p>","","","","","null","allTrialResponses","1000","1","9","img_art/30.jpg","20","I like the red strokes, very vivid.","Adam,Victor,Robert,Mitchell,John,Stephen","Dislike the contrast here.,-5,40,20","I just don't see the point of this piece,-11,340,20","My kindergarten class could do this,-50,360,20","connection, Everything is connected even in contrast.,42,180,20","ugly nasty colors,-10,120,20","A bit too dark for my liking,-10,140,20","Mitchell","connection, Everything is connected even in contrast.,42,180,20","Stephen","A bit too dark for my liking,-10,140,20","Victor","I just don't see the point of this piece,-11,340,20","3"
"25185","","survey-text","110","514310","0.0-108.0-0.0","AZ5LPHW1NBB50","","","","{""Q0"":""Almost seems like a cityscape very alluring""}","","","","","","","","","","","","","","","","","","","","","","",""
"2001.9999999999418","","image-slider-response","111","516313","0.0-109.0","AZ5LPHW1NBB50","","","","","24","","","","","","","","","","","","","","","","","","","","","",""
"3649","","image-button-response","112","521315","0.0-110.0","AZ5LPHW1NBB50","img_art/11.jpg","0","","","","","","","","","","","","","","","","","","","","","","","","",""
"178","","image-button-response","113","521493","0.0-111.0","AZ5LPHW1NBB50","img_art/11.jpg","1","","","","","","","","","","","","","","","","","","","","","","","","",""
"2287","","image-button-response","114","523782","0.0-112.0-0.0","AZ5LPHW1NBB50","img_art/11.jpg","2","","","","","","","","","","","","","","","","","","","","","","","","",""
"1852","","image-button-response","115","525635","0.0-113.0-0.0","AZ5LPHW1NBB50","img_art/11.jpg","5","","","","","","","","","","","","","","","","","","","","","","","","",""
"null","","html-keyboard-response","116","527138","0.0-114.0","AZ5LPHW1NBB50","<p style=""font-size: 48px;"">+</p>","","","","","null","allTrialResponses","1500","1","10","img_art/11.jpg","24","Almost seems like a cityscape very alluring","Garrett,Victor,Derek,Mitchell,Bryce,Stephen","This looks like a bridge that has plenty of color.,10,180,20","Love the colors against the black and gray. The lines are calming.,22,340,20","There's a lot going on in this painting but it is pleasing and neat looking,31,360,20","Busy city life. transportation, anxiety.,10,180,20","Scary again. Not a fan.,-23,20,20","Very good use of colors,44,140,20","Victor","Love the colors against the black and gray. The lines are calming.,22,340,20","Derek","There's a lot going on in this painting but it is pleasing and neat looking,31,360,20","Stephen","Very good use of colors,44,140,20","3"
"8330","","survey-text","117","535477","0.0-115.0-0.0","AZ5LPHW1NBB50","","","","{""Q0"":""our""}","","","","","","","","","","","","","","","","","","","","","","",""
"20079","","survey-text","118","555557","0.0-116.0-0.0","AZ5LPHW1NBB50","","","","{""Q0"":""I like that the vapor seems more tangible through the paint""}","","","","","","","","","","","","","","","","","","","","","","",""
"2780","","image-slider-response","119","558339","0.0-117.0","AZ5LPHW1NBB50","","","","","13","","","","","","","","","","","","","","","","","","","","","",""
"null","","image-button-response","120","563340","0.0-118.0","AZ5LPHW1NBB50","img_art/4.jpg","null","","","","","","","","","","","","","","","","","","","","","","","","",""
"979","","image-button-response","121","564320","0.0-119.0","AZ5LPHW1NBB50","img_art/4.jpg","0","","","","","","","","","","","","","","","","","","","","","","","","",""
"1148","","image-button-response","122","565469","0.0-120.0-0.0","AZ5LPHW1NBB50","img_art/4.jpg","1","","","","","","","","","","","","","","","","","","","","","","","","",""
"745","","image-button-response","123","566216","0.0-121.0-0.0","AZ5LPHW1NBB50","img_art/4.jpg","2","","","","","","","","","","","","","","","","","","","","","","","","",""
"null","","html-keyboard-response","124","567217","0.0-122.0","AZ5LPHW1NBB50","<p style=""font-size: 48px;"">+</p>","","","","","null","allTrialResponses","1000","1","11","img_art/4.jpg","13","I like that the vapor seems more tangible through the paint","Jason,Victor,Derek,Nathan,William,Stephen","I don't understand this at all,3,20,20","Hate the color, and just do not get the point.,-13,340,20","A bit too plain for my tastes,-10,360,20","Not my preference when it comes to art styles or subjects,-10,200,20","dont like the colors,-31,380,20","Just doesn't look nice.,-40,140,20","Jason","I don't understand this at all,3,20,20","Victor","Hate the color, and just do not get the point.,-13,340,20","Derek","A bit too plain for my tastes,-10,360,20","3"
"19670","","survey-text","125","586893","0.0-123.0-0.0","AZ5LPHW1NBB50","","","","{""Q0"":""I really like the colors here, but don't understand it too well.""}","","","","","","","","","","","","","","","","","","","","","","",""
"2541","","image-slider-response","126","589435","0.0-124.0","AZ5LPHW1NBB50","","","","","19","","","","","","","","","","","","","","","","","","","","","",""
"3721","","image-button-response","127","594436","0.0-125.0","AZ5LPHW1NBB50","img_art/24.jpg","3","","","","","","","","","","","","","","","","","","","","","","","","",""
"444","","image-button-response","128","594881","0.0-126.0","AZ5LPHW1NBB50","img_art/24.jpg","4","","","","","","","","","","","","","","","","","","","","","","","","",""
"1607","","image-button-response","129","596489","0.0-127.0-0.0","AZ5LPHW1NBB50","img_art/24.jpg","5","","","","","","","","","","","","","","","","","","","","","","","","",""
"4083","","image-button-response","130","600573","0.0-128.0-0.0","AZ5LPHW1NBB50","img_art/24.jpg","2","","","","","","","","","","","","","","","","","","","","","","","","",""
"null","","html-keyboard-response","131","601576","0.0-129.0","AZ5LPHW1NBB50","<p style=""font-size: 48px;"">+</p>","","","","","null","allTrialResponses","1000","1","12","img_art/24.jpg","19","I really like the colors here, but don't understand it too well.","Jason,Victor,Derek,Michael,Caleb,Timothy","I like the bright colors,16,20,20","I don't even know. It's just kind of meh,1,340,20","I absolutely adore this painting. The colors, designs, everything. It's phenomenal,50,360,20","It's not super high uality  but there is some skill and talent in it I see.,15,140,20","This is gorgeous. Strong, saturated colors and clear meaning.,50,40,20","Earthy wonderful, love everything about it,50,240,20","Caleb","This is gorgeous. Strong, saturated colors and clear meaning.,50,40,20","Timothy","Earthy wonderful, love everything about it,50,240,20","Derek","I absolutely adore this painting. The colors, designs, everything. It's phenomenal,50,360,20","3"
"9860","","survey-text","132","611441","0.0-130.0-0.0","AZ5LPHW1NBB50","","","","{""Q0"":""It looks unfinished""}","","","","","","","","","","","","","","","","","","","","","","",""
"2179","","image-slider-response","133","613622","0.0-131.0","AZ5LPHW1NBB50","","","","","-5","","","","","","","","","","","","","","","","","","","","","",""
"2990","","image-button-response","134","618625","0.0-132.0","AZ5LPHW1NBB50","img_art/14.jpg","1","","","","","","","","","","","","","","","","","","","","","","","","",""
"708","","image-button-response","135","619334","0.0-133.0","AZ5LPHW1NBB50","img_art/14.jpg","4","","","","","","","","","","","","","","","","","","","","","","","","",""
"1526","","image-button-response","136","620860","0.0-134.0-0.0","AZ5LPHW1NBB50","img_art/14.jpg","1","","","","","","","","","","","","","","","","","","","","","","","","",""
"662","","image-button-response","137","621524","0.0-135.0-0.0","AZ5LPHW1NBB50","img_art/14.jpg","0","","","","","","","","","","","","","","","","","","","","","","","","",""
"null","","html-keyboard-response","138","622026","0.0-136.0","AZ5LPHW1NBB50","<p style=""font-size: 48px;"">+</p>","","","","","null","allTrialResponses","500","1","13","img_art/14.jpg","-5","It looks unfinished","Joshua,Grant,Derek,Paul,Caleb,Timothy","This doesn't speak to me on an emotional level,-6,240,20","This elicits no reaction in me.,0,200,20","Very abstract and colorful,40,360,20","Just don't like it, maybe it's the bleeding colors on the left of the tree-looking thing in the center or the faded background,-10,300,20","Again. This is pretty neutral, leaning dislike.,-18,40,20","Something about the cahotic imagery makes me uncomfortable,-15,240,20","Caleb","Again. This is pretty neutral, leaning dislike.,-18,40,20","Grant","This elicits no reaction in me.,0,200,20","Joshua","This doesn't speak to me on an emotional level,-6,240,20","3"
"17091","","survey-text","139","639122","0.0-137.0-0.0","AZ5LPHW1NBB50","","","","{""Q0"":""This is interesting, almost like a birds eye view of the ground ""}","","","","","","","","","","","","","","","","","","","","","","",""
"2132.9999999998836","","image-slider-response","140","641256","0.0-138.0","AZ5LPHW1NBB50","","","","","15","","","","","","","","","","","","","","","","","","","","","",""
"1889","","image-button-response","141","646259","0.0-139.0","AZ5LPHW1NBB50","img_art/7.jpg","0","","","","","","","","","","","","","","","","","","","","","","","","",""
"1240","","image-button-response","142","647500","0.0-140.0","AZ5LPHW1NBB50","img_art/7.jpg","0","","","","","","","","","","","","","","","","","","","","","","","","",""
"1417","","image-button-response","143","648919","0.0-141.0-0.0","AZ5LPHW1NBB50","img_art/7.jpg","4","","","","","","","","","","","","","","","","","","","","","","","","",""
"1082","","image-button-response","144","650003","0.0-142.0-0.0","AZ5LPHW1NBB50","img_art/7.jpg","5","","","","","","","","","","","","","","","","","","","","","","","","",""
"null","","html-keyboard-response","145","651005","0.0-143.0","AZ5LPHW1NBB50","<p style=""font-size: 48px;"">+</p>","","","","","null","allTrialResponses","1000","1","14","img_art/7.jpg","15","This is interesting, almost like a birds eye view of the ground ","Joshua,Grant,Ian,Tristan,Caleb,Zachary","Looks almost like a photograph of nature.,11,240,20","This elicits no reaction in me.,0,200,20","This looks like a literal picture of the ground so I'm really not too sure about this one.,-42,260,20","Limited emotional reaction for me. No focus and highly abstract,-20,300,20","More saturated color, even more interpretations to have.,44,40,20","Looks like a desert or another planet. While the color choices are narrow, it's still interesting because it is very natural.,12,400,20","Joshua","Looks almost like a photograph of nature.,11,240,20","Caleb","More saturated color, even more interpretations to have.,44,40,20","Zachary","Looks like a desert or another planet. While the color choices are narrow, it's still interesting because it is very natural.,12,400,20","3"
"14983","","survey-text","146","665993","0.0-144.0-0.0","AZ5LPHW1NBB50","","","","{""Q0"":""I like the colors, but this makes me feel uneasy""}","","","","","","","","","","","","","","","","","","","","","","",""
"2695","","image-slider-response","147","668691","0.0-145.0","AZ5LPHW1NBB50","","","","","-3","","","","","","","","","","","","","","","","","","","","","",""
"3014","","image-button-response","148","673695","0.0-146.0","AZ5LPHW1NBB50","img_art/9.jpg","0","","","","","","","","","","","","","","","","","","","","","","","","",""
"2205","","image-button-response","149","675902","0.0-147.0","AZ5LPHW1NBB50","img_art/9.jpg","0","","","","","","","","","","","","","","","","","","","","","","","","",""
"1137","","image-button-response","150","677039","0.0-148.0-0.0","AZ5LPHW1NBB50","img_art/9.jpg","1","","","","","","","","","","","","","","","","","","","","","","","","",""
"2715","","image-button-response","151","679755","0.0-149.0-0.0","AZ5LPHW1NBB50","img_art/9.jpg","4","","","","","","","","","","","","","","","","","","","","","","","","",""
"null","","html-keyboard-response","152","681257","0.0-150.0","AZ5LPHW1NBB50","<p style=""font-size: 48px;"">+</p>","","","","","null","allTrialResponses","1500","1","15","img_art/9.jpg","-3","I like the colors, but this makes me feel uneasy","Joshua,Steven,Matthew,Chase,Caleb,Zachary","Someone lying in bed?  Don't care for it.,-14,240,20","I just dont like it, no reaction from me at all,-50,160,20","Similar to the tohers, but not as clear.,11,120,20","Looks like a sloppy iguana.,-11,120,20","Unfinished, weird composition.,-34,40,20","It looks like a lady taking a peaceful nap on a blanket in the grass.,41,400,20","Joshua","Someone lying in bed?  Don't care for it.,-14,240,20","Steven","I just dont like it, no reaction from me at all,-50,160,20","Caleb","Unfinished, weird composition.,-34,40,20","3"
"2765","","survey-text","153","684032","0.0-151.0-0.0","AZ5LPHW1NBB50","","","","{""Q0"":""course""}","","","","","","","","","","","","","","","","","","","","","","",""
"14298","","survey-text","154","698331","0.0-152.0-0.0","AZ5LPHW1NBB50","","","","{""Q0"":""Nice looking, but would like to see more out of it""}","","","","","","","","","","","","","","","","","","","","","","",""
"1928","","image-slider-response","155","700262","0.0-153.0","AZ5LPHW1NBB50","","","","","-10","","","","","","","","","","","","","","","","","","","","","",""
"1302","","image-button-response","156","705263","0.0-154.0","AZ5LPHW1NBB50","img_art/26.jpg","0","","","","","","","","","","","","","","","","","","","","","","","","",""
"377","","image-button-response","157","705642","0.0-155.0","AZ5LPHW1NBB50","img_art/26.jpg","0","","","","","","","","","","","","","","","","","","","","","","","","",""
"1182","","image-button-response","158","706824","0.0-156.0-0.0","AZ5LPHW1NBB50","img_art/26.jpg","2","","","","","","","","","","","","","","","","","","","","","","","","",""
"1802","","image-button-response","159","708628","0.0-157.0-0.0","AZ5LPHW1NBB50","img_art/26.jpg","3","","","","","","","","","","","","","","","","","","","","","","","","",""
"null","","html-keyboard-response","160","709629","0.0-158.0","AZ5LPHW1NBB50","<p style=""font-size: 48px;"">+</p>","","","","","null","allTrialResponses","1000","1","16","img_art/26.jpg","-10","Nice looking, but would like to see more out of it","Joshua,Steven,Tyler,Jorge,Caleb,Andrew","This is boring.,-15,240,20","This one is nicer, looks like a walk in a small, dreamy city,20,160,20","Colors look glum; photograph is not properly contrasted and does not reflect the appropriate amount of natural light.,-10,320,20","dull and boring,-6,180,20","Appears childish and unfinished.,-20,40,20","Makes me want to walk down a cool street,20,160,20","Joshua","This is boring.,-15,240,20","Tyler","Colors look glum; photograph is not properly contrasted and does not reflect the appropriate amount of natural light.,-10,320,20","Jorge","dull and boring,-6,180,20","3"
"12313","","survey-text","161","721948","0.0-159.0-0.0","AZ5LPHW1NBB50","","","","{""Q0"":""The colors are nice, reminds me of Dali""}","","","","","","","","","","","","","","","","","","","","","","",""
"2721","","image-slider-response","162","724671","0.0-160.0","AZ5LPHW1NBB50","","","","","13","","","","","","","","","","","","","","","","","","","","","",""
"2768","","image-button-response","163","729672","0.0-161.0","AZ5LPHW1NBB50","img_art/20.jpg","3","","","","","","","","","","","","","","","","","","","","","","","","",""
"364","","image-button-response","164","730037","0.0-162.0","AZ5LPHW1NBB50","img_art/20.jpg","0","","","","","","","","","","","","","","","","","","","","","","","","",""
"3851","","image-button-response","165","733890","0.0-163.0-0.0","AZ5LPHW1NBB50","img_art/20.jpg","1","","","","","","","","","","","","","","","","","","","","","","","","",""
"2008","","image-button-response","166","735900","0.0-164.0-0.0","AZ5LPHW1NBB50","img_art/20.jpg","3","","","","","","","","","","","","","","","","","","","","","","","","",""
"null","","html-keyboard-response","167","736402","0.0-165.0","AZ5LPHW1NBB50","<p style=""font-size: 48px;"">+</p>","","","","","null","allTrialResponses","500","1","17","img_art/20.jpg","13","The colors are nice, reminds me of Dali","Joshua,Alexander,Tyler,Jorge,Jake,Hunter","Reminds me of the Southwest; i.e. New Mexico or Arizona. It's interesting.,12,240,20","The beach and industry.,12,120,20","This is not abstract art, it is representative.,0,320,20","Curious about what lies here,10,180,20","It's too brash and loud and ugly.,-21,360,20","feels underdeveloped,-11,240,20","Joshua","Reminds me of the Southwest; i.e. New Mexico or Arizona. It's interesting.,12,240,20","Alexander","The beach and industry.,12,120,20","Jorge","Curious about what lies here,10,180,20","3"
"12356","","survey-text","168","748765","0.0-166.0-0.0","AZ5LPHW1NBB50","","","","{""Q0"":""I really like the contrast from top to bottom""}","","","","","","","","","","","","","","","","","","","","","","",""
"2725","","image-slider-response","169","751491","0.0-167.0","AZ5LPHW1NBB50","","","","","12","","","","","","","","","","","","","","","","","","","","","",""
"4404","","image-button-response","170","756494","0.0-168.0","AZ5LPHW1NBB50","img_art/12.jpg","4","","","","","","","","","","","","","","","","","","","","","","","","",""
"4531","","image-button-response","171","761027","0.0-169.0","AZ5LPHW1NBB50","img_art/12.jpg","3","","","","","","","","","","","","","","","","","","","","","","","","",""
"770","","image-button-response","172","761798","0.0-170.0-0.0","AZ5LPHW1NBB50","img_art/12.jpg","4","","","","","","","","","","","","","","","","","","","","","","","","",""
"2074","","image-button-response","173","763873","0.0-171.0-0.0","AZ5LPHW1NBB50","img_art/12.jpg","2","","","","","","","","","","","","","","","","","","","","","","","","",""
"null","","html-keyboard-response","174","764876","0.0-172.0","AZ5LPHW1NBB50","<p style=""font-size: 48px;"">+</p>","","","","","null","allTrialResponses","1000","1","18","img_art/12.jpg","12","I really like the contrast from top to bottom","Joshua,Alexander,Miguel,Jorge,Gregory,Anthony","I don't get this one. Doesn't evoke an emotional response.,-10,240,20","Ugly color combinations, no focus.,-25,120,20","Good too basic.,18,160,20","Windows to a different story,6,180,20","Black and white contrast with color looks nice,15,220,20","This piece doesn't provoke any kind of reaction,0,200,20","Jorge","Windows to a different story,6,180,20","Gregory","Black and white contrast with color looks nice,15,220,20","Miguel","Good too basic.,18,160,20","3"
"12535","","survey-text","175","777416","0.0-173.0-0.0","AZ5LPHW1NBB50","","","","{""Q0"":""I don't agree with the colors in use here""}","","","","","","","","","","","","","","","","","","","","","","",""
"3428.9999999998836","","image-slider-response","176","780847","0.0-174.0","AZ5LPHW1NBB50","","","","","-8","","","","","","","","","","","","","","","","","","","","","",""
"null","","image-button-response","177","785852","0.0-175.0","AZ5LPHW1NBB50","img_art/2.jpg","null","","","","","","","","","","","","","","","","","","","","","","","","",""
"567","","image-button-response","178","786420","0.0-176.0","AZ5LPHW1NBB50","img_art/2.jpg","1","","","","","","","","","","","","","","","","","","","","","","","","",""
"2878","","image-button-response","179","789300","0.0-177.0-0.0","AZ5LPHW1NBB50","img_art/2.jpg","4","","","","","","","","","","","","","","","","","","","","","","","","",""
"1625","","image-button-response","180","790926","0.0-178.0-0.0","AZ5LPHW1NBB50","img_art/2.jpg","3","","","","","","","","","","","","","","","","","","","","","","","","",""
"null","","html-keyboard-response","181","791428","0.0-179.0","AZ5LPHW1NBB50","<p style=""font-size: 48px;"">+</p>","","","","","null","allTrialResponses","500","1","19","img_art/2.jpg","-8","I don't agree with the colors in use here","Jordan,Brandon,Miguel,Jorge,Gregory,Lucas","Reminds me of my baby brother,11,160,20","Do not like this type of abstract work,-50,320,20","7 year old painted?,-35,160,20","Confused and disoriented,-33,180,20","Awful color coordination and design,-35,220,20","Colorful, curious.,20,380,20","Brandon","Do not like this type of abstract work,-50,320,20","Gregory","Awful color coordination and design,-35,220,20","Jorge","Confused and disoriented,-33,180,20","3"
"16145","","survey-text","182","807580","0.0-180.0-0.0","AZ5LPHW1NBB50","","","","{""Q0"":""This ellicits something from another time for me""}","","","","","","","","","","","","","","","","","","","","","","",""
"2208","","image-slider-response","183","809788","0.0-181.0","AZ5LPHW1NBB50","","","","","13","","","","","","","","","","","","","","","","","","","","","",""
"2520","","image-button-response","184","814791","0.0-182.0","AZ5LPHW1NBB50","img_art/21.jpg","3","","","","","","","","","","","","","","","","","","","","","","","","",""
"513","","image-button-response","185","815305","0.0-183.0","AZ5LPHW1NBB50","img_art/21.jpg","4","","","","","","","","","","","","","","","","","","","","","","","","",""
"1049","","image-button-response","186","816355","0.0-184.0-0.0","AZ5LPHW1NBB50","img_art/21.jpg","3","","","","","","","","","","","","","","","","","","","","","","","","",""
"1639","","image-button-response","187","817996","0.0-185.0-0.0","AZ5LPHW1NBB50","img_art/21.jpg","5","","","","","","","","","","","","","","","","","","","","","","","","",""
"null","","html-keyboard-response","188","818998","0.0-186.0","AZ5LPHW1NBB50","<p style=""font-size: 48px;"">+</p>","","","","","null","allTrialResponses","1000","1","20","img_art/21.jpg","13","This ellicits something from another time for me","Elijah,Brandon,Cameron,Jorge,Gregory,Kyle","Can't understand what it is,-27,80,20","I love this. Reminds me of a coast. The colors flow beautifully,40,320,20","Like the colors. Don't like the white dots on the right side of the painting though.,15,60,20","mythical between good and evil,16,180,20","Contrast of fire and water looks cool,20,220,20","The blues make me feel sadder as my mood is already not the best right now,-10,340,20","Gregory","Contrast of fire and water looks cool,20,220,20","Jorge","mythical between good and evil,16,180,20","Kyle","The blues make me feel sadder as my mood is already not the best right now,-10,340,20","3"
"2125","","survey-text","189","821134","0.0-187.0-0.0","AZ5LPHW1NBB50","","","","{""Q0"":""we""}","","","","","","","","","","","","","","","","","","","","","","",""
"8263","","survey-text","190","829397","0.0-188.0-0.0","AZ5LPHW1NBB50","","","","{""Q0"":""I don't like this at a ll""}","","","","","","","","","","","","","","","","","","","","","","",""
"4034","","image-slider-response","191","833433","0.0-189.0","AZ5LPHW1NBB50","","","","","-19","","","","","","","","","","","","","","","","","","","","","",""
"1357","","image-button-response","192","838436","0.0-190.0","AZ5LPHW1NBB50","img_art/15.jpg","0","","","","","","","","","","","","","","","","","","","","","","","","",""
"5064","","image-button-response","193","843500","0.0-191.0","AZ5LPHW1NBB50","img_art/15.jpg","1","","","","","","","","","","","","","","","","","","","","","","","","",""
"893","","image-button-response","194","844395","0.0-192.0-0.0","AZ5LPHW1NBB50","img_art/15.jpg","0","","","","","","","","","","","","","","","","","","","","","","","","",""
"4039","","image-button-response","195","848436","0.0-193.0-0.0","AZ5LPHW1NBB50","img_art/15.jpg","3","","","","","","","","","","","","","","","","","","","","","","","","",""
"null","","html-keyboard-response","196","849938","0.0-194.0","AZ5LPHW1NBB50","<p style=""font-size: 48px;"">+</p>","","","","","null","allTrialResponses","1500","1","21","img_art/15.jpg","-19","I don't like this at a ll","Blake,Brett,Connor,Jorge,Gregory,Kyle","ugly picture and don't like it,-22,280,20","I don't know how I feel about this,31,360,20","Neat to explore meaning, blue is interesting,11,240,20","interested in this transformation,20,180,20","Black and blue is my favorite color combination,35,220,20","I like it as the colors complement each other well,21,340,20","Brett","I don't know how I feel about this,31,360,20","Blake","ugly picture and don't like it,-22,280,20","Jorge","interested in this transformation,20,180,20","3"
"12921","","survey-text","197","862867","0.0-195.0-0.0","AZ5LPHW1NBB50","","","","{""Q0"":""Seems too scribbly for me""}","","","","","","","","","","","","","","","","","","","","","","",""
"3175","","image-slider-response","198","866042","0.0-196.0","AZ5LPHW1NBB50","","","","","-21","","","","","","","","","","","","","","","","","","","","","",""
"2538","","image-button-response","199","871314","0.0-197.0","AZ5LPHW1NBB50","img_art/3.jpg","1","","","","","","","","","","","","","","","","","","","","","","","","",""
"670","","image-button-response","200","871986","0.0-198.0","AZ5LPHW1NBB50","img_art/3.jpg","5","","","","","","","","","","","","","","","","","","","","","","","","",""
"2858","","image-button-response","201","874845","0.0-199.0-0.0","AZ5LPHW1NBB50","img_art/3.jpg","4","","","","","","","","","","","","","","","","","","","","","","","","",""
"1640","","image-button-response","202","876486","0.0-200.0-0.0","AZ5LPHW1NBB50","img_art/3.jpg","3","","","","","","","","","","","","","","","","","","","","","","","","",""
"null","","html-keyboard-response","203","877992","0.0-201.0","AZ5LPHW1NBB50","<p style=""font-size: 48px;"">+</p>","","","","","null","allTrialResponses","1500","1","22","img_art/3.jpg","-21","Seems too scribbly for me","Blake,Brett,Marcus,Jorge,Gabriel,David","painted by a 2 year old. cold and boring,-30,280,20","Confusion and mayhem,-10,360,20","Like the colors and energy of this work.,10,60,20","This makes me feel vulnerable,-32,180,20","just scribbles, not pleasing,-30,160,20","No clue what I'm looking. This just looks a series of scribbles in a box.,-20,340,20","David","No clue what I'm looking. This just looks a series of scribbles in a box.,-20,340,20","Gabriel","just scribbles, not pleasing,-30,160,20","Jorge","This makes me feel vulnerable,-32,180,20","3"
"12022","","survey-text","204","890020","0.0-202.0-0.0","AZ5LPHW1NBB50","","","","{""Q0"":""The layers in this looks cool""}","","","","","","","","","","","","","","","","","","","","","","",""
"2039","","image-slider-response","205","892061","0.0-203.0","AZ5LPHW1NBB50","","","","","17","","","","","","","","","","","","","","","","","","","","","",""
"null","","image-button-response","206","897066","0.0-204.0","AZ5LPHW1NBB50","img_art/29.jpg","null","","","","","","","","","","","","","","","","","","","","","","","","",""
"1236","","image-button-response","207","898303","0.0-205.0","AZ5LPHW1NBB50","img_art/29.jpg","1","","","","","","","","","","","","","","","","","","","","","","","","",""
"3591","","image-button-response","208","901895","0.0-206.0-0.0","AZ5LPHW1NBB50","img_art/29.jpg","3","","","","","","","","","","","","","","","","","","","","","","","","",""
"1697","","image-button-response","209","903593","0.0-207.0-0.0","AZ5LPHW1NBB50","img_art/29.jpg","5","","","","","","","","","","","","","","","","","","","","","","","","",""
"null","","html-keyboard-response","210","905096","0.0-208.0","AZ5LPHW1NBB50","<p style=""font-size: 48px;"">+</p>","","","","","null","allTrialResponses","1500","1","23","img_art/29.jpg","17","The layers in this looks cool","Trevor,Charles,Benjamin,Jorge,Gabriel,David","It's too on trend with the gray and doesn't look like a lasting piece,-4,280,20","I like the usage of a physical object,33,100,20","Don't like the red X across the painting.,-15,260,20","makes me feel busy and unorganized,4,180,20","dont like this one,-20,160,20","Don't really like the red x. It gives the impression that this a discarded piece.,-10,340,20","Charles","I like the usage of a physical object,33,100,20","Jorge","makes me feel busy and unorganized,4,180,20","David","Don't really like the red x. It gives the impression that this a discarded piece.,-10,340,20","3"
"19248","","survey-text","211","924350","0.0-209.0-0.0","AZ5LPHW1NBB50","","","","{""Q0"":""Too much colors in one place, almost looks like mush""}","","","","","","","","","","","","","","","","","","","","","","",""
"2754","","image-slider-response","212","927106","0.0-210.0","AZ5LPHW1NBB50","","","","","-22","","","","","","","","","","","","","","","","","","","","","",""
"null","","image-button-response","213","932110","0.0-211.0","AZ5LPHW1NBB50","img_art/1.jpg","null","","","","","","","","","","","","","","","","","","","","","","","","",""
"2575","","image-button-response","214","934686","0.0-212.0","AZ5LPHW1NBB50","img_art/1.jpg","5","","","","","","","","","","","","","","","","","","","","","","","","",""
"1754","","image-button-response","215","936442","0.0-213.0-0.0","AZ5LPHW1NBB50","img_art/1.jpg","2","","","","","","","","","","","","","","","","","","","","","","","","",""
"1631","","image-button-response","216","938074","0.0-214.0-0.0","AZ5LPHW1NBB50","img_art/1.jpg","0","","","","","","","","","","","","","","","","","","","","","","","","",""
"null","","html-keyboard-response","217","939577","0.0-215.0","AZ5LPHW1NBB50","<p style=""font-size: 48px;"">+</p>","","","","","null","allTrialResponses","1500","1","24","img_art/1.jpg","-22","Too much colors in one place, almost looks like mush","Nathaniel,Charles,Jesse,Jorge,Cody,David","A bit of a smokey mess, but it does have an air of mystery I like,7,220,20","It's like being out on a psychedelic lake,32,100,20","Im not a fan of the bluriness,-18,80,20","fishing on the lake surrounded by trees,42,180,20","Pretty, nice use of color,40,180,20","This image doesn't invoke much in me.,0,340,20","David","This image doesn't invoke much in me.,0,340,20","Jesse","Im not a fan of the bluriness,-18,80,20","Nathaniel","A bit of a smokey mess, but it does have an air of mystery I like,7,220,20","3"
"23188","","survey-text","218","962772","0.0-216.0-0.0","AZ5LPHW1NBB50","","","","{""Q0"":""Interested in the shapes that seem to appear the more I look at this piece.""}","","","","","","","","","","","","","","","","","","","","","","",""
"3710","","image-slider-response","219","966485","0.0-217.0","AZ5LPHW1NBB50","","","","","7","","","","","","","","","","","","","","","","","","","","","",""
"null","","image-button-response","220","971489","0.0-218.0","AZ5LPHW1NBB50","img_art/28.jpg","null","","","","","","","","","","","","","","","","","","","","","","","","",""
"2221","","image-button-response","221","973712","0.0-219.0","AZ5LPHW1NBB50","img_art/28.jpg","0","","","","","","","","","","","","","","","","","","","","","","","","",""
"1245","","image-button-response","222","974959","0.0-220.0-0.0","AZ5LPHW1NBB50","img_art/28.jpg","1","","","","","","","","","","","","","","","","","","","","","","","","",""
"1900","","image-button-response","223","976861","0.0-221.0-0.0","AZ5LPHW1NBB50","img_art/28.jpg","4","","","","","","","","","","","","","","","","","","","","","","","","",""
"null","","html-keyboard-response","224","977363","0.0-222.0","AZ5LPHW1NBB50","<p style=""font-size: 48px;"">+</p>","","","","","null","allTrialResponses","500","1","25","img_art/28.jpg","7","Interested in the shapes that seem to appear the more I look at this piece.","Nathaniel,Bradley,Jesse,Mason,Travis,David","Has an air of darkness to it, but no real substance besides the mouse-like thing.,-38,220,20","I think this may have to do with humpty dumpty?,-7,300,20","Just all blurs together for me. No substance.,-23,80,20","bland busy ugly,-31,100,20","Hate it...brown and drab,-37,260,20","I feel that the image is invoking a sense of negativity.,-15,340,20","Nathaniel","Has an air of darkness to it, but no real substance besides the mouse-like thing.,-38,220,20","Bradley","I think this may have to do with humpty dumpty?,-7,300,20","Travis","Hate it...brown and drab,-37,260,20","3"
"3225","","survey-text","225","980599","0.0-223.0-0.0","AZ5LPHW1NBB50","","","","{""Q0"":""table""}","","","","","","","","","","","","","","","","","","","","","","",""
"17983","","survey-text","226","998584","0.0-224.0-0.0","AZ5LPHW1NBB50","","","","{""Q0"":""I really like the vivd lines, wish I could understand it better though""}","","","","","","","","","","","","","","","","","","","","","","",""
"2114","","image-slider-response","227","1000700","0.0-225.0","AZ5LPHW1NBB50","","","","","7","","","","","","","","","","","","","","","","","","","","","",""
"1686","","image-button-response","228","1005703","0.0-226.0","AZ5LPHW1NBB50","img_art/18.jpg","3","","","","","","","","","","","","","","","","","","","","","","","","",""
"300","","image-button-response","229","1006004","0.0-227.0","AZ5LPHW1NBB50","img_art/18.jpg","4","","","","","","","","","","","","","","","","","","","","","","","","",""
"918","","image-button-response","230","1006923","0.0-228.0-0.0","AZ5LPHW1NBB50","img_art/18.jpg","3","","","","","","","","","","","","","","","","","","","","","","","","",""
"2492","","image-button-response","231","1009417","0.0-229.0-0.0","AZ5LPHW1NBB50","img_art/18.jpg","1","","","","","","","","","","","","","","","","","","","","","","","","",""
"null","","html-keyboard-response","232","1010919","0.0-230.0","AZ5LPHW1NBB50","<p style=""font-size: 48px;"">+</p>","","","","","null","allTrialResponses","1500","1","26","img_art/18.jpg","7","I really like the vivd lines, wish I could understand it better though","Nathaniel,Bradley,Malik,Jared,Travis,Aaron","Looks like a jumbled mess. I prefer a clearer picture,-18,220,20","This one is very dark and apocalyptic indeed!,-30,300,20","Gently chaotic and beautiful,40,40,20","it looks like people,9,400,20","I don't know...kind of a dissatified feeling inside.,-6,260,20","I could spend a long time looking at it and see different things in the shapes.,21,20,20","Travis","I don't know...kind of a dissatified feeling inside.,-6,260,20","Jared","it looks like people,9,400,20","Bradley","This one is very dark and apocalyptic indeed!,-30,300,20","3"
"13019","","survey-text","233","1023945","0.0-231.0-0.0","AZ5LPHW1NBB50","","","","{""Q0"":""Seems a little too rudimentary""}","","","","","","","","","","","","","","","","","","","","","","",""
"2830.0000000001164","","image-slider-response","234","1026776","0.0-232.0","AZ5LPHW1NBB50","","","","","-9","","","","","","","","","","","","","","","","","","","","","",""
"1852","","image-button-response","235","1031778","0.0-233.0","AZ5LPHW1NBB50","img_art/6.jpg","1","","","","","","","","","","","","","","","","","","","","","","","","",""
"1517","","image-button-response","236","1033296","0.0-234.0","AZ5LPHW1NBB50","img_art/6.jpg","4","","","","","","","","","","","","","","","","","","","","","","","","",""
"1952","","image-button-response","237","1035251","0.0-235.0-0.0","AZ5LPHW1NBB50","img_art/6.jpg","3","","","","","","","","","","","","","","","","","","","","","","","","",""
"2547","","image-button-response","238","1037801","0.0-236.0-0.0","AZ5LPHW1NBB50","img_art/6.jpg","1","","","","","","","","","","","","","","","","","","","","","","","","",""
"null","","html-keyboard-response","239","1038803","0.0-237.0","AZ5LPHW1NBB50","<p style=""font-size: 48px;"">+</p>","","","","","null","allTrialResponses","1000","1","27","img_art/6.jpg","-9","Seems a little too rudimentary","Samuel,Bradley,Angel,Jared,Travis,Jose","surviving the dryness of life,30,400,20","It's okay. It kind of looks like a bird with his head buried in his feathers.,2,300,20","This piece feels hopeful, like an oasis in the desert.,20,180,20","simplistic. i love orange and green and i love the subject,50,400,20","No feeling...just left me feeling kind of blah,1,260,20","This could be so many different things. I saw a bird first but then it looks like a needle going into skin,34,200,20","Travis","No feeling...just left me feeling kind of blah,1,260,20","Jared","simplistic. i love orange and green and i love the subject,50,400,20","Bradley","It's okay. It kind of looks like a bird with his head buried in his feathers.,2,300,20","3"
"13146","","survey-text","240","1051956","0.0-238.0-0.0","AZ5LPHW1NBB50","","","","{""Q0"":""This can be so many things, like the color use.""}","","","","","","","","","","","","","","","","","","","","","","",""
"2079.999999999767","","image-slider-response","241","1054040","0.0-239.0","AZ5LPHW1NBB50","","","","","12","","","","","","","","","","","","","","","","","","","","","",""
"1694","","image-button-response","242","1059044","0.0-240.0","AZ5LPHW1NBB50","img_art/23.jpg","0","","","","","","","","","","","","","","","","","","","","","","","","",""
"4647","","image-button-response","243","1063691","0.0-241.0","AZ5LPHW1NBB50","img_art/23.jpg","4","","","","","","","","","","","","","","","","","","","","","","","","",""
"2312","","image-button-response","244","1066004","0.0-242.0-0.0","AZ5LPHW1NBB50","img_art/23.jpg","4","","","","","","","","","","","","","","","","","","","","","","","","",""
"1919","","image-button-response","245","1071091","0.0-242.1-0.1","AZ5LPHW1NBB50","img_art/23.jpg","5","","","","","","","","","","","","","","","","","","","","","","","","",""
"1418","","image-button-response","246","1072510","0.0-243.0-0.0","AZ5LPHW1NBB50","img_art/23.jpg","2","","","","","","","","","","","","","","","","","","","","","","","","",""
"null","","html-keyboard-response","247","1073513","0.0-244.0","AZ5LPHW1NBB50","<p style=""font-size: 48px;"">+</p>","","","","","null","allTrialResponses","1000","1","28","img_art/23.jpg","12","This can be so many things, like the color use.","Sean,Bradley,Jeffrey,Jared,Travis,Alexis","so much detail .,31,40,20","I like the contrast and the bright colors in this one.,6,300,20","Very energetic, seems like it is pulling me in,24,40,20","it makes me aggitated,-21,400,20","I had a very neutral feeling to this,no feelings at all.,1,260,20","It looks like a parade of musicians full of excitement. Makes me feel upbeat,33,140,20","Travis","I had a very neutral feeling to this,no feelings at all.,1,260,20","Alexis","It looks like a parade of musicians full of excitement. Makes me feel upbeat,33,140,20","Jeffrey","Very energetic, seems like it is pulling me in,24,40,20","5"
"17147","","survey-text","248","1090668","0.0-245.0-0.0","AZ5LPHW1NBB50","","","","{""Q0"":""I like the depth in this""}","","","","","","","","","","","","","","","","","","","","","","",""
"2419","","image-slider-response","249","1093088","0.0-246.0","AZ5LPHW1NBB50","","","","","8","","","","","","","","","","","","","","","","","","","","","",""
"3836","","image-button-response","250","1098090","0.0-247.0","AZ5LPHW1NBB50","img_art/13.jpg","4","","","","","","","","","","","","","","","","","","","","","","","","",""
"791","","image-button-response","251","1098882","0.0-248.0","AZ5LPHW1NBB50","img_art/13.jpg","2","","","","","","","","","","","","","","","","","","","","","","","","",""
"1189","","image-button-response","252","1100073","0.0-249.0-0.0","AZ5LPHW1NBB50","img_art/13.jpg","1","","","","","","","","","","","","","","","","","","","","","","","","",""
"1161","","image-button-response","253","1101235","0.0-250.0-0.0","AZ5LPHW1NBB50","img_art/13.jpg","4","","","","","","","","","","","","","","","","","","","","","","","","",""
"null","","html-keyboard-response","254","1102237","0.0-251.0","AZ5LPHW1NBB50","<p style=""font-size: 48px;"">+</p>","","","","","null","allTrialResponses","1000","1","29","img_art/13.jpg","8","I like the depth in this","Christopher,Vincent,Jeffrey,Patrick,Travis,Alexis","this is an appealing mix of textures to me and the color scheme is harmonious,36,160,20","I love the colors reminds me of a rainy day..it's calm and relaxing,32,360,20","Messy but organised, helps me to relax and observe,8,40,20","I love the different blue shades,31,280,20","I love the colors and the texture,37,260,20","It looks too common, is a bit boring,-41,140,20","Jeffrey","Messy but organised, helps me to relax and observe,8,40,20","Vincent","I love the colors reminds me of a rainy day..it's calm and relaxing,32,360,20","Travis","I love the colors and the texture,37,260,20","5"
"20585","","survey-text","255","1122829","0.0-252.0-0.0","AZ5LPHW1NBB50","","","","{""Q0"":""The scene seems too busy, everything is kind of melting together ""}","","","","","","","","","","","","","","","","","","","","","","",""
"2820","","image-slider-response","256","1125651","0.0-253.0","AZ5LPHW1NBB50","","","","","-5","","","","","","","","","","","","","","","","","","","","","",""
"2854","","image-button-response","257","1130655","0.0-254.0","AZ5LPHW1NBB50","img_art/19.jpg","2","","","","","","","","","","","","","","","","","","","","","","","","",""
"145","","image-button-response","258","1130802","0.0-255.0","AZ5LPHW1NBB50","img_art/19.jpg","3","","","","","","","","","","","","","","","","","","","","","","","","",""
"1492","","image-button-response","259","1132294","0.0-256.0-0.0","AZ5LPHW1NBB50","img_art/19.jpg","4","","","","","","","","","","","","","","","","","","","","","","","","",""
"154","","image-button-response","260","1132450","0.0-257.0-0.0","AZ5LPHW1NBB50","img_art/19.jpg","4","","","","","","","","","","","","","","","","","","","","","","","","",""
"903","","image-button-response","261","1136323","0.0-257.1-0.1","AZ5LPHW1NBB50","img_art/19.jpg","5","","","","","","","","","","","","","","","","","","","","","","","","",""
"null","","html-keyboard-response","262","1137825","0.0-258.0","AZ5LPHW1NBB50","<p style=""font-size: 48px;"">+</p>","","","","","null","allTrialResponses","1500","1","30","img_art/19.jpg","-5","The scene seems too busy, everything is kind of melting together ","Spencer,Vincent,Jeffrey,Isaac,Travis,Ryan","Very abstract but I like it, it's busy, lots of colors,43,120,20","I really like the colors and feel of this one and alot of life,41,360,20","very lively and colourful,21,40,20","It is too busy.,-34,280,20","Nuetral...can't think of anything to say,4,260,20","Its just a nice painting, nothing too special but nothing negative,25,380,20","Isaac","It is too busy.,-34,280,20","Travis","Nuetral...can't think of anything to say,4,260,20","Ryan","Its just a nice painting, nothing too special but nothing negative,25,380,20","7"
"2956","","image-button-response_instructions","263","1140786","0.0-259.0","AZ5LPHW1NBB50","","0","instructions","","","","","","","","","","","","","","","","","","","","","","","",""
"1192","","image-button-response","264","1141983","0.0-260.0","AZ5LPHW1NBB50","","0","","","","","","","","","","","","","","","","","","","","","","","","",""
