"rt","url","trial_type","trial_index","time_elapsed","internal_node_id","participant_id","stimulus","button_pressed","Name","responses","response","key_press","variableName","fixationTime","condition","trial","photo","subjectRating","subjectResponse","agentsNames","agent_1_Response","agent_2_Response","agent_3_Response","agent_4_Response","agent_5_Response","agent_6_Response","kept_1_name","kept_1_response","kept_2_name","kept_2_response","kept_3_name","kept_3_response","errorCounter"
"8980","external_page_harvard.html","external-html","0","9210","0.0-0.0","AZU9D7YLCTAYV","","","","","","","","","","","","","","","","","","","","","","","","","","",""
"1533","","image-button-response","1","10745","0.0-1.0","AZU9D7YLCTAYV","","1","","","","","","","","","","","","","","","","","","","","","","","","",""
"1877","","image-button-response","2","12629","0.0-2.0-0.0","AZU9D7YLCTAYV","","1","phone","","","","","","","","","","","","","","","","","","","","","","","",""
"9420","","survey-text","3","22051","0.0-3.0-0.0","AZU9D7YLCTAYV","","","","{""Q0"":""AZU9D7YLCTAYV""}","","","","","","","","","","","","","","","","","","","","","","",""
"6054","","image-button-response_instructions","4","28109","0.0-4.0","AZU9D7YLCTAYV","","0","instructions","","","","","","","","","","","","","","","","","","","","","","","",""
"28993","","image-button-response_instructions","5","57104","0.0-5.0","AZU9D7YLCTAYV","img_art/ins/popularity/ins1.png","0","instructions","","","","","","","","","","","","","","","","","","","","","","","",""
"8005","","image-button-response_instructions","6","65110","0.0-6.0","AZU9D7YLCTAYV","img_art/ins/popularity/ins2.png","0","instructions","","","","","","","","","","","","","","","","","","","","","","","",""
"8241","","image-button-response_instructions","7","73352","0.0-7.0","AZU9D7YLCTAYV","img_art/ins/popularity/ins2Extreme.png","0","instructions","","","","","","","","","","","","","","","","","","","","","","","",""
"28807","","image-button-response_instructions","8","102162","0.0-8.0","AZU9D7YLCTAYV","img_art/ins/popularity/ins3KEEPpop.PNG","0","instructions","","","","","","","","","","","","","","","","","","","","","","","",""
"4125","","image-button-response_instructions","9","106290","0.0-9.0","AZU9D7YLCTAYV","img_art/ins/popularity/ins3ANamepop.PNG","0","instructions","","","","","","","","","","","","","","","","","","","","","","","",""
"5923","","image-button-response_instructions","10","112216","0.0-10.0","AZU9D7YLCTAYV","img_art/ins/popularity/ins3ARatingpop.png","0","instructions","","","","","","","","","","","","","","","","","","","","","","","",""
"4844","","image-button-response_instructions","11","117062","0.0-11.0","AZU9D7YLCTAYV","img_art/ins/popularity/ins3ATextpop.png","0","instructions","","","","","","","","","","","","","","","","","","","","","","","",""
"9036","","image-button-response_instructions","12","126100","0.0-12.0","AZU9D7YLCTAYV","img_art/ins/popularity/ins3ALikespop.png","0","instructions","","","","","","","","","","","","","","","","","","","","","","","",""
"23685","","image-button-response_instructions","13","149786","0.0-13.0","AZU9D7YLCTAYV","img_art/ins/popularity/ins3KEEPpop.PNG","0","instructions","","","","","","","","","","","","","","","","","","","","","","","",""
"14118","","image-button-response_instructions","14","163906","0.0-14.0","AZU9D7YLCTAYV","img_art/ins/popularity/ins3_5RED.png","0","instructions","","","","","","","","","","","","","","","","","","","","","","","",""
"6212","","image-button-response_instructions","15","170120","0.0-15.0","AZU9D7YLCTAYV","img_art/ins/popularity/ins3KEEPpop.PNG","0","instructions","","","","","","","","","","","","","","","","","","","","","","","",""
"13538","","image-button-response_instructions","16","183660","0.0-16.0","AZU9D7YLCTAYV","img_art/ins/popularity/ins4KEEPpop.PNG","0","instructions","","","","","","","","","","","","","","","","","","","","","","","",""
"4776","","image-button-response_instructions","17","188438","0.0-17.0","AZU9D7YLCTAYV","img_art/ins/popularity/ins5KEEPpop.PNG","0","instructions","","","","","","","","","","","","","","","","","","","","","","","",""
"1902","","image-button-response_instructions","18","190342","0.0-18.0","AZU9D7YLCTAYV","","0","instructions","","","","","","","","","","","","","","","","","","","","","","","",""
"9509","","survey-text","19","199890","0.0-19.0-0.0","AZU9D7YLCTAYV","","","","{""Q0"":""but""}","","","","","","","","","","","","","","","","","","","","","","",""
"24328","","survey-text","20","224220","0.0-20.0-0.0","AZU9D7YLCTAYV","","","","{""Q0"":""It looks like a sheep party ""}","","","","","","","","","","","","","","","","","","","","","","",""
"5715.399999976158","","image-slider-response","21","229938","0.0-21.0","AZU9D7YLCTAYV","","","","","-17","","","","","","","","","","","","","","","","","","","","","",""
"null","","image-button-response","22","234949","0.0-22.0","AZU9D7YLCTAYV","img_art/ins/1.jpg","null","","","","","","","","","","","","","","","","","","","","","","","","",""
"1864","","image-button-response","23","236816","0.0-23.0","AZU9D7YLCTAYV","img_art/ins/1.jpg","1","","","","","","","","","","","","","","","","","","","","","","","","",""
"1437","","image-button-response","24","238256","0.0-24.0-0.0","AZU9D7YLCTAYV","img_art/ins/1.jpg","3","","","","","","","","","","","","","","","","","","","","","","","","",""
"5947","","image-button-response","25","244206","0.0-25.0-0.0","AZU9D7YLCTAYV","img_art/ins/1.jpg","0","","","","","","","","","","","","","","","","","","","","","","","","",""
"null","","html-keyboard-response","26","244710","0.0-26.0","AZU9D7YLCTAYV","<p style=""font-size: 48px;"">+</p>","","","","","null","allTrialResponses","500","1","-2","img_art/ins/1.jpg","-17","It looks like a sheep party ","Allison,Ashley,Beth,Dora,Erika,Jen","looks like a lot of things going on in the mist,20,20,20","I just don't get why these type of art would be popular,-32,40,20","This color reminds me of poo,-46,60,20","looks like what my niece in 3rd grade did this afternoon,-50,80,20","I like the sophisticated brushwork,40,100,20","It reminds me of a candy land dream I had,36,120,20","Ashley","I just don't get why these type of art would be popular,-32,40,20","Dora","looks like what my niece in 3rd grade did this afternoon,-50,80,20","Allison","looks like a lot of things going on in the mist,20,20,20","0"
"19341","","survey-text","27","264060","0.0-27.0-0.0","AZU9D7YLCTAYV","","","","{""Q0"":""kinda bland, but scary at the same time ""}","","","","","","","","","","","","","","","","","","","","","","",""
"7175.800000071526","","image-slider-response","28","271238","0.0-28.0","AZU9D7YLCTAYV","","","","","4","","","","","","","","","","","","","","","","","","","","","",""
"null","","image-button-response","29","276246","0.0-29.0","AZU9D7YLCTAYV","img_art/ins/2.jpg","null","","","","","","","","","","","","","","","","","","","","","","","","",""
"4457","","image-button-response","30","280708","0.0-30.0","AZU9D7YLCTAYV","img_art/ins/2.jpg","1","","","","","","","","","","","","","","","","","","","","","","","","",""
"7847","","image-button-response","31","288558","0.0-31.0-0.0","AZU9D7YLCTAYV","img_art/ins/2.jpg","3","","","","","","","","","","","","","","","","","","","","","","","","",""
"910","","image-button-response","32","289470","0.0-32.0-0.0","AZU9D7YLCTAYV","img_art/ins/2.jpg","0","","","","","","","","","","","","","","","","","","","","","","","","",""
"null","","html-keyboard-response","33","290473","0.0-33.0","AZU9D7YLCTAYV","<p style=""font-size: 48px;"">+</p>","","","","","null","allTrialResponses","1000","1","-1","img_art/ins/2.jpg","4","kinda bland, but scary at the same time ","Allison,Ashley,Jenna,Dora,Kara,Katie","I don't have strong feelings about this,10,20,20","Idk, it is just annoying,-32,40,20","One of my pet peevs,-48,140,20","looks too angry,-50,80,20","I like the blocks of color arrangements,30,160,20","too much color!,-28,180,20","Ashley","Idk, it is just annoying,-32,40,20","Dora","looks too angry,-50,80,20","Allison","I don't have strong feelings about this,10,20,20","0"
"55909","","survey-text","34","346390","0.0-34.0-0.0","AZU9D7YLCTAYV","","","","{""Q0"":""I swear I can see two people!! ""}","","","","","","","","","","","","","","","","","","","","","","",""
"3195.3000000715256","","image-slider-response","35","349589","0.0-35.0","AZU9D7YLCTAYV","","","","","24","","","","","","","","","","","","","","","","","","","","","",""
"null","","image-button-response","36","354607","0.0-36.0","AZU9D7YLCTAYV","img_art/ins/3.jpg","null","","","","","","","","","","","","","","","","","","","","","","","","",""
"4186","","image-button-response","37","358795","0.0-37.0","AZU9D7YLCTAYV","img_art/ins/3.jpg","0","","","","","","","","","","","","","","","","","","","","","","","","",""
"4490","","image-button-response","38","363288","0.0-38.0-0.0","AZU9D7YLCTAYV","img_art/ins/3.jpg","1","","","","","","","","","","","","","","","","","","","","","","","","",""
"1544","","image-button-response","39","364836","0.0-39.0-0.0","AZU9D7YLCTAYV","img_art/ins/3.jpg","2","","","","","","","","","","","","","","","","","","","","","","","","",""
"null","","html-keyboard-response","40","365838","0.0-40.0","AZU9D7YLCTAYV","<p style=""font-size: 48px;"">+</p>","","","","","null","allTrialResponses","1000","1","0","img_art/ins/3.jpg","24","I swear I can see two people!! ","Allison,Ashley,Leslie,Dora,Mary,Rose","enjoy the different shades of blue,22,20,20","It looks like a playground for bats,-36,40,20","It's an alright work,15,200,20","My worst nightmare,-42,80,20","I like the overlapping of brushes,41,220,20","My daily routine, it's depressing,-20,240,20","Allison","enjoy the different shades of blue,22,20,20","Ashley","It looks like a playground for bats,-36,40,20","Leslie","It's an alright work,15,200,20","0"
"7180","","image-button-response_instructions","41","373030","0.0-41.0","AZU9D7YLCTAYV","","0","instructions","","","","","","","","","","","","","","","","","","","","","","","",""
"15687","","survey-likert","42","388719","0.0-42.0-0.0","AZU9D7YLCTAYV","","","","{""Q0"":"""",""Q1"":0,""Q2"":1}","","","","","","","","","","","","","","","","","","","","","","",""
"6396","","survey-text","43","395123","0.0-43.0-0.0","AZU9D7YLCTAYV","","","","{""Q0"":""rock""}","","","","","","","","","","","","","","","","","","","","","","",""
"27386","","survey-text","44","422511","0.0-44.0-0.0","AZU9D7YLCTAYV","","","","{""Q0"":""kinda bland, but different ""}","","","","","","","","","","","","","","","","","","","","","","",""
"3075.5999999046326","","image-slider-response","45","425590","0.0-45.0","AZU9D7YLCTAYV","","","","","3","","","","","","","","","","","","","","","","","","","","","",""
"null","","image-button-response","46","430639","0.0-46.0","AZU9D7YLCTAYV","img_art/18.jpg","null","","","","","","","","","","","","","","","","","","","","","","","","",""
"12089","","image-button-response","47","442731","0.0-47.0","AZU9D7YLCTAYV","img_art/18.jpg","2","","","","","","","","","","","","","","","","","","","","","","","","",""
"890","","image-button-response","48","443623","0.0-48.0-0.0","AZU9D7YLCTAYV","img_art/18.jpg","1","","","","","","","","","","","","","","","","","","","","","","","","",""
"8869","","image-button-response","49","452494","0.0-49.0-0.0","AZU9D7YLCTAYV","img_art/18.jpg","3","","","","","","","","","","","","","","","","","","","","","","","","",""
"null","","html-keyboard-response","50","453999","0.0-50.0","AZU9D7YLCTAYV","<p style=""font-size: 48px;"">+</p>","","","","","null","allTrialResponses","1500","1","1","img_art/18.jpg","3","kinda bland, but different ","Samantha,Katie,Katelyn,Cassandra,Erin,Amber","Id love to see this piece closer. So much extra details hidden it it.,50,140,20","Looks messy. Reminds me of a battle or war. I have an unpleasant feeling the more I look.,-20,160,20","It reminds me of ghosts on a boat. Makes me nervous.,-27,100,20","I don't know...kind of a dissatified feeling inside.,-6,120,20","See a weird horse,-22,120,20","ugly and lots of movement,-6,200,20","Katelyn","It reminds me of ghosts on a boat. Makes me nervous.,-27,100,20","Katie","Looks messy. Reminds me of a battle or war. I have an unpleasant feeling the more I look.,-20,160,20","Cassandra","I don't know...kind of a dissatified feeling inside.,-6,120,20","0"
"14622","","survey-text","51","468634","0.0-51.0-0.0","AZU9D7YLCTAYV","","","","{""Q0"":""It's like beans in a bar ""}","","","","","","","","","","","","","","","","","","","","","","",""
"4923.599999904633","","image-slider-response","52","473560","0.0-52.0","AZU9D7YLCTAYV","","","","","14","","","","","","","","","","","","","","","","","","","","","",""
"null","","image-button-response","53","478565","0.0-53.0","AZU9D7YLCTAYV","img_art/28.jpg","null","","","","","","","","","","","","","","","","","","","","","","","","",""
"19598","","image-button-response","54","498165","0.0-54.0","AZU9D7YLCTAYV","img_art/28.jpg","0","","","","","","","","","","","","","","","","","","","","","","","","",""
"2686","","image-button-response","55","500853","0.0-55.0-0.0","AZU9D7YLCTAYV","img_art/28.jpg","1","","","","","","","","","","","","","","","","","","","","","","","","",""
"2096","","image-button-response","56","502952","0.0-56.0-0.0","AZU9D7YLCTAYV","img_art/28.jpg","5","","","","","","","","","","","","","","","","","","","","","","","","",""
"null","","html-keyboard-response","57","504456","0.0-57.0","AZU9D7YLCTAYV","<p style=""font-size: 48px;"">+</p>","","","","","null","allTrialResponses","1500","1","2","img_art/28.jpg","14","It's like beans in a bar ","Alexandra,Katie,Katelyn,Cassandra,Breanna,Kaitlyn","Boring, looks like it belongs in a coffee shop,-20,60,20","Like the muted pink colors. However, the mood is sad because of the blurriness,22,160,20","Just all blurs together for me. No substance.,-23,100,20","Hate it...brown and drab,-37,120,20","The colors are depressing,-5,380,20","Not sure what way this picture is suppose to be oriented,-5,80,20","Alexandra","Boring, looks like it belongs in a coffee shop,-20,60,20","Katie","Like the muted pink colors. However, the mood is sad because of the blurriness,22,160,20","Kaitlyn","Not sure what way this picture is suppose to be oriented,-5,80,20","0"
"37296","","survey-text","58","541761","0.0-58.0-0.0","AZU9D7YLCTAYV","","","","{""Q0"":""that's a lot going on but also nothing at all ""}","","","","","","","","","","","","","","","","","","","","","","",""
"3035.5","","image-slider-response","59","544799","0.0-59.0","AZU9D7YLCTAYV","","","","","-16","","","","","","","","","","","","","","","","","","","","","",""
"null","","image-button-response","60","549802","0.0-60.0","AZU9D7YLCTAYV","img_art/19.jpg","null","","","","","","","","","","","","","","","","","","","","","","","","",""
"1662","","image-button-response","61","551466","0.0-61.0","AZU9D7YLCTAYV","img_art/19.jpg","1","","","","","","","","","","","","","","","","","","","","","","","","",""
"13877","","image-button-response","62","565346","0.0-62.0-0.0","AZU9D7YLCTAYV","img_art/19.jpg","2","","","","","","","","","","","","","","","","","","","","","","","","",""
"921","","image-button-response","63","566270","0.0-63.0-0.0","AZU9D7YLCTAYV","img_art/19.jpg","0","","","","","","","","","","","","","","","","","","","","","","","","",""
"null","","html-keyboard-response","64","566774","0.0-64.0","AZU9D7YLCTAYV","<p style=""font-size: 48px;"">+</p>","","","","","null","allTrialResponses","500","1","3","img_art/19.jpg","-16","that's a lot going on but also nothing at all ","Alexandra,Katie,Claire,Madison,Crystal,Kaitlyn","This photo has too much going on.,-19,60,20","Too busy, makes me anxious and frustrated. Lots of movement in the brush strokes.,-9,160,20","way too much going on,-33,260,20","Seems unfinished and sloppy,-11,60,20","It is an interesting piece but there are too many muted tones,22,300,20","The picture contains a lot of brown and weird drips,-4,80,20","Katie","Too busy, makes me anxious and frustrated. Lots of movement in the brush strokes.,-9,160,20","Claire","way too much going on,-33,260,20","Alexandra","This photo has too much going on.,-19,60,20","0"
"19759","","survey-text","65","586547","0.0-65.0-0.0","AZU9D7YLCTAYV","","","","{""Q0"":""is that a bat or a bird?""}","","","","","","","","","","","","","","","","","","","","","","",""
"4561.800000071526","","image-slider-response","66","591111","0.0-66.0","AZU9D7YLCTAYV","","","","","6","","","","","","","","","","","","","","","","","","","","","",""
"null","","image-button-response","67","596114","0.0-67.0","AZU9D7YLCTAYV","img_art/6.jpg","null","","","","","","","","","","","","","","","","","","","","","","","","",""
"5643","","image-button-response","68","601760","0.0-68.0","AZU9D7YLCTAYV","img_art/6.jpg","1","","","","","","","","","","","","","","","","","","","","","","","","",""
"13657","","image-button-response","69","615419","0.0-69.0-0.0","AZU9D7YLCTAYV","img_art/6.jpg","5","","","","","","","","","","","","","","","","","","","","","","","","",""
"2634","","image-button-response","70","618055","0.0-70.0-0.0","AZU9D7YLCTAYV","img_art/6.jpg","0","","","","","","","","","","","","","","","","","","","","","","","","",""
"null","","html-keyboard-response","71","619571","0.0-71.0","AZU9D7YLCTAYV","<p style=""font-size: 48px;"">+</p>","","","","","null","allTrialResponses","1500","1","4","img_art/6.jpg","6","is that a bat or a bird?","Alexandra,Katie,Claire,Mary,Jamie,Anna","this is interesting and unique,11,60,20","I like the warmth of the orange. But, I feel like it's a partial view. I'm frustrated I can't see the entirety.,-20,160,20","very minimalistic,22,260,20","This piece has some emotion of isolation. I like it.,6,180,20","Tree growing in a desert. Gives me feelings of hope,5,320,20","It reminds me of a simplistic bird. I like the colors used.,40,300,20","Katie","I like the warmth of the orange. But, I feel like it's a partial view. I'm frustrated I can't see the entirety.,-20,160,20","Anna","It reminds me of a simplistic bird. I like the colors used.,40,300,20","Alexandra","this is interesting and unique,11,60,20","0"
"34682","","survey-text","72","654261","0.0-72.0-0.0","AZU9D7YLCTAYV","","","","{""Q0"":""This shows me a busy city life for sure ""}","","","","","","","","","","","","","","","","","","","","","","",""
"1919.3999999761581","","image-slider-response","73","656183","0.0-73.0","AZU9D7YLCTAYV","","","","","-9","","","","","","","","","","","","","","","","","","","","","",""
"null","","image-button-response","74","661187","0.0-74.0","AZU9D7YLCTAYV","img_art/8.jpg","null","","","","","","","","","","","","","","","","","","","","","","","","",""
"13650","","image-button-response","75","674839","0.0-75.0","AZU9D7YLCTAYV","img_art/8.jpg","3","","","","","","","","","","","","","","","","","","","","","","","","",""
"1939","","image-button-response","76","676782","0.0-76.0-0.0","AZU9D7YLCTAYV","img_art/8.jpg","4","","","","","","","","","","","","","","","","","","","","","","","","",""
"2449","","image-button-response","77","679233","0.0-77.0-0.0","AZU9D7YLCTAYV","img_art/8.jpg","0","","","","","","","","","","","","","","","","","","","","","","","","",""
"null","","html-keyboard-response","78","680736","0.0-78.0","AZU9D7YLCTAYV","<p style=""font-size: 48px;"">+</p>","","","","","null","allTrialResponses","1500","1","5","img_art/8.jpg","-9","This shows me a busy city life for sure ","Alexandra,Katie,Mariah,Victoria,Meghan,Anna","The colors are nice but the big face in the sky is creepy,-11,60,20","I like the colors. But I don't like the faces, they look distraught. Faces and sharp shapes make me anxious,1,160,20","Clean and stark. The colors are pleasant.,15,140,20","makes me think of a busy city,-18,400,20","the face is creepy,-49,220,20","The shapes and colors work well together.,40,300,20","Victoria","makes me think of a busy city,-18,400,20","Meghan","the face is creepy,-49,220,20","Alexandra","The colors are nice but the big face in the sky is creepy,-11,60,20","0"
"4243","","survey-text","79","685003","0.0-79.0-0.0","AZU9D7YLCTAYV","","","","{""Q0"":""sky""}","","","","","","","","","","","","","","","","","","","","","","",""
"23324","","survey-text","80","708329","0.0-80.0-0.0","AZU9D7YLCTAYV","","","","{""Q0"":""It reminds me of a close up picture of the moon ""}","","","","","","","","","","","","","","","","","","","","","","",""
"4955.100000023842","","image-slider-response","81","713287","0.0-81.0","AZU9D7YLCTAYV","","","","","20","","","","","","","","","","","","","","","","","","","","","",""
"null","","image-button-response","82","718290","0.0-82.0","AZU9D7YLCTAYV","img_art/7.jpg","null","","","","","","","","","","","","","","","","","","","","","","","","",""
"6116","","image-button-response","83","724409","0.0-83.0","AZU9D7YLCTAYV","img_art/7.jpg","3","","","","","","","","","","","","","","","","","","","","","","","","",""
"1915","","image-button-response","84","726327","0.0-84.0-0.0","AZU9D7YLCTAYV","img_art/7.jpg","2","","","","","","","","","","","","","","","","","","","","","","","","",""
"1770","","image-button-response","85","728100","0.0-85.0-0.0","AZU9D7YLCTAYV","img_art/7.jpg","5","","","","","","","","","","","","","","","","","","","","","","","","",""
"null","","html-keyboard-response","86","728614","0.0-86.0","AZU9D7YLCTAYV","<p style=""font-size: 48px;"">+</p>","","","","","null","allTrialResponses","500","1","6","img_art/7.jpg","20","It reminds me of a close up picture of the moon ","Alexandra,Sierra,Erica,Victoria,Meghan,Maria","I do not like the boring colors in this.,-20,60,20","it looks like a dog ran through some wet cement,-22,260,20","No not cause many emotions,1,80,20","looks like a photograph,-4,400,20","I don't like the texture,-49,220,20","elicits no real response,0,120,20","Victoria","looks like a photograph,-4,400,20","Erica","No not cause many emotions,1,80,20","Maria","elicits no real response,0,120,20","0"
"28307","","survey-text","87","756931","0.0-87.0-0.0","AZU9D7YLCTAYV","","","","{""Q0"":""it seems like the moon got lost in the sky ""}","","","","","","","","","","","","","","","","","","","","","","",""
"3018.600000023842","","image-slider-response","88","759952","0.0-88.0","AZU9D7YLCTAYV","","","","","17","","","","","","","","","","","","","","","","","","","","","",""
"null","","image-button-response","89","764958","0.0-89.0","AZU9D7YLCTAYV","img_art/22.jpg","null","","","","","","","","","","","","","","","","","","","","","","","","",""
"2991","","image-button-response","90","767952","0.0-90.0","AZU9D7YLCTAYV","img_art/22.jpg","2","","","","","","","","","","","","","","","","","","","","","","","","",""
"1998","","image-button-response","91","769953","0.0-91.0-0.0","AZU9D7YLCTAYV","img_art/22.jpg","3","","","","","","","","","","","","","","","","","","","","","","","","",""
"917","","image-button-response","92","770872","0.0-92.0-0.0","AZU9D7YLCTAYV","img_art/22.jpg","0","","","","","","","","","","","","","","","","","","","","","","","","",""
"null","","html-keyboard-response","93","772381","0.0-93.0","AZU9D7YLCTAYV","<p style=""font-size: 48px;"">+</p>","","","","","null","allTrialResponses","1500","1","7","img_art/22.jpg","17","it seems like the moon got lost in the sky ","Kaitlin,Kelsey,Erica,Victoria,Laura,Maria","This represents the hopes in my life.,21,60,20","its messy, like a child painted it,-14,240,20","Picture is very relaxing,32,80,20","love how the colors blend,42,400,20","muddy and rough,14,320,20","displeasure - not a fan of the colour or the shapes,-18,120,20","Erica","Picture is very relaxing,32,80,20","Victoria","love how the colors blend,42,400,20","Kaitlin","This represents the hopes in my life.,21,60,20","0"
"26363","","survey-text","94","798755","0.0-94.0-0.0","AZU9D7YLCTAYV","","","","{""Q0"":""its peaceful and calming ""}","","","","","","","","","","","","","","","","","","","","","","",""
"3305.4000000953674","","image-slider-response","95","802063","0.0-95.0","AZU9D7YLCTAYV","","","","","14","","","","","","","","","","","","","","","","","","","","","",""
"null","","image-button-response","96","807070","0.0-96.0","AZU9D7YLCTAYV","img_art/17.jpg","null","","","","","","","","","","","","","","","","","","","","","","","","",""
"3710","","image-button-response","97","810783","0.0-97.0","AZU9D7YLCTAYV","img_art/17.jpg","2","","","","","","","","","","","","","","","","","","","","","","","","",""
"7867","","image-button-response","98","818654","0.0-98.0-0.0","AZU9D7YLCTAYV","img_art/17.jpg","3","","","","","","","","","","","","","","","","","","","","","","","","",""
"3484","","image-button-response","99","822141","0.0-99.0-0.0","AZU9D7YLCTAYV","img_art/17.jpg","4","","","","","","","","","","","","","","","","","","","","","","","","",""
"null","","html-keyboard-response","100","823159","0.0-100.0","AZU9D7YLCTAYV","<p style=""font-size: 48px;"">+</p>","","","","","null","allTrialResponses","1000","1","8","img_art/17.jpg","14","its peaceful and calming ","Kaitlin,Caitlin,Erica,Victoria,Chelsea,Kayla","i feel some sadness in this picture,25,60,20","Somewhat should trim the tree branches at the shopping mall.,10,80,20","Makes me warm and cozy just by looking at it,29,80,20","love the wispyness of it,34,400,20","The colors are soft.,32,180,20","I like the way the forest is taking over the buildings.,21,180,20","Erica","Makes me warm and cozy just by looking at it,29,80,20","Victoria","love the wispyness of it,34,400,20","Chelsea","The colors are soft.,32,180,20","0"
"25241","","survey-text","101","848413","0.0-101.0-0.0","AZU9D7YLCTAYV","","","","{""Q0"":""This is all over the place for me. It makes me anxious ""}","","","","","","","","","","","","","","","","","","","","","","",""
"3039","","image-slider-response","102","851455","0.0-102.0","AZU9D7YLCTAYV","","","","","-22","","","","","","","","","","","","","","","","","","","","","",""
"null","","image-button-response","103","856469","0.0-103.0","AZU9D7YLCTAYV","img_art/12.jpg","null","","","","","","","","","","","","","","","","","","","","","","","","",""
"6353","","image-button-response","104","862826","0.0-104.0","AZU9D7YLCTAYV","img_art/12.jpg","5","","","","","","","","","","","","","","","","","","","","","","","","",""
"1030","","image-button-response","105","863857","0.0-105.0-0.0","AZU9D7YLCTAYV","img_art/12.jpg","0","","","","","","","","","","","","","","","","","","","","","","","","",""
"1098","","image-button-response","106","864958","0.0-106.0-0.0","AZU9D7YLCTAYV","img_art/12.jpg","1","","","","","","","","","","","","","","","","","","","","","","","","",""
"null","","html-keyboard-response","107","866467","0.0-107.0","AZU9D7YLCTAYV","<p style=""font-size: 48px;"">+</p>","","","","","null","allTrialResponses","1500","1","9","img_art/12.jpg","-22","This is all over the place for me. It makes me anxious ","Julia,Autumn,Erica,Victoria,Chelsea,Allison","this is pretty, but I wouldn't hang it on my wall.,15,40,20","Good too basic.,18,340,20","good colours scheme; organised,17,80,20","to contemporary for me,3,400,20","I like the gradient of little color on the top to colorful on the bottom.,24,180,20","Minimalist colors and shapes.,-5,140,20","Allison","Minimalist colors and shapes.,-5,140,20","Julia","this is pretty, but I wouldn't hang it on my wall.,15,40,20","Autumn","Good too basic.,18,340,20","0"
"27871","","survey-text","108","894355","0.0-108.0-0.0","AZU9D7YLCTAYV","","","","{""Q0"":""I like the contrast of the colors but yet they fit so well together""}","","","","","","","","","","","","","","","","","","","","","","",""
"2925.399999976158","","image-slider-response","109","897283","0.0-109.0","AZU9D7YLCTAYV","","","","","14","","","","","","","","","","","","","","","","","","","","","",""
"3014","","image-button-response","110","902286","0.0-110.0","AZU9D7YLCTAYV","img_art/21.jpg","1","","","","","","","","","","","","","","","","","","","","","","","","",""
"2590","","image-button-response","111","904882","0.0-111.0","AZU9D7YLCTAYV","img_art/21.jpg","2","","","","","","","","","","","","","","","","","","","","","","","","",""
"916","","image-button-response","112","905801","0.0-112.0-0.0","AZU9D7YLCTAYV","img_art/21.jpg","5","","","","","","","","","","","","","","","","","","","","","","","","",""
"1490","","image-button-response","113","907293","0.0-113.0-0.0","AZU9D7YLCTAYV","img_art/21.jpg","1","","","","","","","","","","","","","","","","","","","","","","","","",""
"null","","html-keyboard-response","114","907796","0.0-114.0","AZU9D7YLCTAYV","<p style=""font-size: 48px;"">+</p>","","","","","null","allTrialResponses","500","1","10","img_art/21.jpg","14","I like the contrast of the colors but yet they fit so well together","Julia,Autumn,Emma,Natalie,Courtney,Allison","there's not enough fine detail in this one,-27,40,20","Amazing colors.,34,340,20","Pretty, good colors,30,60,20","my response to the picture is what is going on?,-13,400,20","Another ship on fire.,-10,280,20","I like color mix here,15,140,20","Emma","Pretty, good colors,30,60,20","Allison","I like color mix here,15,140,20","Autumn","Amazing colors.,34,340,20","0"
"3963","","survey-text","115","911787","0.0-115.0-0.0","AZU9D7YLCTAYV","","","","{""Q0"":""our""}","","","","","","","","","","","","","","","","","","","","","","",""
"37117","","survey-text","116","948906","0.0-116.0-0.0","AZU9D7YLCTAYV","","","","{""Q0"":""its like sleeping beauty drawn by a 5 year old ""}","","","","","","","","","","","","","","","","","","","","","","",""
"4100.200000047684","","image-slider-response","117","953008","0.0-117.0","AZU9D7YLCTAYV","","","","","-5","","","","","","","","","","","","","","","","","","","","","",""
"null","","image-button-response","118","958022","0.0-118.0","AZU9D7YLCTAYV","img_art/9.jpg","null","","","","","","","","","","","","","","","","","","","","","","","","",""
"7643","","image-button-response","119","965668","0.0-119.0","AZU9D7YLCTAYV","img_art/9.jpg","5","","","","","","","","","","","","","","","","","","","","","","","","",""
"2373","","image-button-response","120","968044","0.0-120.0-0.0","AZU9D7YLCTAYV","img_art/9.jpg","0","","","","","","","","","","","","","","","","","","","","","","","","",""
"1832","","image-button-response","121","969880","0.0-121.0-0.0","AZU9D7YLCTAYV","img_art/9.jpg","1","","","","","","","","","","","","","","","","","","","","","","","","",""
"null","","html-keyboard-response","122","970883","0.0-122.0","AZU9D7YLCTAYV","<p style=""font-size: 48px;"">+</p>","","","","","null","allTrialResponses","1000","1","11","img_art/9.jpg","-5","its like sleeping beauty drawn by a 5 year old ","Jessica,Autumn,Emma,Amanda,Nicole,Allison","So I don't really like this style but it looks somewhat okay,3,400,20","Abstract but not well made,-26,340,20","Feels angry .....,-40,60,20","Makes me feel angry, its not very clear,-50,180,20","It's peaceful and relaxing,24,20,20","Very eclectic and messy. Not my preference, but may work for some.,-20,140,20","Allison","Very eclectic and messy. Not my preference, but may work for some.,-20,140,20","Jessica","So I don't really like this style but it looks somewhat okay,3,400,20","Autumn","Abstract but not well made,-26,340,20","0"
"20348","","survey-text","123","991245","0.0-123.0-0.0","AZU9D7YLCTAYV","","","","{""Q0"":""This is nice but I wouldn't hang it on my wall""}","","","","","","","","","","","","","","","","","","","","","","",""
"3639.7999999523163","","image-slider-response","124","994888","0.0-124.0","AZU9D7YLCTAYV","","","","","3","","","","","","","","","","","","","","","","","","","","","",""
"null","","image-button-response","125","999901","0.0-125.0","AZU9D7YLCTAYV","img_art/29.jpg","null","","","","","","","","","","","","","","","","","","","","","","","","",""
"404","","image-button-response","126","1000309","0.0-126.0","AZU9D7YLCTAYV","img_art/29.jpg","0","","","","","","","","","","","","","","","","","","","","","","","","",""
"9377","","image-button-response","127","1009688","0.0-127.0-0.0","AZU9D7YLCTAYV","img_art/29.jpg","2","","","","","","","","","","","","","","","","","","","","","","","","",""
"1354","","image-button-response","128","1011044","0.0-128.0-0.0","AZU9D7YLCTAYV","img_art/29.jpg","0","","","","","","","","","","","","","","","","","","","","","","","","",""
"1618","","image-button-response","129","1016509","0.0-128.1-0.1","AZU9D7YLCTAYV","img_art/29.jpg","4","","","","","","","","","","","","","","","","","","","","","","","","",""
"null","","html-keyboard-response","130","1018011","0.0-129.0","AZU9D7YLCTAYV","<p style=""font-size: 48px;"">+</p>","","","","","null","allTrialResponses","1500","1","12","img_art/29.jpg","3","This is nice but I wouldn't hang it on my wall","Jessica,Autumn,Grace,Erika,Miranda,Allison","It looks cool but I don't really get what's going on, it looks too busy,0,400,20","It's too messy.,-25,340,20","Doesn't do much for me. I like some of the colors but not much else.,-10,180,20","Feels like an abandoned dream,13,100,20","This feels chaotic and I like the energy that it gives off.,21,320,20","Flash is too strong. Dislike the colors,-5,140,20","Jessica","It looks cool but I don't really get what's going on, it looks too busy,0,400,20","Grace","Doesn't do much for me. I like some of the colors but not much else.,-10,180,20","Miranda","This feels chaotic and I like the energy that it gives off.,21,320,20","2"
"9736","","survey-text","131","1027761","0.0-130.0-0.0","AZU9D7YLCTAYV","","","","{""Q0"":""simple and cute ""}","","","","","","","","","","","","","","","","","","","","","","",""
"3593.9000000953674","","image-slider-response","132","1031358","0.0-131.0","AZU9D7YLCTAYV","","","","","17","","","","","","","","","","","","","","","","","","","","","",""
"3047","","image-button-response","133","1036368","0.0-132.0","AZU9D7YLCTAYV","img_art/5.jpg","1","","","","","","","","","","","","","","","","","","","","","","","","",""
"4228","","image-button-response","134","1040602","0.0-133.0","AZU9D7YLCTAYV","img_art/5.jpg","4","","","","","","","","","","","","","","","","","","","","","","","","",""
"2352","","image-button-response","135","1042957","0.0-134.0-0.0","AZU9D7YLCTAYV","img_art/5.jpg","5","","","","","","","","","","","","","","","","","","","","","","","","",""
"2206","","image-button-response","136","1045165","0.0-135.0-0.0","AZU9D7YLCTAYV","img_art/5.jpg","1","","","","","","","","","","","","","","","","","","","","","","","","",""
"null","","html-keyboard-response","137","1046168","0.0-136.0","AZU9D7YLCTAYV","<p style=""font-size: 48px;"">+</p>","","","","","null","allTrialResponses","1000","1","13","img_art/5.jpg","17","simple and cute ","Jessica,Kimberly,Grace,Rebecca,Miranda,Andrea","Don't really know the point of this one.,-11,400,20","It feels positive and kind of uplifting,24,260,20","Looks like a yellow plastic trash bag.,-42,180,20","sorry not my style,-37,100,20","This either looks like a bell or aliens finishing the pyramids,-34,320,20","Perfume bottle, reminds of fancy nights out.,11,240,20","Miranda","This either looks like a bell or aliens finishing the pyramids,-34,320,20","Andrea","Perfume bottle, reminds of fancy nights out.,11,240,20","Kimberly","It feels positive and kind of uplifting,24,260,20","2"
"22620","","survey-text","138","1068797","0.0-137.0-0.0","AZU9D7YLCTAYV","","","","{""Q0"":""not my style, kinda confusing ""}","","","","","","","","","","","","","","","","","","","","","","",""
"4154.100000023842","","image-slider-response","139","1072955","0.0-138.0","AZU9D7YLCTAYV","","","","","-20","","","","","","","","","","","","","","","","","","","","","",""
"null","","image-button-response","140","1077959","0.0-139.0","AZU9D7YLCTAYV","img_art/10.jpg","null","","","","","","","","","","","","","","","","","","","","","","","","",""
"205","","image-button-response","141","1078168","0.0-140.0","AZU9D7YLCTAYV","img_art/10.jpg","1","","","","","","","","","","","","","","","","","","","","","","","","",""
"12705","","image-button-response","142","1090875","0.0-141.0-0.0","AZU9D7YLCTAYV","img_art/10.jpg","2","","","","","","","","","","","","","","","","","","","","","","","","",""
"1474","","image-button-response","143","1092351","0.0-142.0-0.0","AZU9D7YLCTAYV","img_art/10.jpg","0","","","","","","","","","","","","","","","","","","","","","","","","",""
"null","","html-keyboard-response","144","1092853","0.0-143.0","AZU9D7YLCTAYV","<p style=""font-size: 48px;"">+</p>","","","","","null","allTrialResponses","500","1","14","img_art/10.jpg","-20","not my style, kinda confusing ","Taylor,Kimberly,Alexandria,Katherine,Miranda,Andrea","Makes me think of the exhilaration of a roller coaster,31,340,20","Also too all over the place, I don't see any pattern or anything that's supposed to stand out,-19,260,20","it reminds me of a musical instrument,19,80,20","This is pretty rad. The outline looks like a music staff,15,120,20","It reminds me of how my dog has to run all over the place just to poop in one specific location.,-20,320,20","Kraken, and I love it.,39,240,20","Kimberly","Also too all over the place, I don't see any pattern or anything that's supposed to stand out,-19,260,20","Alexandria","it reminds me of a musical instrument,19,80,20","Taylor","Makes me think of the exhilaration of a roller coaster,31,340,20","2"
"29635","","survey-text","145","1122495","0.0-144.0-0.0","AZU9D7YLCTAYV","","","","{""Q0"":""It looks like people dancing in a rave""}","","","","","","","","","","","","","","","","","","","","","","",""
"2807.3000000715256","","image-slider-response","146","1125305","0.0-145.0","AZU9D7YLCTAYV","","","","","9","","","","","","","","","","","","","","","","","","","","","",""
"2214","","image-button-response","147","1130309","0.0-146.0","AZU9D7YLCTAYV","img_art/23.jpg","0","","","","","","","","","","","","","","","","","","","","","","","","",""
"5323","","image-button-response","148","1135636","0.0-147.0","AZU9D7YLCTAYV","img_art/23.jpg","1","","","","","","","","","","","","","","","","","","","","","","","","",""
"694","","image-button-response","149","1136331","0.0-148.0-0.0","AZU9D7YLCTAYV","img_art/23.jpg","2","","","","","","","","","","","","","","","","","","","","","","","","",""
"990","","image-button-response","150","1137323","0.0-149.0-0.0","AZU9D7YLCTAYV","img_art/23.jpg","0","","","","","","","","","","","","","","","","","","","","","","","","",""
"null","","html-keyboard-response","151","1138335","0.0-150.0","AZU9D7YLCTAYV","<p style=""font-size: 48px;"">+</p>","","","","","null","allTrialResponses","1000","1","15","img_art/23.jpg","9","It looks like people dancing in a rave","Taylor,Kimberly,Alexandria,Sarah,Melissa,Chloe","The color contrast makes me happy,40,340,20","Look at all the dancers,26,260,20","makes me happy and want to dance,43,80,20","it's not uninteresting, but i'm not responding to it,-7,180,20","do not like color splatters or sharp silhouettes, feels tacky,-34,240,20","Poster shop camp.,-40,220,20","Kimberly","Look at all the dancers,26,260,20","Alexandria","makes me happy and want to dance,43,80,20","Taylor","The color contrast makes me happy,40,340,20","2"
"4219","","survey-text","152","1142585","0.0-151.0-0.0","AZU9D7YLCTAYV","","","","{""Q0"":""course""}","","","","","","","","","","","","","","","","","","","","","","",""
"65511","","survey-text","153","1208099","0.0-152.0-0.0","AZU9D7YLCTAYV","","","","{""Q0"":""It's like I tried really hard to paint something and then my niece drew with a sharpie on top""}","","","","","","","","","","","","","","","","","","","","","","",""
"4211.800000071526","","image-slider-response","154","1212313","0.0-153.0","AZU9D7YLCTAYV","","","","","-14","","","","","","","","","","","","","","","","","","","","","",""
"4796","","image-button-response","155","1217326","0.0-154.0","AZU9D7YLCTAYV","img_art/27.jpg","2","","","","","","","","","","","","","","","","","","","","","","","","",""
"1851","","image-button-response","156","1219179","0.0-155.0","AZU9D7YLCTAYV","img_art/27.jpg","3","","","","","","","","","","","","","","","","","","","","","","","","",""
"2317","","image-button-response","157","1221499","0.0-156.0-0.0","AZU9D7YLCTAYV","img_art/27.jpg","1","","","","","","","","","","","","","","","","","","","","","","","","",""
"546","","image-button-response","158","1222048","0.0-157.0-0.0","AZU9D7YLCTAYV","img_art/27.jpg","2","","","","","","","","","","","","","","","","","","","","","","","","",""
"null","","html-keyboard-response","159","1223065","0.0-158.0","AZU9D7YLCTAYV","<p style=""font-size: 48px;"">+</p>","","","","","null","allTrialResponses","1000","1","16","img_art/27.jpg","-14","It's like I tried really hard to paint something and then my niece drew with a sharpie on top","Taylor,Kimberly,Alexandria,Alexis,Amy,Cynthia","Reminds me of a town on fire,-15,340,20","Nothing stands out,-23,260,20","it looks very simple and childlike,-31,80,20","Too abstract, doesn't remind me of anything,-42,100,20","The colors provide a complexity to the nearly child-like sketches.,5,220,20","dirty and misunderstood,-47,320,20","Alexis","Too abstract, doesn't remind me of anything,-42,100,20","Kimberly","Nothing stands out,-23,260,20","Alexandria","it looks very simple and childlike,-31,80,20","2"
"16052","","survey-text","160","1239125","0.0-159.0-0.0","AZU9D7YLCTAYV","","","","{""Q0"":""this does nothing for me""}","","","","","","","","","","","","","","","","","","","","","","",""
"3698","","image-slider-response","161","1242825","0.0-160.0","AZU9D7YLCTAYV","","","","","-24","","","","","","","","","","","","","","","","","","","","","",""
"null","","image-button-response","162","1247833","0.0-161.0","AZU9D7YLCTAYV","img_art/4.jpg","null","","","","","","","","","","","","","","","","","","","","","","","","",""
"3921","","image-button-response","163","1251757","0.0-162.0","AZU9D7YLCTAYV","img_art/4.jpg","3","","","","","","","","","","","","","","","","","","","","","","","","",""
"5444","","image-button-response","164","1257205","0.0-163.0-0.0","AZU9D7YLCTAYV","img_art/4.jpg","5","","","","","","","","","","","","","","","","","","","","","","","","",""
"7370","","image-button-response","165","1264579","0.0-164.0-0.0","AZU9D7YLCTAYV","img_art/4.jpg","1","","","","","","","","","","","","","","","","","","","","","","","","",""
"null","","html-keyboard-response","166","1266091","0.0-165.0","AZU9D7YLCTAYV","<p style=""font-size: 48px;"">+</p>","","","","","null","allTrialResponses","1500","1","17","img_art/4.jpg","-24","this does nothing for me","Molly,Kimberly,Alexandria,Alexis,Catherine,Madeline","Not bad at all.,20,340,20","It's ok, theres nothing that draws me away from it I guess,0,260,20","it looks like a simple finger painting, yet i liked the color choices,-12,80,20","Really don't like this. Kindergarten art, sorry.,-50,100,20","Hearts, family connected. They are standing on a narrow base and could fall to pieces at anytime.,40,160,20","Not impressed really,-20,40,20","Alexis","Really don't like this. Kindergarten art, sorry.,-50,100,20","Madeline","Not impressed really,-20,40,20","Kimberly","It's ok, theres nothing that draws me away from it I guess,0,260,20","2"
"26343","","survey-text","167","1292443","0.0-166.0-0.0","AZU9D7YLCTAYV","","","","{""Q0"":""so many different elements. I like it ""}","","","","","","","","","","","","","","","","","","","","","","",""
"2943.899999976158","","image-slider-response","168","1295389","0.0-167.0","AZU9D7YLCTAYV","","","","","22","","","","","","","","","","","","","","","","","","","","","",""
"2205","","image-button-response","169","1300393","0.0-168.0","AZU9D7YLCTAYV","img_art/16.jpg","0","","","","","","","","","","","","","","","","","","","","","","","","",""
"5180","","image-button-response","170","1305579","0.0-169.0","AZU9D7YLCTAYV","img_art/16.jpg","1","","","","","","","","","","","","","","","","","","","","","","","","",""
"946","","image-button-response","171","1306528","0.0-170.0-0.0","AZU9D7YLCTAYV","img_art/16.jpg","2","","","","","","","","","","","","","","","","","","","","","","","","",""
"534","","image-button-response","172","1307065","0.0-171.0-0.0","AZU9D7YLCTAYV","img_art/16.jpg","0","","","","","","","","","","","","","","","","","","","","","","","","",""
"null","","html-keyboard-response","173","1307567","0.0-172.0","AZU9D7YLCTAYV","<p style=""font-size: 48px;"">+</p>","","","","","null","allTrialResponses","500","1","18","img_art/16.jpg","22","so many different elements. I like it ","Mackenzie,Kimberly,Leslie,Alexis,Kelly,Madeline","I like the mixture of images,23,20,20","Weird and creepy,-30,260,20","This is making me feel nervous in an enjoyable way.,20,380,20","Don't like this technique. Too serial killer.,-50,100,20","Looks like someone got really high and did a bad photoshop job.,-27,220,20","That bear looks unfitting!,-8,40,20","Kimberly","Weird and creepy,-30,260,20","Leslie","This is making me feel nervous in an enjoyable way.,20,380,20","Mackenzie","I like the mixture of images,23,20,20","2"
"13680","","survey-text","174","1321256","0.0-173.0-0.0","AZU9D7YLCTAYV","","","","{""Q0"":""it looks like a railroad city ""}","","","","","","","","","","","","","","","","","","","","","","",""
"7775.699999928474","","image-slider-response","175","1329034","0.0-174.0","AZU9D7YLCTAYV","","","","","0","","","","","","","","","","","","","","","","","","","","","",""
"null","","image-button-response","176","1334041","0.0-175.0","AZU9D7YLCTAYV","img_art/11.jpg","null","","","","","","","","","","","","","","","","","","","","","","","","",""
"5342","","image-button-response","177","1339386","0.0-176.0","AZU9D7YLCTAYV","img_art/11.jpg","4","","","","","","","","","","","","","","","","","","","","","","","","",""
"3032","","image-button-response","178","1342419","0.0-177.0-0.0","AZU9D7YLCTAYV","img_art/11.jpg","5","","","","","","","","","","","","","","","","","","","","","","","","",""
"1318","","image-button-response","179","1343739","0.0-178.0-0.0","AZU9D7YLCTAYV","img_art/11.jpg","0","","","","","","","","","","","","","","","","","","","","","","","","",""
"null","","html-keyboard-response","180","1345244","0.0-179.0","AZU9D7YLCTAYV","<p style=""font-size: 48px;"">+</p>","","","","","null","allTrialResponses","1500","1","19","img_art/11.jpg","0","it looks like a railroad city ","Mackenzie,Kimberly,Leslie,Gabriela,Brianna,Rachel","The different textures and colors make this pleasing to look at.,30,20,20","It's cables in a city,21,260,20","This elicits no reaction in me.,0,380,20","This photo makes me feel bleak,-16,140,20","I like dark colors.,31,20,20","Makes me think of a futuristic scene of vehicles flying in the sky in a city.,36,80,20","Brianna","I like dark colors.,31,20,20","Rachel","Makes me think of a futuristic scene of vehicles flying in the sky in a city.,36,80,20","Mackenzie","The different textures and colors make this pleasing to look at.,30,20,20","2"
"19738","","survey-text","181","1365005","0.0-180.0-0.0","AZU9D7YLCTAYV","","","","{""Q0"":""brush strokes. nothing more nothing less""}","","","","","","","","","","","","","","","","","","","","","","",""
"3217.7999999523163","","image-slider-response","182","1368225","0.0-181.0","AZU9D7YLCTAYV","","","","","-20","","","","","","","","","","","","","","","","","","","","","",""
"null","","image-button-response","183","1373238","0.0-182.0","AZU9D7YLCTAYV","img_art/30.jpg","null","","","","","","","","","","","","","","","","","","","","","","","","",""
"3098","","image-button-response","184","1376339","0.0-183.0","AZU9D7YLCTAYV","img_art/30.jpg","2","","","","","","","","","","","","","","","","","","","","","","","","",""
"2773","","image-button-response","185","1379114","0.0-184.0-0.0","AZU9D7YLCTAYV","img_art/30.jpg","1","","","","","","","","","","","","","","","","","","","","","","","","",""
"12416","","image-button-response","186","1391534","0.0-185.0-0.0","AZU9D7YLCTAYV","img_art/30.jpg","5","","","","","","","","","","","","","","","","","","","","","","","","",""
"null","","html-keyboard-response","187","1392038","0.0-186.0","AZU9D7YLCTAYV","<p style=""font-size: 48px;"">+</p>","","","","","null","allTrialResponses","500","1","20","img_art/30.jpg","-20","brush strokes. nothing more nothing less","Mackenzie,Briana,Michaela,Brooke,Brianna,Rachel","I like the forefront design.,10,20,20","Its ugly. Too simple,-23,400,20","My son made me a painting that looked like this,26,260,20","Like the color and style,31,60,20","I like the fact that it's a painting.,21,20,20","I like this one because I am a mom and it reminds me of a child finger-painting.,20,80,20","Michaela","My son made me a painting that looked like this,26,260,20","Briana","Its ugly. Too simple,-23,400,20","Rachel","I like this one because I am a mom and it reminds me of a child finger-painting.,20,80,20","2"
"2997","","survey-text","188","1395053","0.0-187.0-0.0","AZU9D7YLCTAYV","","","","{""Q0"":""we""}","","","","","","","","","","","","","","","","","","","","","","",""
"37060","","survey-text","189","1432115","0.0-188.0-0.0","AZU9D7YLCTAYV","","","","{""Q0"":""I see a dog wearing sunglasses on the bottom left corner ""}","","","","","","","","","","","","","","","","","","","","","","",""
"8601.799999952316","","image-slider-response","190","1440719","0.0-189.0","AZU9D7YLCTAYV","","","","","20","","","","","","","","","","","","","","","","","","","","","",""
"null","","image-button-response","191","1445735","0.0-190.0","AZU9D7YLCTAYV","img_art/24.jpg","null","","","","","","","","","","","","","","","","","","","","","","","","",""
"5278","","image-button-response","192","1451018","0.0-191.0","AZU9D7YLCTAYV","img_art/24.jpg","5","","","","","","","","","","","","","","","","","","","","","","","","",""
"1144","","image-button-response","193","1452165","0.0-192.0-0.0","AZU9D7YLCTAYV","img_art/24.jpg","0","","","","","","","","","","","","","","","","","","","","","","","","",""
"4367","","image-button-response","194","1456535","0.0-193.0-0.0","AZU9D7YLCTAYV","img_art/24.jpg","3","","","","","","","","","","","","","","","","","","","","","","","","",""
"null","","html-keyboard-response","195","1457538","0.0-194.0","AZU9D7YLCTAYV","<p style=""font-size: 48px;"">+</p>","","","","","null","allTrialResponses","1000","1","21","img_art/24.jpg","20","I see a dog wearing sunglasses on the bottom left corner ","Gabrielle,Briana,Michaela,Mikayla,Savannah,Rachel","flowing water part is good, some of the rest is ok but dark,14,160,20","Abstract waterfall landscape. Confusing,-13,400,20","Very pretty and soft,37,260,20","Looks like a waterfall!,34,300,20","This is gorgeous. Strong, saturated colors and clear meaning.,50,200,20","Looks like a beautiful stream rolling through terrain of rocks and flowers.,43,80,20","Rachel","Looks like a beautiful stream rolling through terrain of rocks and flowers.,43,80,20","Gabrielle","flowing water part is good, some of the rest is ok but dark,14,160,20","Mikayla","Looks like a waterfall!,34,300,20","2"
"36691","","survey-text","196","1494244","0.0-195.0-0.0","AZU9D7YLCTAYV","","","","{""Q0"":""I like the combination of simplicity and detail ""}","","","","","","","","","","","","","","","","","","","","","","",""
"3839","","image-slider-response","197","1498086","0.0-196.0","AZU9D7YLCTAYV","","","","","20","","","","","","","","","","","","","","","","","","","","","",""
"null","","image-button-response","198","1503105","0.0-197.0","AZU9D7YLCTAYV","img_art/26.jpg","null","","","","","","","","","","","","","","","","","","","","","","","","",""
"2288","","image-button-response","199","1505397","0.0-198.0","AZU9D7YLCTAYV","img_art/26.jpg","0","","","","","","","","","","","","","","","","","","","","","","","","",""
"3698","","image-button-response","200","1509097","0.0-199.0-0.0","AZU9D7YLCTAYV","img_art/26.jpg","5","","","","","","","","","","","","","","","","","","","","","","","","",""
"2140","","image-button-response","201","1511239","0.0-200.0-0.0","AZU9D7YLCTAYV","img_art/26.jpg","0","","","","","","","","","","","","","","","","","","","","","","","","",""
"2419","","image-button-response","202","1516399","0.0-200.1-0.1","AZU9D7YLCTAYV","img_art/26.jpg","3","","","","","","","","","","","","","","","","","","","","","","","","",""
"null","","html-keyboard-response","203","1516902","0.0-201.0","AZU9D7YLCTAYV","<p style=""font-size: 48px;"">+</p>","","","","","null","allTrialResponses","500","1","22","img_art/26.jpg","20","I like the combination of simplicity and detail ","Gabrielle,Kristen,Vanessa,Mikayla,Megan,Rachel","subtle use of colors, city street view?,8,160,20","happy, park, childhood,9,280,20","Something I'd see in a thrift store. It looks like not much effort was used to paint this.,9,380,20","Love the colors in this one.,22,300,20","Washed out suburban scene with childish tones.,-24,200,20","Pretty trees and bushes around fancy brown stones. I like the soft nature.,20,80,20","Gabrielle","subtle use of colors, city street view?,8,160,20","Rachel","Pretty trees and bushes around fancy brown stones. I like the soft nature.,20,80,20","Mikayla","Love the colors in this one.,22,300,20","4"
"16143","","survey-text","204","1533056","0.0-202.0-0.0","AZU9D7YLCTAYV","","","","{""Q0"":""This is going to give me nightmares ""}","","","","","","","","","","","","","","","","","","","","","","",""
"222221.39999997616","","image-slider-response","205","1755281","0.0-203.0","AZU9D7YLCTAYV","","","","","-30","","","","","","","","","","","","","","","","","","","","","",""
"4217","","image-button-response","206","1760286","0.0-204.0","AZU9D7YLCTAYV","img_art/3.jpg","1","","","","","","","","","","","","","","","","","","","","","","","","",""
"5396","","image-button-response","207","1765688","0.0-205.0","AZU9D7YLCTAYV","img_art/3.jpg","3","","","","","","","","","","","","","","","","","","","","","","","","",""
"1700","","image-button-response","208","1767392","0.0-206.0-0.0","AZU9D7YLCTAYV","img_art/3.jpg","5","","","","","","","","","","","","","","","","","","","","","","","","",""
"789","","image-button-response","209","1768183","0.0-207.0-0.0","AZU9D7YLCTAYV","img_art/3.jpg","1","","","","","","","","","","","","","","","","","","","","","","","","",""
"null","","html-keyboard-response","210","1769690","0.0-208.0","AZU9D7YLCTAYV","<p style=""font-size: 48px;"">+</p>","","","","","null","allTrialResponses","1500","1","23","img_art/3.jpg","-30","This is going to give me nightmares ","Gabrielle,Monica,Destiny,Mikayla,Alexa,Rachel","7th grade art, not much effort to do this.,-39,160,20","It looks like random scribbles by a child and not appealing,-38,360,20","im just getting more agitated and less appreciative of art. I have absolutely no scale to base on,-34,360,20","Scary. Looks like blood.,-45,300,20","Looks messy and too much for my eyes,-35,40,20","Too red and chaotic. Not calming.,-41,80,20","Mikayla","Scary. Looks like blood.,-45,300,20","Rachel","Too red and chaotic. Not calming.,-41,80,20","Monica","It looks like random scribbles by a child and not appealing,-38,360,20","4"
"21932","","survey-text","211","1791643","0.0-209.0-0.0","AZU9D7YLCTAYV","","","","{""Q0"":""its cute and not overwhelming ""}","","","","","","","","","","","","","","","","","","","","","","",""
"3278","","image-slider-response","212","1794923","0.0-210.0","AZU9D7YLCTAYV","","","","","26","","","","","","","","","","","","","","","","","","","","","",""
"null","","image-button-response","213","1799926","0.0-211.0","AZU9D7YLCTAYV","img_art/14.jpg","null","","","","","","","","","","","","","","","","","","","","","","","","",""
"663","","image-button-response","214","1800593","0.0-212.0","AZU9D7YLCTAYV","img_art/14.jpg","2","","","","","","","","","","","","","","","","","","","","","","","","",""
"6227","","image-button-response","215","1806823","0.0-213.0-0.0","AZU9D7YLCTAYV","img_art/14.jpg","4","","","","","","","","","","","","","","","","","","","","","","","","",""
"3706","","image-button-response","216","1810532","0.0-214.0-0.0","AZU9D7YLCTAYV","img_art/14.jpg","0","","","","","","","","","","","","","","","","","","","","","","","","",""
"null","","html-keyboard-response","217","1811534","0.0-215.0","AZU9D7YLCTAYV","<p style=""font-size: 48px;"">+</p>","","","","","null","allTrialResponses","1000","1","24","img_art/14.jpg","26","its cute and not overwhelming ","Cassidy,Monica,Sophia,Mikayla,Emily,Rachel","Meh. Pleasant to look at. Colors are nice,6,140,20","Just don't like it, maybe it's the bleeding colors on the left of the tree-looking thing in the center or the faded background,-10,360,20","I don't know why, but this piece makes me happy.,20,280,20","The red looks like blood and im not a huge fan,15,300,20","Looks like there is some skill but also at the same time parts look unskilled.,-16,40,20","Did not evoke much feeling except confusion. I am not sure what to make of this one.,-20,80,20","Sophia","I don't know why, but this piece makes me happy.,20,280,20","Emily","Looks like there is some skill but also at the same time parts look unskilled.,-16,40,20","Cassidy","Meh. Pleasant to look at. Colors are nice,6,140,20","4"
"124746","","survey-text","218","1936302","0.0-216.0-0.0","AZU9D7YLCTAYV","","","","{""Q0"":""lots of dimension ""}","","","","","","","","","","","","","","","","","","","","","","",""
"3047.7999999523163","","image-slider-response","219","1939352","0.0-217.0","AZU9D7YLCTAYV","","","","","13","","","","","","","","","","","","","","","","","","","","","",""
"null","","image-button-response","220","1944366","0.0-218.0","AZU9D7YLCTAYV","img_art/13.jpg","null","","","","","","","","","","","","","","","","","","","","","","","","",""
"1160","","image-button-response","221","1945530","0.0-219.0","AZU9D7YLCTAYV","img_art/13.jpg","0","","","","","","","","","","","","","","","","","","","","","","","","",""
"7407","","image-button-response","222","1952940","0.0-220.0-0.0","AZU9D7YLCTAYV","img_art/13.jpg","4","","","","","","","","","","","","","","","","","","","","","","","","",""
"5305","","image-button-response","223","1958248","0.0-221.0-0.0","AZU9D7YLCTAYV","img_art/13.jpg","1","","","","","","","","","","","","","","","","","","","","","","","","",""
"null","","html-keyboard-response","224","1959250","0.0-222.0","AZU9D7YLCTAYV","<p style=""font-size: 48px;"">+</p>","","","","","null","allTrialResponses","1000","1","25","img_art/13.jpg","13","lots of dimension ","Cassidy,Michelle,Sophia,Bailey,Emily,Sabrina","Great color balance. I like the splatter, and how the vertical lines go from sharper to more blended.,31,140,20","I like the blue colors and the symmetry and paint splatters but I would not hang it in my house,8,280,20","I like the colors used in this piece.,2,280,20","Looks like an upclose dried set of water droplets. Boring.,-25,360,20","I don't car for it but it does seem organized and like it took considereably more skill that others.,9,40,20","I love the edgy nature,50,120,20","Cassidy","Great color balance. I like the splatter, and how the vertical lines go from sharper to more blended.,31,140,20","Emily","I don't car for it but it does seem organized and like it took considereably more skill that others.,9,40,20","Michelle","I like the blue colors and the symmetry and paint splatters but I would not hang it in my house,8,280,20","4"
"6968","","survey-text","225","1966256","0.0-223.0-0.0","AZU9D7YLCTAYV","","","","{""Q0"":""table""}","","","","","","","","","","","","","","","","","","","","","","",""
"20904","","survey-text","226","1987162","0.0-224.0-0.0","AZU9D7YLCTAYV","","","","{""Q0"":""its like a blurry western ""}","","","","","","","","","","","","","","","","","","","","","","",""
"3989","","image-slider-response","227","1991154","0.0-225.0","AZU9D7YLCTAYV","","","","","5","","","","","","","","","","","","","","","","","","","","","",""
"4312","","image-button-response","228","1996158","0.0-226.0","AZU9D7YLCTAYV","img_art/20.jpg","0","","","","","","","","","","","","","","","","","","","","","","","","",""
"5843","","image-button-response","229","2002006","0.0-227.0","AZU9D7YLCTAYV","img_art/20.jpg","5","","","","","","","","","","","","","","","","","","","","","","","","",""
"5888","","image-button-response","230","2007897","0.0-228.0-0.0","AZU9D7YLCTAYV","img_art/20.jpg","2","","","","","","","","","","","","","","","","","","","","","","","","",""
"555","","image-button-response","231","2008456","0.0-229.0-0.0","AZU9D7YLCTAYV","img_art/20.jpg","0","","","","","","","","","","","","","","","","","","","","","","","","",""
"null","","html-keyboard-response","232","2008958","0.0-230.0","AZU9D7YLCTAYV","<p style=""font-size: 48px;"">+</p>","","","","","null","allTrialResponses","500","1","26","img_art/20.jpg","5","its like a blurry western ","Cassidy,Michelle,Diana,Caroline,Emily,Cheyenne","sort of pleasant to look at, but can't tell if it's supposed to be something,13,140,20","Reminds me of Dali for some reason, whom I don't like,-7,280,20","I'm not sure why this reminds me of surrealism. It might be the colors used.,16,380,20","Makes me feel weary,21,100,20","Brings about an emotion response of dspair. Loose lines but yet has a cohesion.,8,40,20","Liked the background,15,200,20","Cheyenne","Liked the background,15,200,20","Diana","I'm not sure why this reminds me of surrealism. It might be the colors used.,16,380,20","Cassidy","sort of pleasant to look at, but can't tell if it's supposed to be something,13,140,20","4"
"41384","","survey-text","233","2050357","0.0-231.0-0.0","AZU9D7YLCTAYV","","","","{""Q0"":""a mess, reminds me of a child's playroom ""}","","","","","","","","","","","","","","","","","","","","","","",""
"3294.2000000476837","","image-slider-response","234","2053653","0.0-232.0","AZU9D7YLCTAYV","","","","","-20","","","","","","","","","","","","","","","","","","","","","",""
"4299","","image-button-response","235","2058671","0.0-233.0","AZU9D7YLCTAYV","img_art/2.jpg","1","","","","","","","","","","","","","","","","","","","","","","","","",""
"2584","","image-button-response","236","2061259","0.0-234.0","AZU9D7YLCTAYV","img_art/2.jpg","3","","","","","","","","","","","","","","","","","","","","","","","","",""
"1161","","image-button-response","237","2062423","0.0-235.0-0.0","AZU9D7YLCTAYV","img_art/2.jpg","4","","","","","","","","","","","","","","","","","","","","","","","","",""
"789","","image-button-response","238","2063215","0.0-236.0-0.0","AZU9D7YLCTAYV","img_art/2.jpg","1","","","","","","","","","","","","","","","","","","","","","","","","",""
"null","","html-keyboard-response","239","2064718","0.0-237.0","AZU9D7YLCTAYV","<p style=""font-size: 48px;"">+</p>","","","","","null","allTrialResponses","1500","1","27","img_art/2.jpg","-20","a mess, reminds me of a child's playroom ","Cassidy,Hailey,Diana,Lauren,Haley,Cheyenne","It's interesting. The chunks of black here and there are nice,13,140,20","ugly green color and makes me sick,-29,200,20","I think I see people sitting in lawn chairs in a circle watching an event. Not really sure so I rated it lower.,-35,380,20","I feel that its too abstract for me to understand what I'm looking at.,-15,340,20","My first thought was that it looks like a children's art project,-30,220,20","Colors mix nicely.,5,200,20","Lauren","I feel that its too abstract for me to understand what I'm looking at.,-15,340,20","Haley","My first thought was that it looks like a children's art project,-30,220,20","Hailey","ugly green color and makes me sick,-29,200,20","4"
"20838","","survey-text","240","2085567","0.0-238.0-0.0","AZU9D7YLCTAYV","","","","{""Q0"":""lots of blur and confusion ""}","","","","","","","","","","","","","","","","","","","","","","",""
"2701.5","","image-slider-response","241","2088271","0.0-239.0","AZU9D7YLCTAYV","","","","","-23","","","","","","","","","","","","","","","","","","","","","",""
"null","","image-button-response","242","2093275","0.0-240.0","AZU9D7YLCTAYV","img_art/1.jpg","null","","","","","","","","","","","","","","","","","","","","","","","","",""
"274","","image-button-response","243","2093553","0.0-241.0","AZU9D7YLCTAYV","img_art/1.jpg","3","","","","","","","","","","","","","","","","","","","","","","","","",""
"2866","","image-button-response","244","2096421","0.0-242.0-0.0","AZU9D7YLCTAYV","img_art/1.jpg","4","","","","","","","","","","","","","","","","","","","","","","","","",""
"1613","","image-button-response","245","2098038","0.0-243.0-0.0","AZU9D7YLCTAYV","img_art/1.jpg","2","","","","","","","","","","","","","","","","","","","","","","","","",""
"null","","html-keyboard-response","246","2098541","0.0-244.0","AZU9D7YLCTAYV","<p style=""font-size: 48px;"">+</p>","","","","","null","allTrialResponses","500","1","28","img_art/1.jpg","-23","lots of blur and confusion ","Shelby,Hailey,Hannah,Lauren,Haley,Kaylee","This one has a pleasent energy,15,240,20","colors that are fairly warm. its ok,8,200,20","Reminds me of fall.,7,240,20","This image doesn't invoke much in me.,0,340,20","Pleasant, but a tad too monochromatic in some areas for my taste,7,220,20","a colorful piece of art,25,200,20","Lauren","This image doesn't invoke much in me.,0,340,20","Haley","Pleasant, but a tad too monochromatic in some areas for my taste,7,220,20","Hannah","Reminds me of fall.,7,240,20","4"
"28491","","survey-text","247","2127042","0.0-245.0-0.0","AZU9D7YLCTAYV","","","","{""Q0"":""this is great!""}","","","","","","","","","","","","","","","","","","","","","","",""
"2894.0999999046326","","image-slider-response","248","2129938","0.0-246.0","AZU9D7YLCTAYV","","","","","33","","","","","","","","","","","","","","","","","","","","","",""
"null","","image-button-response","249","2134946","0.0-247.0","AZU9D7YLCTAYV","img_art/25.jpg","null","","","","","","","","","","","","","","","","","","","","","","","","",""
"7489","","image-button-response","250","2142439","0.0-248.0","AZU9D7YLCTAYV","img_art/25.jpg","5","","","","","","","","","","","","","","","","","","","","","","","","",""
"1085","","image-button-response","251","2143527","0.0-249.0-0.0","AZU9D7YLCTAYV","img_art/25.jpg","2","","","","","","","","","","","","","","","","","","","","","","","","",""
"1846","","image-button-response","252","2145375","0.0-250.0-0.0","AZU9D7YLCTAYV","img_art/25.jpg","1","","","","","","","","","","","","","","","","","","","","","","","","",""
"null","","html-keyboard-response","253","2146383","0.0-251.0","AZU9D7YLCTAYV","<p style=""font-size: 48px;"">+</p>","","","","","null","allTrialResponses","1000","1","29","img_art/25.jpg","33","this is great!","Alyssa,Makayla,Hannah,Lauren,Haley,Sydney","Dark silhouette against the murky background Illicites an ominous feeling. Don't really like it.,-20,160,20","It's very mystical.,5,80,20","Looks like a voodoo figure in a New Orleans cemetery at night.,-5,240,20","Depicts something negative, such as ritual. I'm not a fan.,-10,340,20","I like the design but the brightness of the color feels almost blinding to me.,-3,220,20","This piece gives me a lot of questions which I kind of like.,10,320,20","Sydney","This piece gives me a lot of questions which I kind of like.,10,320,20","Hannah","Looks like a voodoo figure in a New Orleans cemetery at night.,-5,240,20","Makayla","It's very mystical.,5,80,20","4"
"22574","","survey-text","254","2168966","0.0-252.0-0.0","AZU9D7YLCTAYV","","","","{""Q0"":""it reminds me of dead fish in the sea""}","","","","","","","","","","","","","","","","","","","","","","",""
"2949.100000023842","","image-slider-response","255","2171918","0.0-253.0","AZU9D7YLCTAYV","","","","","-34","","","","","","","","","","","","","","","","","","","","","",""
"4309","","image-button-response","256","2176925","0.0-254.0","AZU9D7YLCTAYV","img_art/15.jpg","5","","","","","","","","","","","","","","","","","","","","","","","","",""
"4994","","image-button-response","257","2181924","0.0-255.0","AZU9D7YLCTAYV","img_art/15.jpg","1","","","","","","","","","","","","","","","","","","","","","","","","",""
"9006","","image-button-response","258","2190932","0.0-256.0-0.0","AZU9D7YLCTAYV","img_art/15.jpg","3","","","","","","","","","","","","","","","","","","","","","","","","",""
"1642","","image-button-response","259","2192576","0.0-257.0-0.0","AZU9D7YLCTAYV","img_art/15.jpg","5","","","","","","","","","","","","","","","","","","","","","","","","",""
"null","","html-keyboard-response","260","2194078","0.0-258.0","AZU9D7YLCTAYV","<p style=""font-size: 48px;"">+</p>","","","","","null","allTrialResponses","1500","1","30","img_art/15.jpg","-34","it reminds me of dead fish in the sea","Leah,Makayla,Hannah,Alicia,Abigail,Sydney","Pretty, like in a field of poppies,19,360,20","It's just dots. Doesn't bring any positive or negative feelings,2,80,20","Like this for the colors and arrangement.,11,240,20","It's ok, it makes me think. That's something I guess.,8,120,20","This also has nice contrast,34,20,20","This picture is too confusing for me. I wouldn't want to stare at it to figure it out.,-10,320,20","Makayla","It's just dots. Doesn't bring any positive or negative feelings,2,80,20","Alicia","It's ok, it makes me think. That's something I guess.,8,120,20","Sydney","This picture is too confusing for me. I wouldn't want to stare at it to figure it out.,-10,320,20","4"
"7058","","image-button-response_instructions","261","2201158","0.0-259.0","AZU9D7YLCTAYV","","0","instructions","","","","","","","","","","","","","","","","","","","","","","","",""
"1400","","image-button-response","262","2202566","0.0-260.0","AZU9D7YLCTAYV","","0","","","","","","","","","","","","","","","","","","","","","","","","",""
