"rt","url","trial_type","trial_index","time_elapsed","internal_node_id","participant_id","stimulus","button_pressed","Name","responses","response","key_press","variableName","fixationTime","condition","trial","photo","subjectRating","subjectResponse","agentsNames","agent_1_Response","agent_2_Response","agent_3_Response","agent_4_Response","agent_5_Response","agent_6_Response","kept_1_name","kept_1_response","kept_2_name","kept_2_response","kept_3_name","kept_3_response","errorCounter"
"11462","external_page_harvard.html","external-html","0","11582","0.0-0.0","A106MX66IVHW6T","","","","","","","","","","","","","","","","","","","","","","","","","","",""
"1898","","image-button-response","1","13487","0.0-1.0","A106MX66IVHW6T","","0","","","","","","","","","","","","","","","","","","","","","","","","",""
"1973","","image-button-response","2","15476","0.0-2.0-0.0","A106MX66IVHW6T","","1","phone","","","","","","","","","","","","","","","","","","","","","","","",""
"3510","","survey-text","3","18990","0.0-3.0-0.0","A106MX66IVHW6T","","","","{""Q0"":""A106MX66IVHW6T""}","","","","","","","","","","","","","","","","","","","","","","",""
"13113","","image-button-response_instructions","4","32112","0.0-4.0","A106MX66IVHW6T","","0","instructions","","","","","","","","","","","","","","","","","","","","","","","",""
"13530","","image-button-response_instructions","5","45648","0.0-5.0","A106MX66IVHW6T","img_art/ins/popularity/ins1.png","0","instructions","","","","","","","","","","","","","","","","","","","","","","","",""
"6463","","image-button-response_instructions","6","52118","0.0-6.0","A106MX66IVHW6T","img_art/ins/popularity/ins2.png","0","instructions","","","","","","","","","","","","","","","","","","","","","","","",""
"7727","","image-button-response_instructions","7","59848","0.0-7.0","A106MX66IVHW6T","img_art/ins/popularity/ins2Extreme.png","0","instructions","","","","","","","","","","","","","","","","","","","","","","","",""
"106301","","image-button-response_instructions","8","166155","0.0-8.0","A106MX66IVHW6T","img_art/ins/popularity/ins3KEEPpop.PNG","0","instructions","","","","","","","","","","","","","","","","","","","","","","","",""
"4192","","image-button-response_instructions","9","170353","0.0-9.0","A106MX66IVHW6T","img_art/ins/popularity/ins3ANamepop.PNG","0","instructions","","","","","","","","","","","","","","","","","","","","","","","",""
"3571","","image-button-response_instructions","10","173931","0.0-10.0","A106MX66IVHW6T","img_art/ins/popularity/ins3ARatingpop.png","0","instructions","","","","","","","","","","","","","","","","","","","","","","","",""
"1678","","image-button-response_instructions","11","175617","0.0-11.0","A106MX66IVHW6T","img_art/ins/popularity/ins3ATextpop.png","0","instructions","","","","","","","","","","","","","","","","","","","","","","","",""
"7545","","image-button-response_instructions","12","183170","0.0-12.0","A106MX66IVHW6T","img_art/ins/popularity/ins3ALikespop.png","0","instructions","","","","","","","","","","","","","","","","","","","","","","","",""
"15051","","image-button-response_instructions","13","198227","0.0-13.0","A106MX66IVHW6T","img_art/ins/popularity/ins3KEEPpop.PNG","0","instructions","","","","","","","","","","","","","","","","","","","","","","","",""
"8649","","image-button-response_instructions","14","206882","0.0-14.0","A106MX66IVHW6T","img_art/ins/popularity/ins3_5RED.png","0","instructions","","","","","","","","","","","","","","","","","","","","","","","",""
"7021","","image-button-response_instructions","15","213909","0.0-15.0","A106MX66IVHW6T","img_art/ins/popularity/ins3KEEPpop.PNG","0","instructions","","","","","","","","","","","","","","","","","","","","","","","",""
"8683","","image-button-response_instructions","16","222595","0.0-16.0","A106MX66IVHW6T","img_art/ins/popularity/ins4KEEPpop.PNG","0","instructions","","","","","","","","","","","","","","","","","","","","","","","",""
"6594","","image-button-response_instructions","17","229194","0.0-17.0","A106MX66IVHW6T","img_art/ins/popularity/ins5KEEPpop.PNG","0","instructions","","","","","","","","","","","","","","","","","","","","","","","",""
"1643","","image-button-response_instructions","18","230841","0.0-18.0","A106MX66IVHW6T","","0","instructions","","","","","","","","","","","","","","","","","","","","","","","",""
"7474","","survey-text","19","238370","0.0-19.0-0.0","A106MX66IVHW6T","","","","{""Q0"":""but""}","","","","","","","","","","","","","","","","","","","","","","",""
"31681","","survey-text","20","270057","0.0-20.0-0.0","A106MX66IVHW6T","","","","{""Q0"":""looks like a colorful river rapid.""}","","","","","","","","","","","","","","","","","","","","","","",""
"6300","","image-slider-response","21","276371","0.0-21.0","A106MX66IVHW6T","","","","","17","","","","","","","","","","","","","","","","","","","","","",""
"null","","image-button-response","22","281380","0.0-22.0","A106MX66IVHW6T","img_art/ins/1.jpg","null","","","","","","","","","","","","","","","","","","","","","","","","",""
"4129","","image-button-response","23","285515","0.0-23.0","A106MX66IVHW6T","img_art/ins/1.jpg","1","","","","","","","","","","","","","","","","","","","","","","","","",""
"6636","","image-button-response","24","292156","0.0-24.0-0.0","A106MX66IVHW6T","img_art/ins/1.jpg","3","","","","","","","","","","","","","","","","","","","","","","","","",""
"624","","image-button-response","25","292788","0.0-25.0-0.0","A106MX66IVHW6T","img_art/ins/1.jpg","5","","","","","","","","","","","","","","","","","","","","","","","","",""
"null","","html-keyboard-response","26","293298","0.0-26.0","A106MX66IVHW6T","<p style=""font-size: 48px;"">+</p>","","","","","null","allTrialResponses","500","1","-2","img_art/ins/1.jpg","17","looks like a colorful river rapid.","Adam,Alex,Ben,Carl,Daniel,Jack","Seems like doodles,-20,20,20","very creative work.,36,40,20","This color reminds me of poo,-46,60,20","very calming artwork,42,80,20","It looks like a murder scene.,-48,100,20","I like the sophisticated brushwork,40,120,20","Alex","very creative work.,36,40,20","Carl","very calming artwork,42,80,20","Jack","I like the sophisticated brushwork,40,120,20","0"
"49838","","survey-text","27","343155","0.0-27.0-0.0","A106MX66IVHW6T","","","","{""Q0"":""Like the geometry and textures a lot.""}","","","","","","","","","","","","","","","","","","","","","","",""
"7045","","image-slider-response","28","350206","0.0-28.0","A106MX66IVHW6T","","","","","39","","","","","","","","","","","","","","","","","","","","","",""
"1791","","image-button-response","29","355213","0.0-29.0","A106MX66IVHW6T","img_art/ins/2.jpg","4","","","","","","","","","","","","","","","","","","","","","","","","",""
"81","","image-button-response","30","355301","0.0-30.0","A106MX66IVHW6T","img_art/ins/2.jpg","1","","","","","","","","","","","","","","","","","","","","","","","","",""
"1696","","image-button-response","31","357005","0.0-31.0-0.0","A106MX66IVHW6T","img_art/ins/2.jpg","4","","","","","","","","","","","","","","","","","","","","","","","","",""
"7552","","image-button-response","32","364565","0.0-32.0-0.0","A106MX66IVHW6T","img_art/ins/2.jpg","3","","","","","","","","","","","","","","","","","","","","","","","","",""
"null","","html-keyboard-response","33","365071","0.0-33.0","A106MX66IVHW6T","<p style=""font-size: 48px;"">+</p>","","","","","null","allTrialResponses","500","1","-1","img_art/ins/2.jpg","39","Like the geometry and textures a lot.","James,Alex,Kyle,Carl,John,Jack","looks too angry,-50,140,20","I like the blocks of color arrangements,30,40,20","Idk, it is just annoying,-32,180,20","I can feel the artist's passion in it,45,80,20","love the texture of paint,48,160,20","I would never be able to compose a sophisticated pallete like this,48,120,20","Alex","I like the blocks of color arrangements,30,40,20","John","love the texture of paint,48,160,20","Carl","I can feel the artist's passion in it,45,80,20","0"
"29092","","survey-text","34","394180","0.0-34.0-0.0","A106MX66IVHW6T","","","","{""Q0"":""Gives off a \""cold\"" vibe.""}","","","","","","","","","","","","","","","","","","","","","","",""
"4059","","image-slider-response","35","398245","0.0-35.0","A106MX66IVHW6T","","","","","-23","","","","","","","","","","","","","","","","","","","","","",""
"null","","image-button-response","36","403256","0.0-36.0","A106MX66IVHW6T","img_art/ins/3.jpg","null","","","","","","","","","","","","","","","","","","","","","","","","",""
"1538","","image-button-response","37","404797","0.0-37.0","A106MX66IVHW6T","img_art/ins/3.jpg","4","","","","","","","","","","","","","","","","","","","","","","","","",""
"2928","","image-button-response","38","407731","0.0-38.0-0.0","A106MX66IVHW6T","img_art/ins/3.jpg","5","","","","","","","","","","","","","","","","","","","","","","","","",""
"8824","","image-button-response","39","416562","0.0-39.0-0.0","A106MX66IVHW6T","img_art/ins/3.jpg","0","","","","","","","","","","","","","","","","","","","","","","","","",""
"null","","html-keyboard-response","40","417566","0.0-40.0","A106MX66IVHW6T","<p style=""font-size: 48px;"">+</p>","","","","","null","allTrialResponses","1000","1","0","img_art/ins/3.jpg","-23","Gives off a ""cold"" vibe.","Mike,Alex,Ron,Carl,John,Sam","enjoy the different shades of blue,22,200,20","calming blue is very nice,36,40,20","It looks depressing,-26,220,20","It's an alright work,15,80,20","I like the overlapping of brushes,41,160,20","I can feel a rainy day from this painting,18,240,20","John","I like the overlapping of brushes,41,160,20","Sam","I can feel a rainy day from this painting,18,240,20","Mike","enjoy the different shades of blue,22,200,20","0"
"3618","","image-button-response_instructions","41","421196","0.0-41.0","A106MX66IVHW6T","","0","instructions","","","","","","","","","","","","","","","","","","","","","","","",""
"10569","","survey-likert","42","431773","0.0-42.0-0.0","A106MX66IVHW6T","","","","{""Q0"":"""",""Q1"":0,""Q2"":1}","","","","","","","","","","","","","","","","","","","","","","",""
"5439","","survey-text","43","437219","0.0-43.0-0.0","A106MX66IVHW6T","","","","{""Q0"":""rock""}","","","","","","","","","","","","","","","","","","","","","","",""
"37672","","survey-text","44","474894","0.0-44.0-0.0","A106MX66IVHW6T","","","","{""Q0"":""Looks like a desert from an old western.""}","","","","","","","","","","","","","","","","","","","","","","",""
"3241","","image-slider-response","45","478142","0.0-45.0","A106MX66IVHW6T","","","","","-34","","","","","","","","","","","","","","","","","","","","","",""
"2385","","image-button-response","46","483174","0.0-46.0","A106MX66IVHW6T","img_art/7.jpg","3","","","","","","","","","","","","","","","","","","","","","","","","",""
"2068","","image-button-response","47","485247","0.0-47.0","A106MX66IVHW6T","img_art/7.jpg","3","","","","","","","","","","","","","","","","","","","","","","","","",""
"10185","","image-button-response","48","495440","0.0-48.0-0.0","A106MX66IVHW6T","img_art/7.jpg","0","","","","","","","","","","","","","","","","","","","","","","","","",""
"2631","","image-button-response","49","498078","0.0-49.0-0.0","A106MX66IVHW6T","img_art/7.jpg","5","","","","","","","","","","","","","","","","","","","","","","","","",""
"null","","html-keyboard-response","50","499084","0.0-50.0","A106MX66IVHW6T","<p style=""font-size: 48px;"">+</p>","","","","","null","allTrialResponses","1000","1","1","img_art/7.jpg","-34","Looks like a desert from an old western.","Cameron,Jordan,Tristan,Kevin,Jason,Dylan","tracks in dirt?,-15,60,20","Looks like a skin disease,-31,160,20","Limited emotional reaction for me. No focus and highly abstract,-20,300,20","That a desert floor,16,320,20","Boring  and lacks color,-11,20,20","I do not like the boring colors in this.,-20,40,20","Kevin","That a desert floor,16,320,20","Cameron","tracks in dirt?,-15,60,20","Dylan","I do not like the boring colors in this.,-20,40,20","0"
"30692","","survey-text","51","529791","0.0-51.0-0.0","A106MX66IVHW6T","","","","{""Q0"":""Not sure what is going on here, guns and teddy bears.""}","","","","","","","","","","","","","","","","","","","","","","",""
"3643","","image-slider-response","52","533440","0.0-52.0","A106MX66IVHW6T","","","","","-34","","","","","","","","","","","","","","","","","","","","","",""
"null","","image-button-response","53","538447","0.0-53.0","A106MX66IVHW6T","img_art/16.jpg","null","","","","","","","","","","","","","","","","","","","","","","","","",""
"462","","image-button-response","54","538913","0.0-54.0","A106MX66IVHW6T","img_art/16.jpg","3","","","","","","","","","","","","","","","","","","","","","","","","",""
"9235","","image-button-response","55","548154","0.0-55.0-0.0","A106MX66IVHW6T","img_art/16.jpg","0","","","","","","","","","","","","","","","","","","","","","","","","",""
"2014","","image-button-response","56","550176","0.0-56.0-0.0","A106MX66IVHW6T","img_art/16.jpg","0","","","","","","","","","","","","","","","","","","","","","","","","",""
"5833","","image-button-response","57","561987","0.0-56.1-0.1","A106MX66IVHW6T","img_art/16.jpg","2","","","","","","","","","","","","","","","","","","","","","","","","",""
"null","","html-keyboard-response","58","562991","0.0-57.0","A106MX66IVHW6T","<p style=""font-size: 48px;"">+</p>","","","","","null","allTrialResponses","1000","1","2","img_art/16.jpg","-34","Not sure what is going on here, guns and teddy bears.","Cameron,Bryce,Jonathan,Kevin,Nicholas,Dylan","Don't like teddy bears in art. I could draw that house.,-20,60,20","The teddy bear is scary as hell.,-44,20,20","It's a little anxiety inducing in a good way,16,140,20","Hmm i don't know what going on here.,1,320,20","Creepy teddybear,-50,240,20","This is weird and creepy.,-40,40,20","Kevin","Hmm i don't know what going on here.,1,320,20","Cameron","Don't like teddy bears in art. I could draw that house.,-20,60,20","Jonathan","It's a little anxiety inducing in a good way,16,140,20","2"
"31059","","survey-text","59","594064","0.0-58.0-0.0","A106MX66IVHW6T","","","","{""Q0"":""Swirling lines and has a nice flow.""}","","","","","","","","","","","","","","","","","","","","","","",""
"4607","","image-slider-response","60","598681","0.0-59.0","A106MX66IVHW6T","","","","","5","","","","","","","","","","","","","","","","","","","","","",""
"2536","","image-button-response","61","603687","0.0-60.0","A106MX66IVHW6T","img_art/30.jpg","0","","","","","","","","","","","","","","","","","","","","","","","","",""
"1413","","image-button-response","62","605104","0.0-61.0","A106MX66IVHW6T","img_art/30.jpg","0","","","","","","","","","","","","","","","","","","","","","","","","",""
"4395","","image-button-response","63","609504","0.0-62.0-0.0","A106MX66IVHW6T","img_art/30.jpg","4","","","","","","","","","","","","","","","","","","","","","","","","",""
"7018","","image-button-response","64","616530","0.0-63.0-0.0","A106MX66IVHW6T","img_art/30.jpg","2","","","","","","","","","","","","","","","","","","","","","","","","",""
"null","","html-keyboard-response","65","617035","0.0-64.0","A106MX66IVHW6T","<p style=""font-size: 48px;"">+</p>","","","","","null","allTrialResponses","500","1","3","img_art/30.jpg","5","Swirling lines and has a nice flow.","Cameron,Taylor,Jonathan,Kevin,Connor,Ian","Like the color and style,31,60,20","My kid drew this same picture at daycare!!!,5,200,20","I like the softness of this but it doesn't make me feel that nice,5,140,20","Some people dancing.,-7,320,20","Layers are interesting,22,240,20","It looks like it was made by pre-k students.,-30,260,20","Cameron","Like the color and style,31,60,20","Connor","Layers are interesting,22,240,20","Jonathan","I like the softness of this but it doesn't make me feel that nice,5,140,20","2"
"25502","","survey-text","66","642551","0.0-65.0-0.0","A106MX66IVHW6T","","","","{""Q0"":""Looks like a child's painting with the mouth in the center.""}","","","","","","","","","","","","","","","","","","","","","","",""
"3915","","image-slider-response","67","646471","0.0-66.0","A106MX66IVHW6T","","","","","-22","","","","","","","","","","","","","","","","","","","","","",""
"null","","image-button-response","68","651477","0.0-67.0","A106MX66IVHW6T","img_art/2.jpg","null","","","","","","","","","","","","","","","","","","","","","","","","",""
"961","","image-button-response","69","652442","0.0-68.0","A106MX66IVHW6T","img_art/2.jpg","4","","","","","","","","","","","","","","","","","","","","","","","","",""
"8514","","image-button-response","70","660963","0.0-69.0-0.0","A106MX66IVHW6T","img_art/2.jpg","2","","","","","","","","","","","","","","","","","","","","","","","","",""
"11174","","image-button-response","71","672143","0.0-70.0-0.0","A106MX66IVHW6T","img_art/2.jpg","1","","","","","","","","","","","","","","","","","","","","","","","","",""
"null","","html-keyboard-response","72","672647","0.0-71.0","A106MX66IVHW6T","<p style=""font-size: 48px;"">+</p>","","","","","null","allTrialResponses","500","1","4","img_art/2.jpg","-22","Looks like a child's painting with the mouth in the center.","Cameron,Richard,Jonathan,Grant,Connor,John","Ugly version of that park painting.,-31,60,20","doctor's office art work, nice colors and not offensive,23,340,20","It's a cool piece but honestly these color choices are the worst thing in the world,-31,140,20","The colors are entirely unappealing and very unpleasant to look at.,-20,200,20","There is an odd face here that is creepy,-4,240,20","Its meh. Doesnt illicit any strong feelings in me,1,120,20","Connor","There is an odd face here that is creepy,-4,240,20","Jonathan","It's a cool piece but honestly these color choices are the worst thing in the world,-31,140,20","Richard","doctor's office art work, nice colors and not offensive,23,340,20","2"
"30707","","survey-text","73","703369","0.0-72.0-0.0","A106MX66IVHW6T","","","","{""Q0"":""A fall lake and pier. Very distorted.""}","","","","","","","","","","","","","","","","","","","","","","",""
"5961","","image-slider-response","74","709336","0.0-73.0","A106MX66IVHW6T","","","","","5","","","","","","","","","","","","","","","","","","","","","",""
"2676","","image-button-response","75","714342","0.0-74.0","A106MX66IVHW6T","img_art/1.jpg","1","","","","","","","","","","","","","","","","","","","","","","","","",""
"1904","","image-button-response","76","716251","0.0-75.0","A106MX66IVHW6T","img_art/1.jpg","1","","","","","","","","","","","","","","","","","","","","","","","","",""
"7883","","image-button-response","77","724140","0.0-76.0-0.0","A106MX66IVHW6T","img_art/1.jpg","4","","","","","","","","","","","","","","","","","","","","","","","","",""
"1992","","image-button-response","78","726139","0.0-77.0-0.0","A106MX66IVHW6T","img_art/1.jpg","5","","","","","","","","","","","","","","","","","","","","","","","","",""
"null","","html-keyboard-response","79","726646","0.0-78.0","A106MX66IVHW6T","<p style=""font-size: 48px;"">+</p>","","","","","null","allTrialResponses","500","1","5","img_art/1.jpg","5","A fall lake and pier. Very distorted.","Patrick,Richard,Jonathan,Samuel,Connor,James","I feel uneasy looking at this,-41,280,20","nice piece, fall like,31,340,20","I love the colors but it's too intense sometimes,22,140,20","feels like there is meaning,9,400,20","Love the coloration and abstract figures,18,240,20","It's very colorful, and I like it,11,380,20","Richard","nice piece, fall like,31,340,20","Connor","Love the coloration and abstract figures,18,240,20","James","It's very colorful, and I like it,11,380,20","2"
"6000","","survey-text","80","732665","0.0-79.0-0.0","A106MX66IVHW6T","","","","{""Q0"":""sky""}","","","","","","","","","","","","","","","","","","","","","","",""
"44222","","survey-text","81","776891","0.0-80.0-0.0","A106MX66IVHW6T","","","","{""Q0"":""Interesting street scene with a lake and mountains. I like the feel of it.""}","","","","","","","","","","","","","","","","","","","","","","",""
"3985","","image-slider-response","82","780882","0.0-81.0","A106MX66IVHW6T","","","","","36","","","","","","","","","","","","","","","","","","","","","",""
"null","","image-button-response","83","785888","0.0-82.0","A106MX66IVHW6T","img_art/19.jpg","null","","","","","","","","","","","","","","","","","","","","","","","","",""
"7328","","image-button-response","84","793221","0.0-83.0","A106MX66IVHW6T","img_art/19.jpg","3","","","","","","","","","","","","","","","","","","","","","","","","",""
"2810","","image-button-response","85","796037","0.0-84.0-0.0","A106MX66IVHW6T","img_art/19.jpg","4","","","","","","","","","","","","","","","","","","","","","","","","",""
"3112","","image-button-response","86","799157","0.0-85.0-0.0","A106MX66IVHW6T","img_art/19.jpg","1","","","","","","","","","","","","","","","","","","","","","","","","",""
"null","","html-keyboard-response","87","800165","0.0-86.0","A106MX66IVHW6T","<p style=""font-size: 48px;"">+</p>","","","","","null","allTrialResponses","1000","1","6","img_art/19.jpg","36","Interesting street scene with a lake and mountains. I like the feel of it.","Daniel,Richard,Alejandro,Andrew,Connor,James","Simple, scratchy lack of negative space.,-10,320,20","not professional looking but not bad either,13,340,20","It is an interesting piece but there are too many muted tones,22,80,20","It reminds me of sitting at a cafe on the side of a river.,45,160,20","Childish music hall,-20,240,20","I don't know what's going on, and I realise that I don't like it,-21,380,20","Andrew","It reminds me of sitting at a cafe on the side of a river.,45,160,20","Connor","Childish music hall,-20,240,20","Richard","not professional looking but not bad either,13,340,20","2"
"26225","","survey-text","88","826405","0.0-87.0-0.0","A106MX66IVHW6T","","","","{""Q0"":""Reminds me of mold and I'm not feeling this one.""}","","","","","","","","","","","","","","","","","","","","","","",""
"4640","","image-slider-response","89","831052","0.0-88.0","A106MX66IVHW6T","","","","","-50","","","","","","","","","","","","","","","","","","","","","",""
"null","","image-button-response","90","836061","0.0-89.0","A106MX66IVHW6T","img_art/15.jpg","null","","","","","","","","","","","","","","","","","","","","","","","","",""
"2611","","image-button-response","91","838676","0.0-90.0","A106MX66IVHW6T","img_art/15.jpg","5","","","","","","","","","","","","","","","","","","","","","","","","",""
"8964","","image-button-response","92","847646","0.0-91.0-0.0","A106MX66IVHW6T","img_art/15.jpg","1","","","","","","","","","","","","","","","","","","","","","","","","",""
"2024","","image-button-response","93","849678","0.0-92.0-0.0","A106MX66IVHW6T","img_art/15.jpg","2","","","","","","","","","","","","","","","","","","","","","","","","",""
"null","","html-keyboard-response","94","850685","0.0-93.0","A106MX66IVHW6T","<p style=""font-size: 48px;"">+</p>","","","","","null","allTrialResponses","1000","1","7","img_art/15.jpg","-50","Reminds me of mold and I'm not feeling this one.","Jack,Richard,Joseph,Andrew,Connor,Peter","interesting technique. the blue is very pretty,18,320,20","dark and provoking,-50,340,20","Bushes, good! Life, good!,12,220,20","The blues are soothing,21,160,20","Neat to explore meaning, blue is interesting,11,240,20","It's just dots. Doesn't bring any positive or negative feelings,2,320,20","Peter","It's just dots. Doesn't bring any positive or negative feelings,2,320,20","Richard","dark and provoking,-50,340,20","Joseph","Bushes, good! Life, good!,12,220,20","2"
"28050","","survey-text","95","878749","0.0-94.0-0.0","A106MX66IVHW6T","","","","{""Q0"":""Straw man interesting turquise tonality.""}","","","","","","","","","","","","","","","","","","","","","","",""
"2760","","image-slider-response","96","881518","0.0-95.0","A106MX66IVHW6T","","","","","32","","","","","","","","","","","","","","","","","","","","","",""
"4655","","image-button-response","97","886528","0.0-96.0","A106MX66IVHW6T","img_art/25.jpg","1","","","","","","","","","","","","","","","","","","","","","","","","",""
"898","","image-button-response","98","887430","0.0-97.0","A106MX66IVHW6T","img_art/25.jpg","1","","","","","","","","","","","","","","","","","","","","","","","","",""
"6281","","image-button-response","99","893719","0.0-98.0-0.0","A106MX66IVHW6T","img_art/25.jpg","5","","","","","","","","","","","","","","","","","","","","","","","","",""
"2605","","image-button-response","100","896332","0.0-99.0-0.0","A106MX66IVHW6T","img_art/25.jpg","3","","","","","","","","","","","","","","","","","","","","","","","","",""
"null","","html-keyboard-response","101","897335","0.0-100.0","A106MX66IVHW6T","<p style=""font-size: 48px;"">+</p>","","","","","null","allTrialResponses","1000","1","8","img_art/25.jpg","32","Straw man interesting turquise tonality.","Jeremy,Richard,Joseph,Dakota,Adrian,Peter","reminds me of ancient history which makes me happy,40,60,20","interesting pattern and color choice, kind of unusual,2,340,20","Ghosts are NOT my thing.,-13,220,20","I think of death,-28,280,20","This piece makes me think of oppression and fighting it. Makes me feel calm, sad and strong.,11,60,20","It's very mystical.,5,320,20","Richard","interesting pattern and color choice, kind of unusual,2,340,20","Peter","It's very mystical.,5,320,20","Dakota","I think of death,-28,280,20","2"
"26495","","survey-text","102","923845","0.0-101.0-0.0","A106MX66IVHW6T","","","","{""Q0"":""Muted aztec theme and  very distorted.""}","","","","","","","","","","","","","","","","","","","","","","",""
"4146","","image-slider-response","103","927996","0.0-102.0","A106MX66IVHW6T","","","","","24","","","","","","","","","","","","","","","","","","","","","",""
"1798","","image-button-response","104","933002","0.0-103.0","A106MX66IVHW6T","img_art/20.jpg","0","","","","","","","","","","","","","","","","","","","","","","","","",""
"448","","image-button-response","105","933456","0.0-104.0","A106MX66IVHW6T","img_art/20.jpg","0","","","","","","","","","","","","","","","","","","","","","","","","",""
"6690","","image-button-response","106","940153","0.0-105.0-0.0","A106MX66IVHW6T","img_art/20.jpg","5","","","","","","","","","","","","","","","","","","","","","","","","",""
"2679","","image-button-response","107","942839","0.0-106.0-0.0","A106MX66IVHW6T","img_art/20.jpg","3","","","","","","","","","","","","","","","","","","","","","","","","",""
"null","","html-keyboard-response","108","944346","0.0-107.0","A106MX66IVHW6T","<p style=""font-size: 48px;"">+</p>","","","","","null","allTrialResponses","1500","1","9","img_art/20.jpg","24","Muted aztec theme and  very distorted.","Isaac,Richard,Austin,Dakota,Evan,Peter","It is abstract but it looks neat.,15,280,20","The white blob on the left seems out of place,-34,340,20","This painting would make a great display art,50,240,20","very fluid and mysterious,37,280,20","I feel intrigued and impressed,34,140,20","Little picturesque town that I would like to visit,19,320,20","Isaac","It is abstract but it looks neat.,15,280,20","Peter","Little picturesque town that I would like to visit,19,320,20","Dakota","very fluid and mysterious,37,280,20","2"
"30541","","survey-text","109","974895","0.0-108.0-0.0","A106MX66IVHW6T","","","","{""Q0"":""Soothing fall picture by a child.""}","","","","","","","","","","","","","","","","","","","","","","",""
"2669","","image-slider-response","110","977568","0.0-109.0","A106MX66IVHW6T","","","","","-18","","","","","","","","","","","","","","","","","","","","","",""
"null","","image-button-response","111","982574","0.0-110.0","A106MX66IVHW6T","img_art/27.jpg","null","","","","","","","","","","","","","","","","","","","","","","","","",""
"94","","image-button-response","112","982670","0.0-111.0","A106MX66IVHW6T","img_art/27.jpg","2","","","","","","","","","","","","","","","","","","","","","","","","",""
"2438","","image-button-response","113","985112","0.0-112.0-0.0","A106MX66IVHW6T","img_art/27.jpg","0","","","","","","","","","","","","","","","","","","","","","","","","",""
"6178","","image-button-response","114","991298","0.0-113.0-0.0","A106MX66IVHW6T","img_art/27.jpg","4","","","","","","","","","","","","","","","","","","","","","","","","",""
"null","","html-keyboard-response","115","992303","0.0-114.0","A106MX66IVHW6T","<p style=""font-size: 48px;"">+</p>","","","","","null","allTrialResponses","1000","1","10","img_art/27.jpg","-18","Soothing fall picture by a child.","Isaac,Derek,Marcus,Dakota,Joshua,Peter","The green lines look like a child drew over a painting.,-36,280,20","I love the mood of this painting,30,360,20","It's okay. Not really interesting to me.,-10,60,20","feels like a bar scene, tucked away in the corner of a small town,-40,280,20","Reminds me of something I'd see in a gold frame from the Eighties.,-9,240,20","Calming sky , relaxing,23,320,20","Marcus","It's okay. Not really interesting to me.,-10,60,20","Isaac","The green lines look like a child drew over a painting.,-36,280,20","Joshua","Reminds me of something I'd see in a gold frame from the Eighties.,-9,240,20","2"
"4873","","survey-text","116","997197","0.0-115.0-0.0","A106MX66IVHW6T","","","","{""Q0"":""our""}","","","","","","","","","","","","","","","","","","","","","","",""
"44135","","survey-text","117","1041337","0.0-116.0-0.0","A106MX66IVHW6T","","","","{""Q0"":""Colorful meadow and river/waterfall. pretty but pedestrian.""}","","","","","","","","","","","","","","","","","","","","","","",""
"3921","","image-slider-response","118","1045265","0.0-117.0","A106MX66IVHW6T","","","","","-20","","","","","","","","","","","","","","","","","","","","","",""
"1936","","image-button-response","119","1050274","0.0-118.0","A106MX66IVHW6T","img_art/24.jpg","0","","","","","","","","","","","","","","","","","","","","","","","","",""
"1144","","image-button-response","120","1051425","0.0-119.0","A106MX66IVHW6T","img_art/24.jpg","3","","","","","","","","","","","","","","","","","","","","","","","","",""
"5226","","image-button-response","121","1056658","0.0-120.0-0.0","A106MX66IVHW6T","img_art/24.jpg","2","","","","","","","","","","","","","","","","","","","","","","","","",""
"3466","","image-button-response","122","1060131","0.0-121.0-0.0","A106MX66IVHW6T","img_art/24.jpg","1","","","","","","","","","","","","","","","","","","","","","","","","",""
"null","","html-keyboard-response","123","1060637","0.0-122.0","A106MX66IVHW6T","<p style=""font-size: 48px;"">+</p>","","","","","null","allTrialResponses","500","1","11","img_art/24.jpg","-20","Colorful meadow and river/waterfall. pretty but pedestrian.","Isaac,Thomas,Marcus,Justin,Joshua,Jeffrey","The colors are relaxing and cheerful.,32,280,20","Beautiful colors and texture,20,220,20","Love the colors in this work, and the sense of motion in the water,36,60,20","Nice colors, but doesn't do much for me.,1,280,20","It's okay but don't love it.,7,240,20","Very refreshing and vigorous,19,40,20","Justin","Nice colors, but doesn't do much for me.,1,280,20","Marcus","Love the colors in this work, and the sense of motion in the water,36,60,20","Thomas","Beautiful colors and texture,20,220,20","2"
"37134","","survey-text","124","1097785","0.0-123.0-0.0","A106MX66IVHW6T","","","","{""Q0"":""This has some nice depth and colors. Foreboding mood.""}","","","","","","","","","","","","","","","","","","","","","","",""
"3948","","image-slider-response","125","1101736","0.0-124.0","A106MX66IVHW6T","","","","","35","","","","","","","","","","","","","","","","","","","","","",""
"null","","image-button-response","126","1106742","0.0-125.0","A106MX66IVHW6T","img_art/18.jpg","null","","","","","","","","","","","","","","","","","","","","","","","","",""
"959","","image-button-response","127","1107704","0.0-126.0","A106MX66IVHW6T","img_art/18.jpg","1","","","","","","","","","","","","","","","","","","","","","","","","",""
"1076","","image-button-response","128","1108784","0.0-127.0-0.0","A106MX66IVHW6T","img_art/18.jpg","3","","","","","","","","","","","","","","","","","","","","","","","","",""
"5420","","image-button-response","129","1114208","0.0-128.0-0.0","A106MX66IVHW6T","img_art/18.jpg","2","","","","","","","","","","","","","","","","","","","","","","","","",""
"null","","html-keyboard-response","130","1114712","0.0-129.0","A106MX66IVHW6T","<p style=""font-size: 48px;"">+</p>","","","","","null","allTrialResponses","500","1","12","img_art/18.jpg","35","This has some nice depth and colors. Foreboding mood.","Jared,Thomas,Marcus,Justin,Cole,Angel","it looks like people,9,400,20","I could stare at this for long stretches of time and still find new details. I love it.,40,220,20","like the grays and contrast of the yellow. This piece feels a bit angry,10,60,20","This is really interesting to look at. I like the colors and the spectral look.,27,280,20","Two people fighting with one watching,17,200,20","Like riding into battle. A sense of confidence, but also trepidation for what's coming. Could be a personification of death.,-10,180,20","Thomas","I could stare at this for long stretches of time and still find new details. I love it.,40,220,20","Justin","This is really interesting to look at. I like the colors and the spectral look.,27,280,20","Marcus","like the grays and contrast of the yellow. This piece feels a bit angry,10,60,20","2"
"30609","","survey-text","131","1145330","0.0-130.0-0.0","A106MX66IVHW6T","","","","{""Q0"":""symetrical blocks I like the colors. Abstract.""}","","","","","","","","","","","","","","","","","","","","","","",""
"4488","","image-slider-response","132","1149825","0.0-131.0","A106MX66IVHW6T","","","","","9","","","","","","","","","","","","","","","","","","","","","",""
"null","","image-button-response","133","1154831","0.0-132.0","A106MX66IVHW6T","img_art/12.jpg","null","","","","","","","","","","","","","","","","","","","","","","","","",""
"6721","","image-button-response","134","1161557","0.0-133.0","A106MX66IVHW6T","img_art/12.jpg","3","","","","","","","","","","","","","","","","","","","","","","","","",""
"2216","","image-button-response","135","1163779","0.0-134.0-0.0","A106MX66IVHW6T","img_art/12.jpg","5","","","","","","","","","","","","","","","","","","","","","","","","",""
"849","","image-button-response","136","1164634","0.0-135.0-0.0","A106MX66IVHW6T","img_art/12.jpg","2","","","","","","","","","","","","","","","","","","","","","","","","",""
"null","","html-keyboard-response","137","1166138","0.0-136.0","A106MX66IVHW6T","<p style=""font-size: 48px;"">+</p>","","","","","null","allTrialResponses","1500","1","13","img_art/12.jpg","9","symetrical blocks I like the colors. Abstract.","Gabriel,Thomas,Marcus,Justin,Spencer,Bradley","dont like the squares,-16,160,20","Very interesting. Makes me want to look at it for a long time.,16,220,20","I like the colors in the bottom half of the painting,10,60,20","Too blocky and not interesting enough.,-15,280,20","Looks like a puzzle I want to put together, but not hang in my den,2,120,20","Good technique. It's just not my thing.,2,300,20","Justin","Too blocky and not interesting enough.,-15,280,20","Bradley","Good technique. It's just not my thing.,2,300,20","Marcus","I like the colors in the bottom half of the painting,10,60,20","2"
"50521","","survey-text","138","1216675","0.0-137.0-0.0","A106MX66IVHW6T","","","","{""Q0"":""Love the colors and texture. Seems to be a tree, people and possibly water.""}","","","","","","","","","","","","","","","","","","","","","","",""
"4276","","image-slider-response","139","1220957","0.0-138.0","A106MX66IVHW6T","","","","","13","","","","","","","","","","","","","","","","","","","","","",""
"null","","image-button-response","140","1225965","0.0-139.0","A106MX66IVHW6T","img_art/14.jpg","null","","","","","","","","","","","","","","","","","","","","","","","","",""
"3180","","image-button-response","141","1229150","0.0-140.0","A106MX66IVHW6T","img_art/14.jpg","2","","","","","","","","","","","","","","","","","","","","","","","","",""
"2113","","image-button-response","142","1231270","0.0-141.0-0.0","A106MX66IVHW6T","img_art/14.jpg","5","","","","","","","","","","","","","","","","","","","","","","","","",""
"4215","","image-button-response","143","1235491","0.0-142.0-0.0","A106MX66IVHW6T","img_art/14.jpg","4","","","","","","","","","","","","","","","","","","","","","","","","",""
"null","","html-keyboard-response","144","1236994","0.0-143.0","A106MX66IVHW6T","<p style=""font-size: 48px;"">+</p>","","","","","null","allTrialResponses","1500","1","14","img_art/14.jpg","13","Love the colors and texture. Seems to be a tree, people and possibly water.","Corey,Lucas,Marcus,Justin,Seth,Bradley","its okay. pretty bland but looks like nature,8,260,20","In my opinion it's spectacular.,35,380,20","I like the colors and the shapes are interesting,11,60,20","The colors are good and the design is intriguing.,15,280,20","This piece feels inviting. It's like opening up the pages of your favorite book for the first time.,26,60,20","I don't know why, but this piece makes me happy.,20,300,20","Marcus","I like the colors and the shapes are interesting,11,60,20","Bradley","I don't know why, but this piece makes me happy.,20,300,20","Seth","This piece feels inviting. It's like opening up the pages of your favorite book for the first time.,26,60,20","2"
"62258","","survey-text","145","1299270","0.0-144.0-0.0","A106MX66IVHW6T","","","","{""Q0"":""Opaque window maybe a windshield of a car with dead bugs.""}","","","","","","","","","","","","","","","","","","","","","","",""
"3609","","image-slider-response","146","1302888","0.0-145.0","A106MX66IVHW6T","","","","","34","","","","","","","","","","","","","","","","","","","","","",""
"null","","image-button-response","147","1307897","0.0-146.0","A106MX66IVHW6T","img_art/13.jpg","null","","","","","","","","","","","","","","","","","","","","","","","","",""
"1779","","image-button-response","148","1309680","0.0-147.0","A106MX66IVHW6T","img_art/13.jpg","0","","","","","","","","","","","","","","","","","","","","","","","","",""
"2024","","image-button-response","149","1311710","0.0-148.0-0.0","A106MX66IVHW6T","img_art/13.jpg","5","","","","","","","","","","","","","","","","","","","","","","","","",""
"7537","","image-button-response","150","1319254","0.0-149.0-0.0","A106MX66IVHW6T","img_art/13.jpg","4","","","","","","","","","","","","","","","","","","","","","","","","",""
"null","","html-keyboard-response","151","1320259","0.0-150.0","A106MX66IVHW6T","<p style=""font-size: 48px;"">+</p>","","","","","null","allTrialResponses","1000","1","15","img_art/13.jpg","34","Opaque window maybe a windshield of a car with dead bugs.","Luke,Tanner,Marcus,Steven,Seth,Bradley","the monochrome of blue with splatters makes me excited and happy,36,20,20","happy, serenity,30,180,20","It's okay. Feels like a blander take on a Jackson Pollack,11,60,20","It's just paint splatter, no real meaning to me,-50,160,20","I really loved the color contrast. Having the white stripe in the center makes the it appear 3D.,11,60,20","I like the colors used in this piece.,2,300,20","Luke","the monochrome of blue with splatters makes me excited and happy,36,20,20","Bradley","I like the colors used in this piece.,2,300,20","Seth","I really loved the color contrast. Having the white stripe in the center makes the it appear 3D.,11,60,20","2"
"4775","","survey-text","152","1325060","0.0-151.0-0.0","A106MX66IVHW6T","","","","{""Q0"":""course""}","","","","","","","","","","","","","","","","","","","","","","",""
"32184","","survey-text","153","1357246","0.0-152.0-0.0","A106MX66IVHW6T","","","","{""Q0"":""rough technique. portrait maybe?""}","","","","","","","","","","","","","","","","","","","","","","",""
"3922","","image-slider-response","154","1361176","0.0-153.0","A106MX66IVHW6T","","","","","-40","","","","","","","","","","","","","","","","","","","","","",""
"4538","","image-button-response","155","1366184","0.0-154.0","A106MX66IVHW6T","img_art/9.jpg","4","","","","","","","","","","","","","","","","","","","","","","","","",""
"1225","","image-button-response","156","1367417","0.0-155.0","A106MX66IVHW6T","img_art/9.jpg","4","","","","","","","","","","","","","","","","","","","","","","","","",""
"3881","","image-button-response","157","1371304","0.0-156.0-0.0","A106MX66IVHW6T","img_art/9.jpg","2","","","","","","","","","","","","","","","","","","","","","","","","",""
"2329","","image-button-response","158","1373641","0.0-157.0-0.0","A106MX66IVHW6T","img_art/9.jpg","5","","","","","","","","","","","","","","","","","","","","","","","","",""
"null","","html-keyboard-response","159","1375146","0.0-158.0","A106MX66IVHW6T","<p style=""font-size: 48px;"">+</p>","","","","","null","allTrialResponses","1500","1","16","img_art/9.jpg","-40","rough technique. portrait maybe?","Luke,Alexis,Jesse,Elijah,Seth,Bradley","it makes me feel excited and draws my eye around,24,20,20","This photo make me feel peaceful. It looks like a woman sleeping in a garden,42,140,20","The lack of concrete form kind of turns me off,-2,80,20","It's a mix of paint splash and scribbling,-33,80,20","I think it's sleeping beauty but I'm not sure. I didn't care for this piece.,-30,60,20","Yikes. I'm not sure what to make of this one.,-14,300,20","Seth","I think it's sleeping beauty but I'm not sure. I didn't care for this piece.,-30,60,20","Jesse","The lack of concrete form kind of turns me off,-2,80,20","Bradley","Yikes. I'm not sure what to make of this one.,-14,300,20","2"
"28087","","survey-text","160","1403248","0.0-159.0-0.0","A106MX66IVHW6T","","","","{""Q0"":""soothing colors and tezture.  A yard scene.""}","","","","","","","","","","","","","","","","","","","","","","",""
"2644","","image-slider-response","161","1405897","0.0-160.0","A106MX66IVHW6T","","","","","34","","","","","","","","","","","","","","","","","","","","","",""
"null","","image-button-response","162","1410905","0.0-161.0","A106MX66IVHW6T","img_art/26.jpg","null","","","","","","","","","","","","","","","","","","","","","","","","",""
"3413","","image-button-response","163","1414322","0.0-162.0","A106MX66IVHW6T","img_art/26.jpg","5","","","","","","","","","","","","","","","","","","","","","","","","",""
"2618","","image-button-response","164","1416944","0.0-163.0-0.0","A106MX66IVHW6T","img_art/26.jpg","3","","","","","","","","","","","","","","","","","","","","","","","","",""
"3184","","image-button-response","165","1420137","0.0-164.0-0.0","A106MX66IVHW6T","img_art/26.jpg","0","","","","","","","","","","","","","","","","","","","","","","","","",""
"null","","html-keyboard-response","166","1420643","0.0-165.0","A106MX66IVHW6T","<p style=""font-size: 48px;"">+</p>","","","","","null","allTrialResponses","500","1","17","img_art/26.jpg","34","soothing colors and tezture.  A yard scene.","Trevor,Nathan,Jesse,Devin,Seth,Bradley","looks like a little kids painting,-17,280,20","It's a little too yellow-y for me, I'm not a huge fan of the color schemes or setting it portrays.,-20,200,20","Looks bland and boring,-5,80,20","I like the shapes but needs more detail i think,3,380,20","I'm not sure if this is the image of a furniture store or not.,-20,60,20","I like this. Looks like a city street and I can use my imagination to make it come alive.,15,300,20","Bradley","I like this. Looks like a city street and I can use my imagination to make it come alive.,15,300,20","Devin","I like the shapes but needs more detail i think,3,380,20","Trevor","looks like a little kids painting,-17,280,20","2"
"49189","","survey-text","167","1469847","0.0-166.0-0.0","A106MX66IVHW6T","","","","{""Q0"":""I like the black textures.  Feels like a storm. a figure 8.""}","","","","","","","","","","","","","","","","","","","","","","",""
"4208","","image-slider-response","168","1474058","0.0-167.0","A106MX66IVHW6T","","","","","-23","","","","","","","","","","","","","","","","","","","","","",""
"null","","image-button-response","169","1479065","0.0-168.0","A106MX66IVHW6T","img_art/10.jpg","null","","","","","","","","","","","","","","","","","","","","","","","","",""
"3343","","image-button-response","170","1482411","0.0-169.0","A106MX66IVHW6T","img_art/10.jpg","0","","","","","","","","","","","","","","","","","","","","","","","","",""
"2751","","image-button-response","171","1485169","0.0-170.0-0.0","A106MX66IVHW6T","img_art/10.jpg","4","","","","","","","","","","","","","","","","","","","","","","","","",""
"3996","","image-button-response","172","1489168","0.0-171.0-0.0","A106MX66IVHW6T","img_art/10.jpg","5","","","","","","","","","","","","","","","","","","","","","","","","",""
"null","","html-keyboard-response","173","1489672","0.0-172.0","A106MX66IVHW6T","<p style=""font-size: 48px;"">+</p>","","","","","null","allTrialResponses","500","1","18","img_art/10.jpg","-23","I like the black textures.  Feels like a storm. a figure 8.","Trevor,Jesus,Brendan,Devin,Jacob,Bradley","It's very dark and angry looking,-31,280,20","The design is very fluid and fun to interpret,35,100,20","a blue whale on the sea,12,340,20","Looks a bit as though someone ran over it?,-13,380,20","I feel like this has a cool concept behind it.,11,340,20","This piece is very intriguing to me.,3,300,20","Trevor","It's very dark and angry looking,-31,280,20","Jacob","I feel like this has a cool concept behind it.,11,340,20","Bradley","This piece is very intriguing to me.,3,300,20","2"
"32068","","survey-text","174","1521756","0.0-173.0-0.0","A106MX66IVHW6T","","","","{""Q0"":""Looks like a child's drawing, nothing really exciting.""}","","","","","","","","","","","","","","","","","","","","","","",""
"3319","","image-slider-response","175","1525083","0.0-174.0","A106MX66IVHW6T","","","","","-24","","","","","","","","","","","","","","","","","","","","","",""
"4762","","image-button-response","176","1530090","0.0-175.0","A106MX66IVHW6T","img_art/3.jpg","3","","","","","","","","","","","","","","","","","","","","","","","","",""
"1165","","image-button-response","177","1531260","0.0-176.0","A106MX66IVHW6T","img_art/3.jpg","4","","","","","","","","","","","","","","","","","","","","","","","","",""
"1249","","image-button-response","178","1532516","0.0-177.0-0.0","A106MX66IVHW6T","img_art/3.jpg","3","","","","","","","","","","","","","","","","","","","","","","","","",""
"10456","","image-button-response","179","1542979","0.0-178.0-0.0","A106MX66IVHW6T","img_art/3.jpg","2","","","","","","","","","","","","","","","","","","","","","","","","",""
"null","","html-keyboard-response","180","1543485","0.0-179.0","A106MX66IVHW6T","<p style=""font-size: 48px;"">+</p>","","","","","null","allTrialResponses","500","1","19","img_art/3.jpg","-24","Looks like a child's drawing, nothing really exciting.","Trevor,Eric,Brett,Dustin,Jacob,Bradley","looks more classic but i'm not a fan of the colors,7,280,20","This piece makes me think it has a backstory or a reason which I like.,5,100,20","Confusion and mayhem,-10,360,20","Messy. Looks like a children's drawing being passed off as expensive art. Too much red.,-50,20,20","Don't get the scribbles.,-13,340,20","Marker gone wild?  Not sure what's going on here.,-21,300,20","Jacob","Don't get the scribbles.,-13,340,20","Dustin","Messy. Looks like a children's drawing being passed off as expensive art. Too much red.,-50,20,20","Brett","Confusion and mayhem,-10,360,20","2"
"21686","","survey-text","181","1565190","0.0-180.0-0.0","A106MX66IVHW6T","","","","{""Q0"":""nice persprctive and I dig the soft colors.""}","","","","","","","","","","","","","","","","","","","","","","",""
"3254","","image-slider-response","182","1568452","0.0-181.0","A106MX66IVHW6T","","","","","31","","","","","","","","","","","","","","","","","","","","","",""
"null","","image-button-response","183","1573460","0.0-182.0","A106MX66IVHW6T","img_art/17.jpg","null","","","","","","","","","","","","","","","","","","","","","","","","",""
"4205","","image-button-response","184","1577668","0.0-183.0","A106MX66IVHW6T","img_art/17.jpg","0","","","","","","","","","","","","","","","","","","","","","","","","",""
"1312","","image-button-response","185","1578987","0.0-184.0-0.0","A106MX66IVHW6T","img_art/17.jpg","4","","","","","","","","","","","","","","","","","","","","","","","","",""
"5849","","image-button-response","186","1584845","0.0-185.0-0.0","A106MX66IVHW6T","img_art/17.jpg","5","","","","","","","","","","","","","","","","","","","","","","","","",""
"null","","html-keyboard-response","187","1585351","0.0-186.0","A106MX66IVHW6T","<p style=""font-size: 48px;"">+</p>","","","","","null","allTrialResponses","500","1","20","img_art/17.jpg","31","nice persprctive and I dig the soft colors.","Victor,Scott,Brett,Dustin,Jacob,Michael","cool. Sharp and blocky below, light and flowing on top. Overall pleasing to look at,32,340,20","pretty bland in coloring,1,20,20","Looks like an explosion of pretty artwork,45,360,20","Is it a tree/plant of some sort?  Or, I see hair?  I don't get it. But, the colors are pleasing to me.,1,20,20","The way they painted the trees is so cool.,27,340,20","There is better structure and direction in this one.,19,140,20","Victor","cool. Sharp and blocky below, light and flowing on top. Overall pleasing to look at,32,340,20","Jacob","The way they painted the trees is so cool.,27,340,20","Michael","There is better structure and direction in this one.,19,140,20","2"
"3729","","survey-text","188","1589108","0.0-187.0-0.0","A106MX66IVHW6T","","","","{""Q0"":""we""}","","","","","","","","","","","","","","","","","","","","","","",""
"33283","","survey-text","189","1622397","0.0-188.0-0.0","A106MX66IVHW6T","","","","{""Q0"":""Very foreboding and detailed for an abstract piece.""}","","","","","","","","","","","","","","","","","","","","","","",""
"2966","","image-slider-response","190","1625370","0.0-189.0","A106MX66IVHW6T","","","","","45","","","","","","","","","","","","","","","","","","","","","",""
"null","","image-button-response","191","1630375","0.0-190.0","A106MX66IVHW6T","img_art/8.jpg","null","","","","","","","","","","","","","","","","","","","","","","","","",""
"2120","","image-button-response","192","1632502","0.0-191.0","A106MX66IVHW6T","img_art/8.jpg","0","","","","","","","","","","","","","","","","","","","","","","","","",""
"1753","","image-button-response","193","1634262","0.0-192.0-0.0","A106MX66IVHW6T","img_art/8.jpg","4","","","","","","","","","","","","","","","","","","","","","","","","",""
"6766","","image-button-response","194","1641038","0.0-193.0-0.0","A106MX66IVHW6T","img_art/8.jpg","5","","","","","","","","","","","","","","","","","","","","","","","","",""
"null","","html-keyboard-response","195","1642546","0.0-194.0","A106MX66IVHW6T","<p style=""font-size: 48px;"">+</p>","","","","","null","allTrialResponses","1500","1","21","img_art/8.jpg","45","Very foreboding and detailed for an abstract piece.","Victor,Juan,Benjamin,Christopher,Jacob,Michael","I like the colors,10,340,20","I don't like the negative emotion this picture makes me feel. It's also too abstract.,-30,260,20","Very colorful. Looks like the hustle and bustle of a city.,11,260,20","it's interesting but i don't enjoy the style,-5,160,20","Very cool! I like this piece,9,340,20","It is interesting to look at. Abstract but ordered.,9,140,20","Victor","I like the colors,10,340,20","Jacob","Very cool! I like this piece,9,340,20","Michael","It is interesting to look at. Abstract but ordered.,9,140,20","2"
"39170","","survey-text","196","1681735","0.0-195.0-0.0","A106MX66IVHW6T","","","","{""Q0"":""wow I like this. Chaotic background and inverted women in a line? cool.""}","","","","","","","","","","","","","","","","","","","","","","",""
"3602","","image-slider-response","197","1685342","0.0-196.0","A106MX66IVHW6T","","","","","50","","","","","","","","","","","","","","","","","","","","","",""
"4544","","image-button-response","198","1690351","0.0-197.0","A106MX66IVHW6T","img_art/23.jpg","0","","","","","","","","","","","","","","","","","","","","","","","","",""
"570","","image-button-response","199","1690928","0.0-198.0","A106MX66IVHW6T","img_art/23.jpg","0","","","","","","","","","","","","","","","","","","","","","","","","",""
"1032","","image-button-response","200","1691967","0.0-199.0-0.0","A106MX66IVHW6T","img_art/23.jpg","4","","","","","","","","","","","","","","","","","","","","","","","","",""
"3343","","image-button-response","201","1695319","0.0-200.0-0.0","A106MX66IVHW6T","img_art/23.jpg","2","","","","","","","","","","","","","","","","","","","","","","","","",""
"null","","html-keyboard-response","202","1696825","0.0-201.0","A106MX66IVHW6T","<p style=""font-size: 48px;"">+</p>","","","","","null","allTrialResponses","1500","1","22","img_art/23.jpg","50","wow I like this. Chaotic background and inverted women in a line? cool.","Victor,Isaiah,Brandon,Mason,Jacob,Michael","I like the colors, the tiny dots, and the contrast between the white and background,28,340,20","I feel happy and a little excited. Like watching fireworks with family.,26,300,20","Pretty cool. I love the white, reminds me of people lined up.,28,320,20","No reactions, childish.,-19,100,20","This is very cool!,24,340,20","I don't get it.,-40,140,20","Victor","I like the colors, the tiny dots, and the contrast between the white and background,28,340,20","Jacob","This is very cool!,24,340,20","Brandon","Pretty cool. I love the white, reminds me of people lined up.,28,320,20","2"
"33555","","survey-text","203","1730397","0.0-202.0-0.0","A106MX66IVHW6T","","","","{""Q0"":""Cold. Streets or rails for trains. Interesting and dark.""}","","","","","","","","","","","","","","","","","","","","","","",""
"3174","","image-slider-response","204","1733576","0.0-203.0","A106MX66IVHW6T","","","","","38","","","","","","","","","","","","","","","","","","","","","",""
"null","","image-button-response","205","1738585","0.0-204.0","A106MX66IVHW6T","img_art/11.jpg","null","","","","","","","","","","","","","","","","","","","","","","","","",""
"3101","","image-button-response","206","1741692","0.0-205.0","A106MX66IVHW6T","img_art/11.jpg","3","","","","","","","","","","","","","","","","","","","","","","","","",""
"797","","image-button-response","207","1742493","0.0-206.0-0.0","A106MX66IVHW6T","img_art/11.jpg","4","","","","","","","","","","","","","","","","","","","","","","","","",""
"1267","","image-button-response","208","1743767","0.0-207.0-0.0","A106MX66IVHW6T","img_art/11.jpg","0","","","","","","","","","","","","","","","","","","","","","","","","",""
"null","","html-keyboard-response","209","1745274","0.0-208.0","A106MX66IVHW6T","<p style=""font-size: 48px;"">+</p>","","","","","null","allTrialResponses","1500","1","23","img_art/11.jpg","38","Cold. Streets or rails for trains. Interesting and dark.","Victor,Alex,Brandon,Robert,Jacob,Matthew","Love the colors against the black and gray. The lines are calming.,22,340,20","I think this is a city but I'm not sure, very abstract,18,100,20","Don't like cityscapes, which this picture reminds me of,-29,320,20","Rainy dreary day in a town.,7,360,20","This looks cool, and definitely comes to life in a way,36,340,20","Dark but bright, city but ocean, musical scales.,50,120,20","Robert","Rainy dreary day in a town.,7,360,20","Jacob","This looks cool, and definitely comes to life in a way,36,340,20","Victor","Love the colors against the black and gray. The lines are calming.,22,340,20","2"
"20287","","survey-text","210","1765584","0.0-209.0-0.0","A106MX66IVHW6T","","","","{""Q0"":""Volcano? Not sure about this one looks childish.""}","","","","","","","","","","","","","","","","","","","","","","",""
"3513","","image-slider-response","211","1769104","0.0-210.0","A106MX66IVHW6T","","","","","-49","","","","","","","","","","","","","","","","","","","","","",""
"null","","image-button-response","212","1774110","0.0-211.0","A106MX66IVHW6T","img_art/5.jpg","null","","","","","","","","","","","","","","","","","","","","","","","","",""
"1495","","image-button-response","213","1775609","0.0-212.0","A106MX66IVHW6T","img_art/5.jpg","3","","","","","","","","","","","","","","","","","","","","","","","","",""
"1344","","image-button-response","214","1776961","0.0-213.0-0.0","A106MX66IVHW6T","img_art/5.jpg","4","","","","","","","","","","","","","","","","","","","","","","","","",""
"6577","","image-button-response","215","1783545","0.0-214.0-0.0","A106MX66IVHW6T","img_art/5.jpg","0","","","","","","","","","","","","","","","","","","","","","","","","",""
"null","","html-keyboard-response","216","1785052","0.0-215.0","A106MX66IVHW6T","<p style=""font-size: 48px;"">+</p>","","","","","null","allTrialResponses","1500","1","24","img_art/5.jpg","-49","Volcano? Not sure about this one looks childish.","Victor,Paul,Jake,Robert,Jacob,Mitchell","I like these colors together and the tiny splatters, but what is this?,7,340,20","I like how simple it is and the pink brushstrokes are nice,27,300,20","This is interesting and nice.,16,360,20","This did not do a thing for me.,-50,360,20","Don't really know the point of this one.,-11,340,20","Building remnants in the sand.,1,180,20","Robert","This did not do a thing for me.,-50,360,20","Jacob","Don't really know the point of this one.,-11,340,20","Victor","I like these colors together and the tiny splatters, but what is this?,7,340,20","2"
"31033","","survey-text","217","1816104","0.0-216.0-0.0","A106MX66IVHW6T","","","","{""Q0"":""Love the colors and testure. Abstract so I don't know the subject.""}","","","","","","","","","","","","","","","","","","","","","","",""
"4898","","image-slider-response","218","1821007","0.0-217.0","A106MX66IVHW6T","","","","","39","","","","","","","","","","","","","","","","","","","","","",""
"null","","image-button-response","219","1826012","0.0-218.0","A106MX66IVHW6T","img_art/21.jpg","null","","","","","","","","","","","","","","","","","","","","","","","","",""
"2450","","image-button-response","220","1828467","0.0-219.0","A106MX66IVHW6T","img_art/21.jpg","1","","","","","","","","","","","","","","","","","","","","","","","","",""
"2456","","image-button-response","221","1830930","0.0-220.0-0.0","A106MX66IVHW6T","img_art/21.jpg","5","","","","","","","","","","","","","","","","","","","","","","","","",""
"2603","","image-button-response","222","1833539","0.0-221.0-0.0","A106MX66IVHW6T","img_art/21.jpg","0","","","","","","","","","","","","","","","","","","","","","","","","",""
"null","","html-keyboard-response","223","1834045","0.0-222.0","A106MX66IVHW6T","<p style=""font-size: 48px;"">+</p>","","","","","null","allTrialResponses","500","1","25","img_art/21.jpg","39","Love the colors and testure. Abstract so I don't know the subject.","Victor,Miguel,Kenneth,Robert,Jacob,David","I really like these colors together and their placement. The dabs of white are a nice contrast to the soft blending,10,340,20","Amazing colors.,34,160,20","It actually reminded me of a place I've been to. So I had a positive reaction to it.,22,300,20","A battle at sea, the red is a bomb exploding.,-31,360,20","I like how the colors blend together like a beautiful sunset.,25,340,20","I like how the piece has the possibility of depicting some type of story.,30,340,20","Miguel","Amazing colors.,34,160,20","David","I like how the piece has the possibility of depicting some type of story.,30,340,20","Victor","I really like these colors together and their placement. The dabs of white are a nice contrast to the soft blending,10,340,20","2"
"6581","","survey-text","224","1840658","0.0-223.0-0.0","A106MX66IVHW6T","","","","{""Q0"":""table""}","","","","","","","","","","","","","","","","","","","","","","",""
"22621","","survey-text","225","1863283","0.0-224.0-0.0","A106MX66IVHW6T","","","","{""Q0"":""McDonalds french fries exploding.""}","","","","","","","","","","","","","","","","","","","","","","",""
"3341","","image-slider-response","226","1866632","0.0-225.0","A106MX66IVHW6T","","","","","-43","","","","","","","","","","","","","","","","","","","","","",""
"null","","image-button-response","227","1871637","0.0-226.0","A106MX66IVHW6T","img_art/4.jpg","null","","","","","","","","","","","","","","","","","","","","","","","","",""
"3394","","image-button-response","228","1875035","0.0-227.0","A106MX66IVHW6T","img_art/4.jpg","4","","","","","","","","","","","","","","","","","","","","","","","","",""
"4785","","image-button-response","229","1879827","0.0-228.0-0.0","A106MX66IVHW6T","img_art/4.jpg","2","","","","","","","","","","","","","","","","","","","","","","","","",""
"2281","","image-button-response","230","1882116","0.0-229.0-0.0","A106MX66IVHW6T","img_art/4.jpg","5","","","","","","","","","","","","","","","","","","","","","","","","",""
"null","","html-keyboard-response","231","1882623","0.0-230.0","A106MX66IVHW6T","<p style=""font-size: 48px;"">+</p>","","","","","null","allTrialResponses","500","1","26","img_art/4.jpg","-43","McDonalds french fries exploding.","Victor,Miguel,William,Blake,Ryan,David","Hate the color, and just do not get the point.,-13,340,20","I don't like murky colors.,-40,160,20","dont like the colors,-31,380,20","ugly puke yellow is cold and dark,-29,280,20","Looks like an abstract version of the Scream painting,-50,380,20","I like the design. It can be interpreted in various ways, such as a hand of horror or still piece.,15,340,20","Ryan","Looks like an abstract version of the Scream painting,-50,380,20","William","dont like the colors,-31,380,20","David","I like the design. It can be interpreted in various ways, such as a hand of horror or still piece.,15,340,20","2"
"28367","","survey-text","232","1911012","0.0-231.0-0.0","A106MX66IVHW6T","","","","{""Q0"":""Nice geometric abstract with a transparent sphere...""}","","","","","","","","","","","","","","","","","","","","","","",""
"4058","","image-slider-response","233","1915076","0.0-232.0","A106MX66IVHW6T","","","","","40","","","","","","","","","","","","","","","","","","","","","",""
"null","","image-button-response","234","1920082","0.0-233.0","A106MX66IVHW6T","img_art/22.jpg","null","","","","","","","","","","","","","","","","","","","","","","","","",""
"4152","","image-button-response","235","1924237","0.0-234.0","A106MX66IVHW6T","img_art/22.jpg","5","","","","","","","","","","","","","","","","","","","","","","","","",""
"2411","","image-button-response","236","1926654","0.0-235.0-0.0","A106MX66IVHW6T","img_art/22.jpg","2","","","","","","","","","","","","","","","","","","","","","","","","",""
"7134","","image-button-response","237","1933797","0.0-236.0-0.0","A106MX66IVHW6T","img_art/22.jpg","3","","","","","","","","","","","","","","","","","","","","","","","","",""
"null","","html-keyboard-response","238","1934802","0.0-237.0","A106MX66IVHW6T","<p style=""font-size: 48px;"">+</p>","","","","","null","allTrialResponses","1000","1","27","img_art/22.jpg","40","Nice geometric abstract with a transparent sphere...","Antonio,Shawn,William,Alexander,Ryan,David","Felt blah. Bunch of nothingness,-42,220,20","Still like the colors but not the most interesting composition,17,100,20","love how the colors blend,42,380,20","Glowing city of many emotions.,10,120,20","Very generic, seen many times before,-43,380,20","This doesn't invoke anything, since I can't tell what the piece represents.,0,340,20","David","This doesn't invoke anything, since I can't tell what the piece represents.,0,340,20","William","love how the colors blend,42,380,20","Alexander","Glowing city of many emotions.,10,120,20","2"
"63166","","survey-text","239","1997991","0.0-238.0-0.0","A106MX66IVHW6T","","","","{""Q0"":""Would be better without the red x through it. I like the black/gray theme and depth.""}","","","","","","","","","","","","","","","","","","","","","","",""
"3320","","image-slider-response","240","2001318","0.0-239.0","A106MX66IVHW6T","","","","","6","","","","","","","","","","","","","","","","","","","","","",""
"null","","image-button-response","241","2006325","0.0-240.0","A106MX66IVHW6T","img_art/29.jpg","null","","","","","","","","","","","","","","","","","","","","","","","","",""
"3448","","image-button-response","242","2009777","0.0-241.0","A106MX66IVHW6T","img_art/29.jpg","5","","","","","","","","","","","","","","","","","","","","","","","","",""
"1295","","image-button-response","243","2011080","0.0-242.0-0.0","A106MX66IVHW6T","img_art/29.jpg","2","","","","","","","","","","","","","","","","","","","","","","","","",""
"2392","","image-button-response","244","2013480","0.0-243.0-0.0","A106MX66IVHW6T","img_art/29.jpg","0","","","","","","","","","","","","","","","","","","","","","","","","",""
"null","","html-keyboard-response","245","2014986","0.0-244.0","A106MX66IVHW6T","<p style=""font-size: 48px;"">+</p>","","","","","null","allTrialResponses","1500","1","28","img_art/29.jpg","6","Would be better without the red x through it. I like the black/gray theme and depth.","Sean,Travis,William,Alexander,Logan,David","my response to the picture is that it looks so nice and cool and the details,34,40,20","Neural...just a blackboard jungle.,3,260,20","makes me think of destruction,-20,380,20","Tested and failed a lot of ideas.,-20,120,20","is this supposed to be edgy,-21,360,20","Don't really like the red x. It gives the impression that this a discarded piece.,-10,340,20","David","Don't really like the red x. It gives the impression that this a discarded piece.,-10,340,20","William","makes me think of destruction,-20,380,20","Sean","my response to the picture is that it looks so nice and cool and the details,34,40,20","2"
"32811","","survey-text","246","2047816","0.0-245.0-0.0","A106MX66IVHW6T","","","","{""Q0"":""very sullen the tree top looks like hair. very cool.""}","","","","","","","","","","","","","","","","","","","","","","",""
"4138","","image-slider-response","247","2051961","0.0-246.0","A106MX66IVHW6T","","","","","44","","","","","","","","","","","","","","","","","","","","","",""
"null","","image-button-response","248","2056967","0.0-247.0","A106MX66IVHW6T","img_art/6.jpg","null","","","","","","","","","","","","","","","","","","","","","","","","",""
"3318","","image-button-response","249","2060287","0.0-248.0","A106MX66IVHW6T","img_art/6.jpg","5","","","","","","","","","","","","","","","","","","","","","","","","",""
"9166","","image-button-response","250","2069456","0.0-249.0-0.0","A106MX66IVHW6T","img_art/6.jpg","1","","","","","","","","","","","","","","","","","","","","","","","","",""
"3259","","image-button-response","251","2072720","0.0-250.0-0.0","A106MX66IVHW6T","img_art/6.jpg","3","","","","","","","","","","","","","","","","","","","","","","","","",""
"null","","html-keyboard-response","252","2073224","0.0-251.0","A106MX66IVHW6T","<p style=""font-size: 48px;"">+</p>","","","","","null","allTrialResponses","500","1","29","img_art/6.jpg","44","very sullen the tree top looks like hair. very cool.","Sean,Jose,William,Aaron,Edward,David","reminds me a giant peach,19,40,20","This could be so many different things. I saw a bird first but then it looks like a needle going into skin,34,200,20","makes me think of nature,30,380,20","It reminds me of a simplistic bird. I like the colors used.,40,20,20","It looks like a bird looking away,32,60,20","I like the simplicity of the piece.,10,340,20","David","I like the simplicity of the piece.,10,340,20","Jose","This could be so many different things. I saw a bird first but then it looks like a needle going into skin,34,200,20","Aaron","It reminds me of a simplistic bird. I like the colors used.,40,20,20","2"
"21860","","survey-text","253","2095105","0.0-252.0-0.0","A106MX66IVHW6T","","","","{""Q0"":""Abstract barber giving a shave.""}","","","","","","","","","","","","","","","","","","","","","","",""
"3057","","image-slider-response","254","2098170","0.0-253.0","A106MX66IVHW6T","","","","","-19","","","","","","","","","","","","","","","","","","","","","",""
"null","","image-button-response","255","2103177","0.0-254.0","A106MX66IVHW6T","img_art/28.jpg","null","","","","","","","","","","","","","","","","","","","","","","","","",""
"54951","","image-button-response","256","2158131","0.0-255.0","A106MX66IVHW6T","img_art/28.jpg","0","","","","","","","","","","","","","","","","","","","","","","","","",""
"8096","","image-button-response","257","2166236","0.0-256.0-0.0","A106MX66IVHW6T","img_art/28.jpg","3","","","","","","","","","","","","","","","","","","","","","","","","",""
"769","","image-button-response","258","2167012","0.0-257.0-0.0","A106MX66IVHW6T","img_art/28.jpg","1","","","","","","","","","","","","","","","","","","","","","","","","",""
"null","","html-keyboard-response","259","2167518","0.0-258.0","A106MX66IVHW6T","<p style=""font-size: 48px;"">+</p>","","","","","null","allTrialResponses","500","1","30","img_art/28.jpg","-19","Abstract barber giving a shave.","Christian,Jose,Colton,Aaron,Kyle,David","the color scheme is very well matched but i just didn't like it,-6,140,20","Eh it's just kinda brown and muddy and not very nice looking,-18,200,20","not a fan of the colors or strokes used,-27,220,20","It's drab and looks like stereotypical abstract art.,-30,20,20","Colors too dull for me,-10,340,20","I feel that the image is invoking a sense of negativity.,-15,340,20","Christian","the color scheme is very well matched but i just didn't like it,-6,140,20","Aaron","It's drab and looks like stereotypical abstract art.,-30,20,20","Jose","Eh it's just kinda brown and muddy and not very nice looking,-18,200,20","2"
"3427","","image-button-response_instructions","260","2170966","0.0-259.0","A106MX66IVHW6T","","0","instructions","","","","","","","","","","","","","","","","","","","","","","","",""
