"rt","url","trial_type","trial_index","time_elapsed","internal_node_id","participant_id","stimulus","button_pressed","Name","responses","response","key_press","variableName","fixationTime","condition","trial","photo","subjectRating","subjectResponse","agentsNames","agent_1_Response","agent_2_Response","agent_3_Response","agent_4_Response","agent_5_Response","agent_6_Response","kept_1_name","kept_1_response","kept_2_name","kept_2_response","kept_3_name","kept_3_response","errorCounter"
"33622","external_page_harvard.html","external-html","0","33749","0.0-0.0","A11Q8U6QTT8KGF","","","","","","","","","","","","","","","","","","","","","","","","","","",""
"1502","","image-button-response","1","35252","0.0-1.0","A11Q8U6QTT8KGF","","0","","","","","","","","","","","","","","","","","","","","","","","","",""
"4284","","image-button-response","2","39538","0.0-2.0-0.0","A11Q8U6QTT8KGF","","1","phone","","","","","","","","","","","","","","","","","","","","","","","",""
"2559","","survey-text","3","42098","0.0-3.0-0.0","A11Q8U6QTT8KGF","","","","{""Q0"":""A11Q8U6QTT8KGF""}","","","","","","","","","","","","","","","","","","","","","","",""
"16411","","image-button-response_instructions","4","58510","0.0-4.0","A11Q8U6QTT8KGF","","0","instructions","","","","","","","","","","","","","","","","","","","","","","","",""
"7913","","image-button-response_instructions","5","66424","0.0-5.0","A11Q8U6QTT8KGF","img_art/ins/popularity/ins1.png","0","instructions","","","","","","","","","","","","","","","","","","","","","","","",""
"3234","","image-button-response_instructions","6","69658","0.0-6.0","A11Q8U6QTT8KGF","img_art/ins/popularity/ins2.png","0","instructions","","","","","","","","","","","","","","","","","","","","","","","",""
"2631","","image-button-response_instructions","7","72291","0.0-7.0","A11Q8U6QTT8KGF","img_art/ins/popularity/ins2Extreme.png","0","instructions","","","","","","","","","","","","","","","","","","","","","","","",""
"7317","","image-button-response_instructions","8","79608","0.0-8.0","A11Q8U6QTT8KGF","img_art/ins/popularity/ins3KEEPpop.PNG","0","instructions","","","","","","","","","","","","","","","","","","","","","","","",""
"4761","","image-button-response_instructions","9","84370","0.0-9.0","A11Q8U6QTT8KGF","img_art/ins/popularity/ins3ANamepop.PNG","0","instructions","","","","","","","","","","","","","","","","","","","","","","","",""
"3580","","image-button-response_instructions","10","87950","0.0-10.0","A11Q8U6QTT8KGF","img_art/ins/popularity/ins3ARatingpop.png","0","instructions","","","","","","","","","","","","","","","","","","","","","","","",""
"3918","","image-button-response_instructions","11","91868","0.0-11.0","A11Q8U6QTT8KGF","img_art/ins/popularity/ins3ATextpop.png","0","instructions","","","","","","","","","","","","","","","","","","","","","","","",""
"4998","","image-button-response_instructions","12","96866","0.0-12.0","A11Q8U6QTT8KGF","img_art/ins/popularity/ins3ALikespop.png","0","instructions","","","","","","","","","","","","","","","","","","","","","","","",""
"6910","","image-button-response_instructions","13","103776","0.0-13.0","A11Q8U6QTT8KGF","img_art/ins/popularity/ins3KEEPpop.PNG","0","instructions","","","","","","","","","","","","","","","","","","","","","","","",""
"6501","","image-button-response_instructions","14","110278","0.0-14.0","A11Q8U6QTT8KGF","img_art/ins/popularity/ins3_5RED.png","0","instructions","","","","","","","","","","","","","","","","","","","","","","","",""
"3163","","image-button-response_instructions","15","113442","0.0-15.0","A11Q8U6QTT8KGF","img_art/ins/popularity/ins3KEEPpop.PNG","0","instructions","","","","","","","","","","","","","","","","","","","","","","","",""
"9079","","image-button-response_instructions","16","122522","0.0-16.0","A11Q8U6QTT8KGF","img_art/ins/popularity/ins4KEEPpop.PNG","0","instructions","","","","","","","","","","","","","","","","","","","","","","","",""
"4912","","image-button-response_instructions","17","127434","0.0-17.0","A11Q8U6QTT8KGF","img_art/ins/popularity/ins5KEEPpop.PNG","0","instructions","","","","","","","","","","","","","","","","","","","","","","","",""
"1925","","image-button-response_instructions","18","129360","0.0-18.0","A11Q8U6QTT8KGF","","0","instructions","","","","","","","","","","","","","","","","","","","","","","","",""
"6974","","survey-text","19","136348","0.0-19.0-0.0","A11Q8U6QTT8KGF","","","","{""Q0"":""but""}","","","","","","","","","","","","","","","","","","","","","","",""
"13523","","survey-text","20","149872","0.0-20.0-0.0","A11Q8U6QTT8KGF","","","","{""Q0"":""Looks like paint thrown at a canvas.""}","","","","","","","","","","","","","","","","","","","","","","",""
"2074.600000143051","","image-slider-response","21","151948","0.0-21.0","A11Q8U6QTT8KGF","","","","","-24","","","","","","","","","","","","","","","","","","","","","",""
"null","","image-button-response","22","156951","0.0-22.0","A11Q8U6QTT8KGF","img_art/ins/1.jpg","null","","","","","","","","","","","","","","","","","","","","","","","","",""
"8264","","image-button-response","23","165216","0.0-23.0","A11Q8U6QTT8KGF","img_art/ins/1.jpg","0","","","","","","","","","","","","","","","","","","","","","","","","",""
"2670","","image-button-response","24","167888","0.0-24.0-0.0","A11Q8U6QTT8KGF","img_art/ins/1.jpg","3","","","","","","","","","","","","","","","","","","","","","","","","",""
"2236","","image-button-response","25","170126","0.0-25.0-0.0","A11Q8U6QTT8KGF","img_art/ins/1.jpg","1","","","","","","","","","","","","","","","","","","","","","","","","",""
"null","","html-keyboard-response","26","170628","0.0-26.0","A11Q8U6QTT8KGF","<p style=""font-size: 48px;"">+</p>","","","","","null","allTrialResponses","500","1","-2","img_art/ins/1.jpg","-24","Looks like paint thrown at a canvas.","Adam,Alex,Ben,Carl,Daniel,Jack","Seems like doodles,-20,20,20","very creative work.,36,40,20","This color reminds me of poo,-46,60,20","very calming artwork,42,80,20","It looks like a murder scene.,-48,100,20","I like the sophisticated brushwork,40,120,20","Adam","Seems like doodles,-20,20,20","Carl","very calming artwork,42,80,20","Alex","very creative work.,36,40,20","0"
"13892","","survey-text","27","184523","0.0-27.0-0.0","A11Q8U6QTT8KGF","","","","{""Q0"":""I like the use of colors to segment the work.""}","","","","","","","","","","","","","","","","","","","","","","",""
"5975.599999904633","","image-slider-response","28","190500","0.0-28.0","A11Q8U6QTT8KGF","","","","","27","","","","","","","","","","","","","","","","","","","","","",""
"null","","image-button-response","29","195503","0.0-29.0","A11Q8U6QTT8KGF","img_art/ins/2.jpg","null","","","","","","","","","","","","","","","","","","","","","","","","",""
"1474","","image-button-response","30","196978","0.0-30.0","A11Q8U6QTT8KGF","img_art/ins/2.jpg","1","","","","","","","","","","","","","","","","","","","","","","","","",""
"4011","","image-button-response","31","200990","0.0-31.0-0.0","A11Q8U6QTT8KGF","img_art/ins/2.jpg","3","","","","","","","","","","","","","","","","","","","","","","","","",""
"600","","image-button-response","32","201592","0.0-32.0-0.0","A11Q8U6QTT8KGF","img_art/ins/2.jpg","4","","","","","","","","","","","","","","","","","","","","","","","","",""
"null","","html-keyboard-response","33","203093","0.0-33.0","A11Q8U6QTT8KGF","<p style=""font-size: 48px;"">+</p>","","","","","null","allTrialResponses","1500","1","-1","img_art/ins/2.jpg","27","I like the use of colors to segment the work.","Adam,Alex,James,Carl,John,Kyle","too much color,-18,20,20","I like the blocks of color arrangements,30,40,20","looks too angry,-50,140,20","I can feel the artist's passion in it,45,80,20","love the texture of paint,48,160,20","Idk, it is just annoying,-32,180,20","Alex","I like the blocks of color arrangements,30,40,20","Carl","I can feel the artist's passion in it,45,80,20","John","love the texture of paint,48,160,20","0"
"15058","","survey-text","34","218154","0.0-34.0-0.0","A11Q8U6QTT8KGF","","","","{""Q0"":""Seems like the artist had too much blue to use.""}","","","","","","","","","","","","","","","","","","","","","","",""
"2342.399999856949","","image-slider-response","35","220498","0.0-35.0","A11Q8U6QTT8KGF","","","","","-13","","","","","","","","","","","","","","","","","","","","","",""
"null","","image-button-response","36","225499","0.0-36.0","A11Q8U6QTT8KGF","img_art/ins/3.jpg","null","","","","","","","","","","","","","","","","","","","","","","","","",""
"769","","image-button-response","37","226270","0.0-37.0","A11Q8U6QTT8KGF","img_art/ins/3.jpg","3","","","","","","","","","","","","","","","","","","","","","","","","",""
"4865","","image-button-response","38","231136","0.0-38.0-0.0","A11Q8U6QTT8KGF","img_art/ins/3.jpg","2","","","","","","","","","","","","","","","","","","","","","","","","",""
"1140","","image-button-response","39","232277","0.0-39.0-0.0","A11Q8U6QTT8KGF","img_art/ins/3.jpg","2","","","","","","","","","","","","","","","","","","","","","","","","",""
"1025","","image-button-response","40","236570","0.0-39.1-0.1","A11Q8U6QTT8KGF","img_art/ins/3.jpg","1","","","","","","","","","","","","","","","","","","","","","","","","",""
"null","","html-keyboard-response","41","238072","0.0-40.0","A11Q8U6QTT8KGF","<p style=""font-size: 48px;"">+</p>","","","","","null","allTrialResponses","1500","1","0","img_art/ins/3.jpg","-13","Seems like the artist had too much blue to use.","Mike,Alex,Ron,Carl,John,Sam","enjoy the different shades of blue,22,200,20","calming blue is very nice,36,40,20","It looks depressing,-26,220,20","It's an alright work,15,80,20","I like the overlapping of brushes,41,160,20","I can feel a rainy day from this painting,18,240,20","Carl","It's an alright work,15,80,20","Ron","It looks depressing,-26,220,20","Alex","calming blue is very nice,36,40,20","2"
"3752","","image-button-response_instructions","42","241826","0.0-41.0","A11Q8U6QTT8KGF","","0","instructions","","","","","","","","","","","","","","","","","","","","","","","",""
"32540","","survey-likert","43","274366","0.0-42.0-0.0","A11Q8U6QTT8KGF","","","","{""Q0"":"""",""Q1"":0,""Q2"":1}","","","","","","","","","","","","","","","","","","","","","","",""
"23898","","survey-text","44","298267","0.0-43.0-0.0","A11Q8U6QTT8KGF","","","","{""Q0"":""rock""}","","","","","","","","","","","","","","","","","","","","","","",""
"28317","","survey-text","45","326585","0.0-44.0-0.0","A11Q8U6QTT8KGF","","","","{""Q0"":""Looks like there is no form just scribbling""}","","","","","","","","","","","","","","","","","","","","","","",""
"1948.9000000953674","","image-slider-response","46","328535","0.0-45.0","A11Q8U6QTT8KGF","","","","","-40","","","","","","","","","","","","","","","","","","","","","",""
"2999","","image-button-response","47","333546","0.0-46.0","A11Q8U6QTT8KGF","img_art/3.jpg","0","","","","","","","","","","","","","","","","","","","","","","","","",""
"3621","","image-button-response","48","337168","0.0-47.0","A11Q8U6QTT8KGF","img_art/3.jpg","3","","","","","","","","","","","","","","","","","","","","","","","","",""
"3734","","image-button-response","49","340903","0.0-48.0-0.0","A11Q8U6QTT8KGF","img_art/3.jpg","0","","","","","","","","","","","","","","","","","","","","","","","","",""
"899","","image-button-response","50","341804","0.0-49.0-0.0","A11Q8U6QTT8KGF","img_art/3.jpg","1","","","","","","","","","","","","","","","","","","","","","","","","",""
"null","","html-keyboard-response","51","342307","0.0-50.0","A11Q8U6QTT8KGF","<p style=""font-size: 48px;"">+</p>","","","","","null","allTrialResponses","500","1","1","img_art/3.jpg","-40","Looks like there is no form just scribbling","Kyle,Miguel,Shane,Nathaniel,Alexander,Robert","I don't really have a strong reaction to this one,0,340,20","Unfocused and rushed.,-28,160,20","Too much red or blood,-28,80,20","Just scribbles. People buy that?,-47,220,20","Somewhere between a child's art and a poorly drawn battle map.,8,120,20","I think of an angry child,-50,360,20","Nathaniel","Just scribbles. People buy that?,-47,220,20","Kyle","I don't really have a strong reaction to this one,0,340,20","Miguel","Unfocused and rushed.,-28,160,20","2"
"21019","","survey-text","52","363329","0.0-51.0-0.0","A11Q8U6QTT8KGF","","","","{""Q0"":""Feels like a ocean meeting the shore, love the use of color.""}","","","","","","","","","","","","","","","","","","","","","","",""
"2583.399999856949","","image-slider-response","53","365913","0.0-52.0","A11Q8U6QTT8KGF","","","","","47","","","","","","","","","","","","","","","","","","","","","",""
"null","","image-button-response","54","370915","0.0-53.0","A11Q8U6QTT8KGF","img_art/21.jpg","null","","","","","","","","","","","","","","","","","","","","","","","","",""
"4187","","image-button-response","55","375104","0.0-54.0","A11Q8U6QTT8KGF","img_art/21.jpg","2","","","","","","","","","","","","","","","","","","","","","","","","",""
"6399","","image-button-response","56","381504","0.0-55.0-0.0","A11Q8U6QTT8KGF","img_art/21.jpg","4","","","","","","","","","","","","","","","","","","","","","","","","",""
"5129","","image-button-response","57","386633","0.0-56.0-0.0","A11Q8U6QTT8KGF","img_art/21.jpg","5","","","","","","","","","","","","","","","","","","","","","","","","",""
"null","","html-keyboard-response","58","388135","0.0-57.0","A11Q8U6QTT8KGF","<p style=""font-size: 48px;"">+</p>","","","","","null","allTrialResponses","1500","1","2","img_art/21.jpg","47","Feels like a ocean meeting the shore, love the use of color.","Kyle,Miguel,Taylor,Nathaniel,Jose,Alexis","The blues make me feel sadder as my mood is already not the best right now,-10,340,20","Amazing colors.,34,160,20","Remove the rocks(?) on the lower right.,5,200,20","Looks like two ships on fire. Cool image.,12,220,20","I can't explain why this struck me as absolutely gorgeous. Like the clashing between 2 different worlds,43,200,20","It makes me feel mellow or ""chill"". It makes me have a positive and calm mood,42,140,20","Taylor","Remove the rocks(?) on the lower right.,5,200,20","Jose","I can't explain why this struck me as absolutely gorgeous. Like the clashing between 2 different worlds,43,200,20","Alexis","It makes me feel mellow or ""chill"". It makes me have a positive and calm mood,42,140,20","2"
"10895","","survey-text","59","399033","0.0-58.0-0.0","A11Q8U6QTT8KGF","","","","{""Q0"":""A man is trying to find his ball""}","","","","","","","","","","","","","","","","","","","","","","",""
"3452.600000143051","","image-slider-response","60","402487","0.0-59.0","A11Q8U6QTT8KGF","","","","","-3","","","","","","","","","","","","","","","","","","","","","",""
"4261","","image-button-response","61","407489","0.0-60.0","A11Q8U6QTT8KGF","img_art/22.jpg","1","","","","","","","","","","","","","","","","","","","","","","","","",""
"371","","image-button-response","62","407861","0.0-61.0","A11Q8U6QTT8KGF","img_art/22.jpg","1","","","","","","","","","","","","","","","","","","","","","","","","",""
"2779","","image-button-response","63","410641","0.0-62.0-0.0","A11Q8U6QTT8KGF","img_art/22.jpg","2","","","","","","","","","","","","","","","","","","","","","","","","",""
"4879","","image-button-response","64","415521","0.0-63.0-0.0","A11Q8U6QTT8KGF","img_art/22.jpg","5","","","","","","","","","","","","","","","","","","","","","","","","",""
"null","","html-keyboard-response","65","416022","0.0-64.0","A11Q8U6QTT8KGF","<p style=""font-size: 48px;"">+</p>","","","","","null","allTrialResponses","500","1","3","img_art/22.jpg","-3","A man is trying to find his ball","Nathan,John,Taylor,Matthew,Jose,Alexis","A bit colorful, but slightly enjoyable, almost gives off castle/sunset vibes,10,200,20","Its okay,it doesnt make me feel any sort of strong emotion,1,120,20","Looks like the kind of art I would see at the doctor's office.,-5,200,20","Another servicable piece of abstract art?,20,120,20","Cool squares but what's the circle?,38,200,20","Neither like nor dislike it. The red, yellow and blue colors are bright but I don't know what it's meant to be.,1,140,20","John","Its okay,it doesnt make me feel any sort of strong emotion,1,120,20","Taylor","Looks like the kind of art I would see at the doctor's office.,-5,200,20","Alexis","Neither like nor dislike it. The red, yellow and blue colors are bright but I don't know what it's meant to be.,1,140,20","2"
"73816","","survey-text","66","489841","0.0-65.0-0.0","A11Q8U6QTT8KGF","","","","{""Q0"":""A park picture on a windy day. relaxing""}","","","","","","","","","","","","","","","","","","","","","","",""
"2074.2999999523163","","image-slider-response","67","491917","0.0-66.0","A11Q8U6QTT8KGF","","","","","29","","","","","","","","","","","","","","","","","","","","","",""
"4339","","image-button-response","68","496918","0.0-67.0","A11Q8U6QTT8KGF","img_art/26.jpg","1","","","","","","","","","","","","","","","","","","","","","","","","",""
"669","","image-button-response","69","497589","0.0-68.0","A11Q8U6QTT8KGF","img_art/26.jpg","1","","","","","","","","","","","","","","","","","","","","","","","","",""
"5551","","image-button-response","70","503142","0.0-69.0-0.0","A11Q8U6QTT8KGF","img_art/26.jpg","5","","","","","","","","","","","","","","","","","","","","","","","","",""
"925","","image-button-response","71","504067","0.0-70.0-0.0","A11Q8U6QTT8KGF","img_art/26.jpg","2","","","","","","","","","","","","","","","","","","","","","","","","",""
"null","","html-keyboard-response","72","504569","0.0-71.0","A11Q8U6QTT8KGF","<p style=""font-size: 48px;"">+</p>","","","","","null","allTrialResponses","500","1","4","img_art/26.jpg","29","A park picture on a windy day. relaxing","Jesse,John,Taylor,Marcus,Bradley,Alexis","Looks bland and boring,-5,80,20","Its pretty.And a nice use of water colors.,25,120,20","At least it is a bit of scenery.,10,200,20","Nice, but not very interesting. I do like the blue tree though.,6,60,20","I like this. Looks like a city street and I can use my imagination to make it come alive.,15,300,20","it makes me feel normal and calm, I like the busy city street,10,140,20","John","Its pretty.And a nice use of water colors.,25,120,20","Alexis","it makes me feel normal and calm, I like the busy city street,10,140,20","Taylor","At least it is a bit of scenery.,10,200,20","2"
"17706","","survey-text","73","522279","0.0-72.0-0.0","A11Q8U6QTT8KGF","","","","{""Q0"":""Nice use of color to highlight the trees""}","","","","","","","","","","","","","","","","","","","","","","",""
"1986.5","","image-slider-response","74","524267","0.0-73.0","A11Q8U6QTT8KGF","","","","","29","","","","","","","","","","","","","","","","","","","","","",""
"4762","","image-button-response","75","529269","0.0-74.0","A11Q8U6QTT8KGF","img_art/17.jpg","3","","","","","","","","","","","","","","","","","","","","","","","","",""
"1852","","image-button-response","76","531121","0.0-75.0","A11Q8U6QTT8KGF","img_art/17.jpg","3","","","","","","","","","","","","","","","","","","","","","","","","",""
"3063","","image-button-response","77","534185","0.0-76.0-0.0","A11Q8U6QTT8KGF","img_art/17.jpg","0","","","","","","","","","","","","","","","","","","","","","","","","",""
"1038","","image-button-response","78","535225","0.0-77.0-0.0","A11Q8U6QTT8KGF","img_art/17.jpg","1","","","","","","","","","","","","","","","","","","","","","","","","",""
"null","","html-keyboard-response","79","535726","0.0-78.0","A11Q8U6QTT8KGF","<p style=""font-size: 48px;"">+</p>","","","","","null","allTrialResponses","500","1","5","img_art/17.jpg","29","Nice use of color to highlight the trees","Andrew,John,Taylor,Blake,Jake,Alexis","A very inspiring piece,41,160,20","It gorgeous and i love how the tree is almost 3 dimensional.So many elements to it.,50,120,20","Somewhat should trim the tree branches at the shopping mall.,10,200,20","soft and warm light colors are relaxing,12,280,20","This could have been good but was poorly done.,-5,360,20","This makes me feel inspired and happy. I love everything about this portrait,45,140,20","Blake","soft and warm light colors are relaxing,12,280,20","Andrew","A very inspiring piece,41,160,20","John","It gorgeous and i love how the tree is almost 3 dimensional.So many elements to it.,50,120,20","2"
"3121","","survey-text","80","538851","0.0-79.0-0.0","A11Q8U6QTT8KGF","","","","{""Q0"":""sky""}","","","","","","","","","","","","","","","","","","","","","","",""
"21340","","survey-text","81","560193","0.0-80.0-0.0","A11Q8U6QTT8KGF","","","","{""Q0"":""Cluttered but I like the use of space.""}","","","","","","","","","","","","","","","","","","","","","","",""
"1446.5999999046326","","image-slider-response","82","561641","0.0-81.0","A11Q8U6QTT8KGF","","","","","10","","","","","","","","","","","","","","","","","","","","","",""
"null","","image-button-response","83","566644","0.0-82.0","A11Q8U6QTT8KGF","img_art/18.jpg","null","","","","","","","","","","","","","","","","","","","","","","","","",""
"518","","image-button-response","84","567163","0.0-83.0","A11Q8U6QTT8KGF","img_art/18.jpg","3","","","","","","","","","","","","","","","","","","","","","","","","",""
"6007","","image-button-response","85","573172","0.0-84.0-0.0","A11Q8U6QTT8KGF","img_art/18.jpg","1","","","","","","","","","","","","","","","","","","","","","","","","",""
"5149","","image-button-response","86","578324","0.0-85.0-0.0","A11Q8U6QTT8KGF","img_art/18.jpg","5","","","","","","","","","","","","","","","","","","","","","","","","",""
"null","","html-keyboard-response","87","579325","0.0-86.0","A11Q8U6QTT8KGF","<p style=""font-size: 48px;"">+</p>","","","","","null","allTrialResponses","1000","1","6","img_art/18.jpg","10","Cluttered but I like the use of space.","Andrew,John,Travis,Blake,Angel,Malik","Another ominous painting,-10,160,20","There are alot of elements to this painting and a good mix of colors,32,120,20","I don't know...kind of a dissatified feeling inside.,-6,260,20","i like the colors. outerspace,21,280,20","Like riding into battle. A sense of confidence, but also trepidation for what's coming. Could be a personification of death.,-10,180,20","Gently chaotic and beautiful,40,40,20","Blake","i like the colors. outerspace,21,280,20","John","There are alot of elements to this painting and a good mix of colors,32,120,20","Malik","Gently chaotic and beautiful,40,40,20","2"
"17529","","survey-text","88","596862","0.0-87.0-0.0","A11Q8U6QTT8KGF","","","","{""Q0"":""Smaller pieces stuck together, looks like a collage.""}","","","","","","","","","","","","","","","","","","","","","","",""
"1973","","image-slider-response","89","598836","0.0-88.0","A11Q8U6QTT8KGF","","","","","-8","","","","","","","","","","","","","","","","","","","","","",""
"null","","image-button-response","90","603837","0.0-89.0","A11Q8U6QTT8KGF","img_art/12.jpg","null","","","","","","","","","","","","","","","","","","","","","","","","",""
"103799","","image-button-response","91","707637","0.0-90.0","A11Q8U6QTT8KGF","img_art/12.jpg","0","","","","","","","","","","","","","","","","","","","","","","","","",""
"7713","","image-button-response","92","715352","0.0-91.0-0.0","A11Q8U6QTT8KGF","img_art/12.jpg","3","","","","","","","","","","","","","","","","","","","","","","","","",""
"1940","","image-button-response","93","717294","0.0-92.0-0.0","A11Q8U6QTT8KGF","img_art/12.jpg","2","","","","","","","","","","","","","","","","","","","","","","","","",""
"null","","html-keyboard-response","94","718295","0.0-93.0","A11Q8U6QTT8KGF","<p style=""font-size: 48px;"">+</p>","","","","","null","allTrialResponses","1000","1","7","img_art/12.jpg","-8","Smaller pieces stuck together, looks like a collage.","Mark,John,Evan,Blake,Ryan,Malik","It just feels like a jigsaw puzzle,-4,80,20","Its cool,reminiscent of Andy Warhol type of style,10,120,20","It reminds me of the documentary Paris is Burning, though I'm not sure why,11,140,20","negative feelings with these blocks,-20,280,20","The colors are beautiful and it has great composition,50,380,20","I don't like it, but I appreciate the effort and technique,11,40,20","Mark","It just feels like a jigsaw puzzle,-4,80,20","Blake","negative feelings with these blocks,-20,280,20","Evan","It reminds me of the documentary Paris is Burning, though I'm not sure why,11,140,20","2"
"70477","","survey-text","95","788777","0.0-94.0-0.0","A11Q8U6QTT8KGF","","","","{""Q0"":""A woman in a field, meh to me.""}","","","","","","","","","","","","","","","","","","","","","","",""
"2622.899999856949","","image-slider-response","96","791401","0.0-95.0","A11Q8U6QTT8KGF","","","","","-39","","","","","","","","","","","","","","","","","","","","","",""
"null","","image-button-response","97","796404","0.0-96.0","A11Q8U6QTT8KGF","img_art/25.jpg","null","","","","","","","","","","","","","","","","","","","","","","","","",""
"15746","","image-button-response","98","812152","0.0-97.0","A11Q8U6QTT8KGF","img_art/25.jpg","4","","","","","","","","","","","","","","","","","","","","","","","","",""
"1477","","image-button-response","99","813630","0.0-98.0-0.0","A11Q8U6QTT8KGF","img_art/25.jpg","5","","","","","","","","","","","","","","","","","","","","","","","","",""
"1800","","image-button-response","100","815432","0.0-99.0-0.0","A11Q8U6QTT8KGF","img_art/25.jpg","3","","","","","","","","","","","","","","","","","","","","","","","","",""
"null","","html-keyboard-response","101","816934","0.0-100.0","A11Q8U6QTT8KGF","<p style=""font-size: 48px;"">+</p>","","","","","null","allTrialResponses","1500","1","8","img_art/25.jpg","-39","A woman in a field, meh to me.","Mark,Devin,Evan,Blake,Chase,Tyler","Looks like Burning Man, dont care for the colors.,-5,80,20","It looks a bit strange to me, neck too long,-19,380,20","I really like the green and the fact that it is tattered on the edges,23,140,20","ugly color and very sad old lady,-45,280,20","Not particularly interesting for me. The green color is strange mixed with this.,-11,120,20","Meh. Hardly abstract, though.,-40,320,20","Chase","Not particularly interesting for me. The green color is strange mixed with this.,-11,120,20","Tyler","Meh. Hardly abstract, though.,-40,320,20","Blake","ugly color and very sad old lady,-45,280,20","2"
"41350","","survey-text","102","858292","0.0-101.0-0.0","A11Q8U6QTT8KGF","","","","{""Q0"":""A figure in the desert, sort of bland.""}","","","","","","","","","","","","","","","","","","","","","","",""
"2544.4000000953674","","image-slider-response","103","860837","0.0-102.0","A11Q8U6QTT8KGF","","","","","-26","","","","","","","","","","","","","","","","","","","","","",""
"null","","image-button-response","104","865839","0.0-103.0","A11Q8U6QTT8KGF","img_art/6.jpg","null","","","","","","","","","","","","","","","","","","","","","","","","",""
"4818","","image-button-response","105","870659","0.0-104.0","A11Q8U6QTT8KGF","img_art/6.jpg","2","","","","","","","","","","","","","","","","","","","","","","","","",""
"9054","","image-button-response","106","879715","0.0-105.0-0.0","A11Q8U6QTT8KGF","img_art/6.jpg","4","","","","","","","","","","","","","","","","","","","","","","","","",""
"2386","","image-button-response","107","882103","0.0-106.0-0.0","A11Q8U6QTT8KGF","img_art/6.jpg","5","","","","","","","","","","","","","","","","","","","","","","","","",""
"null","","html-keyboard-response","108","883104","0.0-107.0","A11Q8U6QTT8KGF","<p style=""font-size: 48px;"">+</p>","","","","","null","allTrialResponses","1000","1","9","img_art/6.jpg","-26","A figure in the desert, sort of bland.","Luis,Dalton,Bryce,Blake,Chase,Tyler","I love the representation of death and life.,50,400,20","it looks like a stick holding a wig on a cliff,21,300,20","Not very exciting.,-34,20,20","one lonely thing trying to grow,-24,280,20","It's a bit bland, but looks like a bird standing.,11,120,20","Is this the villain from Despicable Me?,29,320,20","Bryce","Not very exciting.,-34,20,20","Chase","It's a bit bland, but looks like a bird standing.,11,120,20","Tyler","Is this the villain from Despicable Me?,29,320,20","2"
"12509","","survey-text","109","895622","0.0-108.0-0.0","A11Q8U6QTT8KGF","","","","{""Q0"":""Love the movement and colors.""}","","","","","","","","","","","","","","","","","","","","","","",""
"1722.8000001907349","","image-slider-response","110","897346","0.0-109.0","A11Q8U6QTT8KGF","","","","","42","","","","","","","","","","","","","","","","","","","","","",""
"2419","","image-button-response","111","902349","0.0-110.0","A11Q8U6QTT8KGF","img_art/24.jpg","2","","","","","","","","","","","","","","","","","","","","","","","","",""
"151","","image-button-response","112","902501","0.0-111.0","A11Q8U6QTT8KGF","img_art/24.jpg","2","","","","","","","","","","","","","","","","","","","","","","","","",""
"40350","","image-button-response","113","942851","0.0-112.0-0.0","A11Q8U6QTT8KGF","img_art/24.jpg","1","","","","","","","","","","","","","","","","","","","","","","","","",""
"4180","","image-button-response","114","947033","0.0-113.0-0.0","A11Q8U6QTT8KGF","img_art/24.jpg","0","","","","","","","","","","","","","","","","","","","","","","","","",""
"null","","html-keyboard-response","115","948035","0.0-114.0","A11Q8U6QTT8KGF","<p style=""font-size: 48px;"">+</p>","","","","","null","allTrialResponses","1000","1","10","img_art/24.jpg","42","Love the movement and colors.","Isaac,Kenneth,Bryce,Grant,Chase,Tyler","The colors are relaxing and cheerful.,32,280,20","Cute; I like what the image itself & the colors.,25,300,20","Looks like a waterfall!,34,20,20","The colors look nice, but the painting bores me.,-20,200,20","This one isn't that abstract. It clearly looks like a waterfall.,31,120,20","Exceedingly garish,-19,320,20","Bryce","Looks like a waterfall!,34,20,20","Kenneth","Cute; I like what the image itself & the colors.,25,300,20","Isaac","The colors are relaxing and cheerful.,32,280,20","2"
"3181","","survey-text","116","951225","0.0-115.0-0.0","A11Q8U6QTT8KGF","","","","{""Q0"":""our""}","","","","","","","","","","","","","","","","","","","","","","",""
"51678","","survey-text","117","1002904","0.0-116.0-0.0","A11Q8U6QTT8KGF","","","","{""Q0"":""people dancing in the stars.""}","","","","","","","","","","","","","","","","","","","","","","",""
"38857.799999952316","","image-slider-response","118","1041763","0.0-117.0","A11Q8U6QTT8KGF","","","","","31","","","","","","","","","","","","","","","","","","","","","",""
"null","","image-button-response","119","1046764","0.0-118.0","A11Q8U6QTT8KGF","img_art/23.jpg","null","","","","","","","","","","","","","","","","","","","","","","","","",""
"131599","","image-button-response","120","1178365","0.0-119.0","A11Q8U6QTT8KGF","img_art/23.jpg","0","","","","","","","","","","","","","","","","","","","","","","","","",""
"783","","image-button-response","121","1179149","0.0-120.0-0.0","A11Q8U6QTT8KGF","img_art/23.jpg","3","","","","","","","","","","","","","","","","","","","","","","","","",""
"498","","image-button-response","122","1179648","0.0-121.0-0.0","A11Q8U6QTT8KGF","img_art/23.jpg","5","","","","","","","","","","","","","","","","","","","","","","","","",""
"null","","html-keyboard-response","123","1180650","0.0-122.0","A11Q8U6QTT8KGF","<p style=""font-size: 48px;"">+</p>","","","","","null","allTrialResponses","1000","1","11","img_art/23.jpg","31","people dancing in the stars.","Isaac,Kenneth,Bryce,Jacob,Michael,Cameron","I like the royal colors.,38,280,20","Love this. I love the white, really pops with the colors surrounding it.,44,300,20","So beautiful with the white accents.,50,20,20","This is very cool!,24,340,20","I don't get it.,-40,140,20","looks like those paper chain things.,0,60,20","Isaac","I like the royal colors.,38,280,20","Jacob","This is very cool!,24,340,20","Cameron","looks like those paper chain things.,0,60,20","2"
"76896","","survey-text","124","1257554","0.0-123.0-0.0","A11Q8U6QTT8KGF","","","","{""Q0"":""Looks like an overturned truck. interesting""}","","","","","","","","","","","","","","","","","","","","","","",""
"5160.900000095367","","image-slider-response","125","1262716","0.0-124.0","A11Q8U6QTT8KGF","","","","","17","","","","","","","","","","","","","","","","","","","","","",""
"null","","image-button-response","126","1267719","0.0-125.0","A11Q8U6QTT8KGF","img_art/20.jpg","null","","","","","","","","","","","","","","","","","","","","","","","","",""
"3830","","image-button-response","127","1271551","0.0-126.0","A11Q8U6QTT8KGF","img_art/20.jpg","4","","","","","","","","","","","","","","","","","","","","","","","","",""
"3023","","image-button-response","128","1274574","0.0-127.0-0.0","A11Q8U6QTT8KGF","img_art/20.jpg","0","","","","","","","","","","","","","","","","","","","","","","","","",""
"2655","","image-button-response","129","1277231","0.0-128.0-0.0","A11Q8U6QTT8KGF","img_art/20.jpg","3","","","","","","","","","","","","","","","","","","","","","","","","",""
"null","","html-keyboard-response","130","1277732","0.0-129.0","A11Q8U6QTT8KGF","<p style=""font-size: 48px;"">+</p>","","","","","null","allTrialResponses","500","1","12","img_art/20.jpg","17","Looks like an overturned truck. interesting","Isaac,Hunter,Dylan,Jacob,Joshua,Cameron","It is abstract but it looks neat.,15,280,20","feels underdeveloped,-11,240,20","The white blob looks like a face and it's creepy,-30,40,20","It looks painted really nicely.,5,340,20","Reminds me of the Southwest; i.e. New Mexico or Arizona. It's interesting.,12,240,20","Dinosaur skill and some dark shadow above,-30,60,20","Joshua","Reminds me of the Southwest; i.e. New Mexico or Arizona. It's interesting.,12,240,20","Isaac","It is abstract but it looks neat.,15,280,20","Jacob","It looks painted really nicely.,5,340,20","2"
"14530","","survey-text","131","1292266","0.0-130.0-0.0","A11Q8U6QTT8KGF","","","","{""Q0"":""painting done, mistake made?""}","","","","","","","","","","","","","","","","","","","","","","",""
"7979.299999952316","","image-slider-response","132","1300247","0.0-131.0","A11Q8U6QTT8KGF","","","","","0","","","","","","","","","","","","","","","","","","","","","",""
"null","","image-button-response","133","1305249","0.0-132.0","A11Q8U6QTT8KGF","img_art/29.jpg","null","","","","","","","","","","","","","","","","","","","","","","","","",""
"7433","","image-button-response","134","1312683","0.0-133.0","A11Q8U6QTT8KGF","img_art/29.jpg","3","","","","","","","","","","","","","","","","","","","","","","","","",""
"1266","","image-button-response","135","1313951","0.0-134.0-0.0","A11Q8U6QTT8KGF","img_art/29.jpg","4","","","","","","","","","","","","","","","","","","","","","","","","",""
"791","","image-button-response","136","1314743","0.0-135.0-0.0","A11Q8U6QTT8KGF","img_art/29.jpg","0","","","","","","","","","","","","","","","","","","","","","","","","",""
"null","","html-keyboard-response","137","1315744","0.0-136.0","A11Q8U6QTT8KGF","<p style=""font-size: 48px;"">+</p>","","","","","null","allTrialResponses","1000","1","13","img_art/29.jpg","0","painting done, mistake made?","Isaac,Benjamin,Mason,Jacob,Joshua,Kevin","It is intriguing but I don't like the red X.,6,280,20","Don't like the red X across the painting.,-15,260,20","easy, too abstract for me, don't get it.,-25,100,20","It looks cool but I don't really get what's going on, it looks too busy,0,340,20","I don't like the red X through it.,-20,240,20","Thats a pretty wierd picture.,6,320,20","Jacob","It looks cool but I don't really get what's going on, it looks too busy,0,340,20","Joshua","I don't like the red X through it.,-20,240,20","Isaac","It is intriguing but I don't like the red X.,6,280,20","2"
"108810","","survey-text","138","1424556","0.0-137.0-0.0","A11Q8U6QTT8KGF","","","","{""Q0"":""Man fishing in autumn.""}","","","","","","","","","","","","","","","","","","","","","","",""
"2002.9000000953674","","image-slider-response","139","1426560","0.0-138.0","A11Q8U6QTT8KGF","","","","","35","","","","","","","","","","","","","","","","","","","","","",""
"null","","image-button-response","140","1431562","0.0-139.0","A11Q8U6QTT8KGF","img_art/1.jpg","null","","","","","","","","","","","","","","","","","","","","","","","","",""
"269","","image-button-response","141","1431832","0.0-140.0","A11Q8U6QTT8KGF","img_art/1.jpg","4","","","","","","","","","","","","","","","","","","","","","","","","",""
"688","","image-button-response","142","1432522","0.0-141.0-0.0","A11Q8U6QTT8KGF","img_art/1.jpg","2","","","","","","","","","","","","","","","","","","","","","","","","",""
"1705","","image-button-response","143","1434228","0.0-142.0-0.0","A11Q8U6QTT8KGF","img_art/1.jpg","3","","","","","","","","","","","","","","","","","","","","","","","","",""
"null","","html-keyboard-response","144","1435730","0.0-143.0","A11Q8U6QTT8KGF","<p style=""font-size: 48px;"">+</p>","","","","","null","allTrialResponses","1500","1","14","img_art/1.jpg","35","Man fishing in autumn.","Isaac,Zachary,Eric,Jacob,Joshua,Patrick","The colors are a little too intense.,1,280,20","While I like the colors, I find nothing interesting or thought provoking about it.,10,400,20","I like the way that the colors blend.,35,100,20","Looks like the same thing as the last piece shown to me,10,340,20","Reminds me of fall.,7,240,20","I feel uneasy looking at this,-41,280,20","Joshua","Reminds me of fall.,7,240,20","Eric","I like the way that the colors blend.,35,100,20","Jacob","Looks like the same thing as the last piece shown to me,10,340,20","2"
"17443","","survey-text","145","1453176","0.0-144.0-0.0","A11Q8U6QTT8KGF","","","","{""Q0"":""I town being squished by pollution.""}","","","","","","","","","","","","","","","","","","","","","","",""
"3232.4000000953674","","image-slider-response","146","1456410","0.0-145.0","A11Q8U6QTT8KGF","","","","","37","","","","","","","","","","","","","","","","","","","","","",""
"null","","image-button-response","147","1461412","0.0-146.0","A11Q8U6QTT8KGF","img_art/11.jpg","null","","","","","","","","","","","","","","","","","","","","","","","","",""
"1601","","image-button-response","148","1463014","0.0-147.0","A11Q8U6QTT8KGF","img_art/11.jpg","2","","","","","","","","","","","","","","","","","","","","","","","","",""
"984","","image-button-response","149","1464000","0.0-148.0-0.0","A11Q8U6QTT8KGF","img_art/11.jpg","5","","","","","","","","","","","","","","","","","","","","","","","","",""
"915","","image-button-response","150","1464917","0.0-149.0-0.0","A11Q8U6QTT8KGF","img_art/11.jpg","3","","","","","","","","","","","","","","","","","","","","","","","","",""
"null","","html-keyboard-response","151","1465419","0.0-150.0","A11Q8U6QTT8KGF","<p style=""font-size: 48px;"">+</p>","","","","","null","allTrialResponses","500","1","15","img_art/11.jpg","37","I town being squished by pollution.","Daniel,Adrian,Eric,Jacob,Joshua,Lucas","Some interesting color but scratchy train mess.,-14,320,20","Not a fan of the colors but it looks interesting.,-31,60,20","I don't like the gloomy color, but it reminds me of a city which I like.,35,100,20","This looks cool, and definitely comes to life in a way,36,340,20","Is interesting. Wouldn't bother me to have this hanging where I'd see it every day.,11,240,20","Astounding, extraordinary.,25,380,20","Eric","I don't like the gloomy color, but it reminds me of a city which I like.,35,100,20","Lucas","Astounding, extraordinary.,25,380,20","Jacob","This looks cool, and definitely comes to life in a way,36,340,20","2"
"4123","","survey-text","152","1469546","0.0-151.0-0.0","A11Q8U6QTT8KGF","","","","{""Q0"":""course""}","","","","","","","","","","","","","","","","","","","","","","",""
"381297","","survey-text","153","1850845","0.0-152.0-0.0","A11Q8U6QTT8KGF","","","","{""Q0"":""Looks like a smashed bell.""}","","","","","","","","","","","","","","","","","","","","","","",""
"2176.7000000476837","","image-slider-response","154","1853023","0.0-153.0","A11Q8U6QTT8KGF","","","","","-24","","","","","","","","","","","","","","","","","","","","","",""
"null","","image-button-response","155","1858026","0.0-154.0","A11Q8U6QTT8KGF","img_art/5.jpg","null","","","","","","","","","","","","","","","","","","","","","","","","",""
"1981","","image-button-response","156","1860009","0.0-155.0","A11Q8U6QTT8KGF","img_art/5.jpg","0","","","","","","","","","","","","","","","","","","","","","","","","",""
"2506","","image-button-response","157","1862516","0.0-156.0-0.0","A11Q8U6QTT8KGF","img_art/5.jpg","3","","","","","","","","","","","","","","","","","","","","","","","","",""
"1307","","image-button-response","158","1863824","0.0-157.0-0.0","A11Q8U6QTT8KGF","img_art/5.jpg","5","","","","","","","","","","","","","","","","","","","","","","","","",""
"null","","html-keyboard-response","159","1864827","0.0-158.0","A11Q8U6QTT8KGF","<p style=""font-size: 48px;"">+</p>","","","","","null","allTrialResponses","1000","1","16","img_art/5.jpg","-24","Looks like a smashed bell.","Spencer,Jeffrey,Eric,Jacob,Sean,Lucas","Boring, no flow except the pink feathery band,-42,120,20","positive colours; yellow calls attention,6,40,20","I'm reminded of a volcano with weird colors.,-5,100,20","Don't really know the point of this one.,-11,340,20","the picture looks ok,8,40,20","Very non-dynamic painting, dislike it.,-10,380,20","Spencer","Boring, no flow except the pink feathery band,-42,120,20","Jacob","Don't really know the point of this one.,-11,340,20","Lucas","Very non-dynamic painting, dislike it.,-10,380,20","2"
"203299","","survey-text","160","2068136","0.0-159.0-0.0","A11Q8U6QTT8KGF","","","","{""Q0"":""looks like a tree""}","","","","","","","","","","","","","","","","","","","","","","",""
"2724.4000000953674","","image-slider-response","161","2070861","0.0-160.0","A11Q8U6QTT8KGF","","","","","-5","","","","","","","","","","","","","","","","","","","","","",""
"null","","image-button-response","162","2075864","0.0-161.0","A11Q8U6QTT8KGF","img_art/14.jpg","null","","","","","","","","","","","","","","","","","","","","","","","","",""
"1139","","image-button-response","163","2077004","0.0-162.0","A11Q8U6QTT8KGF","img_art/14.jpg","2","","","","","","","","","","","","","","","","","","","","","","","","",""
"5026","","image-button-response","164","2082032","0.0-163.0-0.0","A11Q8U6QTT8KGF","img_art/14.jpg","4","","","","","","","","","","","","","","","","","","","","","","","","",""
"2058","","image-button-response","165","2084092","0.0-164.0-0.0","A11Q8U6QTT8KGF","img_art/14.jpg","1","","","","","","","","","","","","","","","","","","","","","","","","",""
"null","","html-keyboard-response","166","2084593","0.0-165.0","A11Q8U6QTT8KGF","<p style=""font-size: 48px;"">+</p>","","","","","null","allTrialResponses","500","1","17","img_art/14.jpg","-5","looks like a tree","Spencer,Jorge,Carlos,Jacob,Charles,Lucas","I like the simplicity along with the colors,27,120,20","unsure and dull feeling,-1,180,20","The lighting feels like spring.,20,80,20","I kind of like it!,6,340,20","In some ways it looks natural, but I'm just not feeling it,0,100,20","In my opinion it's spectacular.,35,380,20","Carlos","The lighting feels like spring.,20,80,20","Charles","In some ways it looks natural, but I'm just not feeling it,0,100,20","Jorge","unsure and dull feeling,-1,180,20","2"
"17720","","survey-text","167","2102317","0.0-166.0-0.0","A11Q8U6QTT8KGF","","","","{""Q0"":""I like the block aspect of the shapes.""}","","","","","","","","","","","","","","","","","","","","","","",""
"1519","","image-slider-response","168","2103838","0.0-167.0","A11Q8U6QTT8KGF","","","","","24","","","","","","","","","","","","","","","","","","","","","",""
"null","","image-button-response","169","2108839","0.0-168.0","A11Q8U6QTT8KGF","img_art/8.jpg","null","","","","","","","","","","","","","","","","","","","","","","","","",""
"841","","image-button-response","170","2109682","0.0-169.0","A11Q8U6QTT8KGF","img_art/8.jpg","2","","","","","","","","","","","","","","","","","","","","","","","","",""
"556","","image-button-response","171","2110238","0.0-170.0-0.0","A11Q8U6QTT8KGF","img_art/8.jpg","1","","","","","","","","","","","","","","","","","","","","","","","","",""
"976","","image-button-response","172","2111215","0.0-171.0-0.0","A11Q8U6QTT8KGF","img_art/8.jpg","3","","","","","","","","","","","","","","","","","","","","","","","","",""
"null","","html-keyboard-response","173","2112718","0.0-172.0","A11Q8U6QTT8KGF","<p style=""font-size: 48px;"">+</p>","","","","","null","allTrialResponses","1500","1","18","img_art/8.jpg","24","I like the block aspect of the shapes.","Joseph,Jorge,Carlos,Connor,Charles,Shawn","The faces are kinda freaky.,-17,220,20","New power in the community,22,180,20","Clean and stark. The colors are pleasant.,15,80,20","Lots of depth, faces, city, arch,3,240,20","Feels very 90's but I like the doorway,15,100,20","Cheesy. A little too knock you over the dead with its message without making it emotional,-31,100,20","Carlos","Clean and stark. The colors are pleasant.,15,80,20","Jorge","New power in the community,22,180,20","Connor","Lots of depth, faces, city, arch,3,240,20","2"
"13148","","survey-text","174","2125882","0.0-173.0-0.0","A11Q8U6QTT8KGF","","","","{""Q0"":""Blue with some black dots around, meh""}","","","","","","","","","","","","","","","","","","","","","","",""
"1722.5","","image-slider-response","175","2127605","0.0-174.0","A11Q8U6QTT8KGF","","","","","-28","","","","","","","","","","","","","","","","","","","","","",""
"2512","","image-button-response","176","2132608","0.0-175.0","A11Q8U6QTT8KGF","img_art/15.jpg","0","","","","","","","","","","","","","","","","","","","","","","","","",""
"856","","image-button-response","177","2133466","0.0-176.0","A11Q8U6QTT8KGF","img_art/15.jpg","0","","","","","","","","","","","","","","","","","","","","","","","","",""
"2356","","image-button-response","178","2135823","0.0-177.0-0.0","A11Q8U6QTT8KGF","img_art/15.jpg","4","","","","","","","","","","","","","","","","","","","","","","","","",""
"4204","","image-button-response","179","2140029","0.0-178.0-0.0","A11Q8U6QTT8KGF","img_art/15.jpg","5","","","","","","","","","","","","","","","","","","","","","","","","",""
"null","","html-keyboard-response","180","2141531","0.0-179.0","A11Q8U6QTT8KGF","<p style=""font-size: 48px;"">+</p>","","","","","null","allTrialResponses","1500","1","19","img_art/15.jpg","-28","Blue with some black dots around, meh","Dustin,Jorge,Carlos,Connor,Tanner,Garrett","Too much black. I see weeds or dead/dying flowers.,-40,20,20","interested in this transformation,20,180,20","It is visually appealing, stark and simple but natural.,41,80,20","Neat to explore meaning, blue is interesting,11,240,20","darkness, hatred, fear,-29,180,20","Not enough colors to make it interesting and doesn't look like anything is happening.,-20,180,20","Dustin","Too much black. I see weeds or dead/dying flowers.,-40,20,20","Tanner","darkness, hatred, fear,-29,180,20","Garrett","Not enough colors to make it interesting and doesn't look like anything is happening.,-20,180,20","2"
"10700","","survey-text","181","2152235","0.0-180.0-0.0","A11Q8U6QTT8KGF","","","","{""Q0"":""Kind of disturbing.""}","","","","","","","","","","","","","","","","","","","","","","",""
"2450.7999999523163","","image-slider-response","182","2154687","0.0-181.0","A11Q8U6QTT8KGF","","","","","-50","","","","","","","","","","","","","","","","","","","","","",""
"4180","","image-button-response","183","2159690","0.0-182.0","A11Q8U6QTT8KGF","img_art/16.jpg","0","","","","","","","","","","","","","","","","","","","","","","","","",""
"580","","image-button-response","184","2160271","0.0-183.0","A11Q8U6QTT8KGF","img_art/16.jpg","0","","","","","","","","","","","","","","","","","","","","","","","","",""
"2387","","image-button-response","185","2162660","0.0-184.0-0.0","A11Q8U6QTT8KGF","img_art/16.jpg","5","","","","","","","","","","","","","","","","","","","","","","","","",""
"2106","","image-button-response","186","2164767","0.0-185.0-0.0","A11Q8U6QTT8KGF","img_art/16.jpg","3","","","","","","","","","","","","","","","","","","","","","","","","",""
"null","","html-keyboard-response","187","2165268","0.0-186.0","A11Q8U6QTT8KGF","<p style=""font-size: 48px;"">+</p>","","","","","null","allTrialResponses","500","1","20","img_art/16.jpg","-50","Kind of disturbing.","Dustin,Justin,Paul,Antonio,Tanner,Garrett","Upsetting and disturbing. Random bear and indistinguishable objects. None of it goes together. Too chaotic and random,-50,20,20","Kind of dull, colors and drawings are not really interesting.,0,280,20","Don't know if there's a meaning but I like how seemingly random objects were stuck together and called art,20,300,20","Did not like at all. I think something sinister going on in the background and the bear a diversion,-50,220,20","sad. desth of childhood,-5,180,20","I think this picture is weird and the colors are very boring.,-50,180,20","Dustin","Upsetting and disturbing. Random bear and indistinguishable objects. None of it goes together. Too chaotic and random,-50,20,20","Garrett","I think this picture is weird and the colors are very boring.,-50,180,20","Antonio","Did not like at all. I think something sinister going on in the background and the bear a diversion,-50,220,20","2"
"2556","","survey-text","188","2167829","0.0-187.0-0.0","A11Q8U6QTT8KGF","","","","{""Q0"":""we""}","","","","","","","","","","","","","","","","","","","","","","",""
"12863","","survey-text","189","2180693","0.0-188.0-0.0","A11Q8U6QTT8KGF","","","","{""Q0"":""Things buried in sand""}","","","","","","","","","","","","","","","","","","","","","","",""
"3125.0999999046326","","image-slider-response","190","2183819","0.0-189.0","A11Q8U6QTT8KGF","","","","","-10","","","","","","","","","","","","","","","","","","","","","",""
"2481","","image-button-response","191","2188822","0.0-190.0","A11Q8U6QTT8KGF","img_art/7.jpg","1","","","","","","","","","","","","","","","","","","","","","","","","",""
"800","","image-button-response","192","2189624","0.0-191.0","A11Q8U6QTT8KGF","img_art/7.jpg","1","","","","","","","","","","","","","","","","","","","","","","","","",""
"4847","","image-button-response","193","2194471","0.0-192.0-0.0","A11Q8U6QTT8KGF","img_art/7.jpg","3","","","","","","","","","","","","","","","","","","","","","","","","",""
"2638","","image-button-response","194","2197111","0.0-193.0-0.0","A11Q8U6QTT8KGF","img_art/7.jpg","0","","","","","","","","","","","","","","","","","","","","","","","","",""
"null","","html-keyboard-response","195","2197613","0.0-194.0","A11Q8U6QTT8KGF","<p style=""font-size: 48px;"">+</p>","","","","","null","allTrialResponses","500","1","21","img_art/7.jpg","-10","Things buried in sand","Dustin,Jason,Jesus,Antonio,Noah,Garrett","I see dryness, which is sad. Dirt, sand, the dessert. Barren dry lifeless,-30,20,20","Boring  and lacks color,-11,20,20","Is simple in color and texture,11,100,20","Looks like dirt on the ground. Makes me feel unclean,-37,220,20","elicits no real response,0,260,20","I don't like the repetitiveness of the colors, and I think there should be more colors.,-50,180,20","Jason","Boring  and lacks color,-11,20,20","Antonio","Looks like dirt on the ground. Makes me feel unclean,-37,220,20","Dustin","I see dryness, which is sad. Dirt, sand, the dessert. Barren dry lifeless,-30,20,20","2"
"15566","","survey-text","196","2213185","0.0-195.0-0.0","A11Q8U6QTT8KGF","","","","{""Q0"":""I splattering of color on a dull background""}","","","","","","","","","","","","","","","","","","","","","","",""
"2483.100000143051","","image-slider-response","197","2215669","0.0-196.0","A11Q8U6QTT8KGF","","","","","-5","","","","","","","","","","","","","","","","","","","","","",""
"null","","image-button-response","198","2220671","0.0-197.0","A11Q8U6QTT8KGF","img_art/13.jpg","null","","","","","","","","","","","","","","","","","","","","","","","","",""
"1717","","image-button-response","199","2222389","0.0-198.0","A11Q8U6QTT8KGF","img_art/13.jpg","1","","","","","","","","","","","","","","","","","","","","","","","","",""
"1457","","image-button-response","200","2223847","0.0-199.0-0.0","A11Q8U6QTT8KGF","img_art/13.jpg","5","","","","","","","","","","","","","","","","","","","","","","","","",""
"805","","image-button-response","201","2224653","0.0-200.0-0.0","A11Q8U6QTT8KGF","img_art/13.jpg","0","","","","","","","","","","","","","","","","","","","","","","","","",""
"null","","html-keyboard-response","202","2225155","0.0-201.0","A11Q8U6QTT8KGF","<p style=""font-size: 48px;"">+</p>","","","","","null","allTrialResponses","500","1","22","img_art/13.jpg","-5","I splattering of color on a dull background","Dustin,Jason,Cody,Antonio,Mitchell,Adam","Cool and calming colors. I like splatter art.,10,20,20","Like the color choices,7,20,20","It's pretty ...........,41,180,20","Pretty but didnt cause a reaction,33,220,20","Magnified rain around trees. Beautiful happy colors. The little person on the right feels nature is huge.,45,180,20","Generic mix of colors. Cool and messy.,10,40,20","Jason","Like the color choices,7,20,20","Adam","Generic mix of colors. Cool and messy.,10,40,20","Dustin","Cool and calming colors. I like splatter art.,10,20,20","2"
"28788","","survey-text","203","2253947","0.0-202.0-0.0","A11Q8U6QTT8KGF","","","","{""Q0"":""Brush strokes look like a waterfall but the red ruins it""}","","","","","","","","","","","","","","","","","","","","","","",""
"2779","","image-slider-response","204","2256727","0.0-203.0","A11Q8U6QTT8KGF","","","","","-6","","","","","","","","","","","","","","","","","","","","","",""
"3211","","image-button-response","205","2261730","0.0-204.0","A11Q8U6QTT8KGF","img_art/30.jpg","1","","","","","","","","","","","","","","","","","","","","","","","","",""
"2870","","image-button-response","206","2264601","0.0-205.0","A11Q8U6QTT8KGF","img_art/30.jpg","1","","","","","","","","","","","","","","","","","","","","","","","","",""
"517","","image-button-response","207","2265120","0.0-206.0-0.0","A11Q8U6QTT8KGF","img_art/30.jpg","2","","","","","","","","","","","","","","","","","","","","","","","","",""
"2262","","image-button-response","208","2267383","0.0-207.0-0.0","A11Q8U6QTT8KGF","img_art/30.jpg","4","","","","","","","","","","","","","","","","","","","","","","","","",""
"null","","html-keyboard-response","209","2267885","0.0-208.0","A11Q8U6QTT8KGF","<p style=""font-size: 48px;"">+</p>","","","","","null","allTrialResponses","500","1","23","img_art/30.jpg","-6","Brush strokes look like a waterfall but the red ruins it","Dustin,Jason,Logan,Dakota,Victor,Adam","Soothing color palette, but doesn't look like anything. All I see are random brush strokes.,1,20,20","Do not like the streaks,-14,20,20","literally stupid I made this with as seen on tv products when I was 7,-42,360,20","sloppy, unintentional,-20,280,20","I just don't see the point of this piece,-11,340,20","Dislike the contrast here.,-5,40,20","Jason","Do not like the streaks,-14,20,20","Logan","literally stupid I made this with as seen on tv products when I was 7,-42,360,20","Victor","I just don't see the point of this piece,-11,340,20","2"
"19364","","survey-text","210","2287255","0.0-209.0-0.0","A11Q8U6QTT8KGF","","","","{""Q0"":""I lot of dull colors to depict a city""}","","","","","","","","","","","","","","","","","","","","","","",""
"1940.8999998569489","","image-slider-response","211","2289197","0.0-210.0","A11Q8U6QTT8KGF","","","","","-23","","","","","","","","","","","","","","","","","","","","","",""
"4346","","image-button-response","212","2294199","0.0-211.0","A11Q8U6QTT8KGF","img_art/19.jpg","1","","","","","","","","","","","","","","","","","","","","","","","","",""
"629","","image-button-response","213","2294830","0.0-212.0","A11Q8U6QTT8KGF","img_art/19.jpg","1","","","","","","","","","","","","","","","","","","","","","","","","",""
"1613","","image-button-response","214","2296443","0.0-213.0-0.0","A11Q8U6QTT8KGF","img_art/19.jpg","4","","","","","","","","","","","","","","","","","","","","","","","","",""
"3006","","image-button-response","215","2299451","0.0-214.0-0.0","A11Q8U6QTT8KGF","img_art/19.jpg","3","","","","","","","","","","","","","","","","","","","","","","","","",""
"null","","html-keyboard-response","216","2300452","0.0-215.0","A11Q8U6QTT8KGF","<p style=""font-size: 48px;"">+</p>","","","","","null","allTrialResponses","1000","1","24","img_art/19.jpg","-23","I lot of dull colors to depict a city","Vincent,Jason,Logan,Stephen,Victor,Steven","I really like the colors and feel of this one and alot of life,41,360,20","The picture contains a lot of brown and weird drips,-4,20,20","this flow I just really like how everything blends but also doesn't,45,360,20","Solid use of colors but wished it looked more realistic.,12,140,20","too much going on, can't tell what it is,-14,340,20","I like it, I see someone walking his dog in the early morning time,23,160,20","Jason","The picture contains a lot of brown and weird drips,-4,20,20","Victor","too much going on, can't tell what it is,-14,340,20","Stephen","Solid use of colors but wished it looked more realistic.,12,140,20","2"
"16120","","survey-text","217","2316577","0.0-216.0-0.0","A11Q8U6QTT8KGF","","","","{""Q0"":""Use of white is nice to contrast""}","","","","","","","","","","","","","","","","","","","","","","",""
"1949.0999999046326","","image-slider-response","218","2318528","0.0-217.0","A11Q8U6QTT8KGF","","","","","11","","","","","","","","","","","","","","","","","","","","","",""
"2089","","image-button-response","219","2323530","0.0-218.0","A11Q8U6QTT8KGF","img_art/27.jpg","3","","","","","","","","","","","","","","","","","","","","","","","","",""
"5062","","image-button-response","220","2328594","0.0-219.0","A11Q8U6QTT8KGF","img_art/27.jpg","1","","","","","","","","","","","","","","","","","","","","","","","","",""
"2230","","image-button-response","221","2330826","0.0-220.0-0.0","A11Q8U6QTT8KGF","img_art/27.jpg","2","","","","","","","","","","","","","","","","","","","","","","","","",""
"1573","","image-button-response","222","2332400","0.0-221.0-0.0","A11Q8U6QTT8KGF","img_art/27.jpg","3","","","","","","","","","","","","","","","","","","","","","","","","",""
"null","","html-keyboard-response","223","2332902","0.0-222.0","A11Q8U6QTT8KGF","<p style=""font-size: 48px;"">+</p>","","","","","null","allTrialResponses","500","1","25","img_art/27.jpg","11","Use of white is nice to contrast","Alejandro,Jason,Elijah,Stephen,Victor,Edward","Muddied and directionless. Like someone dragged a brush across the paper for the sake of doing something.,-50,80,20","The variation of orange is nice,9,20,20","Not too impressed with the work,6,80,20","This one does nothing for me.,2,140,20","doesn't look like any effort was put into this piece.,-19,340,20","It looks like a kid colored a picture and an adult added to it,19,60,20","Jason","The variation of orange is nice,9,20,20","Elijah","Not too impressed with the work,6,80,20","Stephen","This one does nothing for me.,2,140,20","2"
"3778","","survey-text","224","2336685","0.0-223.0-0.0","A11Q8U6QTT8KGF","","","","{""Q0"":""table""}","","","","","","","","","","","","","","","","","","","","","","",""
"213072","","survey-text","225","2549759","0.0-224.0-0.0","A11Q8U6QTT8KGF","","","","{""Q0"":""lady sleeping, little muddled.""}","","","","","","","","","","","","","","","","","","","","","","",""
"2520.9000000953674","","image-slider-response","226","2552281","0.0-225.0","A11Q8U6QTT8KGF","","","","","-10","","","","","","","","","","","","","","","","","","","","","",""
"null","","image-button-response","227","2557283","0.0-226.0","A11Q8U6QTT8KGF","img_art/9.jpg","null","","","","","","","","","","","","","","","","","","","","","","","","",""
"2610","","image-button-response","228","2559895","0.0-227.0","A11Q8U6QTT8KGF","img_art/9.jpg","2","","","","","","","","","","","","","","","","","","","","","","","","",""
"1339","","image-button-response","229","2561235","0.0-228.0-0.0","A11Q8U6QTT8KGF","img_art/9.jpg","3","","","","","","","","","","","","","","","","","","","","","","","","",""
"437","","image-button-response","230","2561674","0.0-229.0-0.0","A11Q8U6QTT8KGF","img_art/9.jpg","4","","","","","","","","","","","","","","","","","","","","","","","","",""
"null","","html-keyboard-response","231","2563176","0.0-230.0","A11Q8U6QTT8KGF","<p style=""font-size: 48px;"">+</p>","","","","","null","allTrialResponses","1500","1","26","img_art/9.jpg","-10","lady sleeping, little muddled.","Ian,Jason,Elijah,Stephen,Nicholas,Ethan","It looks like someone gave a kid a coloring book page but the colors are soothing and look put together and elegant,27,260,20","Focal point is interesting,2,20,20","It's a mix of paint splash and scribbling,-33,80,20","Too much going on, don't know what the focus is,-11,140,20","Some nice colors but i do not like it,-18,240,20","How neat is this piece?  I love the angry expressive lines. Emotion is captured in it.,26,120,20","Elijah","It's a mix of paint splash and scribbling,-33,80,20","Stephen","Too much going on, don't know what the focus is,-11,140,20","Nicholas","Some nice colors but i do not like it,-18,240,20","2"
"24757","","survey-text","232","2587944","0.0-231.0-0.0","A11Q8U6QTT8KGF","","","","{""Q0"":""broken guitar?""}","","","","","","","","","","","","","","","","","","","","","","",""
"1833.1999998092651","","image-slider-response","233","2589779","0.0-232.0","A11Q8U6QTT8KGF","","","","","-34","","","","","","","","","","","","","","","","","","","","","",""
"null","","image-button-response","234","2594780","0.0-233.0","A11Q8U6QTT8KGF","img_art/10.jpg","null","","","","","","","","","","","","","","","","","","","","","","","","",""
"1395","","image-button-response","235","2596176","0.0-234.0","A11Q8U6QTT8KGF","img_art/10.jpg","2","","","","","","","","","","","","","","","","","","","","","","","","",""
"2459","","image-button-response","236","2598637","0.0-235.0-0.0","A11Q8U6QTT8KGF","img_art/10.jpg","5","","","","","","","","","","","","","","","","","","","","","","","","",""
"844","","image-button-response","237","2599482","0.0-236.0-0.0","A11Q8U6QTT8KGF","img_art/10.jpg","1","","","","","","","","","","","","","","","","","","","","","","","","",""
"null","","html-keyboard-response","238","2600987","0.0-237.0","A11Q8U6QTT8KGF","<p style=""font-size: 48px;"">+</p>","","","","","null","allTrialResponses","1500","1","27","img_art/10.jpg","-34","broken guitar?","William,Brandon,Elijah,Stephen,Nicholas,Corey","absolutely beautiful piece of art,49,380,20","Too abstract and it doesn't really remind me of anything,-40,320,20","Makes me feel amazed,23,80,20","Very nice painting, would like it more with different color choice.,6,140,20","I like it but do not love it. It is sort of depressing,13,240,20","I think this was going to be a guitar but then the artist got mad and gave up,-4,260,20","Elijah","Makes me feel amazed,23,80,20","Corey","I think this was going to be a guitar but then the artist got mad and gave up,-4,260,20","Brandon","Too abstract and it doesn't really remind me of anything,-40,320,20","2"
"17754","","survey-text","239","2618748","0.0-238.0-0.0","A11Q8U6QTT8KGF","","","","{""Q0"":""terrible, I don't even know.""}","","","","","","","","","","","","","","","","","","","","","","",""
"44308.799999952316","","image-slider-response","240","2663059","0.0-239.0","A11Q8U6QTT8KGF","","","","","-50","","","","","","","","","","","","","","","","","","","","","",""
"null","","image-button-response","241","2668060","0.0-240.0","A11Q8U6QTT8KGF","img_art/4.jpg","null","","","","","","","","","","","","","","","","","","","","","","","","",""
"624","","image-button-response","242","2668685","0.0-241.0","A11Q8U6QTT8KGF","img_art/4.jpg","1","","","","","","","","","","","","","","","","","","","","","","","","",""
"1228","","image-button-response","243","2669915","0.0-242.0-0.0","A11Q8U6QTT8KGF","img_art/4.jpg","4","","","","","","","","","","","","","","","","","","","","","","","","",""
"866","","image-button-response","244","2670783","0.0-243.0-0.0","A11Q8U6QTT8KGF","img_art/4.jpg","3","","","","","","","","","","","","","","","","","","","","","","","","",""
"null","","html-keyboard-response","245","2671284","0.0-244.0","A11Q8U6QTT8KGF","<p style=""font-size: 48px;"">+</p>","","","","","null","allTrialResponses","500","1","28","img_art/4.jpg","-50","terrible, I don't even know.","Trevor,Brandon,Elijah,Jonathan,Isaiah,Corey","not enough color and too yellow for me. Not my favorite colors,-10,280,20","Really don't like this. Kindergarten art, sorry.,-50,320,20","Looks like a hand, not very impressed,-22,80,20","Mcdonald's french fries :(,-40,140,20","The sickly looking colors make me feel very uncomfortable.,-35,300,20","doesn't do anything for me,-4,260,20","Brandon","Really don't like this. Kindergarten art, sorry.,-50,320,20","Isaiah","The sickly looking colors make me feel very uncomfortable.,-35,300,20","Jonathan","Mcdonald's french fries :(,-40,140,20","2"
"11193","","survey-text","246","2682481","0.0-245.0-0.0","A11Q8U6QTT8KGF","","","","{""Q0"":""A discussion in the dark""}","","","","","","","","","","","","","","","","","","","","","","",""
"1801.1000001430511","","image-slider-response","247","2684283","0.0-246.0","A11Q8U6QTT8KGF","","","","","-17","","","","","","","","","","","","","","","","","","","","","",""
"null","","image-button-response","248","2689285","0.0-247.0","A11Q8U6QTT8KGF","img_art/28.jpg","null","","","","","","","","","","","","","","","","","","","","","","","","",""
"912","","image-button-response","249","2690199","0.0-248.0","A11Q8U6QTT8KGF","img_art/28.jpg","0","","","","","","","","","","","","","","","","","","","","","","","","",""
"813","","image-button-response","250","2691013","0.0-249.0-0.0","A11Q8U6QTT8KGF","img_art/28.jpg","2","","","","","","","","","","","","","","","","","","","","","","","","",""
"1567","","image-button-response","251","2692581","0.0-250.0-0.0","A11Q8U6QTT8KGF","img_art/28.jpg","5","","","","","","","","","","","","","","","","","","","","","","","","",""
"null","","html-keyboard-response","252","2693583","0.0-251.0","A11Q8U6QTT8KGF","<p style=""font-size: 48px;"">+</p>","","","","","null","allTrialResponses","1000","1","29","img_art/28.jpg","-17","A discussion in the dark","Brian,Brandon,Colton,Jonathan,Isaiah,Cole","the people kind of scare me in this one,-15,380,20","Interesting. I like the ""old woman"" on the left. Lots of different entities to look at,21,320,20","not a fan of the colors or strokes used,-27,220,20","The lack of color variance leaves it looking ugly even if I like the brush strokes,-10,140,20","It makes me feel happy, and a little anxious.,50,300,20","Is this anything?,-20,200,20","Brian","the people kind of scare me in this one,-15,380,20","Colton","not a fan of the colors or strokes used,-27,220,20","Cole","Is this anything?,-20,200,20","2"
"15243","","survey-text","253","2708833","0.0-252.0-0.0","A11Q8U6QTT8KGF","","","","{""Q0"":""looks like a kindergarten painted it""}","","","","","","","","","","","","","","","","","","","","","","",""
"1988.5","","image-slider-response","254","2710822","0.0-253.0","A11Q8U6QTT8KGF","","","","","-21","","","","","","","","","","","","","","","","","","","","","",""
"null","","image-button-response","255","2715824","0.0-254.0","A11Q8U6QTT8KGF","img_art/2.jpg","null","","","","","","","","","","","","","","","","","","","","","","","","",""
"5019","","image-button-response","256","2720844","0.0-255.0","A11Q8U6QTT8KGF","img_art/2.jpg","2","","","","","","","","","","","","","","","","","","","","","","","","",""
"1627","","image-button-response","257","2722473","0.0-256.0-0.0","A11Q8U6QTT8KGF","img_art/2.jpg","4","","","","","","","","","","","","","","","","","","","","","","","","",""
"562","","image-button-response","258","2723037","0.0-257.0-0.0","A11Q8U6QTT8KGF","img_art/2.jpg","5","","","","","","","","","","","","","","","","","","","","","","","","",""
"null","","html-keyboard-response","259","2723538","0.0-258.0","A11Q8U6QTT8KGF","<p style=""font-size: 48px;"">+</p>","","","","","null","allTrialResponses","500","1","30","img_art/2.jpg","-21","looks like a kindergarten painted it","Brian,Derek,Colton,Jack,Caleb,Cole","I like how it looks like a cute smiling face,43,380,20","Not my favorite but I can see this being hung in a art museum,25,360,20","too blocky and don't like color combination,-32,220,20","the colors are a bit odd, and the squiggly line at the top is distracting,0,320,20","Very gross colors. What were they thinking?,-47,40,20","Childish smiley face,-19,200,20","Colton","too blocky and don't like color combination,-32,220,20","Caleb","Very gross colors. What were they thinking?,-47,40,20","Cole","Childish smiley face,-19,200,20","2"
"2605","","image-button-response_instructions","260","2726147","0.0-259.0","A11Q8U6QTT8KGF","","0","instructions","","","","","","","","","","","","","","","","","","","","","","","",""
"976","","image-button-response","261","2727127","0.0-260.0","A11Q8U6QTT8KGF","","0","","","","","","","","","","","","","","","","","","","","","","","","",""
