"rt","url","trial_type","trial_index","time_elapsed","internal_node_id","participant_id","stimulus","button_pressed","Name","responses","response","key_press","variableName","fixationTime","condition","trial","photo","subjectRating","subjectResponse","agentsNames","agent_1_Response","agent_2_Response","agent_3_Response","agent_4_Response","agent_5_Response","agent_6_Response","kept_1_name","kept_1_response","kept_2_name","kept_2_response","kept_3_name","kept_3_response","errorCounter"
"13123","external_page_harvard.html","external-html","0","13182","0.0-0.0","A12HZGOZQD5YK7","","","","","","","","","","","","","","","","","","","","","","","","","","",""
"2372","","image-button-response","1","15556","0.0-1.0","A12HZGOZQD5YK7","","1","","","","","","","","","","","","","","","","","","","","","","","","",""
"2092","","image-button-response","2","17652","0.0-2.0-0.0","A12HZGOZQD5YK7","","1","phone","","","","","","","","","","","","","","","","","","","","","","","",""
"5452","","survey-text","3","23105","0.0-3.0-0.0","A12HZGOZQD5YK7","","","","{""Q0"":""A12HZGOZQD5YK7""}","","","","","","","","","","","","","","","","","","","","","","",""
"8745","","image-button-response_instructions","4","31852","0.0-4.0","A12HZGOZQD5YK7","","0","instructions","","","","","","","","","","","","","","","","","","","","","","","",""
"15031","","image-button-response_instructions","5","46883","0.0-5.0","A12HZGOZQD5YK7","img_art/ins/popularity/ins1.png","0","instructions","","","","","","","","","","","","","","","","","","","","","","","",""
"8667","","image-button-response_instructions","6","55552","0.0-6.0","A12HZGOZQD5YK7","img_art/ins/popularity/ins2.png","0","instructions","","","","","","","","","","","","","","","","","","","","","","","",""
"5097","","image-button-response_instructions","7","60649","0.0-7.0","A12HZGOZQD5YK7","img_art/ins/popularity/ins2Extreme.png","0","instructions","","","","","","","","","","","","","","","","","","","","","","","",""
"29529","","image-button-response_instructions","8","90179","0.0-8.0","A12HZGOZQD5YK7","img_art/ins/popularity/ins3KEEPpop.PNG","0","instructions","","","","","","","","","","","","","","","","","","","","","","","",""
"6891","","image-button-response_instructions","9","97071","0.0-9.0","A12HZGOZQD5YK7","img_art/ins/popularity/ins3ANamepop.PNG","0","instructions","","","","","","","","","","","","","","","","","","","","","","","",""
"4065","","image-button-response_instructions","10","101137","0.0-10.0","A12HZGOZQD5YK7","img_art/ins/popularity/ins3ARatingpop.png","0","instructions","","","","","","","","","","","","","","","","","","","","","","","",""
"4440","","image-button-response_instructions","11","105578","0.0-11.0","A12HZGOZQD5YK7","img_art/ins/popularity/ins3ATextpop.png","0","instructions","","","","","","","","","","","","","","","","","","","","","","","",""
"11041","","image-button-response_instructions","12","116620","0.0-12.0","A12HZGOZQD5YK7","img_art/ins/popularity/ins3ALikespop.png","0","instructions","","","","","","","","","","","","","","","","","","","","","","","",""
"16620","","image-button-response_instructions","13","133241","0.0-13.0","A12HZGOZQD5YK7","img_art/ins/popularity/ins3KEEPpop.PNG","0","instructions","","","","","","","","","","","","","","","","","","","","","","","",""
"25567","","image-button-response_instructions","14","158808","0.0-14.0","A12HZGOZQD5YK7","img_art/ins/popularity/ins3_5RED.png","0","instructions","","","","","","","","","","","","","","","","","","","","","","","",""
"6132","","image-button-response_instructions","15","164941","0.0-15.0","A12HZGOZQD5YK7","img_art/ins/popularity/ins3KEEPpop.PNG","0","instructions","","","","","","","","","","","","","","","","","","","","","","","",""
"24096","","image-button-response_instructions","16","189038","0.0-16.0","A12HZGOZQD5YK7","img_art/ins/popularity/ins4KEEPpop.PNG","0","instructions","","","","","","","","","","","","","","","","","","","","","","","",""
"5779","","image-button-response_instructions","17","194818","0.0-17.0","A12HZGOZQD5YK7","img_art/ins/popularity/ins5KEEPpop.PNG","0","instructions","","","","","","","","","","","","","","","","","","","","","","","",""
"2311","","image-button-response_instructions","18","197130","0.0-18.0","A12HZGOZQD5YK7","","0","instructions","","","","","","","","","","","","","","","","","","","","","","","",""
"9399","","survey-text","19","206550","0.0-19.0-0.0","A12HZGOZQD5YK7","","","","{""Q0"":""but""}","","","","","","","","","","","","","","","","","","","","","","",""
"23353","","survey-text","20","229905","0.0-20.0-0.0","A12HZGOZQD5YK7","","","","{""Q0"":""it's very simple but I don't like the brown in it""}","","","","","","","","","","","","","","","","","","","","","","",""
"9550.5","","image-slider-response","21","239457","0.0-21.0","A12HZGOZQD5YK7","","","","","-11","","","","","","","","","","","","","","","","","","","","","",""
"null","","image-button-response","22","244461","0.0-22.0","A12HZGOZQD5YK7","img_art/ins/1.jpg","null","","","","","","","","","","","","","","","","","","","","","","","","",""
"8676","","image-button-response","23","253138","0.0-23.0","A12HZGOZQD5YK7","img_art/ins/1.jpg","2","","","","","","","","","","","","","","","","","","","","","","","","",""
"728","","image-button-response","24","253869","0.0-24.0-0.0","A12HZGOZQD5YK7","img_art/ins/1.jpg","1","","","","","","","","","","","","","","","","","","","","","","","","",""
"8150","","image-button-response","25","262022","0.0-25.0-0.0","A12HZGOZQD5YK7","img_art/ins/1.jpg","3","","","","","","","","","","","","","","","","","","","","","","","","",""
"null","","html-keyboard-response","26","263023","0.0-26.0","A12HZGOZQD5YK7","<p style=""font-size: 48px;"">+</p>","","","","","null","allTrialResponses","1000","1","-2","img_art/ins/1.jpg","-11","it's very simple but I don't like the brown in it","Allison,Ashley,Beth,Dora,Erika,Jen","looks like a lot of things going on in the mist,20,20,20","I just don't get why these type of art would be popular,-32,40,20","This color reminds me of poo,-46,60,20","looks like what my niece in 3rd grade did this afternoon,-50,80,20","I like the sophisticated brushwork,40,100,20","It reminds me of a candy land dream I had,36,120,20","Beth","This color reminds me of poo,-46,60,20","Ashley","I just don't get why these type of art would be popular,-32,40,20","Dora","looks like what my niece in 3rd grade did this afternoon,-50,80,20","0"
"26099","","survey-text","27","289124","0.0-27.0-0.0","A12HZGOZQD5YK7","","","","{""Q0"":""I like how bold it looks and has great texture""}","","","","","","","","","","","","","","","","","","","","","","",""
"6802.599999904633","","image-slider-response","28","295928","0.0-28.0","A12HZGOZQD5YK7","","","","","39","","","","","","","","","","","","","","","","","","","","","",""
"null","","image-button-response","29","300930","0.0-29.0","A12HZGOZQD5YK7","img_art/ins/2.jpg","null","","","","","","","","","","","","","","","","","","","","","","","","",""
"4454","","image-button-response","30","305387","0.0-30.0","A12HZGOZQD5YK7","img_art/ins/2.jpg","4","","","","","","","","","","","","","","","","","","","","","","","","",""
"15830","","image-button-response","31","321219","0.0-31.0-0.0","A12HZGOZQD5YK7","img_art/ins/2.jpg","3","","","","","","","","","","","","","","","","","","","","","","","","",""
"2335","","image-button-response","32","323556","0.0-32.0-0.0","A12HZGOZQD5YK7","img_art/ins/2.jpg","2","","","","","","","","","","","","","","","","","","","","","","","","",""
"null","","html-keyboard-response","33","324559","0.0-33.0","A12HZGOZQD5YK7","<p style=""font-size: 48px;"">+</p>","","","","","null","allTrialResponses","1000","1","-1","img_art/ins/2.jpg","39","I like how bold it looks and has great texture","Jenna,Ashley,Beth,Dora,Kara,Katie","One of my pet peevs,-48,140,20","Idk, it is just annoying,-32,40,20","meaningless painting,-45,60,20","looks too angry,-50,80,20","I like the blocks of color arrangements,30,160,20","too much color!,-28,180,20","Kara","I like the blocks of color arrangements,30,160,20","Dora","looks too angry,-50,80,20","Beth","meaningless painting,-45,60,20","0"
"19951","","survey-text","34","344516","0.0-34.0-0.0","A12HZGOZQD5YK7","","","","{""Q0"":""I like the blue colors and randomness of the brush strokes""}","","","","","","","","","","","","","","","","","","","","","","",""
"4725.299999713898","","image-slider-response","35","349242","0.0-35.0","A12HZGOZQD5YK7","","","","","43","","","","","","","","","","","","","","","","","","","","","",""
"null","","image-button-response","36","354245","0.0-36.0","A12HZGOZQD5YK7","img_art/ins/3.jpg","null","","","","","","","","","","","","","","","","","","","","","","","","",""
"5379","","image-button-response","37","359625","0.0-37.0","A12HZGOZQD5YK7","img_art/ins/3.jpg","4","","","","","","","","","","","","","","","","","","","","","","","","",""
"1641","","image-button-response","38","361269","0.0-38.0-0.0","A12HZGOZQD5YK7","img_art/ins/3.jpg","0","","","","","","","","","","","","","","","","","","","","","","","","",""
"2536","","image-button-response","39","363806","0.0-39.0-0.0","A12HZGOZQD5YK7","img_art/ins/3.jpg","0","","","","","","","","","","","","","","","","","","","","","","","","",""
"1031","","image-button-response","40","369850","0.0-39.1-0.1","A12HZGOZQD5YK7","img_art/ins/3.jpg","1","","","","","","","","","","","","","","","","","","","","","","","","",""
"null","","html-keyboard-response","41","371352","0.0-40.0","A12HZGOZQD5YK7","<p style=""font-size: 48px;"">+</p>","","","","","null","allTrialResponses","1500","1","0","img_art/ins/3.jpg","43","I like the blue colors and randomness of the brush strokes","Mary,Leslie,Beth,Dora,Kara,Rose","I like the overlapping of brushes,41,220,20","It's an alright work,15,200,20","This thing gives me anxiety,-41,60,20","My worst nightmare,-42,80,20","calming blue is very nice,36,160,20","My daily routine, it's depressing,-20,240,20","Kara","calming blue is very nice,36,160,20","Mary","I like the overlapping of brushes,41,220,20","Leslie","It's an alright work,15,200,20","2"
"10152","","image-button-response_instructions","42","381514","0.0-41.0","A12HZGOZQD5YK7","","0","instructions","","","","","","","","","","","","","","","","","","","","","","","",""
"14943","","survey-likert","43","396459","0.0-42.0-0.0","A12HZGOZQD5YK7","","","","{""Q0"":"""",""Q1"":0,""Q2"":1}","","","","","","","","","","","","","","","","","","","","","","",""
"7281","","survey-text","44","403744","0.0-43.0-0.0","A12HZGOZQD5YK7","","","","{""Q0"":""rock""}","","","","","","","","","","","","","","","","","","","","","","",""
"42894","","survey-text","45","446640","0.0-44.0-0.0","A12HZGOZQD5YK7","","","","{""Q0"":""it's very unusual and lacks detail""}","","","","","","","","","","","","","","","","","","","","","","",""
"4600.5","","image-slider-response","46","451242","0.0-45.0","A12HZGOZQD5YK7","","","","","-19","","","","","","","","","","","","","","","","","","","","","",""
"null","","image-button-response","47","456262","0.0-46.0","A12HZGOZQD5YK7","img_art/24.jpg","null","","","","","","","","","","","","","","","","","","","","","","","","",""
"12803","","image-button-response","48","469068","0.0-47.0","A12HZGOZQD5YK7","img_art/24.jpg","3","","","","","","","","","","","","","","","","","","","","","","","","",""
"2349","","image-button-response","49","471418","0.0-48.0-0.0","A12HZGOZQD5YK7","img_art/24.jpg","2","","","","","","","","","","","","","","","","","","","","","","","","",""
"15975","","image-button-response","50","487396","0.0-49.0-0.0","A12HZGOZQD5YK7","img_art/24.jpg","1","","","","","","","","","","","","","","","","","","","","","","","","",""
"null","","html-keyboard-response","51","487907","0.0-50.0","A12HZGOZQD5YK7","<p style=""font-size: 48px;"">+</p>","","","","","null","allTrialResponses","500","1","1","img_art/24.jpg","-19","it's very unusual and lacks detail","Alexandria,Nicole,Laura,Emily,Haley,Erica","very colorful and intricate and makes me feel at peace,50,80,20","The colors and brush strokes make it feel adventurous,20,20,20","chunky fresh color,27,320,20","It's not super high uality  but there is some skill and talent in it I see.,15,40,20","Beautiful colors and texture,20,220,20","Very refreshing and vigorous,19,80,20","Emily","It's not super high uality  but there is some skill and talent in it I see.,15,40,20","Laura","chunky fresh color,27,320,20","Nicole","The colors and brush strokes make it feel adventurous,20,20,20","2"
"24026","","survey-text","52","511954","0.0-51.0-0.0","A12HZGOZQD5YK7","","","","{""Q0"":""it makes me think of death and despair""}","","","","","","","","","","","","","","","","","","","","","","",""
"2380.6000003814697","","image-slider-response","53","514336","0.0-52.0","A12HZGOZQD5YK7","","","","","-45","","","","","","","","","","","","","","","","","","","","","",""
"null","","image-button-response","54","519338","0.0-53.0","A12HZGOZQD5YK7","img_art/20.jpg","null","","","","","","","","","","","","","","","","","","","","","","","","",""
"11071","","image-button-response","55","530411","0.0-54.0","A12HZGOZQD5YK7","img_art/20.jpg","3","","","","","","","","","","","","","","","","","","","","","","","","",""
"6230","","image-button-response","56","536643","0.0-55.0-0.0","A12HZGOZQD5YK7","img_art/20.jpg","1","","","","","","","","","","","","","","","","","","","","","","","","",""
"5484","","image-button-response","57","542129","0.0-56.0-0.0","A12HZGOZQD5YK7","img_art/20.jpg","0","","","","","","","","","","","","","","","","","","","","","","","","",""
"null","","html-keyboard-response","58","542632","0.0-57.0","A12HZGOZQD5YK7","<p style=""font-size: 48px;"">+</p>","","","","","null","allTrialResponses","500","1","2","img_art/20.jpg","-45","it makes me think of death and despair","Sabrina,Nicole,Laura,Emily,Cynthia,Breanna","I love the way it expresses dark nature and uncontrolled situations.,44,120,20","This one feels scary in a bad way,-30,20,20","very fluid and mysterious,37,320,20","Brings about an emotion response of dspair. Loose lines but yet has a cohesion.,8,40,20","Curious about what lies here,10,320,20","Makes me feel impressed,9,380,20","Emily","Brings about an emotion response of dspair. Loose lines but yet has a cohesion.,8,40,20","Nicole","This one feels scary in a bad way,-30,20,20","Sabrina","I love the way it expresses dark nature and uncontrolled situations.,44,120,20","2"
"27679","","survey-text","59","570313","0.0-58.0-0.0","A12HZGOZQD5YK7","","","","{""Q0"":""I don't like the blobs of pale colors, it looks unfinished""}","","","","","","","","","","","","","","","","","","","","","","",""
"4501","","image-slider-response","60","574815","0.0-59.0","A12HZGOZQD5YK7","","","","","-24","","","","","","","","","","","","","","","","","","","","","",""
"null","","image-button-response","61","579818","0.0-60.0","A12HZGOZQD5YK7","img_art/26.jpg","null","","","","","","","","","","","","","","","","","","","","","","","","",""
"5138","","image-button-response","62","584958","0.0-61.0","A12HZGOZQD5YK7","img_art/26.jpg","3","","","","","","","","","","","","","","","","","","","","","","","","",""
"4017","","image-button-response","63","588978","0.0-62.0-0.0","A12HZGOZQD5YK7","img_art/26.jpg","4","","","","","","","","","","","","","","","","","","","","","","","","",""
"5514","","image-button-response","64","594494","0.0-63.0-0.0","A12HZGOZQD5YK7","img_art/26.jpg","1","","","","","","","","","","","","","","","","","","","","","","","","",""
"null","","html-keyboard-response","65","595996","0.0-64.0","A12HZGOZQD5YK7","<p style=""font-size: 48px;"">+</p>","","","","","null","allTrialResponses","1500","1","3","img_art/26.jpg","-24","I don't like the blobs of pale colors, it looks unfinished","Sabrina,Nicole,Gabriela,Emily,Sarah,Jacqueline","I dont see any expression,-29,120,20","It's relaxing to look at but I wish it was just a little more defined,20,20,20","it makes me feel normal and calm, I like the busy city street,10,140,20","Not much skil went into this one either.,-41,40,20","too hard to figure out if it's meant to be actual objects or impressions,-36,180,20","I don't really see the point in this painting.,-16,300,20","Emily","Not much skil went into this one either.,-41,40,20","Sarah","too hard to figure out if it's meant to be actual objects or impressions,-36,180,20","Nicole","It's relaxing to look at but I wish it was just a little more defined,20,20,20","2"
"21278","","survey-text","66","617278","0.0-65.0-0.0","A12HZGOZQD5YK7","","","","{""Q0"":""it looks random and crazy""}","","","","","","","","","","","","","","","","","","","","","","",""
"3394.4000000953674","","image-slider-response","67","620674","0.0-66.0","A12HZGOZQD5YK7","","","","","-50","","","","","","","","","","","","","","","","","","","","","",""
"null","","image-button-response","68","625676","0.0-67.0","A12HZGOZQD5YK7","img_art/16.jpg","null","","","","","","","","","","","","","","","","","","","","","","","","",""
"5353","","image-button-response","69","631033","0.0-68.0","A12HZGOZQD5YK7","img_art/16.jpg","3","","","","","","","","","","","","","","","","","","","","","","","","",""
"7465","","image-button-response","70","638498","0.0-69.0-0.0","A12HZGOZQD5YK7","img_art/16.jpg","0","","","","","","","","","","","","","","","","","","","","","","","","",""
"7371","","image-button-response","71","645870","0.0-70.0-0.0","A12HZGOZQD5YK7","img_art/16.jpg","5","","","","","","","","","","","","","","","","","","","","","","","","",""
"null","","html-keyboard-response","72","647373","0.0-71.0","A12HZGOZQD5YK7","<p style=""font-size: 48px;"">+</p>","","","","","null","allTrialResponses","1500","1","4","img_art/16.jpg","-50","it looks random and crazy","Kaitlin,Nicole,Alexa,Emily,Sarah,Madeline","The teddy bear looks really scared,-30,60,20","It's a little anxiety inducing in a good way,16,20,20","I can't figure out the meaning of this painting but it is pleasant to look at,40,40,20","Looks like a kid did itt and ti looks disturbing.,-45,40,20","i don't like the collage aspect,-25,180,20","That bear looks unfitting!,-8,40,20","Emily","Looks like a kid did itt and ti looks disturbing.,-45,40,20","Kaitlin","The teddy bear looks really scared,-30,60,20","Madeline","That bear looks unfitting!,-8,40,20","2"
"28482","","survey-text","73","675861","0.0-72.0-0.0","A12HZGOZQD5YK7","","","","{""Q0"":""it's interesting, good colors, mysterious""}","","","","","","","","","","","","","","","","","","","","","","",""
"2138.2000002861023","","image-slider-response","74","678000","0.0-73.0","A12HZGOZQD5YK7","","","","","9","","","","","","","","","","","","","","","","","","","","","",""
"null","","image-button-response","75","683002","0.0-74.0","A12HZGOZQD5YK7","img_art/9.jpg","null","","","","","","","","","","","","","","","","","","","","","","","","",""
"8167","","image-button-response","76","691171","0.0-75.0","A12HZGOZQD5YK7","img_art/9.jpg","4","","","","","","","","","","","","","","","","","","","","","","","","",""
"12884","","image-button-response","77","704057","0.0-76.0-0.0","A12HZGOZQD5YK7","img_art/9.jpg","3","","","","","","","","","","","","","","","","","","","","","","","","",""
"10256","","image-button-response","78","714314","0.0-77.0-0.0","A12HZGOZQD5YK7","img_art/9.jpg","0","","","","","","","","","","","","","","","","","","","","","","","","",""
"null","","html-keyboard-response","79","715816","0.0-78.0","A12HZGOZQD5YK7","<p style=""font-size: 48px;"">+</p>","","","","","null","allTrialResponses","1500","1","5","img_art/9.jpg","9","it's interesting, good colors, mysterious","Kaitlin,Jordan,Amanda,Emily,Diana,Madeline","this looks to be a child nightmare,-10,60,20","I just dont like it, no reaction from me at all,-50,20,20","Makes me feel angry, its not very clear,-50,180,20","Looks like a young child drew it.,-45,40,20","I think it's sleeping beauty but I'm not sure. I didn't care for this piece.,-30,380,20","I really like the colors and details.,8,40,20","Diana","I think it's sleeping beauty but I'm not sure. I didn't care for this piece.,-30,380,20","Emily","Looks like a young child drew it.,-45,40,20","Kaitlin","this looks to be a child nightmare,-10,60,20","2"
"5861","","survey-text","80","721686","0.0-79.0-0.0","A12HZGOZQD5YK7","","","","{""Q0"":""sky""}","","","","","","","","","","","","","","","","","","","","","","",""
"32597","","survey-text","81","754284","0.0-80.0-0.0","A12HZGOZQD5YK7","","","","{""Q0"":""i like the blending of some colors, it looks like an adventurous landscape""}","","","","","","","","","","","","","","","","","","","","","","",""
"2714.9000000953674","","image-slider-response","82","757000","0.0-81.0","A12HZGOZQD5YK7","","","","","28","","","","","","","","","","","","","","","","","","","","","",""
"null","","image-button-response","83","762006","0.0-82.0","A12HZGOZQD5YK7","img_art/21.jpg","null","","","","","","","","","","","","","","","","","","","","","","","","",""
"13649","","image-button-response","84","775658","0.0-83.0","A12HZGOZQD5YK7","img_art/21.jpg","2","","","","","","","","","","","","","","","","","","","","","","","","",""
"9731","","image-button-response","85","785391","0.0-84.0-0.0","A12HZGOZQD5YK7","img_art/21.jpg","4","","","","","","","","","","","","","","","","","","","","","","","","",""
"2628","","image-button-response","86","788020","0.0-85.0-0.0","A12HZGOZQD5YK7","img_art/21.jpg","1","","","","","","","","","","","","","","","","","","","","","","","","",""
"null","","html-keyboard-response","87","788523","0.0-86.0","A12HZGOZQD5YK7","<p style=""font-size: 48px;"">+</p>","","","","","null","allTrialResponses","500","1","6","img_art/21.jpg","28","i like the blending of some colors, it looks like an adventurous landscape","Kaitlin,Bailey,Katherine,Emily,Diana,Kathryn","waterpaint is attractive,13,60,20","Looks like two ships on fire. Cool image.,12,360,20","I can't explain why this struck me as absolutely gorgeous. Like the clashing between 2 different worlds,43,120,20","What's the point?,-30,40,20","Makes me feel light and airy. Like I've gone back in time to 1700th century France.,43,380,20","This feels chaotic, like a battle or a storm.,-20,140,20","Katherine","I can't explain why this struck me as absolutely gorgeous. Like the clashing between 2 different worlds,43,120,20","Diana","Makes me feel light and airy. Like I've gone back in time to 1700th century France.,43,380,20","Bailey","Looks like two ships on fire. Cool image.,12,360,20","2"
"35129","","survey-text","88","823655","0.0-87.0-0.0","A12HZGOZQD5YK7","","","","{""Q0"":""I really like the thin lines and use of color, it draws me in""}","","","","","","","","","","","","","","","","","","","","","","",""
"4621.099999904633","","image-slider-response","89","828278","0.0-88.0","A12HZGOZQD5YK7","","","","","41","","","","","","","","","","","","","","","","","","","","","",""
"null","","image-button-response","90","833281","0.0-89.0","A12HZGOZQD5YK7","img_art/17.jpg","null","","","","","","","","","","","","","","","","","","","","","","","","",""
"19556","","image-button-response","91","852839","0.0-90.0","A12HZGOZQD5YK7","img_art/17.jpg","1","","","","","","","","","","","","","","","","","","","","","","","","",""
"1109","","image-button-response","92","853949","0.0-91.0-0.0","A12HZGOZQD5YK7","img_art/17.jpg","4","","","","","","","","","","","","","","","","","","","","","","","","",""
"14219","","image-button-response","93","868171","0.0-92.0-0.0","A12HZGOZQD5YK7","img_art/17.jpg","0","","","","","","","","","","","","","","","","","","","","","","","","",""
"null","","html-keyboard-response","94","868674","0.0-93.0","A12HZGOZQD5YK7","<p style=""font-size: 48px;"">+</p>","","","","","null","allTrialResponses","500","1","7","img_art/17.jpg","41","I really like the thin lines and use of color, it draws me in","Jasmine,Bailey,Katherine,Abigail,Diana,Makayla","I like the use of color in this and how you can actually see shapes form. Seems thoughtful,22,340,20","I like the artistic sketching pattern.,24,360,20","Looks like a weird blurry heaven again! I dig,32,120,20","Really love the branches. The bottom made it not perfect,42,20,20","I really enjoyed this piece, it's a play on bringing the outside indoors.,32,380,20","I feel okay , it's like a tree,28,80,20","Bailey","I like the artistic sketching pattern.,24,360,20","Diana","I really enjoyed this piece, it's a play on bringing the outside indoors.,32,380,20","Jasmine","I like the use of color in this and how you can actually see shapes form. Seems thoughtful,22,340,20","2"
"34869","","survey-text","95","903548","0.0-94.0-0.0","A12HZGOZQD5YK7","","","","{""Q0"":""it looks too cluttered and dark, it's depressing""}","","","","","","","","","","","","","","","","","","","","","","",""
"2607.3999996185303","","image-slider-response","96","906157","0.0-95.0","A12HZGOZQD5YK7","","","","","-41","","","","","","","","","","","","","","","","","","","","","",""
"null","","image-button-response","97","911160","0.0-96.0","A12HZGOZQD5YK7","img_art/19.jpg","null","","","","","","","","","","","","","","","","","","","","","","","","",""
"7581","","image-button-response","98","918742","0.0-97.0","A12HZGOZQD5YK7","img_art/19.jpg","1","","","","","","","","","","","","","","","","","","","","","","","","",""
"3180","","image-button-response","99","921924","0.0-98.0-0.0","A12HZGOZQD5YK7","img_art/19.jpg","2","","","","","","","","","","","","","","","","","","","","","","","","",""
"12264","","image-button-response","100","934191","0.0-99.0-0.0","A12HZGOZQD5YK7","img_art/19.jpg","0","","","","","","","","","","","","","","","","","","","","","","","","",""
"null","","html-keyboard-response","101","934693","0.0-100.0","A12HZGOZQD5YK7","<p style=""font-size: 48px;"">+</p>","","","","","null","allTrialResponses","500","1","8","img_art/19.jpg","-41","it looks too cluttered and dark, it's depressing","Jasmine,Bailey,Sophia,Madison,Diana,Rachel","Just stirred a negative reaction. Don't really like it perhaps because of the structure?,-8,340,20","Horrible. Squiggly lines everywhere.,-50,360,20","This looks like a child's piece. I appreciate the artistic value, but not for me.,-20,280,20","Seems unfinished and sloppy,-11,60,20","I wasn't sure if I liked it or hated it. It oddly reminds me of a clothing store.,11,380,20","Reminds me of a busy town. Chaotic in nature.,-11,80,20","Bailey","Horrible. Squiggly lines everywhere.,-50,360,20","Sophia","This looks like a child's piece. I appreciate the artistic value, but not for me.,-20,280,20","Jasmine","Just stirred a negative reaction. Don't really like it perhaps because of the structure?,-8,340,20","2"
"15084","","survey-text","102","949780","0.0-101.0-0.0","A12HZGOZQD5YK7","","","","{""Q0"":""dull, it looks like someone didn't finish it""}","","","","","","","","","","","","","","","","","","","","","","",""
"4498.699999809265","","image-slider-response","103","954280","0.0-102.0","A12HZGOZQD5YK7","","","","","-4","","","","","","","","","","","","","","","","","","","","","",""
"null","","image-button-response","104","959283","0.0-103.0","A12HZGOZQD5YK7","img_art/5.jpg","null","","","","","","","","","","","","","","","","","","","","","","","","",""
"2513","","image-button-response","105","961798","0.0-104.0","A12HZGOZQD5YK7","img_art/5.jpg","4","","","","","","","","","","","","","","","","","","","","","","","","",""
"8279","","image-button-response","106","970079","0.0-105.0-0.0","A12HZGOZQD5YK7","img_art/5.jpg","0","","","","","","","","","","","","","","","","","","","","","","","","",""
"5474","","image-button-response","107","975556","0.0-106.0-0.0","A12HZGOZQD5YK7","img_art/5.jpg","2","","","","","","","","","","","","","","","","","","","","","","","","",""
"null","","html-keyboard-response","108","976057","0.0-107.0","A12HZGOZQD5YK7","<p style=""font-size: 48px;"">+</p>","","","","","null","allTrialResponses","500","1","9","img_art/5.jpg","-4","dull, it looks like someone didn't finish it","Jasmine,Bailey,Sophia,Michaela,Heather,Maria","Not sure what to say about this piece honestly. It's okay I guess.,0,340,20","Not sure what that even is. Looks like a 2-year old drawing,-40,360,20","Looks like a tied up trash bag.,-10,280,20","Pretty simple, I'm not sure what it's supposed to mean,14,260,20","its something. i just dont know what it is.,1,260,20","this feels like something I should like, but I'm not feeling the execution,-10,120,20","Heather","its something. i just dont know what it is.,1,260,20","Jasmine","Not sure what to say about this piece honestly. It's okay I guess.,0,340,20","Sophia","Looks like a tied up trash bag.,-10,280,20","2"
"25962","","survey-text","109","1002022","0.0-108.0-0.0","A12HZGOZQD5YK7","","","","{""Q0"":""it looks like a kid's finger painting from school""}","","","","","","","","","","","","","","","","","","","","","","",""
"14948.300000190735","","image-slider-response","110","1016972","0.0-109.0","A12HZGOZQD5YK7","","","","","-46","","","","","","","","","","","","","","","","","","","","","",""
"null","","image-button-response","111","1021975","0.0-110.0","A12HZGOZQD5YK7","img_art/30.jpg","null","","","","","","","","","","","","","","","","","","","","","","","","",""
"17583","","image-button-response","112","1039560","0.0-111.0","A12HZGOZQD5YK7","img_art/30.jpg","1","","","","","","","","","","","","","","","","","","","","","","","","",""
"6378","","image-button-response","113","1045940","0.0-112.0-0.0","A12HZGOZQD5YK7","img_art/30.jpg","5","","","","","","","","","","","","","","","","","","","","","","","","",""
"5977","","image-button-response","114","1051920","0.0-113.0-0.0","A12HZGOZQD5YK7","img_art/30.jpg","0","","","","","","","","","","","","","","","","","","","","","","","","",""
"null","","html-keyboard-response","115","1052923","0.0-114.0","A12HZGOZQD5YK7","<p style=""font-size: 48px;"">+</p>","","","","","null","allTrialResponses","1000","1","10","img_art/30.jpg","-46","it looks like a kid's finger painting from school","Jasmine,Chelsea,Sophia,Natalie,Heather,Julia","Pretty neutral about this one,0,340,20","It looks like it was painted in 5 minutes.,-32,180,20","Hmmm. I think the artist is trying to direct me to a spreadsheet?  (s/s),-10,280,20","the colors look nice,19,400,20","beautiful paint brush strokes,1,260,20","this is probably part of a neat series, but the abstraction doesn't speak to me,-17,40,20","Chelsea","It looks like it was painted in 5 minutes.,-32,180,20","Julia","this is probably part of a neat series, but the abstraction doesn't speak to me,-17,40,20","Jasmine","Pretty neutral about this one,0,340,20","2"
"5133","","survey-text","116","1058061","0.0-115.0-0.0","A12HZGOZQD5YK7","","","","{""Q0"":""our""}","","","","","","","","","","","","","","","","","","","","","","",""
"22551","","survey-text","117","1080614","0.0-116.0-0.0","A12HZGOZQD5YK7","","","","{""Q0"":""i like the depth of this painting and the colors""}","","","","","","","","","","","","","","","","","","","","","","",""
"2636.3999996185303","","image-slider-response","118","1083252","0.0-117.0","A12HZGOZQD5YK7","","","","","43","","","","","","","","","","","","","","","","","","","","","",""
"null","","image-button-response","119","1088255","0.0-118.0","A12HZGOZQD5YK7","img_art/13.jpg","null","","","","","","","","","","","","","","","","","","","","","","","","",""
"2762","","image-button-response","120","1091018","0.0-119.0","A12HZGOZQD5YK7","img_art/13.jpg","2","","","","","","","","","","","","","","","","","","","","","","","","",""
"1179","","image-button-response","121","1092199","0.0-120.0-0.0","A12HZGOZQD5YK7","img_art/13.jpg","3","","","","","","","","","","","","","","","","","","","","","","","","",""
"11296","","image-button-response","122","1103497","0.0-121.0-0.0","A12HZGOZQD5YK7","img_art/13.jpg","4","","","","","","","","","","","","","","","","","","","","","","","","",""
"null","","html-keyboard-response","123","1103999","0.0-122.0","A12HZGOZQD5YK7","<p style=""font-size: 48px;"">+</p>","","","","","null","allTrialResponses","500","1","11","img_art/13.jpg","43","i like the depth of this painting and the colors","Jasmine,Chelsea,Mikayla,Stephanie,Sydney,Julia","I like the colors together,17,340,20","The colors are okay but I don't like the shapes here.,-18,180,20","My favorite!,47,300,20","Raindrops splashing on the window.,50,300,20","I love the style of this piece, but the color choice could've been more eye catching or calming.,40,320,20","I don't really care for splatter paintings; the spectral colors underneath are nice.,-18,40,20","Mikayla","My favorite!,47,300,20","Stephanie","Raindrops splashing on the window.,50,300,20","Sydney","I love the style of this piece, but the color choice could've been more eye catching or calming.,40,320,20","2"
"38931","","survey-text","124","1142934","0.0-123.0-0.0","A12HZGOZQD5YK7","","","","{""Q0"":""the wavy lines look great, the smoky background is intriguing""}","","","","","","","","","","","","","","","","","","","","","","",""
"2211.0999999046326","","image-slider-response","125","1145146","0.0-124.0","A12HZGOZQD5YK7","","","","","47","","","","","","","","","","","","","","","","","","","","","",""
"4536","","image-button-response","126","1150149","0.0-125.0","A12HZGOZQD5YK7","img_art/11.jpg","0","","","","","","","","","","","","","","","","","","","","","","","","",""
"5806","","image-button-response","127","1155957","0.0-126.0","A12HZGOZQD5YK7","img_art/11.jpg","4","","","","","","","","","","","","","","","","","","","","","","","","",""
"3946","","image-button-response","128","1159905","0.0-127.0-0.0","A12HZGOZQD5YK7","img_art/11.jpg","3","","","","","","","","","","","","","","","","","","","","","","","","",""
"1734","","image-button-response","129","1161641","0.0-128.0-0.0","A12HZGOZQD5YK7","img_art/11.jpg","0","","","","","","","","","","","","","","","","","","","","","","","","",""
"null","","html-keyboard-response","130","1162643","0.0-129.0","A12HZGOZQD5YK7","<p style=""font-size: 48px;"">+</p>","","","","","null","allTrialResponses","1000","1","12","img_art/11.jpg","47","the wavy lines look great, the smoky background is intriguing","Danielle,Meghan,Mikayla,Stephanie,Sydney,Kaylee","Reminds me of some of post-apocalyptic view of street lights or maybe a city,30,340,20","makes me feel dizzy,-37,220,20","Scary again. Not a fan.,-23,300,20","Rainy dreary day in a town.,7,300,20","I don't like the gloomy color, but it reminds me of a city which I like.,35,320,20","i dont understand this painting,-1,200,20","Sydney","I don't like the gloomy color, but it reminds me of a city which I like.,35,320,20","Stephanie","Rainy dreary day in a town.,7,300,20","Danielle","Reminds me of some of post-apocalyptic view of street lights or maybe a city,30,340,20","2"
"26805","","survey-text","131","1189477","0.0-130.0-0.0","A12HZGOZQD5YK7","","","","{""Q0"":""it looks like a kid drew in green marker on a good painting""}","","","","","","","","","","","","","","","","","","","","","","",""
"2838.7999997138977","","image-slider-response","132","1192316","0.0-131.0","A12HZGOZQD5YK7","","","","","-30","","","","","","","","","","","","","","","","","","","","","",""
"null","","image-button-response","133","1197319","0.0-132.0","A12HZGOZQD5YK7","img_art/27.jpg","null","","","","","","","","","","","","","","","","","","","","","","","","",""
"993","","image-button-response","134","1198312","0.0-133.0","A12HZGOZQD5YK7","img_art/27.jpg","1","","","","","","","","","","","","","","","","","","","","","","","","",""
"10573","","image-button-response","135","1208887","0.0-134.0-0.0","A12HZGOZQD5YK7","img_art/27.jpg","5","","","","","","","","","","","","","","","","","","","","","","","","",""
"12369","","image-button-response","136","1221258","0.0-135.0-0.0","A12HZGOZQD5YK7","img_art/27.jpg","0","","","","","","","","","","","","","","","","","","","","","","","","",""
"null","","html-keyboard-response","137","1222760","0.0-136.0","A12HZGOZQD5YK7","<p style=""font-size: 48px;"">+</p>","","","","","null","allTrialResponses","1500","1","13","img_art/27.jpg","-30","it looks like a kid drew in green marker on a good painting","Danielle,Lauren,Jenna,Stephanie,Sydney,Grace","Looks a bit like a child's project with unsatisfying colors,-31,340,20","Not a fan of the green; gives off the impression that someone else drew on it.,-20,340,20","the green & white scribbles feel childlike. perhaps the quality of the photo, but the colors are gloomy.,-13,360,20","The black sketchy over the colors doesn't fit.,-4,300,20","This piece reminds me of a summer day.,30,320,20","Not fond of the bad pencil drawing mixed with the drab colors.,-21,180,20","Lauren","Not a fan of the green; gives off the impression that someone else drew on it.,-20,340,20","Grace","Not fond of the bad pencil drawing mixed with the drab colors.,-21,180,20","Danielle","Looks a bit like a child's project with unsatisfying colors,-31,340,20","2"
"39851","","survey-text","138","1262620","0.0-137.0-0.0","A12HZGOZQD5YK7","","","","{""Q0"":""good focal point, action and mystery. i like it""}","","","","","","","","","","","","","","","","","","","","","","",""
"5539.199999809265","","image-slider-response","139","1268160","0.0-138.0","A12HZGOZQD5YK7","","","","","33","","","","","","","","","","","","","","","","","","","","","",""
"4775","","image-button-response","140","1273165","0.0-139.0","A12HZGOZQD5YK7","img_art/18.jpg","2","","","","","","","","","","","","","","","","","","","","","","","","",""
"12000","","image-button-response","141","1285166","0.0-140.0","A12HZGOZQD5YK7","img_art/18.jpg","5","","","","","","","","","","","","","","","","","","","","","","","","",""
"7097","","image-button-response","142","1292264","0.0-141.0-0.0","A12HZGOZQD5YK7","img_art/18.jpg","1","","","","","","","","","","","","","","","","","","","","","","","","",""
"1914","","image-button-response","143","1294180","0.0-142.0-0.0","A12HZGOZQD5YK7","img_art/18.jpg","2","","","","","","","","","","","","","","","","","","","","","","","","",""
"null","","html-keyboard-response","144","1294682","0.0-143.0","A12HZGOZQD5YK7","<p style=""font-size: 48px;"">+</p>","","","","","null","allTrialResponses","500","1","14","img_art/18.jpg","33","good focal point, action and mystery. i like it","Danielle,Lauren,Crystal,Mary,Rebecca,Grace","Doesn't really speak to me well but I can appreciate it,10,340,20","I like how the image gives off an impression of bravery.,25,340,20","I love this because abstractly depicts the apocalypse. The white horse and its rider as Death, described in religious texts and pop culture. ""He rode a pale horse and his name was death."",50,300,20","I like the expression of this piece. The colors are very outdated though.,-5,180,20","reminds me of the little prince, with the color scheme and all,16,100,20","First saw sailing ship in bad weather but then saw woman in upper left - not sure what I'm seeing.,21,180,20","Grace","First saw sailing ship in bad weather but then saw woman in upper left - not sure what I'm seeing.,21,180,20","Lauren","I like how the image gives off an impression of bravery.,25,340,20","Crystal","I love this because abstractly depicts the apocalypse. The white horse and its rider as Death, described in religious texts and pop culture. ""He rode a pale horse and his name was death."",50,300,20","2"
"33550","","survey-text","145","1328237","0.0-144.0-0.0","A12HZGOZQD5YK7","","","","{""Q0"":""do pattern, no detail, too messy""}","","","","","","","","","","","","","","","","","","","","","","",""
"2378.5999999046326","","image-slider-response","146","1330617","0.0-145.0","A12HZGOZQD5YK7","","","","","-50","","","","","","","","","","","","","","","","","","","","","",""
"null","","image-button-response","147","1335620","0.0-146.0","A12HZGOZQD5YK7","img_art/2.jpg","null","","","","","","","","","","","","","","","","","","","","","","","","",""
"675","","image-button-response","148","1336297","0.0-147.0","A12HZGOZQD5YK7","img_art/2.jpg","2","","","","","","","","","","","","","","","","","","","","","","","","",""
"2667","","image-button-response","149","1338965","0.0-148.0-0.0","A12HZGOZQD5YK7","img_art/2.jpg","4","","","","","","","","","","","","","","","","","","","","","","","","",""
"7656","","image-button-response","150","1346623","0.0-149.0-0.0","A12HZGOZQD5YK7","img_art/2.jpg","1","","","","","","","","","","","","","","","","","","","","","","","","",""
"null","","html-keyboard-response","151","1348125","0.0-150.0","A12HZGOZQD5YK7","<p style=""font-size: 48px;"">+</p>","","","","","null","allTrialResponses","1500","1","15","img_art/2.jpg","-50","do pattern, no detail, too messy","Kristen,Lauren,Crystal,Shannon,Leah,Grace","smilely face, soulful,11,280,20","I feel that its too abstract for me to understand what I'm looking at.,-15,340,20","Looks contrived and like someone tried to hard to make it abstract,-31,300,20","I like this picture a little because the colors make it look a little vibrant.,10,220,20","Kind of looks upside down, I need a focal point,-29,360,20","Like the colors but reminds me of a kids show done in cubism.,0,180,20","Crystal","Looks contrived and like someone tried to hard to make it abstract,-31,300,20","Leah","Kind of looks upside down, I need a focal point,-29,360,20","Lauren","I feel that its too abstract for me to understand what I'm looking at.,-15,340,20","2"
"10335","","survey-text","152","1358468","0.0-151.0-0.0","A12HZGOZQD5YK7","","","","{""Q0"":""course""}","","","","","","","","","","","","","","","","","","","","","","",""
"18965","","survey-text","153","1377434","0.0-152.0-0.0","A12HZGOZQD5YK7","","","","{""Q0"":""the warm colors are nice but more detail is needed in the center""}","","","","","","","","","","","","","","","","","","","","","","",""
"2753.0999999046326","","image-slider-response","154","1380188","0.0-153.0","A12HZGOZQD5YK7","","","","","3","","","","","","","","","","","","","","","","","","","","","",""
"null","","image-button-response","155","1385191","0.0-154.0","A12HZGOZQD5YK7","img_art/4.jpg","null","","","","","","","","","","","","","","","","","","","","","","","","",""
"2304","","image-button-response","156","1387496","0.0-155.0","A12HZGOZQD5YK7","img_art/4.jpg","1","","","","","","","","","","","","","","","","","","","","","","","","",""
"14003","","image-button-response","157","1401500","0.0-156.0-0.0","A12HZGOZQD5YK7","img_art/4.jpg","2","","","","","","","","","","","","","","","","","","","","","","","","",""
"5259","","image-button-response","158","1406761","0.0-157.0-0.0","A12HZGOZQD5YK7","img_art/4.jpg","3","","","","","","","","","","","","","","","","","","","","","","","","",""
"null","","html-keyboard-response","159","1408264","0.0-158.0","A12HZGOZQD5YK7","<p style=""font-size: 48px;"">+</p>","","","","","null","allTrialResponses","1500","1","16","img_art/4.jpg","3","the warm colors are nice but more detail is needed in the center","Kylie,Lauren,Crystal,Christina,Leah,Marissa","I just have no clue,26,300,20","I like the design. It can be interpreted in various ways, such as a hand of horror or still piece.,15,340,20","Looks like finger nails from the Guinness world record book.,-30,300,20","not enough color and too yellow for me. Not my favorite colors,-10,240,20","To me just looking at paint scrawls,-41,360,20","I'm disappointed that such a simple piece, with very little effort spent, could be grouped with other detailed pieces,-31,160,20","Lauren","I like the design. It can be interpreted in various ways, such as a hand of horror or still piece.,15,340,20","Crystal","Looks like finger nails from the Guinness world record book.,-30,300,20","Christina","not enough color and too yellow for me. Not my favorite colors,-10,240,20","2"
"25456","","survey-text","160","1433722","0.0-159.0-0.0","A12HZGOZQD5YK7","","","","{""Q0"":""awesome green color, reminds me of Halloween in a good way""}","","","","","","","","","","","","","","","","","","","","","","",""
"5135","","image-slider-response","161","1438858","0.0-160.0","A12HZGOZQD5YK7","","","","","47","","","","","","","","","","","","","","","","","","","","","",""
"null","","image-button-response","162","1443863","0.0-161.0","A12HZGOZQD5YK7","img_art/25.jpg","null","","","","","","","","","","","","","","","","","","","","","","","","",""
"7152","","image-button-response","163","1451015","0.0-162.0","A12HZGOZQD5YK7","img_art/25.jpg","4","","","","","","","","","","","","","","","","","","","","","","","","",""
"6693","","image-button-response","164","1457711","0.0-163.0-0.0","A12HZGOZQD5YK7","img_art/25.jpg","2","","","","","","","","","","","","","","","","","","","","","","","","",""
"4031","","image-button-response","165","1461745","0.0-164.0-0.0","A12HZGOZQD5YK7","img_art/25.jpg","3","","","","","","","","","","","","","","","","","","","","","","","","",""
"null","","html-keyboard-response","166","1462246","0.0-165.0","A12HZGOZQD5YK7","<p style=""font-size: 48px;"">+</p>","","","","","null","allTrialResponses","500","1","17","img_art/25.jpg","47","awesome green color, reminds me of Halloween in a good way","Hannah,Lauren,Crystal,Christina,Ashley,Cheyenne","Looks like a voodoo figure in a New Orleans cemetery at night.,-5,240,20","Depicts something negative, such as ritual. I'm not a fan.,-10,340,20","Seems ritualistic and nativist,50,300,20","nice colors and it looks like a native work,32,240,20","haunting, a lovely impression.,50,320,20","It's nice but nothing special.,7,200,20","Ashley","haunting, a lovely impression.,50,320,20","Crystal","Seems ritualistic and nativist,50,300,20","Christina","nice colors and it looks like a native work,32,240,20","2"
"43504","","survey-text","167","1505756","0.0-166.0-0.0","A12HZGOZQD5YK7","","","","{""Q0"":""too much glass, looks like trash on the right side stuck with paint and red looks like ketchup splatter""}","","","","","","","","","","","","","","","","","","","","","","",""
"2667.2999997138977","","image-slider-response","168","1508425","0.0-167.0","A12HZGOZQD5YK7","","","","","-50","","","","","","","","","","","","","","","","","","","","","",""
"null","","image-button-response","169","1513427","0.0-168.0","A12HZGOZQD5YK7","img_art/29.jpg","null","","","","","","","","","","","","","","","","","","","","","","","","",""
"11022","","image-button-response","170","1524451","0.0-169.0","A12HZGOZQD5YK7","img_art/29.jpg","0","","","","","","","","","","","","","","","","","","","","","","","","",""
"1673","","image-button-response","171","1526126","0.0-170.0-0.0","A12HZGOZQD5YK7","img_art/29.jpg","3","","","","","","","","","","","","","","","","","","","","","","","","",""
"7483","","image-button-response","172","1533611","0.0-171.0-0.0","A12HZGOZQD5YK7","img_art/29.jpg","1","","","","","","","","","","","","","","","","","","","","","","","","",""
"null","","html-keyboard-response","173","1534112","0.0-172.0","A12HZGOZQD5YK7","<p style=""font-size: 48px;"">+</p>","","","","","null","allTrialResponses","500","1","18","img_art/29.jpg","-50","too much glass, looks like trash on the right side stuck with paint and red looks like ketchup splatter","Angela,Gabrielle,Crystal,Christina,Ashley,Jennifer","I would like this piece better without the red X across it,-10,260,20","it's OK, no clue to what's going on but good use of light and dark,4,160,20","Reminiscent of Jackson Pollock with a hint of abstract structure with the bordering.,32,300,20","It's too on trend with the gray and doesn't look like a lasting piece,-4,240,20","It that an actual PAINTBUSH! Love it.,50,320,20","Very interesting composition,41,380,20","Angela","I would like this piece better without the red X across it,-10,260,20","Christina","It's too on trend with the gray and doesn't look like a lasting piece,-4,240,20","Gabrielle","it's OK, no clue to what's going on but good use of light and dark,4,160,20","2"
"16913","","survey-text","174","1551029","0.0-173.0-0.0","A12HZGOZQD5YK7","","","","{""Q0"":""it looks over blended and foggy, too much orange""}","","","","","","","","","","","","","","","","","","","","","","",""
"3529.0999999046326","","image-slider-response","175","1554559","0.0-174.0","A12HZGOZQD5YK7","","","","","-16","","","","","","","","","","","","","","","","","","","","","",""
"null","","image-button-response","176","1559561","0.0-175.0","A12HZGOZQD5YK7","img_art/1.jpg","null","","","","","","","","","","","","","","","","","","","","","","","","",""
"7532","","image-button-response","177","1567095","0.0-176.0","A12HZGOZQD5YK7","img_art/1.jpg","5","","","","","","","","","","","","","","","","","","","","","","","","",""
"812","","image-button-response","178","1567909","0.0-177.0-0.0","A12HZGOZQD5YK7","img_art/1.jpg","3","","","","","","","","","","","","","","","","","","","","","","","","",""
"12862","","image-button-response","179","1580774","0.0-178.0-0.0","A12HZGOZQD5YK7","img_art/1.jpg","0","","","","","","","","","","","","","","","","","","","","","","","","",""
"null","","html-keyboard-response","180","1581776","0.0-179.0","A12HZGOZQD5YK7","<p style=""font-size: 48px;"">+</p>","","","","","null","allTrialResponses","1000","1","19","img_art/1.jpg","-16","it looks over blended and foggy, too much orange","Angela,Gabrielle,Megan,Christina,Leslie,Alicia","Like the colors very much, and this piece makes me feel peaceful.,29,260,20","nice piece, fall like,31,160,20","Nice colors with some 3D effects,15,200,20","nice colors but kinds of blah,1,240,20","The use of reds, blues, and yellows together reminds me of fire. Very interesting to look at.,40,380,20","just colors mixed together. not interesting.,5,120,20","Alicia","just colors mixed together. not interesting.,5,120,20","Christina","nice colors but kinds of blah,1,240,20","Angela","Like the colors very much, and this piece makes me feel peaceful.,29,260,20","2"
"37501","","survey-text","181","1619298","0.0-180.0-0.0","A12HZGOZQD5YK7","","","","{""Q0"":""looks like it was made with crayons, not easy to recognize anything in it but a tree""}","","","","","","","","","","","","","","","","","","","","","","",""
"4162.900000095367","","image-slider-response","182","1623462","0.0-181.0","A12HZGOZQD5YK7","","","","","-13","","","","","","","","","","","","","","","","","","","","","",""
"null","","image-button-response","183","1628465","0.0-182.0","A12HZGOZQD5YK7","img_art/14.jpg","null","","","","","","","","","","","","","","","","","","","","","","","","",""
"9516","","image-button-response","184","1637982","0.0-183.0","A12HZGOZQD5YK7","img_art/14.jpg","5","","","","","","","","","","","","","","","","","","","","","","","","",""
"1372","","image-button-response","185","1639356","0.0-184.0-0.0","A12HZGOZQD5YK7","img_art/14.jpg","1","","","","","","","","","","","","","","","","","","","","","","","","",""
"1828","","image-button-response","186","1641187","0.0-185.0-0.0","A12HZGOZQD5YK7","img_art/14.jpg","2","","","","","","","","","","","","","","","","","","","","","","","","",""
"null","","html-keyboard-response","187","1642190","0.0-186.0","A12HZGOZQD5YK7","<p style=""font-size: 48px;"">+</p>","","","","","null","allTrialResponses","1000","1","20","img_art/14.jpg","-13","looks like it was made with crayons, not easy to recognize anything in it but a tree","Angela,Kaitlyn,Emma,Christina,Alyssa,Alicia","I like the colors and the shapes are interesting,11,260,20","Focal point is interesting,5,80,20","Don't love it.,-10,60,20","has a tree look to it and it's colors are happy,9,240,20","Beautiful tree,the use of water colors makes it soothing to look at,37,160,20","ok, gloomy though.,12,120,20","Alicia","ok, gloomy though.,12,120,20","Kaitlyn","Focal point is interesting,5,80,20","Emma","Don't love it.,-10,60,20","2"
"3026","","survey-text","188","1645228","0.0-187.0-0.0","A12HZGOZQD5YK7","","","","{""Q0"":""we""}","","","","","","","","","","","","","","","","","","","","","","",""
"12995","","survey-text","189","1658224","0.0-188.0-0.0","A12HZGOZQD5YK7","","","","{""Q0"":""looks like a broken guitar, sad colors""}","","","","","","","","","","","","","","","","","","","","","","",""
"3380.4000000953674","","image-slider-response","190","1661606","0.0-189.0","A12HZGOZQD5YK7","","","","","-3","","","","","","","","","","","","","","","","","","","","","",""
"null","","image-button-response","191","1666608","0.0-190.0","A12HZGOZQD5YK7","img_art/10.jpg","null","","","","","","","","","","","","","","","","","","","","","","","","",""
"311","","image-button-response","192","1666920","0.0-191.0","A12HZGOZQD5YK7","img_art/10.jpg","2","","","","","","","","","","","","","","","","","","","","","","","","",""
"6663","","image-button-response","193","1673584","0.0-192.0-0.0","A12HZGOZQD5YK7","img_art/10.jpg","5","","","","","","","","","","","","","","","","","","","","","","","","",""
"2425","","image-button-response","194","1676010","0.0-193.0-0.0","A12HZGOZQD5YK7","img_art/10.jpg","1","","","","","","","","","","","","","","","","","","","","","","","","",""
"null","","html-keyboard-response","195","1676513","0.0-194.0","A12HZGOZQD5YK7","<p style=""font-size: 48px;"">+</p>","","","","","null","allTrialResponses","500","1","21","img_art/10.jpg","-3","looks like a broken guitar, sad colors","Morgan,Kaitlyn,Emma,Katie,Andrea,Alicia","Roller coaster on an island.,9,380,20","Picture looks smudged,-7,80,20","Feels musical .....,40,60,20","Dark and weird. Unidentifiable shape. I can't tell what it is, so I don't like it.,-50,160,20","Kraken, and I love it.,39,240,20","It's art. (for some),7,120,20","Emma","Feels musical .....,40,60,20","Alicia","It's art. (for some),7,120,20","Kaitlyn","Picture looks smudged,-7,80,20","2"
"25738","","survey-text","196","1702253","0.0-195.0-0.0","A12HZGOZQD5YK7","","","","{""Q0"":""love the background and the white looks like dancing people, fun""}","","","","","","","","","","","","","","","","","","","","","","",""
"2029.3000001907349","","image-slider-response","197","1704284","0.0-196.0","A12HZGOZQD5YK7","","","","","18","","","","","","","","","","","","","","","","","","","","","",""
"4074","","image-button-response","198","1709287","0.0-197.0","A12HZGOZQD5YK7","img_art/23.jpg","0","","","","","","","","","","","","","","","","","","","","","","","","",""
"923","","image-button-response","199","1710213","0.0-198.0","A12HZGOZQD5YK7","img_art/23.jpg","0","","","","","","","","","","","","","","","","","","","","","","","","",""
"7692","","image-button-response","200","1717907","0.0-199.0-0.0","A12HZGOZQD5YK7","img_art/23.jpg","1","","","","","","","","","","","","","","","","","","","","","","","","",""
"2232","","image-button-response","201","1720141","0.0-200.0-0.0","A12HZGOZQD5YK7","img_art/23.jpg","2","","","","","","","","","","","","","","","","","","","","","","","","",""
"null","","html-keyboard-response","202","1720642","0.0-201.0","A12HZGOZQD5YK7","<p style=""font-size: 48px;"">+</p>","","","","","null","allTrialResponses","500","1","22","img_art/23.jpg","18","love the background and the white looks like dancing people, fun","Michelle,Kaitlyn,Emma,Kayla,Erin,Alicia","This is nice, the colorful background is fun and the white looks like dancing figures,5,280,20","Interesting contrast,9,80,20","Love the use of colors and light,50,60,20","Like a wound that has been sutured. Pain, but also healing.,5,180,20","Confetti dancer,-7,120,20","No reactions, childish.,-19,120,20","Michelle","This is nice, the colorful background is fun and the white looks like dancing figures,5,280,20","Kaitlyn","Interesting contrast,9,80,20","Emma","Love the use of colors and light,50,60,20","2"
"18069","","survey-text","203","1738716","0.0-202.0-0.0","A12HZGOZQD5YK7","","","","{""Q0"":""it looks like rocks in stone or sand, boring""}","","","","","","","","","","","","","","","","","","","","","","",""
"3298.6000003814697","","image-slider-response","204","1742017","0.0-203.0","A12HZGOZQD5YK7","","","","","-6","","","","","","","","","","","","","","","","","","","","","",""
"2553","","image-button-response","205","1747020","0.0-204.0","A12HZGOZQD5YK7","img_art/7.jpg","1","","","","","","","","","","","","","","","","","","","","","","","","",""
"491","","image-button-response","206","1747513","0.0-205.0","A12HZGOZQD5YK7","img_art/7.jpg","1","","","","","","","","","","","","","","","","","","","","","","","","",""
"12334","","image-button-response","207","1759849","0.0-206.0-0.0","A12HZGOZQD5YK7","img_art/7.jpg","0","","","","","","","","","","","","","","","","","","","","","","","","",""
"3985","","image-button-response","208","1763836","0.0-207.0-0.0","A12HZGOZQD5YK7","img_art/7.jpg","4","","","","","","","","","","","","","","","","","","","","","","","","",""
"null","","html-keyboard-response","209","1764839","0.0-208.0","A12HZGOZQD5YK7","<p style=""font-size: 48px;"">+</p>","","","","","null","allTrialResponses","1000","1","23","img_art/7.jpg","-6","it looks like rocks in stone or sand, boring","Michelle,Kaitlyn,Emma,Shelby,Courtney,Sierra","Hmm interesting, looks like mars or something terrestrial. Too abstract for me and too much brown,4,280,20","Boring  and lacks color,-11,80,20","Cool, makes me think of archeology,15,60,20","This feels very earthy and grounded,20,240,20","That a desert floor,16,280,20","it looks like a dog ran through some wet cement,-22,260,20","Kaitlyn","Boring  and lacks color,-11,80,20","Michelle","Hmm interesting, looks like mars or something terrestrial. Too abstract for me and too much brown,4,280,20","Courtney","That a desert floor,16,280,20","2"
"33861","","survey-text","210","1798709","0.0-209.0-0.0","A12HZGOZQD5YK7","","","","{""Q0"":""not enough blue but I like that there is some empty space""}","","","","","","","","","","","","","","","","","","","","","","",""
"1984.3000001907349","","image-slider-response","211","1800694","0.0-210.0","A12HZGOZQD5YK7","","","","","7","","","","","","","","","","","","","","","","","","","","","",""
"null","","image-button-response","212","1805698","0.0-211.0","A12HZGOZQD5YK7","img_art/15.jpg","null","","","","","","","","","","","","","","","","","","","","","","","","",""
"2668","","image-button-response","213","1808369","0.0-212.0","A12HZGOZQD5YK7","img_art/15.jpg","2","","","","","","","","","","","","","","","","","","","","","","","","",""
"8820","","image-button-response","214","1817191","0.0-213.0-0.0","A12HZGOZQD5YK7","img_art/15.jpg","5","","","","","","","","","","","","","","","","","","","","","","","","",""
"2264","","image-button-response","215","1819457","0.0-214.0-0.0","A12HZGOZQD5YK7","img_art/15.jpg","0","","","","","","","","","","","","","","","","","","","","","","","","",""
"null","","html-keyboard-response","216","1820459","0.0-215.0","A12HZGOZQD5YK7","<p style=""font-size: 48px;"">+</p>","","","","","null","allTrialResponses","1000","1","24","img_art/15.jpg","7","not enough blue but I like that there is some empty space","Michelle,Kaitlyn,Cassidy,Tiffany,Courtney,Jessica","Interesting to look at but I don't appreciate the abstraction,2,280,20","Simplicity of colors is nice,11,80,20","I like the random blue dabs to break up the black, but it looks unfinished.,4,140,20","The painting is very relaxing, I'm reminded of sitting in a garden in the evening.,8,360,20","Weird fuzzball bush.,22,280,20","I think it's trying to execute a cool idea, but unfortunately it doesn't appeal,5,400,20","Cassidy","I like the random blue dabs to break up the black, but it looks unfinished.,4,140,20","Jessica","I think it's trying to execute a cool idea, but unfortunately it doesn't appeal,5,400,20","Michelle","Interesting to look at but I don't appreciate the abstraction,2,280,20","2"
"20037","","survey-text","217","1840505","0.0-216.0-0.0","A12HZGOZQD5YK7","","","","{""Q0"":""I like the use of color and shapes in this""}","","","","","","","","","","","","","","","","","","","","","","",""
"2544.2999997138977","","image-slider-response","218","1843051","0.0-217.0","A12HZGOZQD5YK7","","","","","27","","","","","","","","","","","","","","","","","","","","","",""
"4086","","image-button-response","219","1848053","0.0-218.0","A12HZGOZQD5YK7","img_art/22.jpg","1","","","","","","","","","","","","","","","","","","","","","","","","",""
"442","","image-button-response","220","1848497","0.0-219.0","A12HZGOZQD5YK7","img_art/22.jpg","1","","","","","","","","","","","","","","","","","","","","","","","","",""
"4381","","image-button-response","221","1852879","0.0-220.0-0.0","A12HZGOZQD5YK7","img_art/22.jpg","4","","","","","","","","","","","","","","","","","","","","","","","","",""
"2806","","image-button-response","222","1855687","0.0-221.0-0.0","A12HZGOZQD5YK7","img_art/22.jpg","5","","","","","","","","","","","","","","","","","","","","","","","","",""
"null","","html-keyboard-response","223","1857188","0.0-222.0","A12HZGOZQD5YK7","<p style=""font-size: 48px;"">+</p>","","","","","null","allTrialResponses","1500","1","25","img_art/22.jpg","27","I like the use of color and shapes in this","Michelle,Kelly,Cassidy,Savannah,Mariah,Jessica","Not a huge fan of the blocks, also very abstract, I have no idea what it is,8,280,20","I really enjoy the blended colors.,20,220,20","I don't really know why, I just like looking at it,10,140,20","Seems too simple.,-19,200,20","The colors are pleasant, the shapes are inviting.,21,140,20","I like the mixing of the primary colors.,8,400,20","Kelly","I really enjoy the blended colors.,20,220,20","Mariah","The colors are pleasant, the shapes are inviting.,21,140,20","Jessica","I like the mixing of the primary colors.,8,400,20","2"
"4708","","survey-text","224","1861924","0.0-223.0-0.0","A12HZGOZQD5YK7","","","","{""Q0"":""table""}","","","","","","","","","","","","","","","","","","","","","","",""
"16701","","survey-text","225","1878626","0.0-224.0-0.0","A12HZGOZQD5YK7","","","","{""Q0"":""it looks old and retro""}","","","","","","","","","","","","","","","","","","","","","","",""
"2070.9000000953674","","image-slider-response","226","1880698","0.0-225.0","A12HZGOZQD5YK7","","","","","-43","","","","","","","","","","","","","","","","","","","","","",""
"null","","image-button-response","227","1885701","0.0-226.0","A12HZGOZQD5YK7","img_art/12.jpg","null","","","","","","","","","","","","","","","","","","","","","","","","",""
"1100","","image-button-response","228","1886802","0.0-227.0","A12HZGOZQD5YK7","img_art/12.jpg","4","","","","","","","","","","","","","","","","","","","","","","","","",""
"12581","","image-button-response","229","1899386","0.0-228.0-0.0","A12HZGOZQD5YK7","img_art/12.jpg","5","","","","","","","","","","","","","","","","","","","","","","","","",""
"1696","","image-button-response","230","1901084","0.0-229.0-0.0","A12HZGOZQD5YK7","img_art/12.jpg","0","","","","","","","","","","","","","","","","","","","","","","","","",""
"null","","html-keyboard-response","231","1902586","0.0-230.0","A12HZGOZQD5YK7","<p style=""font-size: 48px;"">+</p>","","","","","null","allTrialResponses","1500","1","26","img_art/12.jpg","-43","it looks old and retro","Mackenzie,Kelly,Amber,Caroline,Mariah,Jessica","I like the color scheme.,10,20,20","It's pretty, I find it interesting to look at.,10,220,20","Like how all the colors seem to blend together.,15,200,20","I like the colors in both sections, brights compared to neutrals. Each block has a different view. I think of the future,11,100,20","It is very bland and the colors are not cohesive.,-20,140,20","I like this concept.,11,400,20","Mariah","It is very bland and the colors are not cohesive.,-20,140,20","Jessica","I like this concept.,11,400,20","Mackenzie","I like the color scheme.,10,20,20","2"
"11159","","survey-text","232","1913750","0.0-231.0-0.0","A12HZGOZQD5YK7","","","","{""Q0"":""reminds me of blood and injuries""}","","","","","","","","","","","","","","","","","","","","","","",""
"3444.7999997138977","","image-slider-response","233","1917196","0.0-232.0","A12HZGOZQD5YK7","","","","","-19","","","","","","","","","","","","","","","","","","","","","",""
"null","","image-button-response","234","1922200","0.0-233.0","A12HZGOZQD5YK7","img_art/3.jpg","null","","","","","","","","","","","","","","","","","","","","","","","","",""
"6515","","image-button-response","235","1928719","0.0-234.0","A12HZGOZQD5YK7","img_art/3.jpg","3","","","","","","","","","","","","","","","","","","","","","","","","",""
"7425","","image-button-response","236","1936146","0.0-235.0-0.0","A12HZGOZQD5YK7","img_art/3.jpg","2","","","","","","","","","","","","","","","","","","","","","","","","",""
"6756","","image-button-response","237","1942905","0.0-236.0-0.0","A12HZGOZQD5YK7","img_art/3.jpg","5","","","","","","","","","","","","","","","","","","","","","","","","",""
"null","","html-keyboard-response","238","1944408","0.0-237.0","A12HZGOZQD5YK7","<p style=""font-size: 48px;"">+</p>","","","","","null","allTrialResponses","1500","1","27","img_art/3.jpg","-19","reminds me of blood and injuries","Mackenzie,Katelyn,Elizabeth,Kimberly,Mariah,Jessica","I like the simplicity of it.,20,20,20","No substance or feeling to it,-20,100,20","It doesn't invoke any excitement,-21,20,20","I like that it feels kind of simple but still chaotic,6,260,20","The composition keeps the eye moving, the colors are satisfying.,31,140,20","Don't get the scribbles.,-13,400,20","Kimberly","I like that it feels kind of simple but still chaotic,6,260,20","Elizabeth","It doesn't invoke any excitement,-21,20,20","Jessica","Don't get the scribbles.,-13,400,20","2"
"21313","","survey-text","239","1965727","0.0-238.0-0.0","A12HZGOZQD5YK7","","","","{""Q0"":""so many things going on, faces, buildings, arches, trees, water. I like it.""}","","","","","","","","","","","","","","","","","","","","","","",""
"3025","","image-slider-response","240","1968753","0.0-239.0","A12HZGOZQD5YK7","","","","","45","","","","","","","","","","","","","","","","","","","","","",""
"null","","image-button-response","241","1973755","0.0-240.0","A12HZGOZQD5YK7","img_art/8.jpg","null","","","","","","","","","","","","","","","","","","","","","","","","",""
"1348","","image-button-response","242","1975107","0.0-241.0","A12HZGOZQD5YK7","img_art/8.jpg","2","","","","","","","","","","","","","","","","","","","","","","","","",""
"2263","","image-button-response","243","1977371","0.0-242.0-0.0","A12HZGOZQD5YK7","img_art/8.jpg","4","","","","","","","","","","","","","","","","","","","","","","","","",""
"2140","","image-button-response","244","1979513","0.0-243.0-0.0","A12HZGOZQD5YK7","img_art/8.jpg","5","","","","","","","","","","","","","","","","","","","","","","","","",""
"null","","html-keyboard-response","245","1981014","0.0-244.0","A12HZGOZQD5YK7","<p style=""font-size: 48px;"">+</p>","","","","","null","allTrialResponses","1500","1","28","img_art/8.jpg","45","so many things going on, faces, buildings, arches, trees, water. I like it.","Melissa,Amy,Elizabeth,Kimberly,Isabella,Jessica","crisp shapes, find more things the longer you look,17,240,20","The definition and the colors give make this painting accessible and thought provoking.,30,220,20","Very unique and different,31,20,20","Feels very 90's but I like the doorway,15,260,20","Ancient city looked after by diety,38,280,20","Very cool! I like this piece,9,400,20","Elizabeth","Very unique and different,31,20,20","Isabella","Ancient city looked after by diety,38,280,20","Jessica","Very cool! I like this piece,9,400,20","2"
"21337","","survey-text","246","2002357","0.0-245.0-0.0","A12HZGOZQD5YK7","","","","{""Q0"":""looks like a bird with no head. odd but still interesting""}","","","","","","","","","","","","","","","","","","","","","","",""
"4240.699999809265","","image-slider-response","247","2006601","0.0-246.0","A12HZGOZQD5YK7","","","","","12","","","","","","","","","","","","","","","","","","","","","",""
"4309","","image-button-response","248","2011604","0.0-247.0","A12HZGOZQD5YK7","img_art/6.jpg","0","","","","","","","","","","","","","","","","","","","","","","","","",""
"579","","image-button-response","249","2012185","0.0-248.0","A12HZGOZQD5YK7","img_art/6.jpg","0","","","","","","","","","","","","","","","","","","","","","","","","",""
"9011","","image-button-response","250","2021197","0.0-249.0-0.0","A12HZGOZQD5YK7","img_art/6.jpg","2","","","","","","","","","","","","","","","","","","","","","","","","",""
"2677","","image-button-response","251","2023877","0.0-250.0-0.0","A12HZGOZQD5YK7","img_art/6.jpg","4","","","","","","","","","","","","","","","","","","","","","","","","",""
"null","","html-keyboard-response","252","2024381","0.0-251.0","A12HZGOZQD5YK7","<p style=""font-size: 48px;"">+</p>","","","","","null","allTrialResponses","500","1","29","img_art/6.jpg","12","looks like a bird with no head. odd but still interesting","Angelica,Vanessa,Elizabeth,Briana,Isabella,Jessica","It feels sad but it's nice to look at.,4,280,20","I don't like the colors and the dark shape at the top makes me think of a buzzard.,-28,380,20","Love the simplicity of it,41,20,20","Close up peach? Hate it,-16,400,20","A bird standing in the sun,37,280,20","Is this a leaf?,4,400,20","Angelica","It feels sad but it's nice to look at.,4,280,20","Elizabeth","Love the simplicity of it,41,20,20","Isabella","A bird standing in the sun,37,280,20","2"
"13780","","survey-text","253","2038168","0.0-252.0-0.0","A12HZGOZQD5YK7","","","","{""Q0"":""it's too drab and bland""}","","","","","","","","","","","","","","","","","","","","","","",""
"2429.4000000953674","","image-slider-response","254","2040600","0.0-253.0","A12HZGOZQD5YK7","","","","","-38","","","","","","","","","","","","","","","","","","","","","",""
"1937","","image-button-response","255","2045603","0.0-254.0","A12HZGOZQD5YK7","img_art/28.jpg","0","","","","","","","","","","","","","","","","","","","","","","","","",""
"1525","","image-button-response","256","2047130","0.0-255.0","A12HZGOZQD5YK7","img_art/28.jpg","2","","","","","","","","","","","","","","","","","","","","","","","","",""
"6102","","image-button-response","257","2053235","0.0-256.0-0.0","A12HZGOZQD5YK7","img_art/28.jpg","1","","","","","","","","","","","","","","","","","","","","","","","","",""
"1324","","image-button-response","258","2054561","0.0-257.0-0.0","A12HZGOZQD5YK7","img_art/28.jpg","0","","","","","","","","","","","","","","","","","","","","","","","","",""
"null","","html-keyboard-response","259","2055562","0.0-258.0","A12HZGOZQD5YK7","<p style=""font-size: 48px;"">+</p>","","","","","null","allTrialResponses","1000","1","30","img_art/28.jpg","-38","it's too drab and bland","Angelica,Alexandra,Elizabeth,Dominique,Isabella,Miranda","This is very ugly with poor colors.,-23,280,20","Boring, looks like it belongs in a coffee shop,-20,60,20","Not really exciting,23,20,20","This is one of my favorites. It says to me to take time for people,37,400,20","This is also something I would see in a serious but safe environment,14,280,20","This one looks very dark and seems like it has a lot of depth to it.,31,320,20","Elizabeth","Not really exciting,23,20,20","Alexandra","Boring, looks like it belongs in a coffee shop,-20,60,20","Angelica","This is very ugly with poor colors.,-23,280,20","2"
"3875","","image-button-response_instructions","260","2059448","0.0-259.0","A12HZGOZQD5YK7","","0","instructions","","","","","","","","","","","","","","","","","","","","","","","",""
"1214","","image-button-response","261","2060666","0.0-260.0","A12HZGOZQD5YK7","","0","","","","","","","","","","","","","","","","","","","","","","","","",""
