"rt","url","trial_type","trial_index","time_elapsed","internal_node_id","participant_id","stimulus","button_pressed","Name","responses","response","key_press","variableName","fixationTime","condition","trial","photo","subjectRating","subjectResponse","agentsNames","agent_1_Response","agent_2_Response","agent_3_Response","agent_4_Response","agent_5_Response","agent_6_Response","kept_1_name","kept_1_response","kept_2_name","kept_2_response","kept_3_name","kept_3_response","errorCounter"
"11200","external_page_harvard.html","external-html","0","11293","0.0-0.0","A12TFFS6M9TOVF","","","","","","","","","","","","","","","","","","","","","","","","","","",""
"1726","","image-button-response","1","13020","0.0-1.0","A12TFFS6M9TOVF","","0","","","","","","","","","","","","","","","","","","","","","","","","",""
"1716","","image-button-response","2","14740","0.0-2.0-0.0","A12TFFS6M9TOVF","","1","phone","","","","","","","","","","","","","","","","","","","","","","","",""
"6299","","survey-text","3","21040","0.0-3.0-0.0","A12TFFS6M9TOVF","","","","{""Q0"":""A12TFFS6M9TOVF""}","","","","","","","","","","","","","","","","","","","","","","",""
"15289","","image-button-response_instructions","4","36330","0.0-4.0","A12TFFS6M9TOVF","","0","instructions","","","","","","","","","","","","","","","","","","","","","","","",""
"12208","","image-button-response_instructions","5","48540","0.0-5.0","A12TFFS6M9TOVF","img_art/ins/popularity/ins1.png","0","instructions","","","","","","","","","","","","","","","","","","","","","","","",""
"4647","","image-button-response_instructions","6","53188","0.0-6.0","A12TFFS6M9TOVF","img_art/ins/popularity/ins2.png","0","instructions","","","","","","","","","","","","","","","","","","","","","","","",""
"6779","","image-button-response_instructions","7","59967","0.0-7.0","A12TFFS6M9TOVF","img_art/ins/popularity/ins2Extreme.png","0","instructions","","","","","","","","","","","","","","","","","","","","","","","",""
"20955","","image-button-response_instructions","8","80923","0.0-8.0","A12TFFS6M9TOVF","img_art/ins/popularity/ins3KEEPpop.PNG","0","instructions","","","","","","","","","","","","","","","","","","","","","","","",""
"3157","","image-button-response_instructions","9","84081","0.0-9.0","A12TFFS6M9TOVF","img_art/ins/popularity/ins3ANamepop.PNG","0","instructions","","","","","","","","","","","","","","","","","","","","","","","",""
"2862","","image-button-response_instructions","10","86943","0.0-10.0","A12TFFS6M9TOVF","img_art/ins/popularity/ins3ARatingpop.png","0","instructions","","","","","","","","","","","","","","","","","","","","","","","",""
"2038","","image-button-response_instructions","11","88981","0.0-11.0","A12TFFS6M9TOVF","img_art/ins/popularity/ins3ATextpop.png","0","instructions","","","","","","","","","","","","","","","","","","","","","","","",""
"6840","","image-button-response_instructions","12","95821","0.0-12.0","A12TFFS6M9TOVF","img_art/ins/popularity/ins3ALikespop.png","0","instructions","","","","","","","","","","","","","","","","","","","","","","","",""
"21559","","image-button-response_instructions","13","117381","0.0-13.0","A12TFFS6M9TOVF","img_art/ins/popularity/ins3KEEPpop.PNG","0","instructions","","","","","","","","","","","","","","","","","","","","","","","",""
"9467","","image-button-response_instructions","14","126850","0.0-14.0","A12TFFS6M9TOVF","img_art/ins/popularity/ins3_5RED.png","0","instructions","","","","","","","","","","","","","","","","","","","","","","","",""
"3923","","image-button-response_instructions","15","130773","0.0-15.0","A12TFFS6M9TOVF","img_art/ins/popularity/ins3KEEPpop.PNG","0","instructions","","","","","","","","","","","","","","","","","","","","","","","",""
"11163","","image-button-response_instructions","16","141937","0.0-16.0","A12TFFS6M9TOVF","img_art/ins/popularity/ins4KEEPpop.PNG","0","instructions","","","","","","","","","","","","","","","","","","","","","","","",""
"5787","","image-button-response_instructions","17","147726","0.0-17.0","A12TFFS6M9TOVF","img_art/ins/popularity/ins5KEEPpop.PNG","0","instructions","","","","","","","","","","","","","","","","","","","","","","","",""
"1845","","image-button-response_instructions","18","149571","0.0-18.0","A12TFFS6M9TOVF","","0","instructions","","","","","","","","","","","","","","","","","","","","","","","",""
"7753","","survey-text","19","157339","0.0-19.0-0.0","A12TFFS6M9TOVF","","","","{""Q0"":""but""}","","","","","","","","","","","","","","","","","","","","","","",""
"14469","","survey-text","20","171809","0.0-20.0-0.0","A12TFFS6M9TOVF","","","","{""Q0"":""It just looks like a mash of colors to me.""}","","","","","","","","","","","","","","","","","","","","","","",""
"7524.4000000059605","","image-slider-response","21","179335","0.0-21.0","A12TFFS6M9TOVF","","","","","-15","","","","","","","","","","","","","","","","","","","","","",""
"null","","image-button-response","22","184339","0.0-22.0","A12TFFS6M9TOVF","img_art/ins/1.jpg","null","","","","","","","","","","","","","","","","","","","","","","","","",""
"3878","","image-button-response","23","188217","0.0-23.0","A12TFFS6M9TOVF","img_art/ins/1.jpg","0","","","","","","","","","","","","","","","","","","","","","","","","",""
"2369","","image-button-response","24","190588","0.0-24.0-0.0","A12TFFS6M9TOVF","img_art/ins/1.jpg","2","","","","","","","","","","","","","","","","","","","","","","","","",""
"6162","","image-button-response","25","196751","0.0-25.0-0.0","A12TFFS6M9TOVF","img_art/ins/1.jpg","3","","","","","","","","","","","","","","","","","","","","","","","","",""
"null","","html-keyboard-response","26","198254","0.0-26.0","A12TFFS6M9TOVF","<p style=""font-size: 48px;"">+</p>","","","","","null","allTrialResponses","1500","1","-2","img_art/ins/1.jpg","-15","It just looks like a mash of colors to me.","Adam,Alex,Ben,Carl,Daniel,Jack","Seems like doodles,-20,20,20","very creative work.,36,40,20","This color reminds me of poo,-46,60,20","very calming artwork,42,80,20","It looks like a murder scene.,-48,100,20","I like the sophisticated brushwork,40,120,20","Adam","Seems like doodles,-20,20,20","Ben","This color reminds me of poo,-46,60,20","Carl","very calming artwork,42,80,20","0"
"33263","","survey-text","27","231519","0.0-27.0-0.0","A12TFFS6M9TOVF","","","","{""Q0"":""Looks like random brushstrokes or pieces of colored tape on a wall.""}","","","","","","","","","","","","","","","","","","","","","","",""
"4210.5","","image-slider-response","28","235731","0.0-28.0","A12TFFS6M9TOVF","","","","","-20","","","","","","","","","","","","","","","","","","","","","",""
"null","","image-button-response","29","240733","0.0-29.0","A12TFFS6M9TOVF","img_art/ins/2.jpg","null","","","","","","","","","","","","","","","","","","","","","","","","",""
"3086","","image-button-response","30","243820","0.0-30.0","A12TFFS6M9TOVF","img_art/ins/2.jpg","5","","","","","","","","","","","","","","","","","","","","","","","","",""
"4616","","image-button-response","31","248438","0.0-31.0-0.0","A12TFFS6M9TOVF","img_art/ins/2.jpg","2","","","","","","","","","","","","","","","","","","","","","","","","",""
"2266","","image-button-response","32","250706","0.0-32.0-0.0","A12TFFS6M9TOVF","img_art/ins/2.jpg","0","","","","","","","","","","","","","","","","","","","","","","","","",""
"null","","html-keyboard-response","33","251208","0.0-33.0","A12TFFS6M9TOVF","<p style=""font-size: 48px;"">+</p>","","","","","null","allTrialResponses","500","1","-1","img_art/ins/2.jpg","-20","Looks like random brushstrokes or pieces of colored tape on a wall.","Adam,James,Ben,Carl,John,Kyle","too much color,-18,20,20","looks too angry,-50,140,20","meaningless painting,-45,60,20","I can feel the artist's passion in it,45,80,20","love the texture of paint,48,160,20","Idk, it is just annoying,-32,180,20","Kyle","Idk, it is just annoying,-32,180,20","Ben","meaningless painting,-45,60,20","Adam","too much color,-18,20,20","0"
"22077","","survey-text","34","273288","0.0-34.0-0.0","A12TFFS6M9TOVF","","","","{""Q0"":""Random mix of paint strokes that have an \""icy\"" feel to them.""}","","","","","","","","","","","","","","","","","","","","","","",""
"11796.70000000298","","image-slider-response","35","285086","0.0-35.0","A12TFFS6M9TOVF","","","","","5","","","","","","","","","","","","","","","","","","","","","",""
"null","","image-button-response","36","290088","0.0-36.0","A12TFFS6M9TOVF","img_art/ins/3.jpg","null","","","","","","","","","","","","","","","","","","","","","","","","",""
"2621","","image-button-response","37","292710","0.0-37.0","A12TFFS6M9TOVF","img_art/ins/3.jpg","3","","","","","","","","","","","","","","","","","","","","","","","","",""
"1396","","image-button-response","38","294108","0.0-38.0-0.0","A12TFFS6M9TOVF","img_art/ins/3.jpg","5","","","","","","","","","","","","","","","","","","","","","","","","",""
"3340","","image-button-response","39","297450","0.0-39.0-0.0","A12TFFS6M9TOVF","img_art/ins/3.jpg","1","","","","","","","","","","","","","","","","","","","","","","","","",""
"null","","html-keyboard-response","40","298952","0.0-40.0","A12TFFS6M9TOVF","<p style=""font-size: 48px;"">+</p>","","","","","null","allTrialResponses","1500","1","0","img_art/ins/3.jpg","5","Random mix of paint strokes that have an ""icy"" feel to them.","Adam,Sam,Ben,Mike,Ron,Kyle","My daily routine, it's depressing,-20,20,20","I can feel a rainy day from this painting,18,240,20","This thing gives me anxiety,-41,60,20","enjoy the different shades of blue,22,200,20","It looks depressing,-26,220,20","It looks like a playground for bats,-36,180,20","Mike","enjoy the different shades of blue,22,200,20","Kyle","It looks like a playground for bats,-36,180,20","Sam","I can feel a rainy day from this painting,18,240,20","0"
"17492","","image-button-response_instructions","41","316447","0.0-41.0","A12TFFS6M9TOVF","","0","instructions","","","","","","","","","","","","","","","","","","","","","","","",""
"13951","","survey-likert","42","330399","0.0-42.0-0.0","A12TFFS6M9TOVF","","","","{""Q0"":"""",""Q1"":0,""Q2"":1}","","","","","","","","","","","","","","","","","","","","","","",""
"5036","","survey-text","43","335439","0.0-43.0-0.0","A12TFFS6M9TOVF","","","","{""Q0"":""rock""}","","","","","","","","","","","","","","","","","","","","","","",""
"17355","","survey-text","44","352795","0.0-44.0-0.0","A12TFFS6M9TOVF","","","","{""Q0"":""Looks like a bird standing in a desert""}","","","","","","","","","","","","","","","","","","","","","","",""
"2872.9000000059605","","image-slider-response","45","355669","0.0-45.0","A12TFFS6M9TOVF","","","","","-5","","","","","","","","","","","","","","","","","","","","","",""
"null","","image-button-response","46","360682","0.0-46.0","A12TFFS6M9TOVF","img_art/6.jpg","null","","","","","","","","","","","","","","","","","","","","","","","","",""
"2799","","image-button-response","47","363483","0.0-47.0","A12TFFS6M9TOVF","img_art/6.jpg","3","","","","","","","","","","","","","","","","","","","","","","","","",""
"3805","","image-button-response","48","367290","0.0-48.0-0.0","A12TFFS6M9TOVF","img_art/6.jpg","0","","","","","","","","","","","","","","","","","","","","","","","","",""
"10362","","image-button-response","49","377654","0.0-49.0-0.0","A12TFFS6M9TOVF","img_art/6.jpg","1","","","","","","","","","","","","","","","","","","","","","","","","",""
"null","","html-keyboard-response","50","378156","0.0-50.0","A12TFFS6M9TOVF","<p style=""font-size: 48px;"">+</p>","","","","","null","allTrialResponses","500","1","1","img_art/6.jpg","-5","Looks like a bird standing in a desert","Samuel,Taylor,Jose,Connor,Kevin,Devin","surviving the dryness of life,30,400,20","A crow on one leg?,-10,200,20","This could be so many different things. I saw a bird first but then it looks like a needle going into skin,34,200,20","Blackbird in the desert,27,240,20","Its the headless bird. But why?,21,320,20","Looks a bit like a pickle or something?,-16,380,20","Connor","Blackbird in the desert,27,240,20","Samuel","surviving the dryness of life,30,400,20","Taylor","A crow on one leg?,-10,200,20","0"
"24152","","survey-text","51","402311","0.0-51.0-0.0","A12TFFS6M9TOVF","","","","{""Q0"":""Looks like an aerial photo of a rocky desert area.""}","","","","","","","","","","","","","","","","","","","","","","",""
"7214.9000000059605","","image-slider-response","52","409527","0.0-52.0","A12TFFS6M9TOVF","","","","","10","","","","","","","","","","","","","","","","","","","","","",""
"3407","","image-button-response","53","414530","0.0-53.0","A12TFFS6M9TOVF","img_art/7.jpg","0","","","","","","","","","","","","","","","","","","","","","","","","",""
"3060","","image-button-response","54","417591","0.0-54.0","A12TFFS6M9TOVF","img_art/7.jpg","1","","","","","","","","","","","","","","","","","","","","","","","","",""
"1051","","image-button-response","55","418644","0.0-55.0-0.0","A12TFFS6M9TOVF","img_art/7.jpg","5","","","","","","","","","","","","","","","","","","","","","","","","",""
"1555","","image-button-response","56","420200","0.0-56.0-0.0","A12TFFS6M9TOVF","img_art/7.jpg","0","","","","","","","","","","","","","","","","","","","","","","","","",""
"null","","html-keyboard-response","57","421701","0.0-57.0","A12TFFS6M9TOVF","<p style=""font-size: 48px;"">+</p>","","","","","null","allTrialResponses","1500","1","2","img_art/7.jpg","10","Looks like an aerial photo of a rocky desert area.","Samuel,Taylor,Justin,Connor,Victor,Colton","looking down on earth,19,400,20","Looks like a photo taken from the moon.,-6,200,20","It looks like a wall, not really something I'd enjoy looking at.,-12,280,20","Color is bland and looks damaged,-37,240,20","I like the texture,12,340,20","reminds me of a cave wall,-21,220,20","Taylor","Looks like a photo taken from the moon.,-6,200,20","Colton","reminds me of a cave wall,-21,220,20","Samuel","looking down on earth,19,400,20","0"
"43225","","survey-text","58","464929","0.0-58.0-0.0","A12TFFS6M9TOVF","","","","{""Q0"":""It's extra blurry so you can imagine more things.""}","","","","","","","","","","","","","","","","","","","","","","",""
"4368.899999991059","","image-slider-response","59","469299","0.0-59.0","A12TFFS6M9TOVF","","","","","-11","","","","","","","","","","","","","","","","","","","","","",""
"null","","image-button-response","60","474301","0.0-60.0","A12TFFS6M9TOVF","img_art/20.jpg","null","","","","","","","","","","","","","","","","","","","","","","","","",""
"4112","","image-button-response","61","478413","0.0-61.0","A12TFFS6M9TOVF","img_art/20.jpg","5","","","","","","","","","","","","","","","","","","","","","","","","",""
"4087","","image-button-response","62","482501","0.0-62.0-0.0","A12TFFS6M9TOVF","img_art/20.jpg","0","","","","","","","","","","","","","","","","","","","","","","","","",""
"4049","","image-button-response","63","486551","0.0-63.0-0.0","A12TFFS6M9TOVF","img_art/20.jpg","1","","","","","","","","","","","","","","","","","","","","","","","","",""
"null","","html-keyboard-response","64","487054","0.0-64.0","A12TFFS6M9TOVF","<p style=""font-size: 48px;"">+</p>","","","","","null","allTrialResponses","500","1","3","img_art/20.jpg","-11","It's extra blurry so you can imagine more things.","Samuel,Taylor,Travis,Eric,Michael,Colton","crash after traffic causing grief,-11,400,20","Not bad for all the southwestern people.,15,200,20","I liked this...I liked the blue and the black and I liked the smoothness to it.,31,260,20","I love the color choice.,25,100,20","Brings about an emotion response of dspair. Loose lines but yet has a cohesion.,8,140,20","reminds me of Salvadore Dali,24,220,20","Colton","reminds me of Salvadore Dali,24,220,20","Samuel","crash after traffic causing grief,-11,400,20","Taylor","Not bad for all the southwestern people.,15,200,20","0"
"21935","","survey-text","65","508991","0.0-65.0-0.0","A12TFFS6M9TOVF","","","","{""Q0"":""Like a man walking through some trippy town.""}","","","","","","","","","","","","","","","","","","","","","","",""
"4010.7000000029802","","image-slider-response","66","513003","0.0-66.0","A12TFFS6M9TOVF","","","","","-10","","","","","","","","","","","","","","","","","","","","","",""
"null","","image-button-response","67","518006","0.0-67.0","A12TFFS6M9TOVF","img_art/19.jpg","null","","","","","","","","","","","","","","","","","","","","","","","","",""
"1643","","image-button-response","68","519649","0.0-68.0","A12TFFS6M9TOVF","img_art/19.jpg","1","","","","","","","","","","","","","","","","","","","","","","","","",""
"4898","","image-button-response","69","524549","0.0-69.0-0.0","A12TFFS6M9TOVF","img_art/19.jpg","5","","","","","","","","","","","","","","","","","","","","","","","","",""
"2559","","image-button-response","70","527109","0.0-70.0-0.0","A12TFFS6M9TOVF","img_art/19.jpg","3","","","","","","","","","","","","","","","","","","","","","","","","",""
"null","","html-keyboard-response","71","528611","0.0-71.0","A12TFFS6M9TOVF","<p style=""font-size: 48px;"">+</p>","","","","","null","allTrialResponses","1500","1","4","img_art/19.jpg","-10","Like a man walking through some trippy town.","Samuel,Taylor,Jorge,Tanner,Alexis,Colton","city life energy,8,400,20","Looks like a homeless man and this painting should be too.,-5,200,20","confused and emotional,-4,180,20","city, stress of urbanism, slightly panicked,2,180,20","it looks messy and non-unique.,-9,140,20","way too much going on,-33,220,20","Taylor","Looks like a homeless man and this painting should be too.,-5,200,20","Colton","way too much going on,-33,220,20","Tanner","city, stress of urbanism, slightly panicked,2,180,20","0"
"21275","","survey-text","72","549889","0.0-72.0-0.0","A12TFFS6M9TOVF","","","","{""Q0"":""What happens when you never cut your finger nails.""}","","","","","","","","","","","","","","","","","","","","","","",""
"5912.699999988079","","image-slider-response","73","555803","0.0-73.0","A12TFFS6M9TOVF","","","","","-16","","","","","","","","","","","","","","","","","","","","","",""
"null","","image-button-response","74","560805","0.0-74.0","A12TFFS6M9TOVF","img_art/4.jpg","null","","","","","","","","","","","","","","","","","","","","","","","","",""
"1158","","image-button-response","75","561963","0.0-75.0","A12TFFS6M9TOVF","img_art/4.jpg","2","","","","","","","","","","","","","","","","","","","","","","","","",""
"2173","","image-button-response","76","564137","0.0-76.0-0.0","A12TFFS6M9TOVF","img_art/4.jpg","4","","","","","","","","","","","","","","","","","","","","","","","","",""
"10159","","image-button-response","77","574297","0.0-77.0-0.0","A12TFFS6M9TOVF","img_art/4.jpg","5","","","","","","","","","","","","","","","","","","","","","","","","",""
"null","","html-keyboard-response","78","575799","0.0-78.0","A12TFFS6M9TOVF","<p style=""font-size: 48px;"">+</p>","","","","","null","allTrialResponses","1500","1","5","img_art/4.jpg","-16","What happens when you never cut your finger nails.","Vincent,Taylor,Jack,Tanner,Tristan,Colton","I like it not sure much of how I feel about it,7,360,20","They give out trophies now for fighting with brass knuckles?,-20,200,20","creepy, looks like a deformed hand, but the background is pretty,5,320,20","stresses me out, uncomfortable,-18,180,20","disturbing and uncomfortable.,10,300,20","I really don't like the colors,-26,220,20","Jack","creepy, looks like a deformed hand, but the background is pretty,5,320,20","Tristan","disturbing and uncomfortable.,10,300,20","Colton","I really don't like the colors,-26,220,20","0"
"4790","","survey-text","79","580593","0.0-79.0-0.0","A12TFFS6M9TOVF","","","","{""Q0"":""sky""}","","","","","","","","","","","","","","","","","","","","","","",""
"25357","","survey-text","80","605951","0.0-80.0-0.0","A12TFFS6M9TOVF","","","","{""Q0"":""Like a wall that's been repainted every color possible""}","","","","","","","","","","","","","","","","","","","","","","",""
"3746.7999999970198","","image-slider-response","81","609699","0.0-81.0","A12TFFS6M9TOVF","","","","","-11","","","","","","","","","","","","","","","","","","","","","",""
"null","","image-button-response","82","614700","0.0-82.0","A12TFFS6M9TOVF","img_art/1.jpg","null","","","","","","","","","","","","","","","","","","","","","","","","",""
"2701","","image-button-response","83","617403","0.0-83.0","A12TFFS6M9TOVF","img_art/1.jpg","0","","","","","","","","","","","","","","","","","","","","","","","","",""
"1840","","image-button-response","84","619245","0.0-84.0-0.0","A12TFFS6M9TOVF","img_art/1.jpg","0","","","","","","","","","","","","","","","","","","","","","","","","",""
"4507","","image-button-response","85","627023","0.0-84.1-0.1","A12TFFS6M9TOVF","img_art/1.jpg","3","","","","","","","","","","","","","","","","","","","","","","","","",""
"5264","","image-button-response","86","632289","0.0-85.0-0.0","A12TFFS6M9TOVF","img_art/1.jpg","2","","","","","","","","","","","","","","","","","","","","","","","","",""
"null","","html-keyboard-response","87","633291","0.0-86.0","A12TFFS6M9TOVF","<p style=""font-size: 48px;"">+</p>","","","","","null","allTrialResponses","1000","1","6","img_art/1.jpg","-11","Like a wall that's been repainted every color possible","Brian,Joseph,Jack,Trevor,Tristan,Colton","I don't feel like much is happening in this painting,-25,380,20","Happy! Reminds me of hiking in tennesee.,18,220,20","beautiful colors and brush strokes,47,320,20","nice colors but kinds of blah,1,280,20","Unpleasing palette. I see a figure but it seems incongrous to the highly abstract background.,-20,300,20","the colors are nice,8,220,20","Brian","I don't feel like much is happening in this painting,-25,380,20","Trevor","nice colors but kinds of blah,1,280,20","Jack","beautiful colors and brush strokes,47,320,20","2"
"33419","","survey-text","88","666712","0.0-87.0-0.0","A12TFFS6M9TOVF","","","","{""Q0"":""Some weird can can lineup against a background of puzzle pieces""}","","","","","","","","","","","","","","","","","","","","","","",""
"3486.9000000059605","","image-slider-response","89","670200","0.0-88.0","A12TFFS6M9TOVF","","","","","-10","","","","","","","","","","","","","","","","","","","","","",""
"4981","","image-button-response","90","675202","0.0-89.0","A12TFFS6M9TOVF","img_art/23.jpg","0","","","","","","","","","","","","","","","","","","","","","","","","",""
"6809","","image-button-response","91","682013","0.0-90.0","A12TFFS6M9TOVF","img_art/23.jpg","4","","","","","","","","","","","","","","","","","","","","","","","","",""
"1644","","image-button-response","92","683659","0.0-91.0-0.0","A12TFFS6M9TOVF","img_art/23.jpg","2","","","","","","","","","","","","","","","","","","","","","","","","",""
"1548","","image-button-response","93","685209","0.0-92.0-0.0","A12TFFS6M9TOVF","img_art/23.jpg","0","","","","","","","","","","","","","","","","","","","","","","","","",""
"null","","html-keyboard-response","94","685711","0.0-93.0","A12TFFS6M9TOVF","<p style=""font-size: 48px;"">+</p>","","","","","null","allTrialResponses","500","1","7","img_art/23.jpg","-10","Some weird can can lineup against a background of puzzle pieces","Brian,Jeremy,Jack,Trevor,Ryan,Alexander","this looks like a pop rock album cover,-10,380,20","Does not incite any emotional response,1,60,20","awesome colors. love the white drawing the eye to the center. oddly comforting.,50,320,20","nice bright colors but looks like it's from the 90's,6,280,20","One of my favorites, love the colors and how the white looks like humans,50,380,20","Unicorns flying through a colorful space.,25,120,20","Ryan","One of my favorites, love the colors and how the white looks like humans,50,380,20","Jack","awesome colors. love the white drawing the eye to the center. oddly comforting.,50,320,20","Brian","this looks like a pop rock album cover,-10,380,20","2"
"24781","","survey-text","95","710494","0.0-94.0-0.0","A12TFFS6M9TOVF","","","","{""Q0"":""A pleasant stream in a flowery garden.""}","","","","","","","","","","","","","","","","","","","","","","",""
"4014.9000000059605","","image-slider-response","96","714510","0.0-95.0","A12TFFS6M9TOVF","","","","","5","","","","","","","","","","","","","","","","","","","","","",""
"null","","image-button-response","97","719513","0.0-96.0","A12TFFS6M9TOVF","img_art/24.jpg","null","","","","","","","","","","","","","","","","","","","","","","","","",""
"5976","","image-button-response","98","725491","0.0-97.0","A12TFFS6M9TOVF","img_art/24.jpg","2","","","","","","","","","","","","","","","","","","","","","","","","",""
"2003","","image-button-response","99","727495","0.0-98.0-0.0","A12TFFS6M9TOVF","img_art/24.jpg","5","","","","","","","","","","","","","","","","","","","","","","","","",""
"2488","","image-button-response","100","729985","0.0-99.0-0.0","A12TFFS6M9TOVF","img_art/24.jpg","4","","","","","","","","","","","","","","","","","","","","","","","","",""
"null","","html-keyboard-response","101","731487","0.0-100.0","A12TFFS6M9TOVF","<p style=""font-size: 48px;"">+</p>","","","","","null","allTrialResponses","1500","1","8","img_art/24.jpg","5","A pleasant stream in a flowery garden.","Brian,Benjamin,Jack,Brett,Ryan,Shane","it's a nice stream, but I don't care for plain nature,-15,380,20","peaceful and calm yet joyous.,50,260,20","colors are a bit cramped together. really unique take on a waterfall though.,32,320,20","Forest waterfall,40,360,20","Beautiful,  peaceful,50,380,20","A peaceful day by the river,42,80,20","Jack","colors are a bit cramped together. really unique take on a waterfall though.,32,320,20","Shane","A peaceful day by the river,42,80,20","Ryan","Beautiful,  peaceful,50,380,20","2"
"31703","","survey-text","102","763193","0.0-101.0-0.0","A12TFFS6M9TOVF","","","","{""Q0"":""The baby puke green is too overbearing.""}","","","","","","","","","","","","","","","","","","","","","","",""
"4692.800000011921","","image-slider-response","103","767887","0.0-102.0","A12TFFS6M9TOVF","","","","","-23","","","","","","","","","","","","","","","","","","","","","",""
"2224","","image-button-response","104","772888","0.0-103.0","A12TFFS6M9TOVF","img_art/2.jpg","0","","","","","","","","","","","","","","","","","","","","","","","","",""
"3133","","image-button-response","105","776023","0.0-104.0","A12TFFS6M9TOVF","img_art/2.jpg","3","","","","","","","","","","","","","","","","","","","","","","","","",""
"4395","","image-button-response","106","780419","0.0-105.0-0.0","A12TFFS6M9TOVF","img_art/2.jpg","2","","","","","","","","","","","","","","","","","","","","","","","","",""
"984","","image-button-response","107","781405","0.0-106.0-0.0","A12TFFS6M9TOVF","img_art/2.jpg","0","","","","","","","","","","","","","","","","","","","","","","","","",""
"null","","html-keyboard-response","108","782907","0.0-107.0","A12TFFS6M9TOVF","<p style=""font-size: 48px;"">+</p>","","","","","null","allTrialResponses","1500","1","9","img_art/2.jpg","-23","The baby puke green is too overbearing.","Jake,Tyler,Jack,Kenneth,Ryan,Shane","These colors are ugly.,-40,360,20","Grim and overwhelming,-6,320,20","the colors are a bit odd, and the squiggly line at the top is distracting,0,320,20","I cant tell whats happening here and that shade of green is just not my thing.,-17,300,20","Very simple and childish,40,380,20","Feels like a playground or park vibe,27,80,20","Kenneth","I cant tell whats happening here and that shade of green is just not my thing.,-17,300,20","Jack","the colors are a bit odd, and the squiggly line at the top is distracting,0,320,20","Jake","These colors are ugly.,-40,360,20","2"
"22375","","survey-text","109","805284","0.0-108.0-0.0","A12TFFS6M9TOVF","","","","{""Q0"":""Obviously abstract but still visually pleasing""}","","","","","","","","","","","","","","","","","","","","","","",""
"4290.899999991059","","image-slider-response","110","809576","0.0-109.0","A12TFFS6M9TOVF","","","","","25","","","","","","","","","","","","","","","","","","","","","",""
"null","","image-button-response","111","814578","0.0-110.0","A12TFFS6M9TOVF","img_art/8.jpg","null","","","","","","","","","","","","","","","","","","","","","","","","",""
"1169","","image-button-response","112","815748","0.0-111.0","A12TFFS6M9TOVF","img_art/8.jpg","2","","","","","","","","","","","","","","","","","","","","","","","","",""
"5291","","image-button-response","113","821040","0.0-112.0-0.0","A12TFFS6M9TOVF","img_art/8.jpg","3","","","","","","","","","","","","","","","","","","","","","","","","",""
"1777","","image-button-response","114","822818","0.0-113.0-0.0","A12TFFS6M9TOVF","img_art/8.jpg","1","","","","","","","","","","","","","","","","","","","","","","","","",""
"null","","html-keyboard-response","115","823320","0.0-114.0","A12TFFS6M9TOVF","<p style=""font-size: 48px;"">+</p>","","","","","null","allTrialResponses","500","1","10","img_art/8.jpg","25","Obviously abstract but still visually pleasing","Jake,Matthew,Jack,Kenneth,Edward,Elijah","It's a poor rendition of an MC Escher inspired piece.,-25,360,20","Escher? Dali? Could be their lovechild?,50,120,20","beautiful colors & details. love the surrealism & strange angle. the faces are interesting.,50,320,20","Interesting, i really like the face and the moon. Realy detailed and you see something new with each look.,11,300,20","It's too boxy for my taste,-10,60,20","Makes me feel nice,23,80,20","Jack","beautiful colors & details. love the surrealism & strange angle. the faces are interesting.,50,320,20","Kenneth","Interesting, i really like the face and the moon. Realy detailed and you see something new with each look.,11,300,20","Matthew","Escher? Dali? Could be their lovechild?,50,120,20","2"
"3844","","survey-text","116","827168","0.0-115.0-0.0","A12TFFS6M9TOVF","","","","{""Q0"":""our""}","","","","","","","","","","","","","","","","","","","","","","",""
"26267","","survey-text","117","853436","0.0-116.0-0.0","A12TFFS6M9TOVF","","","","{""Q0"":""Looks like the kind of thing you'd scribble in kindergarten.""}","","","","","","","","","","","","","","","","","","","","","","",""
"3318.9000000059605","","image-slider-response","118","856756","0.0-117.0","A12TFFS6M9TOVF","","","","","-15","","","","","","","","","","","","","","","","","","","","","",""
"2755","","image-button-response","119","861758","0.0-118.0","A12TFFS6M9TOVF","img_art/3.jpg","0","","","","","","","","","","","","","","","","","","","","","","","","",""
"1412","","image-button-response","120","863170","0.0-119.0","A12TFFS6M9TOVF","img_art/3.jpg","0","","","","","","","","","","","","","","","","","","","","","","","","",""
"4225","","image-button-response","121","867397","0.0-120.0-0.0","A12TFFS6M9TOVF","img_art/3.jpg","4","","","","","","","","","","","","","","","","","","","","","","","","",""
"2115","","image-button-response","122","869513","0.0-121.0-0.0","A12TFFS6M9TOVF","img_art/3.jpg","3","","","","","","","","","","","","","","","","","","","","","","","","",""
"null","","html-keyboard-response","123","871014","0.0-122.0","A12TFFS6M9TOVF","<p style=""font-size: 48px;"">+</p>","","","","","null","allTrialResponses","1500","1","11","img_art/3.jpg","-15","Looks like the kind of thing you'd scribble in kindergarten.","Dylan,Matthew,Jack,Kenneth,Cameron,Miguel","I could scribble on paper and mimic this,-48,40,20","Reminds of John Lenonn's art a bit.,27,120,20","unique & stylized. interesting. another one I could keep staring at.,50,320,20","Reminds me of blood.,-28,300,20","kid scribbled on the wall again,-35,60,20","Unfocused and rushed.,-28,160,20","Dylan","I could scribble on paper and mimic this,-48,40,20","Cameron","kid scribbled on the wall again,-35,60,20","Kenneth","Reminds me of blood.,-28,300,20","2"
"22371","","survey-text","124","893388","0.0-123.0-0.0","A12TFFS6M9TOVF","","","","{""Q0"":""The green scribbles and stick figures are distracting and take away from the image""}","","","","","","","","","","","","","","","","","","","","","","",""
"4820.79999999702","","image-slider-response","125","898210","0.0-124.0","A12TFFS6M9TOVF","","","","","-11","","","","","","","","","","","","","","","","","","","","","",""
"null","","image-button-response","126","903213","0.0-125.0","A12TFFS6M9TOVF","img_art/27.jpg","null","","","","","","","","","","","","","","","","","","","","","","","","",""
"769","","image-button-response","127","903982","0.0-126.0","A12TFFS6M9TOVF","img_art/27.jpg","3","","","","","","","","","","","","","","","","","","","","","","","","",""
"3485","","image-button-response","128","907468","0.0-127.0-0.0","A12TFFS6M9TOVF","img_art/27.jpg","0","","","","","","","","","","","","","","","","","","","","","","","","",""
"4317","","image-button-response","129","911786","0.0-128.0-0.0","A12TFFS6M9TOVF","img_art/27.jpg","1","","","","","","","","","","","","","","","","","","","","","","","","",""
"null","","html-keyboard-response","130","912788","0.0-129.0","A12TFFS6M9TOVF","<p style=""font-size: 48px;"">+</p>","","","","","null","allTrialResponses","1000","1","12","img_art/27.jpg","-11","The green scribbles and stick figures are distracting and take away from the image","Dylan,Mason,Jason,Kenneth,Cameron,Malik","This is ugly and looks like a child did this,-36,40,20","dont like it, don't hate it, meh.,2,100,20","The variation of orange is nice,9,20,20","The green stick drawings or whatever they are ruin it for me.,-23,300,20","Like it, autumn colors, trees and foliage scene.,25,60,20","Nice color, but too vague,-12,40,20","Kenneth","The green stick drawings or whatever they are ruin it for me.,-23,300,20","Dylan","This is ugly and looks like a child did this,-36,40,20","Mason","dont like it, don't hate it, meh.,2,100,20","2"
"33953","","survey-text","131","946744","0.0-130.0-0.0","A12TFFS6M9TOVF","","","","{""Q0"":""It's like someone played with the smear tool and then slapped a giant X on it once they realized it didn't look good.""}","","","","","","","","","","","","","","","","","","","","","","",""
"4548.899999991059","","image-slider-response","132","951294","0.0-131.0","A12TFFS6M9TOVF","","","","","-15","","","","","","","","","","","","","","","","","","","","","",""
"null","","image-button-response","133","956296","0.0-132.0","A12TFFS6M9TOVF","img_art/29.jpg","null","","","","","","","","","","","","","","","","","","","","","","","","",""
"3929","","image-button-response","134","960226","0.0-133.0","A12TFFS6M9TOVF","img_art/29.jpg","3","","","","","","","","","","","","","","","","","","","","","","","","",""
"2003","","image-button-response","135","962230","0.0-134.0-0.0","A12TFFS6M9TOVF","img_art/29.jpg","4","","","","","","","","","","","","","","","","","","","","","","","","",""
"1623","","image-button-response","136","963854","0.0-135.0-0.0","A12TFFS6M9TOVF","img_art/29.jpg","5","","","","","","","","","","","","","","","","","","","","","","","","",""
"null","","html-keyboard-response","137","965356","0.0-136.0","A12TFFS6M9TOVF","<p style=""font-size: 48px;"">+</p>","","","","","null","allTrialResponses","1500","1","13","img_art/29.jpg","-15","It's like someone played with the smear tool and then slapped a giant X on it once they realized it didn't look good.","Dylan,Mason,Evan,Kenneth,Angel,Dustin","I don't like this. It is ugly and dark,-29,40,20","easy, too abstract for me, don't get it.,-25,100,20","It makes me feel as though the artist put in a lot of time and effort and then gave up,10,140,20","Too much going on, and I don't like the colors. It looks like a crime scene.,-50,300,20","This piece feels gross. Makes me think of pollution/litter strewn across a dirty street.,-20,180,20","Don't get it! Too dark and random. Perhaps it was the start of something but the artist stopped and cancelled out the work.,-50,20,20","Kenneth","Too much going on, and I don't like the colors. It looks like a crime scene.,-50,300,20","Angel","This piece feels gross. Makes me think of pollution/litter strewn across a dirty street.,-20,180,20","Dustin","Don't get it! Too dark and random. Perhaps it was the start of something but the artist stopped and cancelled out the work.,-50,20,20","2"
"22499","","survey-text","138","987858","0.0-137.0-0.0","A12TFFS6M9TOVF","","","","{""Q0"":""Could be a tree could be a random mess of lines.""}","","","","","","","","","","","","","","","","","","","","","","",""
"4457.0999999940395","","image-slider-response","139","992316","0.0-138.0","A12TFFS6M9TOVF","","","","","-5","","","","","","","","","","","","","","","","","","","","","",""
"2919","","image-button-response","140","997318","0.0-139.0","A12TFFS6M9TOVF","img_art/14.jpg","1","","","","","","","","","","","","","","","","","","","","","","","","",""
"1546","","image-button-response","141","998866","0.0-140.0","A12TFFS6M9TOVF","img_art/14.jpg","4","","","","","","","","","","","","","","","","","","","","","","","","",""
"2197","","image-button-response","142","1001064","0.0-141.0-0.0","A12TFFS6M9TOVF","img_art/14.jpg","5","","","","","","","","","","","","","","","","","","","","","","","","",""
"749","","image-button-response","143","1001814","0.0-142.0-0.0","A12TFFS6M9TOVF","img_art/14.jpg","1","","","","","","","","","","","","","","","","","","","","","","","","",""
"null","","html-keyboard-response","144","1002816","0.0-143.0","A12TFFS6M9TOVF","<p style=""font-size: 48px;"">+</p>","","","","","null","allTrialResponses","1000","1","14","img_art/14.jpg","-5","Could be a tree could be a random mess of lines.","David,Aaron,Gabriel,Kenneth,Angel,Dustin","I like how balanced the piece is with its symmetrical design.,20,340,20","It reminds me of a tree in the desert.,15,20,20","i like this one!,23,160,20","Its cute, but not my favorite.,8,300,20","This reminds me of a tree but the tree is sickly, and poorly cared for.,-10,180,20","It represents growth. I see a plant/tree growing out of the ground. I like the rainbow of color in the painting.,31,20,20","Angel","This reminds me of a tree but the tree is sickly, and poorly cared for.,-10,180,20","Dustin","It represents growth. I see a plant/tree growing out of the ground. I like the rainbow of color in the painting.,31,20,20","Aaron","It reminds me of a tree in the desert.,15,20,20","2"
"20804","","survey-text","145","1023624","0.0-144.0-0.0","A12TFFS6M9TOVF","","","","{""Q0"":""Looks like someone whose just messing with clipart.""}","","","","","","","","","","","","","","","","","","","","","","",""
"3560.5","","image-slider-response","146","1027187","0.0-145.0","A12TFFS6M9TOVF","","","","","-15","","","","","","","","","","","","","","","","","","","","","",""
"null","","image-button-response","147","1032189","0.0-146.0","A12TFFS6M9TOVF","img_art/16.jpg","null","","","","","","","","","","","","","","","","","","","","","","","","",""
"1832","","image-button-response","148","1034023","0.0-147.0","A12TFFS6M9TOVF","img_art/16.jpg","0","","","","","","","","","","","","","","","","","","","","","","","","",""
"3757","","image-button-response","149","1037781","0.0-148.0-0.0","A12TFFS6M9TOVF","img_art/16.jpg","4","","","","","","","","","","","","","","","","","","","","","","","","",""
"1462","","image-button-response","150","1039245","0.0-149.0-0.0","A12TFFS6M9TOVF","img_art/16.jpg","5","","","","","","","","","","","","","","","","","","","","","","","","",""
"null","","html-keyboard-response","151","1040246","0.0-150.0","A12TFFS6M9TOVF","<p style=""font-size: 48px;"">+</p>","","","","","null","allTrialResponses","1000","1","15","img_art/16.jpg","-15","Looks like someone whose just messing with clipart.","Derek,Aaron,Steven,Adrian,Angel,Dustin","I can't figure out the meaning of this painting but it is pleasant to look at,40,360,20","It's edgy but cool,10,20,20","Not interested at all,-15,160,20","It's depressing. Probably achieved its goal. But I wouldn't want it hanging in my home.,-31,60,20","I see something that is supposed to be comforting but it's been discarded and lost.,-20,180,20","Upsetting and disturbing. Random bear and indistinguishable objects. None of it goes together. Too chaotic and random,-50,20,20","Derek","I can't figure out the meaning of this painting but it is pleasant to look at,40,360,20","Angel","I see something that is supposed to be comforting but it's been discarded and lost.,-20,180,20","Dustin","Upsetting and disturbing. Random bear and indistinguishable objects. None of it goes together. Too chaotic and random,-50,20,20","2"
"3911","","survey-text","152","1044163","0.0-151.0-0.0","A12TFFS6M9TOVF","","","","{""Q0"":""course""}","","","","","","","","","","","","","","","","","","","","","","",""
"23905","","survey-text","153","1068068","0.0-152.0-0.0","A12TFFS6M9TOVF","","","","{""Q0"":""Difficult to tell what's going on (a tree in a corner?), but visually pleasing.""}","","","","","","","","","","","","","","","","","","","","","","",""
"5108.79999999702","","image-slider-response","154","1073178","0.0-153.0","A12TFFS6M9TOVF","","","","","20","","","","","","","","","","","","","","","","","","","","","",""
"4355","","image-button-response","155","1078181","0.0-154.0","A12TFFS6M9TOVF","img_art/17.jpg","1","","","","","","","","","","","","","","","","","","","","","","","","",""
"3850","","image-button-response","156","1082033","0.0-155.0","A12TFFS6M9TOVF","img_art/17.jpg","1","","","","","","","","","","","","","","","","","","","","","","","","",""
"5386","","image-button-response","157","1087420","0.0-156.0-0.0","A12TFFS6M9TOVF","img_art/17.jpg","4","","","","","","","","","","","","","","","","","","","","","","","","",""
"2720","","image-button-response","158","1090142","0.0-157.0-0.0","A12TFFS6M9TOVF","img_art/17.jpg","5","","","","","","","","","","","","","","","","","","","","","","","","",""
"null","","html-keyboard-response","159","1091144","0.0-158.0","A12TFFS6M9TOVF","<p style=""font-size: 48px;"">+</p>","","","","","null","allTrialResponses","1000","1","16","img_art/17.jpg","20","Difficult to tell what's going on (a tree in a corner?), but visually pleasing.","Derek,William,Sean,Nathan,Angel,Dustin","The colors are beautiful and the painting itself is magnificent,50,360,20","love the wispyness of it,34,380,20","my response to the picture is that it looks beautiful,27,40,20","It's alright, nothing I particularly like but it's just fine,-10,200,20","Reminds me of the modern art museum in Rome. I didn't ""get"" many pieces, but had a positive cultural experience overall.,20,180,20","Is it a tree/plant of some sort?  Or, I see hair?  I don't get it. But, the colors are pleasing to me.,1,20,20","William","love the wispyness of it,34,380,20","Angel","Reminds me of the modern art museum in Rome. I didn't ""get"" many pieces, but had a positive cultural experience overall.,20,180,20","Dustin","Is it a tree/plant of some sort?  Or, I see hair?  I don't get it. But, the colors are pleasing to me.,1,20,20","2"
"28927","","survey-text","160","1120074","0.0-159.0-0.0","A12TFFS6M9TOVF","","","","{""Q0"":""The end result of just smearing a canvas with a few different colors and brushes""}","","","","","","","","","","","","","","","","","","","","","","",""
"5604.9000000059605","","image-slider-response","161","1125680","0.0-160.0","A12TFFS6M9TOVF","","","","","-17","","","","","","","","","","","","","","","","","","","","","",""
"null","","image-button-response","162","1130682","0.0-161.0","A12TFFS6M9TOVF","img_art/30.jpg","null","","","","","","","","","","","","","","","","","","","","","","","","",""
"4731","","image-button-response","163","1135414","0.0-162.0","A12TFFS6M9TOVF","img_art/30.jpg","4","","","","","","","","","","","","","","","","","","","","","","","","",""
"3716","","image-button-response","164","1139132","0.0-163.0-0.0","A12TFFS6M9TOVF","img_art/30.jpg","5","","","","","","","","","","","","","","","","","","","","","","","","",""
"3287","","image-button-response","165","1142420","0.0-164.0-0.0","A12TFFS6M9TOVF","img_art/30.jpg","0","","","","","","","","","","","","","","","","","","","","","","","","",""
"null","","html-keyboard-response","166","1142923","0.0-165.0","A12TFFS6M9TOVF","<p style=""font-size: 48px;"">+</p>","","","","","null","allTrialResponses","500","1","17","img_art/30.jpg","-17","The end result of just smearing a canvas with a few different colors and brushes","Brandon,William,Paul,Mitchell,Angel,Dustin","Too abstract, looks like something I could paint,-50,320,20","to dark and dreary,-28,380,20","It looked like a random scribble but I can see a person's face in it now and I think it's clever,13,300,20","connection, Everything is connected even in contrast.,42,180,20","It's like a child's art piece: carefree and not trying to conform to anything.,10,180,20","Soothing color palette, but doesn't look like anything. All I see are random brush strokes.,1,20,20","Angel","It's like a child's art piece: carefree and not trying to conform to anything.,10,180,20","Dustin","Soothing color palette, but doesn't look like anything. All I see are random brush strokes.,1,20,20","Brandon","Too abstract, looks like something I could paint,-50,320,20","2"
"23543","","survey-text","167","1166468","0.0-166.0-0.0","A12TFFS6M9TOVF","","","","{""Q0"":""A visually pleasing gradient with paint speckled all over it.""}","","","","","","","","","","","","","","","","","","","","","","",""
"4382.70000000298","","image-slider-response","168","1170852","0.0-167.0","A12TFFS6M9TOVF","","","","","10","","","","","","","","","","","","","","","","","","","","","",""
"3698","","image-button-response","169","1175853","0.0-168.0","A12TFFS6M9TOVF","img_art/13.jpg","0","","","","","","","","","","","","","","","","","","","","","","","","",""
"3442","","image-button-response","170","1179296","0.0-169.0","A12TFFS6M9TOVF","img_art/13.jpg","0","","","","","","","","","","","","","","","","","","","","","","","","",""
"3003","","image-button-response","171","1182300","0.0-170.0-0.0","A12TFFS6M9TOVF","img_art/13.jpg","1","","","","","","","","","","","","","","","","","","","","","","","","",""
"1520","","image-button-response","172","1183822","0.0-171.0-0.0","A12TFFS6M9TOVF","img_art/13.jpg","0","","","","","","","","","","","","","","","","","","","","","","","","",""
"3218","","image-button-response","173","1189042","0.0-171.1-0.1","A12TFFS6M9TOVF","img_art/13.jpg","5","","","","","","","","","","","","","","","","","","","","","","","","",""
"null","","html-keyboard-response","174","1189544","0.0-172.0","A12TFFS6M9TOVF","<p style=""font-size: 48px;"">+</p>","","","","","null","allTrialResponses","500","1","18","img_art/13.jpg","10","A visually pleasing gradient with paint speckled all over it.","Brandon,Logan,Dalton,Anthony,Angel,Dustin","Simple, but pleasing. The blue gradient is a favorite of mine,32,320,20","so simple and stupid this looks like what I did to my cousins wall when we repainted it for her 13th bday,0,360,20","rain in blue black and white,1,300,20","I like the color scheme,41,200,20","Reminds me of depression anxiety, but negativity is dampened by motion. It's trying to release itself through expression.,-10,180,20","Cool and calming colors. I like splatter art.,10,20,20","Brandon","Simple, but pleasing. The blue gradient is a favorite of mine,32,320,20","Logan","so simple and stupid this looks like what I did to my cousins wall when we repainted it for her 13th bday,0,360,20","Dustin","Cool and calming colors. I like splatter art.,10,20,20","4"
"29283","","survey-text","175","1218830","0.0-173.0-0.0","A12TFFS6M9TOVF","","","","{""Q0"":""Doesn't feel like the color scheme of the half goes well with the bottom half.""}","","","","","","","","","","","","","","","","","","","","","","",""
"2774.8999999910593","","image-slider-response","176","1221606","0.0-174.0","A12TFFS6M9TOVF","","","","","-10","","","","","","","","","","","","","","","","","","","","","",""
"2581","","image-button-response","177","1226608","0.0-175.0","A12TFFS6M9TOVF","img_art/12.jpg","0","","","","","","","","","","","","","","","","","","","","","","","","",""
"3075","","image-button-response","178","1229684","0.0-176.0","A12TFFS6M9TOVF","img_art/12.jpg","0","","","","","","","","","","","","","","","","","","","","","","","","",""
"1415","","image-button-response","179","1231101","0.0-177.0-0.0","A12TFFS6M9TOVF","img_art/12.jpg","5","","","","","","","","","","","","","","","","","","","","","","","","",""
"993","","image-button-response","180","1232094","0.0-178.0-0.0","A12TFFS6M9TOVF","img_art/12.jpg","4","","","","","","","","","","","","","","","","","","","","","","","","",""
"null","","html-keyboard-response","181","1233596","0.0-179.0","A12TFFS6M9TOVF","<p style=""font-size: 48px;"">+</p>","","","","","null","allTrialResponses","1500","1","19","img_art/12.jpg","-10","Doesn't feel like the color scheme of the half goes well with the bottom half.","Brandon,Logan,Christian,Andrew,Kyle,Dustin","I like the cubic feel.,11,320,20","giving me major endless summer vibes,26,360,20","so many different available interpretations for this, would love to closer.,24,140,20","It's kind of ominous,-15,160,20","It's just not my style,-18,340,20","Squares are rigid. I'm ambivalent.,1,20,20","Brandon","I like the cubic feel.,11,320,20","Dustin","Squares are rigid. I'm ambivalent.,1,20,20","Kyle","It's just not my style,-18,340,20","4"
"27925","","survey-text","182","1261524","0.0-180.0-0.0","A12TFFS6M9TOVF","","","","{""Q0"":""I keep looking at it and seeing different things.""}","","","","","","","","","","","","","","","","","","","","","","",""
"3400.8999999910593","","image-slider-response","183","1264926","0.0-181.0","A12TFFS6M9TOVF","","","","","10","","","","","","","","","","","","","","","","","","","","","",""
"null","","image-button-response","184","1269927","0.0-182.0","A12TFFS6M9TOVF","img_art/18.jpg","null","","","","","","","","","","","","","","","","","","","","","","","","",""
"2474","","image-button-response","185","1272403","0.0-183.0","A12TFFS6M9TOVF","img_art/18.jpg","0","","","","","","","","","","","","","","","","","","","","","","","","",""
"6511","","image-button-response","186","1278915","0.0-184.0-0.0","A12TFFS6M9TOVF","img_art/18.jpg","5","","","","","","","","","","","","","","","","","","","","","","","","",""
"1300","","image-button-response","187","1280217","0.0-185.0-0.0","A12TFFS6M9TOVF","img_art/18.jpg","1","","","","","","","","","","","","","","","","","","","","","","","","",""
"null","","html-keyboard-response","188","1281218","0.0-186.0","A12TFFS6M9TOVF","<p style=""font-size: 48px;"">+</p>","","","","","null","allTrialResponses","1000","1","20","img_art/18.jpg","10","I keep looking at it and seeing different things.","Brandon,Lucas,Timothy,Patrick,Kyle,Dustin","Crusade-feel, but a little too abstract for my taste,23,320,20","White and yellow look awesome and the picture's dynamics are wonderful.,30,380,20","This gives a very ominous feeling,-30,240,20","Too abstract and swirly,-21,280,20","I feel indifferent about this one,0,340,20","Looks messy. Reminds me of a battle or war. I have an unpleasant feeling the more I look.,-20,20,20","Brandon","Crusade-feel, but a little too abstract for my taste,23,320,20","Dustin","Looks messy. Reminds me of a battle or war. I have an unpleasant feeling the more I look.,-20,20,20","Lucas","White and yellow look awesome and the picture's dynamics are wonderful.,30,380,20","4"
"5095","","survey-text","189","1286318","0.0-187.0-0.0","A12TFFS6M9TOVF","","","","{""Q0"":""we""}","","","","","","","","","","","","","","","","","","","","","","",""
"39355","","survey-text","190","1325674","0.0-188.0-0.0","A12TFFS6M9TOVF","","","","{""Q0"":""Looks like reflections and clouds, but still visually appealing despite the ambiguity.""}","","","","","","","","","","","","","","","","","","","","","","",""
"5785","","image-slider-response","191","1331460","0.0-189.0","A12TFFS6M9TOVF","","","","","20","","","","","","","","","","","","","","","","","","","","","",""
"null","","image-button-response","192","1336461","0.0-190.0","A12TFFS6M9TOVF","img_art/21.jpg","null","","","","","","","","","","","","","","","","","","","","","","","","",""
"5401","","image-button-response","193","1341864","0.0-191.0","A12TFFS6M9TOVF","img_art/21.jpg","0","","","","","","","","","","","","","","","","","","","","","","","","",""
"1330","","image-button-response","194","1343196","0.0-192.0-0.0","A12TFFS6M9TOVF","img_art/21.jpg","4","","","","","","","","","","","","","","","","","","","","","","","","",""
"1824","","image-button-response","195","1345022","0.0-193.0-0.0","A12TFFS6M9TOVF","img_art/21.jpg","1","","","","","","","","","","","","","","","","","","","","","","","","",""
"null","","html-keyboard-response","196","1346024","0.0-194.0","A12TFFS6M9TOVF","<p style=""font-size: 48px;"">+</p>","","","","","null","allTrialResponses","1000","1","21","img_art/21.jpg","20","Looks like reflections and clouds, but still visually appealing despite the ambiguity.","Brandon,Lucas,Ian,Cole,Jared,Dustin","I love this. Reminds me of a coast. The colors flow beautifully,40,320,20","Looks like a war. Many things happening on the painting, really enjoy it.,30,380,20","This looks very interesting because something is happening but I can't tell what.,28,260,20","Unfinished. Confusing to look at,-12,200,20","i like the way the colors divide the canvas.,16,400,20","Immediately a positive response! I like the muted colors. the blurriness calms me. It's serene,40,20,20","Brandon","I love this. Reminds me of a coast. The colors flow beautifully,40,320,20","Jared","i like the way the colors divide the canvas.,16,400,20","Lucas","Looks like a war. Many things happening on the painting, really enjoy it.,30,380,20","4"
"43654","","survey-text","197","1389681","0.0-195.0-0.0","A12TFFS6M9TOVF","","","","{""Q0"":""A woman resting. Not big on the color pallete""}","","","","","","","","","","","","","","","","","","","","","","",""
"2486.7999999970198","","image-slider-response","198","1392169","0.0-196.0","A12TFFS6M9TOVF","","","","","-10","","","","","","","","","","","","","","","","","","","","","",""
"null","","image-button-response","199","1397171","0.0-197.0","A12TFFS6M9TOVF","img_art/9.jpg","null","","","","","","","","","","","","","","","","","","","","","","","","",""
"3841","","image-button-response","200","1401013","0.0-198.0","A12TFFS6M9TOVF","img_art/9.jpg","3","","","","","","","","","","","","","","","","","","","","","","","","",""
"2137","","image-button-response","201","1403152","0.0-199.0-0.0","A12TFFS6M9TOVF","img_art/9.jpg","2","","","","","","","","","","","","","","","","","","","","","","","","",""
"4255","","image-button-response","202","1407409","0.0-200.0-0.0","A12TFFS6M9TOVF","img_art/9.jpg","1","","","","","","","","","","","","","","","","","","","","","","","","",""
"null","","html-keyboard-response","203","1407911","0.0-201.0","A12TFFS6M9TOVF","<p style=""font-size: 48px;"">+</p>","","","","","null","allTrialResponses","500","1","22","img_art/9.jpg","-10","A woman resting. Not big on the color pallete","Brandon,Lucas,Spencer,Mark,Jared,Ethan","I like the sense of forboding, the green creates a claustrophobic feeling,10,320,20","I like the way the artist has painted his painting.,20,380,20","Depressing to me, like a dark dream,-11,120,20","Sleeping woman in a cave. Makes me feel safe.,20,80,20","it looks like a lady resting. it is soothing.,4,400,20","How neat is this piece?  I love the angry expressive lines. Emotion is captured in it.,26,120,20","Mark","Sleeping woman in a cave. Makes me feel safe.,20,80,20","Spencer","Depressing to me, like a dark dream,-11,120,20","Lucas","I like the way the artist has painted his painting.,20,380,20","4"
"17209","","survey-text","204","1425123","0.0-202.0-0.0","A12TFFS6M9TOVF","","","","{""Q0"":""I really like the green contrast and the subtle creepiness.""}","","","","","","","","","","","","","","","","","","","","","","",""
"4704.899999991059","","image-slider-response","205","1429829","0.0-203.0","A12TFFS6M9TOVF","","","","","45","","","","","","","","","","","","","","","","","","","","","",""
"null","","image-button-response","206","1434832","0.0-204.0","A12TFFS6M9TOVF","img_art/25.jpg","null","","","","","","","","","","","","","","","","","","","","","","","","",""
"5704","","image-button-response","207","1440537","0.0-205.0","A12TFFS6M9TOVF","img_art/25.jpg","0","","","","","","","","","","","","","","","","","","","","","","","","",""
"1525","","image-button-response","208","1442064","0.0-206.0-0.0","A12TFFS6M9TOVF","img_art/25.jpg","5","","","","","","","","","","","","","","","","","","","","","","","","",""
"2459","","image-button-response","209","1444523","0.0-207.0-0.0","A12TFFS6M9TOVF","img_art/25.jpg","2","","","","","","","","","","","","","","","","","","","","","","","","",""
"null","","html-keyboard-response","210","1445025","0.0-208.0","A12TFFS6M9TOVF","<p style=""font-size: 48px;"">+</p>","","","","","null","allTrialResponses","500","1","23","img_art/25.jpg","45","I really like the green contrast and the subtle creepiness.","Scott,Lucas,Spencer,Mark,Thomas,Zachary","reminds me of a zombie,-36,20,20","Well-designed, interesting.,30,380,20","I really like it, very simple, very tribal,38,120,20","Looks like Burning Man, dont care for the colors.,-5,80,20","I like the design but the brightness of the color feels almost blinding to me.,-3,220,20","I like the green color, but the combination of green and a person with a long neck reminds me of aliens,-27,400,20","Scott","reminds me of a zombie,-36,20,20","Zachary","I like the green color, but the combination of green and a person with a long neck reminds me of aliens,-27,400,20","Spencer","I really like it, very simple, very tribal,38,120,20","4"
"40724","","survey-text","211","1485752","0.0-209.0-0.0","A12TFFS6M9TOVF","","","","{""Q0"":""This just looks too vague, leaves me confused.""}","","","","","","","","","","","","","","","","","","","","","","",""
"2764.7000000029802","","image-slider-response","212","1488518","0.0-210.0","A12TFFS6M9TOVF","","","","","-15","","","","","","","","","","","","","","","","","","","","","",""
"null","","image-button-response","213","1493520","0.0-211.0","A12TFFS6M9TOVF","img_art/5.jpg","null","","","","","","","","","","","","","","","","","","","","","","","","",""
"2068","","image-button-response","214","1495588","0.0-212.0","A12TFFS6M9TOVF","img_art/5.jpg","3","","","","","","","","","","","","","","","","","","","","","","","","",""
"1417","","image-button-response","215","1497006","0.0-213.0-0.0","A12TFFS6M9TOVF","img_art/5.jpg","5","","","","","","","","","","","","","","","","","","","","","","","","",""
"1022","","image-button-response","216","1498030","0.0-214.0-0.0","A12TFFS6M9TOVF","img_art/5.jpg","4","","","","","","","","","","","","","","","","","","","","","","","","",""
"null","","html-keyboard-response","217","1499531","0.0-215.0","A12TFFS6M9TOVF","<p style=""font-size: 48px;"">+</p>","","","","","null","allTrialResponses","1500","1","24","img_art/5.jpg","-15","This just looks too vague, leaves me confused.","Scott,Jordan,Spencer,Alejandro,Jonathan,Zachary","I like it but I don't know why,15,20,20","Reminds me of a broken umbrella,-9,160,20","Boring, no flow except the pink feathery band,-42,120,20","Confused as to what the artist is attempting to do.,-50,80,20","I hate the shapes,-30,140,20","Not sure what to make of this one.,-1,400,20","Alejandro","Confused as to what the artist is attempting to do.,-50,80,20","Zachary","Not sure what to make of this one.,-1,400,20","Jonathan","I hate the shapes,-30,140,20","4"
"33337","","survey-text","218","1532871","0.0-216.0-0.0","A12TFFS6M9TOVF","","","","{""Q0"":""Like some sort of homeless guy in a muddy cityscape.""}","","","","","","","","","","","","","","","","","","","","","","",""
"2582.9000000059605","","image-slider-response","219","1535455","0.0-217.0","A12TFFS6M9TOVF","","","","","-10","","","","","","","","","","","","","","","","","","","","","",""
"null","","image-button-response","220","1540458","0.0-218.0","A12TFFS6M9TOVF","img_art/28.jpg","null","","","","","","","","","","","","","","","","","","","","","","","","",""
"3083","","image-button-response","221","1543541","0.0-219.0","A12TFFS6M9TOVF","img_art/28.jpg","1","","","","","","","","","","","","","","","","","","","","","","","","",""
"2597","","image-button-response","222","1546139","0.0-220.0-0.0","A12TFFS6M9TOVF","img_art/28.jpg","4","","","","","","","","","","","","","","","","","","","","","","","","",""
"2971","","image-button-response","223","1549111","0.0-221.0-0.0","A12TFFS6M9TOVF","img_art/28.jpg","5","","","","","","","","","","","","","","","","","","","","","","","","",""
"null","","html-keyboard-response","224","1550613","0.0-222.0","A12TFFS6M9TOVF","<p style=""font-size: 48px;"">+</p>","","","","","null","allTrialResponses","1500","1","25","img_art/28.jpg","-10","Like some sort of homeless guy in a muddy cityscape.","Blake,Jesus,Nathaniel,Alejandro,Jonathan,Zachary","an old woman in a wheelchair. sad,-35,280,20","The muted tones aren't my favorite.,-10,100,20","Has an air of darkness to it, but no real substance besides the mouse-like thing.,-38,220,20","I like the flow and abstract nature of what seems to be humans,40,80,20","The lack of color variance leaves it looking ugly even if I like the brush strokes,-10,140,20","Too muted and bland. I like my art to be vivid.,-11,400,20","Jesus","The muted tones aren't my favorite.,-10,100,20","Jonathan","The lack of color variance leaves it looking ugly even if I like the brush strokes,-10,140,20","Zachary","Too muted and bland. I like my art to be vivid.,-11,400,20","4"
"4171","","survey-text","225","1554789","0.0-223.0-0.0","A12TFFS6M9TOVF","","","","{""Q0"":""table""}","","","","","","","","","","","","","","","","","","","","","","",""
"24563","","survey-text","226","1579354","0.0-224.0-0.0","A12TFFS6M9TOVF","","","","{""Q0"":""Gives me the impression of sheet music for some reason.""}","","","","","","","","","","","","","","","","","","","","","","",""
"5220.20000000298","","image-slider-response","227","1584576","0.0-225.0","A12TFFS6M9TOVF","","","","","5","","","","","","","","","","","","","","","","","","","","","",""
"null","","image-button-response","228","1589578","0.0-226.0","A12TFFS6M9TOVF","img_art/10.jpg","null","","","","","","","","","","","","","","","","","","","","","","","","",""
"2484","","image-button-response","229","1592064","0.0-227.0","A12TFFS6M9TOVF","img_art/10.jpg","1","","","","","","","","","","","","","","","","","","","","","","","","",""
"5325","","image-button-response","230","1597390","0.0-228.0-0.0","A12TFFS6M9TOVF","img_art/10.jpg","0","","","","","","","","","","","","","","","","","","","","","","","","",""
"2390","","image-button-response","231","1599782","0.0-229.0-0.0","A12TFFS6M9TOVF","img_art/10.jpg","2","","","","","","","","","","","","","","","","","","","","","","","","",""
"null","","html-keyboard-response","232","1600284","0.0-230.0","A12TFFS6M9TOVF","<p style=""font-size: 48px;"">+</p>","","","","","null","allTrialResponses","500","1","26","img_art/10.jpg","5","Gives me the impression of sheet music for some reason.","Juan,Jesus,Marcus,Alex,Jonathan,Zachary","It's interesting and my eyes keep being drawn to different parts of the picture.,11,260,20","The design is very fluid and fun to interpret,35,100,20","This makes me think of a city, specifically London.,20,60,20","This could be a guitar, or it could be a completely random shape.,-3,100,20","Too much negative space makes it feel unfinished,-25,140,20","Reminds me of a terrarium with cacti inside. It reminds me of home.,27,400,20","Jesus","The design is very fluid and fun to interpret,35,100,20","Juan","It's interesting and my eyes keep being drawn to different parts of the picture.,11,260,20","Marcus","This makes me think of a city, specifically London.,20,60,20","4"
"38924","","survey-text","233","1639212","0.0-231.0-0.0","A12TFFS6M9TOVF","","","","{""Q0"":""Difficult to tell what's going on in this picture. Just a mess of black and some blue dots.""}","","","","","","","","","","","","","","","","","","","","","","",""
"4526.79999999702","","image-slider-response","234","1643739","0.0-232.0","A12TFFS6M9TOVF","","","","","-12","","","","","","","","","","","","","","","","","","","","","",""
"4185","","image-button-response","235","1648741","0.0-233.0","A12TFFS6M9TOVF","img_art/15.jpg","0","","","","","","","","","","","","","","","","","","","","","","","","",""
"3925","","image-button-response","236","1652668","0.0-234.0","A12TFFS6M9TOVF","img_art/15.jpg","0","","","","","","","","","","","","","","","","","","","","","","","","",""
"2601","","image-button-response","237","1655270","0.0-235.0-0.0","A12TFFS6M9TOVF","img_art/15.jpg","3","","","","","","","","","","","","","","","","","","","","","","","","",""
"4320","","image-button-response","238","1659592","0.0-236.0-0.0","A12TFFS6M9TOVF","img_art/15.jpg","5","","","","","","","","","","","","","","","","","","","","","","","","",""
"null","","html-keyboard-response","239","1661094","0.0-237.0","A12TFFS6M9TOVF","<p style=""font-size: 48px;"">+</p>","","","","","null","allTrialResponses","1500","1","27","img_art/15.jpg","-12","Difficult to tell what's going on in this picture. Just a mess of black and some blue dots.","Juan,Jesus,Marcus,Seth,Austin,Luke","I don't even know what's going on here. Again, this is too abstract.,-21,260,20","I like the colors and textures.,32,100,20","Interesting, but don't really like it. Gloomy.,-10,60,20","There should be more space between the black marks. The black comes off harsh and the blue between the trees can barely be seen.,-21,60,20","Perfect Abstract painting,50,240,20","it looks like trees but they are up to interpretation,16,20,20","Juan","I don't even know what's going on here. Again, this is too abstract.,-21,260,20","Seth","There should be more space between the black marks. The black comes off harsh and the blue between the trees can barely be seen.,-21,60,20","Luke","it looks like trees but they are up to interpretation,16,20,20","4"
"54798","","survey-text","240","1715896","0.0-238.0-0.0","A12TFFS6M9TOVF","","","","{""Q0"":""Looks like a park, but I don't like the water color style.""}","","","","","","","","","","","","","","","","","","","","","","",""
"3644.7999999970198","","image-slider-response","241","1719542","0.0-239.0","A12TFFS6M9TOVF","","","","","-17","","","","","","","","","","","","","","","","","","","","","",""
"null","","image-button-response","242","1724544","0.0-240.0","A12TFFS6M9TOVF","img_art/26.jpg","null","","","","","","","","","","","","","","","","","","","","","","","","",""
"2165","","image-button-response","243","1726710","0.0-241.0","A12TFFS6M9TOVF","img_art/26.jpg","4","","","","","","","","","","","","","","","","","","","","","","","","",""
"2368","","image-button-response","244","1729080","0.0-242.0-0.0","A12TFFS6M9TOVF","img_art/26.jpg","3","","","","","","","","","","","","","","","","","","","","","","","","",""
"4238","","image-button-response","245","1733320","0.0-243.0-0.0","A12TFFS6M9TOVF","img_art/26.jpg","0","","","","","","","","","","","","","","","","","","","","","","","","",""
"null","","html-keyboard-response","246","1734321","0.0-244.0","A12TFFS6M9TOVF","<p style=""font-size: 48px;"">+</p>","","","","","null","allTrialResponses","1000","1","28","img_art/26.jpg","-17","Looks like a park, but I don't like the water color style.","Juan,Grant,Jeffrey,Seth,Dakota,Luke","Something I'd see in a thrift store. It looks like not much effort was used to paint this.,9,260,20","It's a cute city scene. I like the trees.,10,200,20","very relaxing and easy going,22,40,20","I'm not sure if this is the image of a furniture store or not.,-20,60,20","juvenile, faint and weak,-41,280,20","makes me happy and reminds me of a paris courtyard,29,20,20","Dakota","juvenile, faint and weak,-41,280,20","Seth","I'm not sure if this is the image of a furniture store or not.,-20,60,20","Juan","Something I'd see in a thrift store. It looks like not much effort was used to paint this.,9,260,20","4"
"32536","","survey-text","247","1766862","0.0-245.0-0.0","A12TFFS6M9TOVF","","","","{""Q0"":""Good use of color against a dark landscape. Visually appealing despite the abstract nature.""}","","","","","","","","","","","","","","","","","","","","","","",""
"4782.70000000298","","image-slider-response","248","1771645","0.0-246.0","A12TFFS6M9TOVF","","","","","23","","","","","","","","","","","","","","","","","","","","","",""
"4947","","image-button-response","249","1776648","0.0-247.0","A12TFFS6M9TOVF","img_art/11.jpg","1","","","","","","","","","","","","","","","","","","","","","","","","",""
"1074","","image-button-response","250","1777724","0.0-248.0","A12TFFS6M9TOVF","img_art/11.jpg","1","","","","","","","","","","","","","","","","","","","","","","","","",""
"4084","","image-button-response","251","1781810","0.0-249.0-0.0","A12TFFS6M9TOVF","img_art/11.jpg","2","","","","","","","","","","","","","","","","","","","","","","","","",""
"4386","","image-button-response","252","1786198","0.0-250.0-0.0","A12TFFS6M9TOVF","img_art/11.jpg","0","","","","","","","","","","","","","","","","","","","","","","","","",""
"null","","html-keyboard-response","253","1787700","0.0-251.0","A12TFFS6M9TOVF","<p style=""font-size: 48px;"">+</p>","","","","","null","allTrialResponses","1500","1","29","img_art/11.jpg","23","Good use of color against a dark landscape. Visually appealing despite the abstract nature.","Juan,Nicholas,Christopher,Seth,Dakota,Bryan","It makes me think of a rainy day and I like the colors. Also like the wavy lines.,22,260,20","Love the colors and flow,50,240,20","i like the gray tones with black lines and bits of color,23,160,20","It makes my head feel dizzy. So I rated it lower.,-25,60,20","i think of beatnik music and dark piano lounges,25,280,20","Rainy asian city scape.,31,400,20","Nicholas","Love the colors and flow,50,240,20","Christopher","i like the gray tones with black lines and bits of color,23,160,20","Juan","It makes me think of a rainy day and I like the colors. Also like the wavy lines.,22,260,20","4"
"18850","","survey-text","254","1806553","0.0-252.0-0.0","A12TFFS6M9TOVF","","","","{""Q0"":""I like the coloring but I'm not sure what I'm looking at.""}","","","","","","","","","","","","","","","","","","","","","","",""
"3772.9000000059605","","image-slider-response","255","1810327","0.0-253.0","A12TFFS6M9TOVF","","","","","21","","","","","","","","","","","","","","","","","","","","","",""
"null","","image-button-response","256","1815330","0.0-254.0","A12TFFS6M9TOVF","img_art/22.jpg","null","","","","","","","","","","","","","","","","","","","","","","","","",""
"1335","","image-button-response","257","1816665","0.0-255.0","A12TFFS6M9TOVF","img_art/22.jpg","1","","","","","","","","","","","","","","","","","","","","","","","","",""
"3035","","image-button-response","258","1819702","0.0-256.0-0.0","A12TFFS6M9TOVF","img_art/22.jpg","3","","","","","","","","","","","","","","","","","","","","","","","","",""
"5084","","image-button-response","259","1824788","0.0-257.0-0.0","A12TFFS6M9TOVF","img_art/22.jpg","5","","","","","","","","","","","","","","","","","","","","","","","","",""
"null","","html-keyboard-response","260","1826290","0.0-258.0","A12TFFS6M9TOVF","<p style=""font-size: 48px;"">+</p>","","","","","null","allTrialResponses","1500","1","30","img_art/22.jpg","21","I like the coloring but I'm not sure what I'm looking at.","Juan,Nicholas,Christopher,Shawn,Devon,Hunter","I don't like the colors or the way they've been arranged.,-20,260,20","Pretty colors but something seems sinister about it,25,240,20","boring, too many red and yellow tones for my taste,-15,160,20","Still like the colors but not the most interesting composition,17,100,20","This represents the hopes in my life.,21,400,20","strong blending skills,7,240,20","Nicholas","Pretty colors but something seems sinister about it,25,240,20","Shawn","Still like the colors but not the most interesting composition,17,100,20","Hunter","strong blending skills,7,240,20","4"
"3962","","image-button-response_instructions","261","1830255","0.0-259.0","A12TFFS6M9TOVF","","0","instructions","","","","","","","","","","","","","","","","","","","","","","","",""
"1358","","image-button-response","262","1831617","0.0-260.0","A12TFFS6M9TOVF","","0","","","","","","","","","","","","","","","","","","","","","","","","",""
