"rt","url","trial_type","trial_index","time_elapsed","internal_node_id","participant_id","stimulus","button_pressed","Name","responses","response","key_press","variableName","fixationTime","condition","trial","photo","subjectRating","subjectResponse","agentsNames","agent_1_Response","agent_2_Response","agent_3_Response","agent_4_Response","agent_5_Response","agent_6_Response","kept_1_name","kept_1_response","kept_2_name","kept_2_response","kept_3_name","kept_3_response","errorCounter"
"5265","external_page_harvard.html","external-html","0","5500","0.0-0.0","A13WTEQ06V3B6D","","","","","","","","","","","","","","","","","","","","","","","","","","",""
"1234","","image-button-response","1","6735","0.0-1.0","A13WTEQ06V3B6D","","0","","","","","","","","","","","","","","","","","","","","","","","","",""
"4796","","image-button-response","2","11535","0.0-2.0-0.0","A13WTEQ06V3B6D","","1","phone","","","","","","","","","","","","","","","","","","","","","","","",""
"6242","","survey-text","3","17779","0.0-3.0-0.0","A13WTEQ06V3B6D","","","","{""Q0"":""A13WTEQ06V3B6D""}","","","","","","","","","","","","","","","","","","","","","","",""
"2801","","image-button-response_instructions","4","20583","0.0-4.0","A13WTEQ06V3B6D","","0","instructions","","","","","","","","","","","","","","","","","","","","","","","",""
"7260","","image-button-response_instructions","5","27844","0.0-5.0","A13WTEQ06V3B6D","img_art/ins/popularity/ins1.png","0","instructions","","","","","","","","","","","","","","","","","","","","","","","",""
"2852","","image-button-response_instructions","6","30696","0.0-6.0","A13WTEQ06V3B6D","img_art/ins/popularity/ins2.png","0","instructions","","","","","","","","","","","","","","","","","","","","","","","",""
"1901","","image-button-response_instructions","7","32599","0.0-7.0","A13WTEQ06V3B6D","img_art/ins/popularity/ins2Extreme.png","0","instructions","","","","","","","","","","","","","","","","","","","","","","","",""
"3632","","image-button-response_instructions","8","36232","0.0-8.0","A13WTEQ06V3B6D","img_art/ins/popularity/ins3KEEPpop.PNG","0","instructions","","","","","","","","","","","","","","","","","","","","","","","",""
"1500","","image-button-response_instructions","9","37732","0.0-9.0","A13WTEQ06V3B6D","img_art/ins/popularity/ins3ANamepop.PNG","0","instructions","","","","","","","","","","","","","","","","","","","","","","","",""
"3299","","image-button-response_instructions","10","41032","0.0-10.0","A13WTEQ06V3B6D","img_art/ins/popularity/ins3ARatingpop.png","0","instructions","","","","","","","","","","","","","","","","","","","","","","","",""
"1537","","image-button-response_instructions","11","42571","0.0-11.0","A13WTEQ06V3B6D","img_art/ins/popularity/ins3ATextpop.png","0","instructions","","","","","","","","","","","","","","","","","","","","","","","",""
"2591","","image-button-response_instructions","12","45162","0.0-12.0","A13WTEQ06V3B6D","img_art/ins/popularity/ins3ALikespop.png","0","instructions","","","","","","","","","","","","","","","","","","","","","","","",""
"3886","","image-button-response_instructions","13","49049","0.0-13.0","A13WTEQ06V3B6D","img_art/ins/popularity/ins3KEEPpop.PNG","0","instructions","","","","","","","","","","","","","","","","","","","","","","","",""
"1822","","image-button-response_instructions","14","50872","0.0-14.0","A13WTEQ06V3B6D","img_art/ins/popularity/ins3_5RED.png","0","instructions","","","","","","","","","","","","","","","","","","","","","","","",""
"1917","","image-button-response_instructions","15","52789","0.0-15.0","A13WTEQ06V3B6D","img_art/ins/popularity/ins3KEEPpop.PNG","0","instructions","","","","","","","","","","","","","","","","","","","","","","","",""
"5232","","image-button-response_instructions","16","58022","0.0-16.0","A13WTEQ06V3B6D","img_art/ins/popularity/ins4KEEPpop.PNG","0","instructions","","","","","","","","","","","","","","","","","","","","","","","",""
"2598","","image-button-response_instructions","17","60621","0.0-17.0","A13WTEQ06V3B6D","img_art/ins/popularity/ins5KEEPpop.PNG","0","instructions","","","","","","","","","","","","","","","","","","","","","","","",""
"912","","image-button-response_instructions","18","61533","0.0-18.0","A13WTEQ06V3B6D","","0","instructions","","","","","","","","","","","","","","","","","","","","","","","",""
"4923","","survey-text","19","66470","0.0-19.0-0.0","A13WTEQ06V3B6D","","","","{""Q0"":""but""}","","","","","","","","","","","","","","","","","","","","","","",""
"11761","","survey-text","20","78232","0.0-20.0-0.0","A13WTEQ06V3B6D","","","","{""Q0"":""i dont understand what this picture is showing""}","","","","","","","","","","","","","","","","","","","","","","",""
"2641.1999999284744","","image-slider-response","21","80875","0.0-21.0","A13WTEQ06V3B6D","","","","","-42","","","","","","","","","","","","","","","","","","","","","",""
"null","","image-button-response","22","85878","0.0-22.0","A13WTEQ06V3B6D","img_art/ins/1.jpg","null","","","","","","","","","","","","","","","","","","","","","","","","",""
"125","","image-button-response","23","86003","0.0-23.0","A13WTEQ06V3B6D","img_art/ins/1.jpg","0","","","","","","","","","","","","","","","","","","","","","","","","",""
"858","","image-button-response","24","86862","0.0-24.0-0.0","A13WTEQ06V3B6D","img_art/ins/1.jpg","2","","","","","","","","","","","","","","","","","","","","","","","","",""
"1017","","image-button-response","25","87881","0.0-25.0-0.0","A13WTEQ06V3B6D","img_art/ins/1.jpg","4","","","","","","","","","","","","","","","","","","","","","","","","",""
"null","","html-keyboard-response","26","89383","0.0-26.0","A13WTEQ06V3B6D","<p style=""font-size: 48px;"">+</p>","","","","","null","allTrialResponses","1500","1","-2","img_art/ins/1.jpg","-42","i dont understand what this picture is showing","Adam,Alex,Ben,Carl,Daniel,Jack","Seems like doodles,-20,20,20","very creative work.,36,40,20","This color reminds me of poo,-46,60,20","very calming artwork,42,80,20","It looks like a murder scene.,-48,100,20","I like the sophisticated brushwork,40,120,20","Adam","Seems like doodles,-20,20,20","Ben","This color reminds me of poo,-46,60,20","Daniel","It looks like a murder scene.,-48,100,20","0"
"7036","","survey-text","27","96422","0.0-27.0-0.0","A13WTEQ06V3B6D","","","","{""Q0"":""this looks dark and scary""}","","","","","","","","","","","","","","","","","","","","","","",""
"2628.600000023842","","image-slider-response","28","99052","0.0-28.0","A13WTEQ06V3B6D","","","","","-23","","","","","","","","","","","","","","","","","","","","","",""
"1474","","image-button-response","29","104054","0.0-29.0","A13WTEQ06V3B6D","img_art/ins/2.jpg","0","","","","","","","","","","","","","","","","","","","","","","","","",""
"4044","","image-button-response","30","108099","0.0-30.0","A13WTEQ06V3B6D","img_art/ins/2.jpg","3","","","","","","","","","","","","","","","","","","","","","","","","",""
"492","","image-button-response","31","108593","0.0-31.0-0.0","A13WTEQ06V3B6D","img_art/ins/2.jpg","4","","","","","","","","","","","","","","","","","","","","","","","","",""
"1440","","image-button-response","32","110034","0.0-32.0-0.0","A13WTEQ06V3B6D","img_art/ins/2.jpg","5","","","","","","","","","","","","","","","","","","","","","","","","",""
"null","","html-keyboard-response","33","111535","0.0-33.0","A13WTEQ06V3B6D","<p style=""font-size: 48px;"">+</p>","","","","","null","allTrialResponses","1500","1","-1","img_art/ins/2.jpg","-23","this looks dark and scary","Adam,John,Ben,James,Daniel,Kyle","too much color,-18,20,20","love the texture of paint,48,160,20","meaningless painting,-45,60,20","looks too angry,-50,140,20","One of my pet peevs,-48,100,20","Idk, it is just annoying,-32,180,20","James","looks too angry,-50,140,20","Daniel","One of my pet peevs,-48,100,20","Kyle","Idk, it is just annoying,-32,180,20","0"
"9055","","survey-text","34","120592","0.0-34.0-0.0","A13WTEQ06V3B6D","","","","{""Q0"":""looks cold and not heart warming""}","","","","","","","","","","","","","","","","","","","","","","",""
"3983.0999999046326","","image-slider-response","35","124576","0.0-35.0","A13WTEQ06V3B6D","","","","","-48","","","","","","","","","","","","","","","","","","","","","",""
"4500","","image-button-response","36","129577","0.0-36.0","A13WTEQ06V3B6D","img_art/ins/3.jpg","3","","","","","","","","","","","","","","","","","","","","","","","","",""
"101","","image-button-response","37","129680","0.0-37.0","A13WTEQ06V3B6D","img_art/ins/3.jpg","5","","","","","","","","","","","","","","","","","","","","","","","","",""
"1731","","image-button-response","38","131411","0.0-38.0-0.0","A13WTEQ06V3B6D","img_art/ins/3.jpg","2","","","","","","","","","","","","","","","","","","","","","","","","",""
"1192","","image-button-response","39","132604","0.0-39.0-0.0","A13WTEQ06V3B6D","img_art/ins/3.jpg","1","","","","","","","","","","","","","","","","","","","","","","","","",""
"null","","html-keyboard-response","40","133105","0.0-40.0","A13WTEQ06V3B6D","<p style=""font-size: 48px;"">+</p>","","","","","null","allTrialResponses","500","1","0","img_art/ins/3.jpg","-48","looks cold and not heart warming","Ron,Mike,Sam,James,Daniel,Kyle","It looks depressing,-26,220,20","enjoy the different shades of blue,22,200,20","I can feel a rainy day from this painting,18,240,20","My worst nightmare,-42,140,20","looks like a murder room,-35,100,20","It looks like a playground for bats,-36,180,20","Kyle","It looks like a playground for bats,-36,180,20","Sam","I can feel a rainy day from this painting,18,240,20","Mike","enjoy the different shades of blue,22,200,20","0"
"4851","","image-button-response_instructions","41","137959","0.0-41.0","A13WTEQ06V3B6D","","0","instructions","","","","","","","","","","","","","","","","","","","","","","","",""
"10579","","survey-likert","42","148539","0.0-42.0-0.0","A13WTEQ06V3B6D","","","","{""Q0"":"""",""Q1"":0,""Q2"":1}","","","","","","","","","","","","","","","","","","","","","","",""
"3440","","survey-text","43","151984","0.0-43.0-0.0","A13WTEQ06V3B6D","","","","{""Q0"":""rock""}","","","","","","","","","","","","","","","","","","","","","","",""
"10111","","survey-text","44","162096","0.0-44.0-0.0","A13WTEQ06V3B6D","","","","{""Q0"":""looks rushed and ugly""}","","","","","","","","","","","","","","","","","","","","","","",""
"3104.899999976158","","image-slider-response","45","165202","0.0-45.0","A13WTEQ06V3B6D","","","","","-46","","","","","","","","","","","","","","","","","","","","","",""
"4483","","image-button-response","46","170218","0.0-46.0","A13WTEQ06V3B6D","img_art/4.jpg","2","","","","","","","","","","","","","","","","","","","","","","","","",""
"1749","","image-button-response","47","171969","0.0-47.0","A13WTEQ06V3B6D","img_art/4.jpg","2","","","","","","","","","","","","","","","","","","","","","","","","",""
"3322","","image-button-response","48","175291","0.0-48.0-0.0","A13WTEQ06V3B6D","img_art/4.jpg","5","","","","","","","","","","","","","","","","","","","","","","","","",""
"991","","image-button-response","49","176284","0.0-49.0-0.0","A13WTEQ06V3B6D","img_art/4.jpg","4","","","","","","","","","","","","","","","","","","","","","","","","",""
"null","","html-keyboard-response","50","177787","0.0-50.0","A13WTEQ06V3B6D","<p style=""font-size: 48px;"">+</p>","","","","","null","allTrialResponses","1500","1","1","img_art/4.jpg","-46","looks rushed and ugly","Alexis,Sean,Joshua,Dakota,Anthony,Alejandro","The bold colors are exciting. It looks like a statue on someone's mantle.,18,140,20","dont know what im looking at,1,40,20","looks very rudimentary and too simple.,-14,240,20","spontaneous, without hesitation,22,280,20","Ugly and bland compared to the other pieces.,-33,200,20","Looks like finger nails from the Guinness world record book.,-30,80,20","Joshua","looks very rudimentary and too simple.,-14,240,20","Alejandro","Looks like finger nails from the Guinness world record book.,-30,80,20","Anthony","Ugly and bland compared to the other pieces.,-33,200,20","0"
"7471","","survey-text","51","185260","0.0-51.0-0.0","A13WTEQ06V3B6D","","","","{""Q0"":""looks busy and dirty""}","","","","","","","","","","","","","","","","","","","","","","",""
"2178.7999999523163","","image-slider-response","52","187440","0.0-52.0","A13WTEQ06V3B6D","","","","","-36","","","","","","","","","","","","","","","","","","","","","",""
"4238","","image-button-response","53","192441","0.0-53.0","A13WTEQ06V3B6D","img_art/11.jpg","4","","","","","","","","","","","","","","","","","","","","","","","","",""
"974","","image-button-response","54","193417","0.0-54.0","A13WTEQ06V3B6D","img_art/11.jpg","4","","","","","","","","","","","","","","","","","","","","","","","","",""
"2998","","image-button-response","55","196417","0.0-55.0-0.0","A13WTEQ06V3B6D","img_art/11.jpg","3","","","","","","","","","","","","","","","","","","","","","","","","",""
"4340","","image-button-response","56","200758","0.0-56.0-0.0","A13WTEQ06V3B6D","img_art/11.jpg","2","","","","","","","","","","","","","","","","","","","","","","","","",""
"null","","html-keyboard-response","57","201761","0.0-57.0","A13WTEQ06V3B6D","<p style=""font-size: 48px;"">+</p>","","","","","null","allTrialResponses","1000","1","2","img_art/11.jpg","-36","looks busy and dirty","Miguel,Nicholas,Joshua,Blake,Anthony,Alejandro","Good but not eye catching,14,160,20","Love the colors and flow,50,240,20","Is interesting. Wouldn't bother me to have this hanging where I'd see it every day.,11,240,20","a train going around the country,14,280,20","The narrow groups of lines in the center make me feel uneasy for some reason,-31,200,20","Enjoyed the lines representing different paths that encompass different entities,20,80,20","Anthony","The narrow groups of lines in the center make me feel uneasy for some reason,-31,200,20","Blake","a train going around the country,14,280,20","Joshua","Is interesting. Wouldn't bother me to have this hanging where I'd see it every day.,11,240,20","0"
"8329","","survey-text","58","210091","0.0-58.0-0.0","A13WTEQ06V3B6D","","","","{""Q0"":""confusing not sure what this is.""}","","","","","","","","","","","","","","","","","","","","","","",""
"2648","","image-slider-response","59","212740","0.0-59.0","A13WTEQ06V3B6D","","","","","-41","","","","","","","","","","","","","","","","","","","","","",""
"1654","","image-button-response","60","217743","0.0-60.0","A13WTEQ06V3B6D","img_art/2.jpg","0","","","","","","","","","","","","","","","","","","","","","","","","",""
"1577","","image-button-response","61","219321","0.0-61.0","A13WTEQ06V3B6D","img_art/2.jpg","4","","","","","","","","","","","","","","","","","","","","","","","","",""
"844","","image-button-response","62","220167","0.0-62.0-0.0","A13WTEQ06V3B6D","img_art/2.jpg","5","","","","","","","","","","","","","","","","","","","","","","","","",""
"634","","image-button-response","63","220803","0.0-63.0-0.0","A13WTEQ06V3B6D","img_art/2.jpg","3","","","","","","","","","","","","","","","","","","","","","","","","",""
"null","","html-keyboard-response","64","221304","0.0-64.0","A13WTEQ06V3B6D","<p style=""font-size: 48px;"">+</p>","","","","","null","allTrialResponses","500","1","3","img_art/2.jpg","-41","confusing not sure what this is.","Dylan,John,Joshua,Blake,Anthony,Cody","This is ugly- too plain and busy at the same time,-9,40,20","Its meh. Doesnt illicit any strong feelings in me,1,120,20","Looks like child's art.,-19,240,20","ugly green color and makes me sick,-29,280,20","Ugly color scheme,-50,200,20","Don't love the colors,-30,180,20","Anthony","Ugly color scheme,-50,200,20","Cody","Don't love the colors,-30,180,20","Blake","ugly green color and makes me sick,-29,280,20","0"
"10877","","survey-text","65","232183","0.0-65.0-0.0","A13WTEQ06V3B6D","","","","{""Q0"":""looks cool and very interesting. Dark colors""}","","","","","","","","","","","","","","","","","","","","","","",""
"2770.1999999284744","","image-slider-response","66","234954","0.0-66.0","A13WTEQ06V3B6D","","","","","8","","","","","","","","","","","","","","","","","","","","","",""
"2431","","image-button-response","67","239956","0.0-67.0","A13WTEQ06V3B6D","img_art/13.jpg","1","","","","","","","","","","","","","","","","","","","","","","","","",""
"340","","image-button-response","68","240297","0.0-68.0","A13WTEQ06V3B6D","img_art/13.jpg","1","","","","","","","","","","","","","","","","","","","","","","","","",""
"742","","image-button-response","69","241041","0.0-69.0-0.0","A13WTEQ06V3B6D","img_art/13.jpg","2","","","","","","","","","","","","","","","","","","","","","","","","",""
"2576","","image-button-response","70","243619","0.0-70.0-0.0","A13WTEQ06V3B6D","img_art/13.jpg","3","","","","","","","","","","","","","","","","","","","","","","","","",""
"null","","html-keyboard-response","71","244620","0.0-71.0","A13WTEQ06V3B6D","<p style=""font-size: 48px;"">+</p>","","","","","null","allTrialResponses","1000","1","4","img_art/13.jpg","8","looks cool and very interesting. Dark colors","Zachary,Mitchell,Alexander,Blake,Anthony,Cody","Peaceful colors.,20,400,20","Magnified rain around trees. Beautiful happy colors. The little person on the right feels nature is huge.,45,180,20","Seeing the world through different lenses.,15,120,20","warm splash of salt water from ocean,16,280,20","I like the color scheme,41,200,20","It's pretty ...........,41,180,20","Mitchell","Magnified rain around trees. Beautiful happy colors. The little person on the right feels nature is huge.,45,180,20","Alexander","Seeing the world through different lenses.,15,120,20","Blake","warm splash of salt water from ocean,16,280,20","0"
"12914","","survey-text","72","257538","0.0-72.0-0.0","A13WTEQ06V3B6D","","","","{""Q0"":""this is peaceful and relaxing, the colors are warm and nice""}","","","","","","","","","","","","","","","","","","","","","","",""
"2845.100000023842","","image-slider-response","73","260384","0.0-73.0","A13WTEQ06V3B6D","","","","","40","","","","","","","","","","","","","","","","","","","","","",""
"3471","","image-button-response","74","265386","0.0-74.0","A13WTEQ06V3B6D","img_art/24.jpg","1","","","","","","","","","","","","","","","","","","","","","","","","",""
"416","","image-button-response","75","265804","0.0-75.0","A13WTEQ06V3B6D","img_art/24.jpg","1","","","","","","","","","","","","","","","","","","","","","","","","",""
"2222","","image-button-response","76","268027","0.0-76.0-0.0","A13WTEQ06V3B6D","img_art/24.jpg","3","","","","","","","","","","","","","","","","","","","","","","","","",""
"1091","","image-button-response","77","269120","0.0-77.0-0.0","A13WTEQ06V3B6D","img_art/24.jpg","4","","","","","","","","","","","","","","","","","","","","","","","","",""
"null","","html-keyboard-response","78","269622","0.0-78.0","A13WTEQ06V3B6D","<p style=""font-size: 48px;"">+</p>","","","","","null","allTrialResponses","500","1","5","img_art/24.jpg","40","this is peaceful and relaxing, the colors are warm and nice","James,Mitchell,Alexander,Blake,Jacob,Isaiah","The waterfall looks peaceful,11,380,20","Nature, Peace, connected.,50,180,20","Water through the fruit.,15,120,20","warm spring day after a rain. soft,20,280,20","Vibrant, beautiful depiction.,50,340,20","I feel relaxed and happy, looking at the stream, but it feels hollow, like something is fake.,5,300,20","Mitchell","Nature, Peace, connected.,50,180,20","Blake","warm spring day after a rain. soft,20,280,20","Jacob","Vibrant, beautiful depiction.,50,340,20","0"
"2967","","survey-text","79","272593","0.0-79.0-0.0","A13WTEQ06V3B6D","","","","{""Q0"":""sky""}","","","","","","","","","","","","","","","","","","","","","","",""
"9421","","survey-text","80","282014","0.0-80.0-0.0","A13WTEQ06V3B6D","","","","{""Q0"":""nice mixture of color.""}","","","","","","","","","","","","","","","","","","","","","","",""
"2299.9000000953674","","image-slider-response","81","284315","0.0-81.0","A13WTEQ06V3B6D","","","","","8","","","","","","","","","","","","","","","","","","","","","",""
"null","","image-button-response","82","289317","0.0-82.0","A13WTEQ06V3B6D","img_art/14.jpg","null","","","","","","","","","","","","","","","","","","","","","","","","",""
"906","","image-button-response","83","290224","0.0-83.0","A13WTEQ06V3B6D","img_art/14.jpg","1","","","","","","","","","","","","","","","","","","","","","","","","",""
"973","","image-button-response","84","291197","0.0-84.0-0.0","A13WTEQ06V3B6D","img_art/14.jpg","3","","","","","","","","","","","","","","","","","","","","","","","","",""
"1928","","image-button-response","85","293127","0.0-85.0-0.0","A13WTEQ06V3B6D","img_art/14.jpg","4","","","","","","","","","","","","","","","","","","","","","","","","",""
"null","","html-keyboard-response","86","294629","0.0-86.0","A13WTEQ06V3B6D","<p style=""font-size: 48px;"">+</p>","","","","","null","allTrialResponses","1500","1","6","img_art/14.jpg","8","nice mixture of color.","Kevin,Mitchell,Robert,Blake,Jacob,Thomas","The pirates ship is sinking.,27,320,20","Tornado, nature. trees falling and displaced creatures. Love the colors though.,1,180,20","Late Winter when things are just starting to bloom.,21,360,20","fuzzy and confused. ok then well,16,280,20","I kind of like it!,6,340,20","I like the colors in the background, but not the bottom/center. It almost looks sloppy.,-20,220,20","Mitchell","Tornado, nature. trees falling and displaced creatures. Love the colors though.,1,180,20","Blake","fuzzy and confused. ok then well,16,280,20","Jacob","I kind of like it!,6,340,20","0"
"16730","","survey-text","87","311361","0.0-87.0-0.0","A13WTEQ06V3B6D","","","","{""Q0"":""colors are bland, makes my head hurt.""}","","","","","","","","","","","","","","","","","","","","","","",""
"2207.100000023842","","image-slider-response","88","313569","0.0-88.0","A13WTEQ06V3B6D","","","","","-36","","","","","","","","","","","","","","","","","","","","","",""
"4997","","image-button-response","89","318572","0.0-89.0","A13WTEQ06V3B6D","img_art/19.jpg","3","","","","","","","","","","","","","","","","","","","","","","","","",""
"905","","image-button-response","90","319478","0.0-90.0","A13WTEQ06V3B6D","img_art/19.jpg","5","","","","","","","","","","","","","","","","","","","","","","","","",""
"744","","image-button-response","91","320224","0.0-91.0-0.0","A13WTEQ06V3B6D","img_art/19.jpg","3","","","","","","","","","","","","","","","","","","","","","","","","",""
"1581","","image-button-response","92","321807","0.0-92.0-0.0","A13WTEQ06V3B6D","img_art/19.jpg","0","","","","","","","","","","","","","","","","","","","","","","","","",""
"null","","html-keyboard-response","93","322308","0.0-93.0","A13WTEQ06V3B6D","<p style=""font-size: 48px;"">+</p>","","","","","null","allTrialResponses","500","1","7","img_art/19.jpg","-36","colors are bland, makes my head hurt.","Stephen,Mitchell,Logan,Blake,Jacob,Carlos","Solid use of colors but wished it looked more realistic.,12,140,20","Higher power looking down at its creation with a half smile and some hurt.,45,180,20","this flow I just really like how everything blends but also doesn't,45,360,20","an old cityfrom many years ago. its ok,6,280,20","Vibrant and colorful,13,340,20","I like the watercolor and colors, do not like the deconstructed city scene feel.,0,80,20","Carlos","I like the watercolor and colors, do not like the deconstructed city scene feel.,0,80,20","Blake","an old cityfrom many years ago. its ok,6,280,20","Stephen","Solid use of colors but wished it looked more realistic.,12,140,20","0"
"17650","","survey-text","94","339960","0.0-94.0-0.0","A13WTEQ06V3B6D","","","","{""Q0"":""intense but wished it had more colors.""}","","","","","","","","","","","","","","","","","","","","","","",""
"3479.5","","image-slider-response","95","343440","0.0-95.0","A13WTEQ06V3B6D","","","","","-10","","","","","","","","","","","","","","","","","","","","","",""
"2924","","image-button-response","96","348442","0.0-96.0","A13WTEQ06V3B6D","img_art/10.jpg","0","","","","","","","","","","","","","","","","","","","","","","","","",""
"956","","image-button-response","97","349399","0.0-97.0","A13WTEQ06V3B6D","img_art/10.jpg","0","","","","","","","","","","","","","","","","","","","","","","","","",""
"3470","","image-button-response","98","352871","0.0-98.0-0.0","A13WTEQ06V3B6D","img_art/10.jpg","5","","","","","","","","","","","","","","","","","","","","","","","","",""
"1007","","image-button-response","99","353879","0.0-99.0-0.0","A13WTEQ06V3B6D","img_art/10.jpg","1","","","","","","","","","","","","","","","","","","","","","","","","",""
"null","","html-keyboard-response","100","355381","0.0-100.0","A13WTEQ06V3B6D","<p style=""font-size: 48px;"">+</p>","","","","","null","allTrialResponses","1500","1","8","img_art/10.jpg","-10","intense but wished it had more colors.","Stephen,Jonathan,Brett,Blake,Christopher,Carlos","Very nice painting, would like it more with different color choice.,6,140,20","Too much negative space makes it feel unfinished,-25,140,20","Musical guitar whimsy,45,360,20","a fast racetrack. go, go, go,5,280,20","i like this, the mix of brush textures is cool,24,160,20","The colors and shapes are soothing but also disconcerting.,21,80,20","Stephen","Very nice painting, would like it more with different color choice.,6,140,20","Carlos","The colors and shapes are soothing but also disconcerting.,21,80,20","Jonathan","Too much negative space makes it feel unfinished,-25,140,20","0"
"9431","","survey-text","101","364815","0.0-101.0-0.0","A13WTEQ06V3B6D","","","","{""Q0"":""looks dark and scary. ""}","","","","","","","","","","","","","","","","","","","","","","",""
"2701.399999976158","","image-slider-response","102","367517","0.0-102.0","A13WTEQ06V3B6D","","","","","-33","","","","","","","","","","","","","","","","","","","","","",""
"4714","","image-button-response","103","372519","0.0-103.0","A13WTEQ06V3B6D","img_art/20.jpg","1","","","","","","","","","","","","","","","","","","","","","","","","",""
"1243","","image-button-response","104","373764","0.0-104.0","A13WTEQ06V3B6D","img_art/20.jpg","1","","","","","","","","","","","","","","","","","","","","","","","","",""
"1241","","image-button-response","105","375006","0.0-105.0-0.0","A13WTEQ06V3B6D","img_art/20.jpg","4","","","","","","","","","","","","","","","","","","","","","","","","",""
"1363","","image-button-response","106","376370","0.0-106.0-0.0","A13WTEQ06V3B6D","img_art/20.jpg","5","","","","","","","","","","","","","","","","","","","","","","","","",""
"null","","html-keyboard-response","107","376872","0.0-107.0","A13WTEQ06V3B6D","<p style=""font-size: 48px;"">+</p>","","","","","null","allTrialResponses","500","1","9","img_art/20.jpg","-33","looks dark and scary. ","Stephen,Jonathan,Eric,Kenneth,Charles,Carlos","Liked the background,15,140,20","This one feels scary in a bad way,-30,140,20","I love the color choice.,25,100,20","I want to like this more, but i wish it was more detailed. It's hard for me to see what it is.,5,300,20","Something bad has happened TO reality,-23,100,20","It feels like it ""almost"" several things.,-10,80,20","Jonathan","This one feels scary in a bad way,-30,140,20","Charles","Something bad has happened TO reality,-23,100,20","Carlos","It feels like it ""almost"" several things.,-10,80,20","0"
"7288","","survey-text","108","384163","0.0-108.0-0.0","A13WTEQ06V3B6D","","","","{""Q0"":""bright and color, makes me happy""}","","","","","","","","","","","","","","","","","","","","","","",""
"2170.1999999284744","","image-slider-response","109","386335","0.0-109.0","A13WTEQ06V3B6D","","","","","23","","","","","","","","","","","","","","","","","","","","","",""
"null","","image-button-response","110","391337","0.0-110.0","A13WTEQ06V3B6D","img_art/1.jpg","null","","","","","","","","","","","","","","","","","","","","","","","","",""
"945","","image-button-response","111","392284","0.0-111.0","A13WTEQ06V3B6D","img_art/1.jpg","0","","","","","","","","","","","","","","","","","","","","","","","","",""
"3491","","image-button-response","112","395776","0.0-112.0-0.0","A13WTEQ06V3B6D","img_art/1.jpg","5","","","","","","","","","","","","","","","","","","","","","","","","",""
"770","","image-button-response","113","396547","0.0-113.0-0.0","A13WTEQ06V3B6D","img_art/1.jpg","3","","","","","","","","","","","","","","","","","","","","","","","","",""
"null","","html-keyboard-response","114","397049","0.0-114.0","A13WTEQ06V3B6D","<p style=""font-size: 48px;"">+</p>","","","","","null","allTrialResponses","500","1","10","img_art/1.jpg","23","bright and color, makes me happy","William,Jonathan,Ryan,Austin,Charles,Carlos","love how the colors blend,42,380,20","I love the colors but it's too intense sometimes,22,140,20","Seems like one i previously saw in this survey,27,380,20","Absolutely love this painting,50,240,20","It's like being out on a psychedelic lake,32,100,20","Colors are pleasant, but feels incredibly generic.,9,80,20","William","love how the colors blend,42,380,20","Carlos","Colors are pleasant, but feels incredibly generic.,9,80,20","Austin","Absolutely love this painting,50,240,20","0"
"2561","","survey-text","115","399614","0.0-115.0-0.0","A13WTEQ06V3B6D","","","","{""Q0"":""our""}","","","","","","","","","","","","","","","","","","","","","","",""
"9712","","survey-text","116","409328","0.0-116.0-0.0","A13WTEQ06V3B6D","","","","{""Q0"":""feels like home and comforting""}","","","","","","","","","","","","","","","","","","","","","","",""
"2149.399999976158","","image-slider-response","117","411478","0.0-117.0","A13WTEQ06V3B6D","","","","","17","","","","","","","","","","","","","","","","","","","","","",""
"3947","","image-button-response","118","416481","0.0-118.0","A13WTEQ06V3B6D","img_art/26.jpg","1","","","","","","","","","","","","","","","","","","","","","","","","",""
"775","","image-button-response","119","417256","0.0-119.0","A13WTEQ06V3B6D","img_art/26.jpg","1","","","","","","","","","","","","","","","","","","","","","","","","",""
"1188","","image-button-response","120","418446","0.0-120.0-0.0","A13WTEQ06V3B6D","img_art/26.jpg","2","","","","","","","","","","","","","","","","","","","","","","","","",""
"610","","image-button-response","121","419057","0.0-121.0-0.0","A13WTEQ06V3B6D","img_art/26.jpg","3","","","","","","","","","","","","","","","","","","","","","","","","",""
"null","","html-keyboard-response","122","420058","0.0-122.0","A13WTEQ06V3B6D","<p style=""font-size: 48px;"">+</p>","","","","","null","allTrialResponses","1000","1","11","img_art/26.jpg","17","feels like home and comforting","William,Joseph,Richard,Austin,Connor,Carlos","feels a tad old,30,380,20","Looks like the suburbs. I live in those.,13,220,20","subtle use of colors, city street view?,8,340,20","Like the soft blend of colors,26,240,20","City scene in a park,23,240,20","Pleasant but bland.,10,80,20","Joseph","Looks like the suburbs. I live in those.,13,220,20","Richard","subtle use of colors, city street view?,8,340,20","Austin","Like the soft blend of colors,26,240,20","0"
"12968","","survey-text","123","433028","0.0-123.0-0.0","A13WTEQ06V3B6D","","","","{""Q0"":""very intense and scary. Makes me feel fear.""}","","","","","","","","","","","","","","","","","","","","","","",""
"2594","","image-slider-response","124","435623","0.0-124.0","A13WTEQ06V3B6D","","","","","-26","","","","","","","","","","","","","","","","","","","","","",""
"3874","","image-button-response","125","440626","0.0-125.0","A13WTEQ06V3B6D","img_art/8.jpg","1","","","","","","","","","","","","","","","","","","","","","","","","",""
"2317","","image-button-response","126","442945","0.0-126.0","A13WTEQ06V3B6D","img_art/8.jpg","1","","","","","","","","","","","","","","","","","","","","","","","","",""
"1067","","image-button-response","127","444014","0.0-127.0-0.0","A13WTEQ06V3B6D","img_art/8.jpg","4","","","","","","","","","","","","","","","","","","","","","","","","",""
"2068","","image-button-response","128","446084","0.0-128.0-0.0","A13WTEQ06V3B6D","img_art/8.jpg","5","","","","","","","","","","","","","","","","","","","","","","","","",""
"null","","html-keyboard-response","129","446586","0.0-129.0","A13WTEQ06V3B6D","<p style=""font-size: 48px;"">+</p>","","","","","null","allTrialResponses","500","1","12","img_art/8.jpg","-26","very intense and scary. Makes me feel fear.","Cole,Joseph,Richard,Austin,Alex,Adrian","Its abstract and interesting,24,200,20","The faces are kinda freaky.,-17,220,20","lots going on with great use of lots of color and geometry,24,340,20","Very unique and different,31,240,20","I appreciate the complexity of this piece but it's too cubist for me,3,100,20","Pleasant colors, lots of interest. Not sure what's going on but I like it.,20,60,20","Joseph","The faces are kinda freaky.,-17,220,20","Alex","I appreciate the complexity of this piece but it's too cubist for me,3,100,20","Adrian","Pleasant colors, lots of interest. Not sure what's going on but I like it.,20,60,20","0"
"32761","","survey-text","130","479350","0.0-130.0-0.0","A13WTEQ06V3B6D","","","","{""Q0"":""scary and intimidating, could use more colors.""}","","","","","","","","","","","","","","","","","","","","","","",""
"2988","","image-slider-response","131","482339","0.0-131.0","A13WTEQ06V3B6D","","","","","-38","","","","","","","","","","","","","","","","","","","","","",""
"null","","image-button-response","132","487342","0.0-132.0","A13WTEQ06V3B6D","img_art/16.jpg","null","","","","","","","","","","","","","","","","","","","","","","","","",""
"545","","image-button-response","133","487888","0.0-133.0","A13WTEQ06V3B6D","img_art/16.jpg","1","","","","","","","","","","","","","","","","","","","","","","","","",""
"498","","image-button-response","134","488386","0.0-134.0-0.0","A13WTEQ06V3B6D","img_art/16.jpg","1","","","","","","","","","","","","","","","","","","","","","","","","",""
"956","","image-button-response","135","493178","0.0-134.1-0.1","A13WTEQ06V3B6D","img_art/16.jpg","2","","","","","","","","","","","","","","","","","","","","","","","","",""
"2071","","image-button-response","136","495250","0.0-135.0-0.0","A13WTEQ06V3B6D","img_art/16.jpg","5","","","","","","","","","","","","","","","","","","","","","","","","",""
"null","","html-keyboard-response","137","496753","0.0-136.0","A13WTEQ06V3B6D","<p style=""font-size: 48px;"">+</p>","","","","","null","allTrialResponses","1500","1","13","img_art/16.jpg","-38","scary and intimidating, could use more colors.","Justin,Joseph,Samuel,Ethan,Alex,Adrian","Kind of dull, colors and drawings are not really interesting.,0,280,20","Looks upsetting. Like it's actually graphic violence but you can't tell.,-24,220,20","childhood horror,3,400,20","This is a neat piece. Sort of shocking. I think it's too monochromatic though.,19,120,20","I'm a fan of collage and of reminiscing about childhood so this was nice,10,100,20","It's depressing. Probably achieved its goal. But I wouldn't want it hanging in my home.,-31,60,20","Joseph","Looks upsetting. Like it's actually graphic violence but you can't tell.,-24,220,20","Samuel","childhood horror,3,400,20","Adrian","It's depressing. Probably achieved its goal. But I wouldn't want it hanging in my home.,-31,60,20","2"
"16256","","survey-text","138","513011","0.0-137.0-0.0","A13WTEQ06V3B6D","","","","{""Q0"":""colors are bland, looks sad and depressing""}","","","","","","","","","","","","","","","","","","","","","","",""
"3219.600000023842","","image-slider-response","139","516232","0.0-138.0","A13WTEQ06V3B6D","","","","","-39","","","","","","","","","","","","","","","","","","","","","",""
"null","","image-button-response","140","521234","0.0-139.0","A13WTEQ06V3B6D","img_art/28.jpg","null","","","","","","","","","","","","","","","","","","","","","","","","",""
"699","","image-button-response","141","521935","0.0-140.0","A13WTEQ06V3B6D","img_art/28.jpg","4","","","","","","","","","","","","","","","","","","","","","","","","",""
"823","","image-button-response","142","522760","0.0-141.0-0.0","A13WTEQ06V3B6D","img_art/28.jpg","5","","","","","","","","","","","","","","","","","","","","","","","","",""
"620","","image-button-response","143","523382","0.0-142.0-0.0","A13WTEQ06V3B6D","img_art/28.jpg","3","","","","","","","","","","","","","","","","","","","","","","","","",""
"null","","html-keyboard-response","144","524884","0.0-143.0","A13WTEQ06V3B6D","<p style=""font-size: 48px;"">+</p>","","","","","null","allTrialResponses","1500","1","14","img_art/28.jpg","-39","colors are bland, looks sad and depressing","Marcus,Joseph,Samuel,Evan,Adam,Adrian","This reminds me of internal organs.,-10,60,20","Don't love it, don't hate it. It's just there.,1,220,20","conversating means hope,15,400,20","It feels very blah,-10,140,20","Dislike the colors.,-20,40,20","Not a fan of the drab colors but it looks a little bit interesting.,-7,60,20","Adam","Dislike the colors.,-20,40,20","Adrian","Not a fan of the drab colors but it looks a little bit interesting.,-7,60,20","Evan","It feels very blah,-10,140,20","2"
"8724","","survey-text","145","533611","0.0-144.0-0.0","A13WTEQ06V3B6D","","","","{""Q0"":""looks like blood and death.""}","","","","","","","","","","","","","","","","","","","","","","",""
"4459.600000023842","","image-slider-response","146","538072","0.0-145.0","A13WTEQ06V3B6D","","","","","-50","","","","","","","","","","","","","","","","","","","","","",""
"null","","image-button-response","147","543073","0.0-146.0","A13WTEQ06V3B6D","img_art/3.jpg","null","","","","","","","","","","","","","","","","","","","","","","","","",""
"747","","image-button-response","148","543822","0.0-147.0","A13WTEQ06V3B6D","img_art/3.jpg","2","","","","","","","","","","","","","","","","","","","","","","","","",""
"5047","","image-button-response","149","548870","0.0-148.0-0.0","A13WTEQ06V3B6D","img_art/3.jpg","5","","","","","","","","","","","","","","","","","","","","","","","","",""
"691","","image-button-response","150","549563","0.0-149.0-0.0","A13WTEQ06V3B6D","img_art/3.jpg","3","","","","","","","","","","","","","","","","","","","","","","","","",""
"null","","html-keyboard-response","151","550063","0.0-150.0","A13WTEQ06V3B6D","<p style=""font-size: 48px;"">+</p>","","","","","null","allTrialResponses","500","1","15","img_art/3.jpg","-50","looks like blood and death.","Trevor,Jason,Nathan,Evan,Adam,Adrian","looks more classic but i'm not a fan of the colors,7,280,20","Too much red; very bland,-26,20,20","Looks like it was painted with blood, which I'm aware is an art style, but it just looks messy.,-20,200,20","It feels like a half assed and failed imitation of Japanese signatures on old paintings,-22,140,20","Reminds me of a hot mess,-10,40,20","Angry red crayons, like a child throwing a tantrum. No thanks.,-10,60,20","Nathan","Looks like it was painted with blood, which I'm aware is an art style, but it just looks messy.,-20,200,20","Adrian","Angry red crayons, like a child throwing a tantrum. No thanks.,-10,60,20","Evan","It feels like a half assed and failed imitation of Japanese signatures on old paintings,-22,140,20","2"
"4823","","survey-text","152","554891","0.0-151.0-0.0","A13WTEQ06V3B6D","","","","{""Q0"":""course""}","","","","","","","","","","","","","","","","","","","","","","",""
"11153","","survey-text","153","566045","0.0-152.0-0.0","A13WTEQ06V3B6D","","","","{""Q0"":""abstract and difficult to understand""}","","","","","","","","","","","","","","","","","","","","","","",""
"2537","","image-slider-response","154","568583","0.0-153.0","A13WTEQ06V3B6D","","","","","-22","","","","","","","","","","","","","","","","","","","","","",""
"null","","image-button-response","155","573585","0.0-154.0","A13WTEQ06V3B6D","img_art/27.jpg","null","","","","","","","","","","","","","","","","","","","","","","","","",""
"95","","image-button-response","156","573682","0.0-155.0","A13WTEQ06V3B6D","img_art/27.jpg","2","","","","","","","","","","","","","","","","","","","","","","","","",""
"1066","","image-button-response","157","574750","0.0-156.0-0.0","A13WTEQ06V3B6D","img_art/27.jpg","0","","","","","","","","","","","","","","","","","","","","","","","","",""
"13562","","image-button-response","158","588313","0.0-157.0-0.0","A13WTEQ06V3B6D","img_art/27.jpg","5","","","","","","","","","","","","","","","","","","","","","","","","",""
"null","","html-keyboard-response","159","589815","0.0-158.0","A13WTEQ06V3B6D","<p style=""font-size: 48px;"">+</p>","","","","","null","allTrialResponses","1500","1","16","img_art/27.jpg","-22","abstract and difficult to understand","Bryan,Juan,Nathan,Evan,Peter,Adrian","Not fond of the bad pencil drawing mixed with the drab colors.,-21,400,20","Colors make me think of fall, but I don't like how the picture was done or the weird lines across the background,6,260,20","Looks a bit like a child's project with unsatisfying colors,-31,200,20","I am bothered by the green doodles,-20,140,20","Calming sky , relaxing,23,320,20","Looks like my niece's doodles.,-50,60,20","Nathan","Looks a bit like a child's project with unsatisfying colors,-31,200,20","Bryan","Not fond of the bad pencil drawing mixed with the drab colors.,-21,400,20","Adrian","Looks like my niece's doodles.,-50,60,20","2"
"14825","","survey-text","160","604642","0.0-159.0-0.0","A13WTEQ06V3B6D","","","","{""Q0"":""simple and difficult to understand.""}","","","","","","","","","","","","","","","","","","","","","","",""
"3450.5999999046326","","image-slider-response","161","608094","0.0-160.0","A13WTEQ06V3B6D","","","","","-31","","","","","","","","","","","","","","","","","","","","","",""
"4349","","image-button-response","162","613096","0.0-161.0","A13WTEQ06V3B6D","img_art/5.jpg","0","","","","","","","","","","","","","","","","","","","","","","","","",""
"577","","image-button-response","163","613675","0.0-162.0","A13WTEQ06V3B6D","img_art/5.jpg","0","","","","","","","","","","","","","","","","","","","","","","","","",""
"658","","image-button-response","164","614334","0.0-163.0-0.0","A13WTEQ06V3B6D","img_art/5.jpg","2","","","","","","","","","","","","","","","","","","","","","","","","",""
"5761","","image-button-response","165","620096","0.0-164.0-0.0","A13WTEQ06V3B6D","img_art/5.jpg","4","","","","","","","","","","","","","","","","","","","","","","","","",""
"null","","html-keyboard-response","166","621602","0.0-165.0","A13WTEQ06V3B6D","<p style=""font-size: 48px;"">+</p>","","","","","null","allTrialResponses","1500","1","17","img_art/5.jpg","-31","simple and difficult to understand.","Bryan,Derek,Nathan,Gabriel,Tristan,Adrian","Looks like a yellow plastic trash bag.,-42,400,20","It's okay. Don't hate it but don't love it either,0,360,20","Not a fan of the themes,-30,200,20","too abstract, looks like a pyramid,-22,160,20","Nearly white background gives a lack of context. Questionable skills,-45,300,20","Black bit reminds me of a giant splinter. Yellow bit reminds me of urine. I hate it.,-50,60,20","Bryan","Looks like a yellow plastic trash bag.,-42,400,20","Nathan","Not a fan of the themes,-30,200,20","Tristan","Nearly white background gives a lack of context. Questionable skills,-45,300,20","2"
"16610","","survey-text","167","638214","0.0-166.0-0.0","A13WTEQ06V3B6D","","","","{""Q0"":""lack of details, too much empty space, creepy feeling.""}","","","","","","","","","","","","","","","","","","","","","","",""
"2973.7999999523163","","image-slider-response","168","641189","0.0-167.0","A13WTEQ06V3B6D","","","","","-41","","","","","","","","","","","","","","","","","","","","","",""
"null","","image-button-response","169","646192","0.0-168.0","A13WTEQ06V3B6D","img_art/6.jpg","null","","","","","","","","","","","","","","","","","","","","","","","","",""
"1396","","image-button-response","170","647589","0.0-169.0","A13WTEQ06V3B6D","img_art/6.jpg","2","","","","","","","","","","","","","","","","","","","","","","","","",""
"1265","","image-button-response","171","648856","0.0-170.0-0.0","A13WTEQ06V3B6D","img_art/6.jpg","4","","","","","","","","","","","","","","","","","","","","","","","","",""
"1113","","image-button-response","172","649971","0.0-171.0-0.0","A13WTEQ06V3B6D","img_art/6.jpg","0","","","","","","","","","","","","","","","","","","","","","","","","",""
"null","","html-keyboard-response","173","650472","0.0-172.0","A13WTEQ06V3B6D","<p style=""font-size: 48px;"">+</p>","","","","","null","allTrialResponses","500","1","18","img_art/6.jpg","-41","lack of details, too much empty space, creepy feeling.","Bryan,Bradley,Nathan,Aaron,Tristan,Edward","Growth in the desert?  Don't care for it very much.,-26,400,20","It's okay. It kind of looks like a bird with his head buried in his feathers.,2,300,20","Not a fan of anything in this,-43,200,20","It reminds me of a simplistic bird. I like the colors used.,40,20,20","Lack of context makes this painting 1-d for me. The headless bird is mysterious and indecipherable.,-10,300,20","It looks like a bird looking away,32,60,20","Nathan","Not a fan of anything in this,-43,200,20","Tristan","Lack of context makes this painting 1-d for me. The headless bird is mysterious and indecipherable.,-10,300,20","Bryan","Growth in the desert?  Don't care for it very much.,-26,400,20","2"
"15279","","survey-text","174","665754","0.0-173.0-0.0","A13WTEQ06V3B6D","","","","{""Q0"":""too much going on, scary and intense""}","","","","","","","","","","","","","","","","","","","","","","",""
"1906","","image-slider-response","175","667661","0.0-174.0","A13WTEQ06V3B6D","","","","","-35","","","","","","","","","","","","","","","","","","","","","",""
"null","","image-button-response","176","672665","0.0-175.0","A13WTEQ06V3B6D","img_art/23.jpg","null","","","","","","","","","","","","","","","","","","","","","","","","",""
"421","","image-button-response","177","673088","0.0-176.0","A13WTEQ06V3B6D","img_art/23.jpg","3","","","","","","","","","","","","","","","","","","","","","","","","",""
"1927","","image-button-response","178","675016","0.0-177.0-0.0","A13WTEQ06V3B6D","img_art/23.jpg","5","","","","","","","","","","","","","","","","","","","","","","","","",""
"1532","","image-button-response","179","676550","0.0-178.0-0.0","A13WTEQ06V3B6D","img_art/23.jpg","1","","","","","","","","","","","","","","","","","","","","","","","","",""
"null","","html-keyboard-response","180","677552","0.0-179.0","A13WTEQ06V3B6D","<p style=""font-size: 48px;"">+</p>","","","","","null","allTrialResponses","1000","1","19","img_art/23.jpg","-35","too much going on, scary and intense","Bryan,Noah,Nathan,Travis,Tristan,Cameron","Looks like fireworks.,21,400,20","the pattern of colours imbues in me a sense of infinity, which I find soothing,10,260,20","While I don't normally enjoy these color schemes all together, I kind of like this one,10,200,20","I had a very neutral feeling to this,no feelings at all.,1,260,20","So exciting and full of the night.,20,300,20","looks like those paper chain things.,0,60,20","Travis","I had a very neutral feeling to this,no feelings at all.,1,260,20","Cameron","looks like those paper chain things.,0,60,20","Noah","the pattern of colours imbues in me a sense of infinity, which I find soothing,10,260,20","2"
"15433","","survey-text","181","692989","0.0-180.0-0.0","A13WTEQ06V3B6D","","","","{""Q0"":""looks confusing, too hard to understand""}","","","","","","","","","","","","","","","","","","","","","","",""
"3344","","image-slider-response","182","696334","0.0-181.0","A13WTEQ06V3B6D","","","","","-50","","","","","","","","","","","","","","","","","","","","","",""
"4433","","image-button-response","183","701335","0.0-182.0","A13WTEQ06V3B6D","img_art/12.jpg","0","","","","","","","","","","","","","","","","","","","","","","","","",""
"301","","image-button-response","184","701637","0.0-183.0","A13WTEQ06V3B6D","img_art/12.jpg","0","","","","","","","","","","","","","","","","","","","","","","","","",""
"541","","image-button-response","185","702179","0.0-184.0-0.0","A13WTEQ06V3B6D","img_art/12.jpg","1","","","","","","","","","","","","","","","","","","","","","","","","",""
"2702","","image-button-response","186","704883","0.0-185.0-0.0","A13WTEQ06V3B6D","img_art/12.jpg","5","","","","","","","","","","","","","","","","","","","","","","","","",""
"null","","html-keyboard-response","187","705386","0.0-186.0","A13WTEQ06V3B6D","<p style=""font-size: 48px;"">+</p>","","","","","null","allTrialResponses","500","1","20","img_art/12.jpg","-50","looks confusing, too hard to understand","Jordan,Noah,Devin,Travis,Chase,Cameron","Made me uncomfortable, reminded me of the 90s,-9,160,20","evokes the 80s, and not in a necessarily good way,-10,260,20","Love the shapes here,12,380,20","Neutral...just blocks.,3,260,20","It's not particularly interesting or ugly.,-7,120,20","Dislike the style, the sharp rectangular pattern very jarring.,-20,60,20","Jordan","Made me uncomfortable, reminded me of the 90s,-9,160,20","Noah","evokes the 80s, and not in a necessarily good way,-10,260,20","Cameron","Dislike the style, the sharp rectangular pattern very jarring.,-20,60,20","2"
"2756","","survey-text","188","708147","0.0-187.0-0.0","A13WTEQ06V3B6D","","","","{""Q0"":""we""}","","","","","","","","","","","","","","","","","","","","","","",""
"9238","","survey-text","189","717386","0.0-188.0-0.0","A13WTEQ06V3B6D","","","","{""Q0"":""looks dark and violent""}","","","","","","","","","","","","","","","","","","","","","","",""
"2183.399999976158","","image-slider-response","190","719571","0.0-189.0","A13WTEQ06V3B6D","","","","","-45","","","","","","","","","","","","","","","","","","","","","",""
"4122","","image-button-response","191","724572","0.0-190.0","A13WTEQ06V3B6D","img_art/29.jpg","0","","","","","","","","","","","","","","","","","","","","","","","","",""
"112","","image-button-response","192","724685","0.0-191.0","A13WTEQ06V3B6D","img_art/29.jpg","0","","","","","","","","","","","","","","","","","","","","","","","","",""
"982","","image-button-response","193","725668","0.0-192.0-0.0","A13WTEQ06V3B6D","img_art/29.jpg","2","","","","","","","","","","","","","","","","","","","","","","","","",""
"861","","image-button-response","194","726531","0.0-193.0-0.0","A13WTEQ06V3B6D","img_art/29.jpg","0","","","","","","","","","","","","","","","","","","","","","","","","",""
"806","","image-button-response","195","730243","0.0-193.1-0.1","A13WTEQ06V3B6D","img_art/29.jpg","4","","","","","","","","","","","","","","","","","","","","","","","","",""
"null","","html-keyboard-response","196","730745","0.0-194.0","A13WTEQ06V3B6D","<p style=""font-size: 48px;"">+</p>","","","","","null","allTrialResponses","500","1","21","img_art/29.jpg","-45","looks dark and violent","Jordan,Noah,Steven,Colton,Shane,Cameron","Messy and disorganized, to odark,-31,160,20","the mixed medium / collage annoys me,-19,260,20","Yeah, I don't know. It's clearly a situation where art is the reject of something more,-27,160,20","interesting, but I wouldn't put it on my wall,8,220,20","Darkness and torment,-50,80,20","Lines and light are clean but subject doesn't interest me,0,60,20","Jordan","Messy and disorganized, to odark,-31,160,20","Steven","Yeah, I don't know. It's clearly a situation where art is the reject of something more,-27,160,20","Shane","Darkness and torment,-50,80,20","4"
"16945","","survey-text","197","747693","0.0-195.0-0.0","A13WTEQ06V3B6D","","","","{""Q0"":""dark and depressing, could use more colors""}","","","","","","","","","","","","","","","","","","","","","","",""
"2906.899999976158","","image-slider-response","198","750601","0.0-196.0","A13WTEQ06V3B6D","","","","","-34","","","","","","","","","","","","","","","","","","","","","",""
"4512","","image-button-response","199","755602","0.0-197.0","A13WTEQ06V3B6D","img_art/15.jpg","2","","","","","","","","","","","","","","","","","","","","","","","","",""
"752","","image-button-response","200","756356","0.0-198.0","A13WTEQ06V3B6D","img_art/15.jpg","2","","","","","","","","","","","","","","","","","","","","","","","","",""
"2371","","image-button-response","201","758727","0.0-199.0-0.0","A13WTEQ06V3B6D","img_art/15.jpg","4","","","","","","","","","","","","","","","","","","","","","","","","",""
"1419","","image-button-response","202","760147","0.0-200.0-0.0","A13WTEQ06V3B6D","img_art/15.jpg","3","","","","","","","","","","","","","","","","","","","","","","","","",""
"null","","html-keyboard-response","203","760648","0.0-201.0","A13WTEQ06V3B6D","<p style=""font-size: 48px;"">+</p>","","","","","null","allTrialResponses","500","1","22","img_art/15.jpg","-34","dark and depressing, could use more colors","Jordan,Antonio,Steven,Ian,Shane,Brian","This also has nice contrast,34,160,20","Makes me think of a bush and flowers and spring and happy warm times,25,220,20","I'm just not into it,-5,160,20","This gives a skin crawling feeling. Like something that you could see under a mircoscope,10,260,20","Too intense with the black dotting,-22,80,20","This is simply too ""old-school"",-27,380,20","Steven","I'm just not into it,-5,160,20","Shane","Too intense with the black dotting,-22,80,20","Ian","This gives a skin crawling feeling. Like something that you could see under a mircoscope,10,260,20","4"
"11687","","survey-text","204","772339","0.0-202.0-0.0","A13WTEQ06V3B6D","","","","{""Q0"":""looks like blood and war, too violent""}","","","","","","","","","","","","","","","","","","","","","","",""
"2503.399999976158","","image-slider-response","205","774843","0.0-203.0","A13WTEQ06V3B6D","","","","","-36","","","","","","","","","","","","","","","","","","","","","",""
"null","","image-button-response","206","779845","0.0-204.0","A13WTEQ06V3B6D","img_art/21.jpg","null","","","","","","","","","","","","","","","","","","","","","","","","",""
"1232","","image-button-response","207","781079","0.0-205.0","A13WTEQ06V3B6D","img_art/21.jpg","4","","","","","","","","","","","","","","","","","","","","","","","","",""
"1157","","image-button-response","208","782237","0.0-206.0-0.0","A13WTEQ06V3B6D","img_art/21.jpg","5","","","","","","","","","","","","","","","","","","","","","","","","",""
"4283","","image-button-response","209","786521","0.0-207.0-0.0","A13WTEQ06V3B6D","img_art/21.jpg","0","","","","","","","","","","","","","","","","","","","","","","","","",""
"null","","html-keyboard-response","210","787022","0.0-208.0","A13WTEQ06V3B6D","<p style=""font-size: 48px;"">+</p>","","","","","null","allTrialResponses","500","1","23","img_art/21.jpg","-36","looks like blood and war, too violent","Bryce,Andrew,Steven,Ian,Shane,Tanner","Nothing exciting in this one.,-36,20,20","I love the contrasting tones between the two sides,36,160,20","Okay, I love the color schemes, I can't quite figure it out though,14,160,20","This looks very interesting because something is happening but I can't tell what.,28,260,20","It reminds me of war, red blood and dark blue reminds me of an army,-20,80,20","calm, ship at sea, sunset,16,180,20","Shane","It reminds me of war, red blood and dark blue reminds me of an army,-20,80,20","Tanner","calm, ship at sea, sunset,16,180,20","Bryce","Nothing exciting in this one.,-36,20,20","4"
"13503","","survey-text","211","800529","0.0-209.0-0.0","A13WTEQ06V3B6D","","","","{""Q0"":""this is relaxing and peaceful, feels like sand at the beach.""}","","","","","","","","","","","","","","","","","","","","","","",""
"2373.2999999523163","","image-slider-response","212","802903","0.0-210.0","A13WTEQ06V3B6D","","","","","21","","","","","","","","","","","","","","","","","","","","","",""
"4087","","image-button-response","213","807905","0.0-211.0","A13WTEQ06V3B6D","img_art/7.jpg","0","","","","","","","","","","","","","","","","","","","","","","","","",""
"438","","image-button-response","214","808345","0.0-212.0","A13WTEQ06V3B6D","img_art/7.jpg","0","","","","","","","","","","","","","","","","","","","","","","","","",""
"1765","","image-button-response","215","810111","0.0-213.0-0.0","A13WTEQ06V3B6D","img_art/7.jpg","5","","","","","","","","","","","","","","","","","","","","","","","","",""
"944","","image-button-response","216","811056","0.0-214.0-0.0","A13WTEQ06V3B6D","img_art/7.jpg","1","","","","","","","","","","","","","","","","","","","","","","","","",""
"null","","html-keyboard-response","217","811557","0.0-215.0","A13WTEQ06V3B6D","<p style=""font-size: 48px;"">+</p>","","","","","null","allTrialResponses","500","1","24","img_art/7.jpg","21","this is relaxing and peaceful, feels like sand at the beach.","Bryce,Jared,Jake,Seth,Shane,Tanner","I love the texture.,20,20,20","it looks like a dog ran through some wet cement,-22,400,20","This is vague and ugly.,-3,360,20","This piece reminds me of ants and it makes my skin crawl.,-37,60,20","Dessert like almost like dry land,4,80,20","sand, beach, tranquil,10,180,20","Bryce","I love the texture.,20,20,20","Tanner","sand, beach, tranquil,10,180,20","Jared","it looks like a dog ran through some wet cement,-22,400,20","4"
"16851","","survey-text","218","828410","0.0-216.0-0.0","A13WTEQ06V3B6D","","","","{""Q0"":""looks relaxing, at the edge of a high location.""}","","","","","","","","","","","","","","","","","","","","","","",""
"7920.5","","image-slider-response","219","836332","0.0-217.0","A13WTEQ06V3B6D","","","","","13","","","","","","","","","","","","","","","","","","","","","",""
"3924","","image-button-response","220","841334","0.0-218.0","A13WTEQ06V3B6D","img_art/17.jpg","2","","","","","","","","","","","","","","","","","","","","","","","","",""
"657","","image-button-response","221","841991","0.0-219.0","A13WTEQ06V3B6D","img_art/17.jpg","1","","","","","","","","","","","","","","","","","","","","","","","","",""
"474","","image-button-response","222","842467","0.0-220.0-0.0","A13WTEQ06V3B6D","img_art/17.jpg","2","","","","","","","","","","","","","","","","","","","","","","","","",""
"2603","","image-button-response","223","845071","0.0-221.0-0.0","A13WTEQ06V3B6D","img_art/17.jpg","5","","","","","","","","","","","","","","","","","","","","","","","","",""
"null","","html-keyboard-response","224","846573","0.0-222.0","A13WTEQ06V3B6D","<p style=""font-size: 48px;"">+</p>","","","","","null","allTrialResponses","1500","1","25","img_art/17.jpg","13","looks relaxing, at the edge of a high location.","Bryce,Jared,Luke,Patrick,Mark,Tanner","Doesnt really do anythingb for me.,4,20,20","the colors, the arch and the wall,15,400,20","it looks very intricate and colorful,50,20,20","Beautiful patterns but evokes sad emotions in me due to the color shades,31,280,20","A coming storm but I think I would appreciate it more with more contrast.,-12,80,20","calm, tranquil, happy,50,180,20","Jared","the colors, the arch and the wall,15,400,20","Luke","it looks very intricate and colorful,50,20,20","Tanner","calm, tranquil, happy,50,180,20","4"
"3492","","survey-text","225","850070","0.0-223.0-0.0","A13WTEQ06V3B6D","","","","{""Q0"":""table""}","","","","","","","","","","","","","","","","","","","","","","",""
"8178","","survey-text","226","858250","0.0-224.0-0.0","A13WTEQ06V3B6D","","","","{""Q0"":""looks calm and peaceful""}","","","","","","","","","","","","","","","","","","","","","","",""
"1915.5","","image-slider-response","227","860166","0.0-225.0","A13WTEQ06V3B6D","","","","","25","","","","","","","","","","","","","","","","","","","","","",""
"4954","","image-button-response","228","865169","0.0-226.0","A13WTEQ06V3B6D","img_art/9.jpg","1","","","","","","","","","","","","","","","","","","","","","","","","",""
"828","","image-button-response","229","865999","0.0-227.0","A13WTEQ06V3B6D","img_art/9.jpg","1","","","","","","","","","","","","","","","","","","","","","","","","",""
"687","","image-button-response","230","866688","0.0-228.0-0.0","A13WTEQ06V3B6D","img_art/9.jpg","2","","","","","","","","","","","","","","","","","","","","","","","","",""
"3418","","image-button-response","231","870108","0.0-229.0-0.0","A13WTEQ06V3B6D","img_art/9.jpg","5","","","","","","","","","","","","","","","","","","","","","","","","",""
"null","","html-keyboard-response","232","871609","0.0-230.0","A13WTEQ06V3B6D","<p style=""font-size: 48px;"">+</p>","","","","","null","allTrialResponses","1500","1","26","img_art/9.jpg","25","looks calm and peaceful","Christian,Jared,Luke,Dustin,Corey,Tanner","love the color palette, but I'm gonna be honest, I don't really understand it,14,140,20","it looks like a lady resting. it is soothing.,4,400,20","it makes me feel excited and draws my eye around,24,20,20","I like the blues and pinks. The woman lying down communicates relaxation. It is a serene, calming scene,30,20,20","keeps me interested. like the colors,17,260,20","sleep, calm, safe,12,180,20","Jared","it looks like a lady resting. it is soothing.,4,400,20","Luke","it makes me feel excited and draws my eye around,24,20,20","Tanner","sleep, calm, safe,12,180,20","4"
"9183","","survey-text","233","880794","0.0-231.0-0.0","A13WTEQ06V3B6D","","","","{""Q0"":""colorful and relaxing""}","","","","","","","","","","","","","","","","","","","","","","",""
"3231.399999976158","","image-slider-response","234","884027","0.0-232.0","A13WTEQ06V3B6D","","","","","10","","","","","","","","","","","","","","","","","","","","","",""
"null","","image-button-response","235","889030","0.0-233.0","A13WTEQ06V3B6D","img_art/30.jpg","null","","","","","","","","","","","","","","","","","","","","","","","","",""
"697","","image-button-response","236","889728","0.0-234.0","A13WTEQ06V3B6D","img_art/30.jpg","2","","","","","","","","","","","","","","","","","","","","","","","","",""
"2359","","image-button-response","237","892088","0.0-235.0-0.0","A13WTEQ06V3B6D","img_art/30.jpg","5","","","","","","","","","","","","","","","","","","","","","","","","",""
"2875","","image-button-response","238","894964","0.0-236.0-0.0","A13WTEQ06V3B6D","img_art/30.jpg","1","","","","","","","","","","","","","","","","","","","","","","","","",""
"null","","html-keyboard-response","239","895467","0.0-237.0","A13WTEQ06V3B6D","<p style=""font-size: 48px;"">+</p>","","","","","null","allTrialResponses","500","1","27","img_art/30.jpg","10","colorful and relaxing","Elijah,Jared,Luke,Garrett,Daniel,Tanner","Paint scribbled on canvas,-25,80,20","i dont like how the colors are mixed,-6,400,20","the lines and colors look purposeful,18,20,20","I feel like the colors are too repetitive and not very eyecatching.,-20,180,20","10 year old 10 minute project ""Fun with Painting"",-42,320,20","makes me think of a tunnel filled with graffiti,19,180,20","Luke","the lines and colors look purposeful,18,20,20","Tanner","makes me think of a tunnel filled with graffiti,19,180,20","Jared","i dont like how the colors are mixed,-6,400,20","4"
"20545","","survey-text","240","916015","0.0-238.0-0.0","A13WTEQ06V3B6D","","","","{""Q0"":""bland and scary, looks like a knight charging into battle.""}","","","","","","","","","","","","","","","","","","","","","","",""
"3028.600000023842","","image-slider-response","241","919045","0.0-239.0","A13WTEQ06V3B6D","","","","","-11","","","","","","","","","","","","","","","","","","","","","",""
"null","","image-button-response","242","924047","0.0-240.0","A13WTEQ06V3B6D","img_art/18.jpg","null","","","","","","","","","","","","","","","","","","","","","","","","",""
"1379","","image-button-response","243","925426","0.0-241.0","A13WTEQ06V3B6D","img_art/18.jpg","2","","","","","","","","","","","","","","","","","","","","","","","","",""
"1527","","image-button-response","244","926955","0.0-242.0-0.0","A13WTEQ06V3B6D","img_art/18.jpg","4","","","","","","","","","","","","","","","","","","","","","","","","",""
"1544","","image-button-response","245","928501","0.0-243.0-0.0","A13WTEQ06V3B6D","img_art/18.jpg","5","","","","","","","","","","","","","","","","","","","","","","","","",""
"null","","html-keyboard-response","246","929002","0.0-244.0","A13WTEQ06V3B6D","<p style=""font-size: 48px;"">+</p>","","","","","null","allTrialResponses","500","1","28","img_art/18.jpg","-11","bland and scary, looks like a knight charging into battle.","Scott,Jared,Luke,Malik,Jesse,Tanner","reminds me of sailors on a boat,17,20,20","it looks like people,9,400,20","the harsh lines with the smooth lines makes me think of wild animals,20,20,20","Gently chaotic and beautiful,40,40,20","It reminds me of ghosts on a boat. Makes me nervous.,-27,80,20","pegssus going into battle,25,180,20","Luke","the harsh lines with the smooth lines makes me think of wild animals,20,20,20","Jesse","It reminds me of ghosts on a boat. Makes me nervous.,-27,80,20","Tanner","pegssus going into battle,25,180,20","4"
"13618","","survey-text","247","942624","0.0-245.0-0.0","A13WTEQ06V3B6D","","","","{""Q0"":""scary and horrifying, don't like the colors.""}","","","","","","","","","","","","","","","","","","","","","","",""
"3086.399999976158","","image-slider-response","248","945712","0.0-246.0","A13WTEQ06V3B6D","","","","","-50","","","","","","","","","","","","","","","","","","","","","",""
"null","","image-button-response","249","950714","0.0-247.0","A13WTEQ06V3B6D","img_art/25.jpg","null","","","","","","","","","","","","","","","","","","","","","","","","",""
"814","","image-button-response","250","951529","0.0-248.0","A13WTEQ06V3B6D","img_art/25.jpg","1","","","","","","","","","","","","","","","","","","","","","","","","",""
"1893","","image-button-response","251","953424","0.0-249.0-0.0","A13WTEQ06V3B6D","img_art/25.jpg","4","","","","","","","","","","","","","","","","","","","","","","","","",""
"1070","","image-button-response","252","954496","0.0-250.0-0.0","A13WTEQ06V3B6D","img_art/25.jpg","5","","","","","","","","","","","","","","","","","","","","","","","","",""
"null","","html-keyboard-response","253","955498","0.0-251.0","A13WTEQ06V3B6D","<p style=""font-size: 48px;"">+</p>","","","","","null","allTrialResponses","1000","1","29","img_art/25.jpg","-50","scary and horrifying, don't like the colors.","Luis,Paul,Luke,Vincent,Jesse,Tanner","New life, rising from your personal battles,50,400,20","The skeletal figure is a bit scary,-12,300,20","the contrasting colors are very interesting,24,20,20","Iike this picture; it speaks to me on a personal level. But seems to scare the ones around me.,7,360,20","Creates a bit of fear in me for some reason,-26,80,20","reminds me of the grim reaper,3,180,20","Paul","The skeletal figure is a bit scary,-12,300,20","Jesse","Creates a bit of fear in me for some reason,-26,80,20","Tanner","reminds me of the grim reaper,3,180,20","4"
"9221","","survey-text","254","964723","0.0-252.0-0.0","A13WTEQ06V3B6D","","","","{""Q0"":""warm and bright, makes me happy.""}","","","","","","","","","","","","","","","","","","","","","","",""
"2599.899999976158","","image-slider-response","255","967324","0.0-253.0","A13WTEQ06V3B6D","","","","","31","","","","","","","","","","","","","","","","","","","","","",""
"4444","","image-button-response","256","972326","0.0-254.0","A13WTEQ06V3B6D","img_art/22.jpg","1","","","","","","","","","","","","","","","","","","","","","","","","",""
"681","","image-button-response","257","973008","0.0-255.0","A13WTEQ06V3B6D","img_art/22.jpg","1","","","","","","","","","","","","","","","","","","","","","","","","",""
"1201","","image-button-response","258","974211","0.0-256.0-0.0","A13WTEQ06V3B6D","img_art/22.jpg","3","","","","","","","","","","","","","","","","","","","","","","","","",""
"1168","","image-button-response","259","975380","0.0-257.0-0.0","A13WTEQ06V3B6D","img_art/22.jpg","4","","","","","","","","","","","","","","","","","","","","","","","","",""
"null","","html-keyboard-response","260","976381","0.0-258.0","A13WTEQ06V3B6D","<p style=""font-size: 48px;"">+</p>","","","","","null","allTrialResponses","1000","1","30","img_art/22.jpg","31","warm and bright, makes me happy.","Jorge,Paul,Kyle,Devon,Jesse,Tanner","A key to the unknown,15,180,20","I really like the bright colors and sunset feel,31,300,20","I appreciate the artistic effort but it's not for me,0,340,20","This represents the hopes in my life.,21,400,20","I usually dont like blurry pieces but the colors are amazing in this,14,80,20","fire, danger, resentful,-17,180,20","Paul","I really like the bright colors and sunset feel,31,300,20","Devon","This represents the hopes in my life.,21,400,20","Jesse","I usually dont like blurry pieces but the colors are amazing in this,14,80,20","4"
"3416","","image-button-response_instructions","261","979801","0.0-259.0","A13WTEQ06V3B6D","","0","instructions","","","","","","","","","","","","","","","","","","","","","","","",""
"1098","","image-button-response","262","980902","0.0-260.0","A13WTEQ06V3B6D","","0","","","","","","","","","","","","","","","","","","","","","","","","",""
