"rt","url","trial_type","trial_index","time_elapsed","internal_node_id","participant_id","stimulus","button_pressed","Name","responses","response","key_press","variableName","fixationTime","condition","trial","photo","subjectRating","subjectResponse","agentsNames","agent_1_Response","agent_2_Response","agent_3_Response","agent_4_Response","agent_5_Response","agent_6_Response","kept_1_name","kept_1_response","kept_2_name","kept_2_response","kept_3_name","kept_3_response","errorCounter"
"4736","external_page_harvard.html","external-html","0","5154","0.0-0.0","A14JPLG3WLKETC","","","","","","","","","","","","","","","","","","","","","","","","","","",""
"1524","","image-button-response","1","6681","0.0-1.0","A14JPLG3WLKETC","","0","","","","","","","","","","","","","","","","","","","","","","","","",""
"1273","","image-button-response","2","7964","0.0-2.0-0.0","A14JPLG3WLKETC","","1","phone","","","","","","","","","","","","","","","","","","","","","","","",""
"3383","","survey-text","3","11352","0.0-3.0-0.0","A14JPLG3WLKETC","","","","{""Q0"":""A14JPLG3WLKETC""}","","","","","","","","","","","","","","","","","","","","","","",""
"2473","","image-button-response_instructions","4","13830","0.0-4.0","A14JPLG3WLKETC","","0","instructions","","","","","","","","","","","","","","","","","","","","","","","",""
"11082","","image-button-response_instructions","5","24916","0.0-5.0","A14JPLG3WLKETC","img_art/ins/popularity/ins1.png","0","instructions","","","","","","","","","","","","","","","","","","","","","","","",""
"5252","","image-button-response_instructions","6","30171","0.0-6.0","A14JPLG3WLKETC","img_art/ins/popularity/ins2.png","0","instructions","","","","","","","","","","","","","","","","","","","","","","","",""
"4872","","image-button-response_instructions","7","35049","0.0-7.0","A14JPLG3WLKETC","img_art/ins/popularity/ins2Extreme.png","0","instructions","","","","","","","","","","","","","","","","","","","","","","","",""
"2255","","image-button-response_instructions","8","37307","0.0-8.0","A14JPLG3WLKETC","img_art/ins/popularity/ins3KEEPpop.PNG","0","instructions","","","","","","","","","","","","","","","","","","","","","","","",""
"2058","","image-button-response_instructions","9","39366","0.0-9.0","A14JPLG3WLKETC","img_art/ins/popularity/ins3ANamepop.PNG","0","instructions","","","","","","","","","","","","","","","","","","","","","","","",""
"2844","","image-button-response_instructions","10","42212","0.0-10.0","A14JPLG3WLKETC","img_art/ins/popularity/ins3ARatingpop.png","0","instructions","","","","","","","","","","","","","","","","","","","","","","","",""
"2236","","image-button-response_instructions","11","44453","0.0-11.0","A14JPLG3WLKETC","img_art/ins/popularity/ins3ATextpop.png","0","instructions","","","","","","","","","","","","","","","","","","","","","","","",""
"2564","","image-button-response_instructions","12","47022","0.0-12.0","A14JPLG3WLKETC","img_art/ins/popularity/ins3ALikespop.png","0","instructions","","","","","","","","","","","","","","","","","","","","","","","",""
"1656","","image-button-response_instructions","13","48680","0.0-13.0","A14JPLG3WLKETC","img_art/ins/popularity/ins3KEEPpop.PNG","0","instructions","","","","","","","","","","","","","","","","","","","","","","","",""
"2263","","image-button-response_instructions","14","50948","0.0-14.0","A14JPLG3WLKETC","img_art/ins/popularity/ins3_5RED.png","0","instructions","","","","","","","","","","","","","","","","","","","","","","","",""
"1268","","image-button-response_instructions","15","52220","0.0-15.0","A14JPLG3WLKETC","img_art/ins/popularity/ins3KEEPpop.PNG","0","instructions","","","","","","","","","","","","","","","","","","","","","","","",""
"1106","","image-button-response_instructions","16","53329","0.0-16.0","A14JPLG3WLKETC","img_art/ins/popularity/ins4KEEPpop.PNG","0","instructions","","","","","","","","","","","","","","","","","","","","","","","",""
"3336","","image-button-response_instructions","17","56668","0.0-17.0","A14JPLG3WLKETC","img_art/ins/popularity/ins5KEEPpop.PNG","0","instructions","","","","","","","","","","","","","","","","","","","","","","","",""
"1474","","image-button-response_instructions","18","58145","0.0-18.0","A14JPLG3WLKETC","","0","instructions","","","","","","","","","","","","","","","","","","","","","","","",""
"5655","","survey-text","19","63854","0.0-19.0-0.0","A14JPLG3WLKETC","","","","{""Q0"":""but""}","","","","","","","","","","","","","","","","","","","","","","",""
"6608","","survey-text","20","70466","0.0-20.0-0.0","A14JPLG3WLKETC","","","","{""Q0"":""Attractive""}","","","","","","","","","","","","","","","","","","","","","","",""
"3807","","image-slider-response","21","74280","0.0-21.0","A14JPLG3WLKETC","","","","","28","","","","","","","","","","","","","","","","","","","","","",""
"4315","","image-button-response","22","79288","0.0-22.0","A14JPLG3WLKETC","img_art/ins/1.jpg","5","","","","","","","","","","","","","","","","","","","","","","","","",""
"1578","","image-button-response","23","80875","0.0-23.0","A14JPLG3WLKETC","img_art/ins/1.jpg","5","","","","","","","","","","","","","","","","","","","","","","","","",""
"3669","","image-button-response","24","84550","0.0-24.0-0.0","A14JPLG3WLKETC","img_art/ins/1.jpg","5","","","","","","","","","","","","","","","","","","","","","","","","",""
"3286","","image-button-response","25","91464","0.0-24.1-0.1","A14JPLG3WLKETC","img_art/ins/1.jpg","1","","","","","","","","","","","","","","","","","","","","","","","","",""
"1882","","image-button-response","26","93352","0.0-25.0-0.0","A14JPLG3WLKETC","img_art/ins/1.jpg","0","","","","","","","","","","","","","","","","","","","","","","","","",""
"null","","html-keyboard-response","27","93860","0.0-26.0","A14JPLG3WLKETC","<p style=""font-size: 48px;"">+</p>","","","","","null","allTrialResponses","500","1","-2","img_art/ins/1.jpg","28","Attractive","Adam,Alex,Ben,Carl,Daniel,Jack","Seems like doodles,-20,20,20","very creative work.,36,40,20","This color reminds me of poo,-46,60,20","very calming artwork,42,80,20","It looks like a murder scene.,-48,100,20","I like the sophisticated brushwork,40,120,20","Jack","I like the sophisticated brushwork,40,120,20","Alex","very creative work.,36,40,20","Adam","Seems like doodles,-20,20,20","2"
"5536","","survey-text","28","99412","0.0-27.0-0.0","A14JPLG3WLKETC","","","","{""Q0"":""Marvelous""}","","","","","","","","","","","","","","","","","","","","","","",""
"3117","","image-slider-response","29","102534","0.0-28.0","A14JPLG3WLKETC","","","","","4","","","","","","","","","","","","","","","","","","","","","",""
"4506","","image-button-response","30","107541","0.0-29.0","A14JPLG3WLKETC","img_art/ins/2.jpg","2","","","","","","","","","","","","","","","","","","","","","","","","",""
"774","","image-button-response","31","108320","0.0-30.0","A14JPLG3WLKETC","img_art/ins/2.jpg","5","","","","","","","","","","","","","","","","","","","","","","","","",""
"1271","","image-button-response","32","109596","0.0-31.0-0.0","A14JPLG3WLKETC","img_art/ins/2.jpg","1","","","","","","","","","","","","","","","","","","","","","","","","",""
"2810","","image-button-response","33","112413","0.0-32.0-0.0","A14JPLG3WLKETC","img_art/ins/2.jpg","3","","","","","","","","","","","","","","","","","","","","","","","","",""
"null","","html-keyboard-response","34","113418","0.0-33.0","A14JPLG3WLKETC","<p style=""font-size: 48px;"">+</p>","","","","","null","allTrialResponses","1000","1","-1","img_art/ins/2.jpg","4","Marvelous","Adam,Alex,Kyle,James,John,Jack","too much color,-18,20,20","I like the blocks of color arrangements,30,40,20","Idk, it is just annoying,-32,180,20","looks too angry,-50,140,20","love the texture of paint,48,160,20","I would never be able to compose a sophisticated pallete like this,48,120,20","Jack","I would never be able to compose a sophisticated pallete like this,48,120,20","Alex","I like the blocks of color arrangements,30,40,20","James","looks too angry,-50,140,20","2"
"3606","","survey-text","35","117044","0.0-34.0-0.0","A14JPLG3WLKETC","","","","{""Q0"":""Cool""}","","","","","","","","","","","","","","","","","","","","","","",""
"8116","","survey-text","36","127297","0.0-34.1-0.1","A14JPLG3WLKETC","","","","{""Q0"":""Dependent""}","","","","","","","","","","","","","","","","","","","","","","",""
"5148","","image-slider-response","37","132454","0.0-35.0","A14JPLG3WLKETC","","","","","15","","","","","","","","","","","","","","","","","","","","","",""
"2530","","image-button-response","38","137467","0.0-36.0","A14JPLG3WLKETC","img_art/ins/3.jpg","0","","","","","","","","","","","","","","","","","","","","","","","","",""
"1483","","image-button-response","39","138957","0.0-37.0","A14JPLG3WLKETC","img_art/ins/3.jpg","0","","","","","","","","","","","","","","","","","","","","","","","","",""
"1441","","image-button-response","40","140404","0.0-38.0-0.0","A14JPLG3WLKETC","img_art/ins/3.jpg","3","","","","","","","","","","","","","","","","","","","","","","","","",""
"1434","","image-button-response","41","141842","0.0-39.0-0.0","A14JPLG3WLKETC","img_art/ins/3.jpg","5","","","","","","","","","","","","","","","","","","","","","","","","",""
"null","","html-keyboard-response","42","142845","0.0-40.0","A14JPLG3WLKETC","<p style=""font-size: 48px;"">+</p>","","","","","null","allTrialResponses","1000","1","0","img_art/ins/3.jpg","15","Dependent","Sam,Alex,Mike,James,Ron,Jack","I can feel a rainy day from this painting,18,240,20","calming blue is very nice,36,40,20","enjoy the different shades of blue,22,200,20","My worst nightmare,-42,140,20","It looks depressing,-26,220,20","I feel connected to the artist,40,120,20","Sam","I can feel a rainy day from this painting,18,240,20","James","My worst nightmare,-42,140,20","Jack","I feel connected to the artist,40,120,20","2"
"2091","","image-button-response_instructions","43","144947","0.0-41.0","A14JPLG3WLKETC","","0","instructions","","","","","","","","","","","","","","","","","","","","","","","",""
"11898","","survey-likert","44","156851","0.0-42.0-0.0","A14JPLG3WLKETC","","","","{""Q0"":"""",""Q1"":1,""Q2"":1}","","","","","","","","","","","","","","","","","","","","","","",""
"3491","","survey-likert","45","163151","0.0-42.1-0.1","A14JPLG3WLKETC","","","","{""Q0"":"""",""Q1"":0,""Q2"":1}","","","","","","","","","","","","","","","","","","","","","","",""
"6064","","survey-text","46","169236","0.0-43.0-0.0","A14JPLG3WLKETC","","","","{""Q0"":""rock""}","","","","","","","","","","","","","","","","","","","","","","",""
"8961","","survey-text","47","178202","0.0-44.0-0.0","A14JPLG3WLKETC","","","","{""Q0"":""Attractive""}","","","","","","","","","","","","","","","","","","","","","","",""
"3226","","image-slider-response","48","181433","0.0-45.0","A14JPLG3WLKETC","","","","","20","","","","","","","","","","","","","","","","","","","","","",""
"4318","","image-button-response","49","186513","0.0-46.0","A14JPLG3WLKETC","img_art/29.jpg","1","","","","","","","","","","","","","","","","","","","","","","","","",""
"228","","image-button-response","50","186744","0.0-47.0","A14JPLG3WLKETC","img_art/29.jpg","2","","","","","","","","","","","","","","","","","","","","","","","","",""
"1036","","image-button-response","51","187785","0.0-48.0-0.0","A14JPLG3WLKETC","img_art/29.jpg","1","","","","","","","","","","","","","","","","","","","","","","","","",""
"1137","","image-button-response","52","188931","0.0-49.0-0.0","A14JPLG3WLKETC","img_art/29.jpg","3","","","","","","","","","","","","","","","","","","","","","","","","",""
"null","","html-keyboard-response","53","189432","0.0-50.0","A14JPLG3WLKETC","<p style=""font-size: 48px;"">+</p>","","","","","null","allTrialResponses","500","1","1","img_art/29.jpg","20","Attractive","William,Gregory,Jake,Jordan,Antonio,Taylor","makes me think of destruction,-20,380,20","3D looks is really cool,30,220,20","This is very gross and odd looking.,-8,360,20","Messy and disorganized, to odark,-31,160,20","Depressing and with that big red x on it just makes me not like it.,-33,220,20","I would give up and give it a red X too.,-5,200,20","Jake","This is very gross and odd looking.,-8,360,20","Gregory","3D looks is really cool,30,220,20","Jordan","Messy and disorganized, to odark,-31,160,20","3"
"5788","","survey-text","54","195237","0.0-51.0-0.0","A14JPLG3WLKETC","","","","{""Q0"":""Very excellent""}","","","","","","","","","","","","","","","","","","","","","","",""
"2913","","image-slider-response","55","198155","0.0-52.0","A14JPLG3WLKETC","","","","","28","","","","","","","","","","","","","","","","","","","","","",""
"4829","","image-button-response","56","203160","0.0-53.0","A14JPLG3WLKETC","img_art/3.jpg","1","","","","","","","","","","","","","","","","","","","","","","","","",""
"681","","image-button-response","57","203847","0.0-54.0","A14JPLG3WLKETC","img_art/3.jpg","1","","","","","","","","","","","","","","","","","","","","","","","","",""
"848","","image-button-response","58","204699","0.0-55.0-0.0","A14JPLG3WLKETC","img_art/3.jpg","2","","","","","","","","","","","","","","","","","","","","","","","","",""
"1166","","image-button-response","59","205871","0.0-56.0-0.0","A14JPLG3WLKETC","img_art/3.jpg","4","","","","","","","","","","","","","","","","","","","","","","","","",""
"null","","html-keyboard-response","60","206874","0.0-57.0","A14JPLG3WLKETC","<p style=""font-size: 48px;"">+</p>","","","","","null","allTrialResponses","1000","1","2","img_art/3.jpg","28","Very excellent","Corey,Gregory,Jake,Jordan,Dalton,Matthew","seems distressing. a blood scene,-3,260,20","Looks like somebody squirted ketchup everywhere,-40,220,20","This is angry and childish looking.,-49,360,20","Reminded me of blood or something bad,-21,160,20","Blood splatter and one black spot.,1,300,20","Reminds of John Lenonn's art a bit.,27,120,20","Gregory","Looks like somebody squirted ketchup everywhere,-40,220,20","Jake","This is angry and childish looking.,-49,360,20","Dalton","Blood splatter and one black spot.,1,300,20","3"
"282050","","survey-text","61","488943","0.0-58.0-0.0","A14JPLG3WLKETC","","","","{""Q0"":""Extra oridnary""}","","","","","","","","","","","","","","","","","","","","","","",""
"3679","","image-slider-response","62","492633","0.0-59.0","A14JPLG3WLKETC","","","","","21","","","","","","","","","","","","","","","","","","","","","",""
"2459","","image-button-response","63","497668","0.0-60.0","A14JPLG3WLKETC","img_art/2.jpg","4","","","","","","","","","","","","","","","","","","","","","","","","",""
"856","","image-button-response","64","498534","0.0-61.0","A14JPLG3WLKETC","img_art/2.jpg","4","","","","","","","","","","","","","","","","","","","","","","","","",""
"1144","","image-button-response","65","499683","0.0-62.0-0.0","A14JPLG3WLKETC","img_art/2.jpg","5","","","","","","","","","","","","","","","","","","","","","","","","",""
"845","","image-button-response","66","500539","0.0-63.0-0.0","A14JPLG3WLKETC","img_art/2.jpg","5","","","","","","","","","","","","","","","","","","","","","","","","",""
"3913","","image-button-response","67","513489","0.0-63.1-0.1","A14JPLG3WLKETC","img_art/2.jpg","3","","","","","","","","","","","","","","","","","","","","","","","","",""
"null","","html-keyboard-response","68","515002","0.0-64.0","A14JPLG3WLKETC","<p style=""font-size: 48px;"">+</p>","","","","","null","allTrialResponses","1500","1","3","img_art/2.jpg","21","Extra oridnary","Justin,Gregory,Jake,Dylan,Dalton,Trevor","This one feels rather flat and not engaging.,-15,280,20","Awful color coordination and design,-35,220,20","These colors are ugly.,-40,360,20","This is ugly- too plain and busy at the same time,-9,40,20","i like the colors and again can make out my own picture,38,300,20","It looks like a little kids primary color picture,3,280,20","Dalton","i like the colors and again can make out my own picture,38,300,20","Trevor","It looks like a little kids primary color picture,3,280,20","Dylan","This is ugly- too plain and busy at the same time,-9,40,20","5"
"26302","","survey-text","69","541333","0.0-65.0-0.0","A14JPLG3WLKETC","","","","{""Q0"":""Very good""}","","","","","","","","","","","","","","","","","","","","","","",""
"3554","","image-slider-response","70","544892","0.0-66.0","A14JPLG3WLKETC","","","","","19","","","","","","","","","","","","","","","","","","","","","",""
"null","","image-button-response","71","549920","0.0-67.0","A14JPLG3WLKETC","img_art/15.jpg","null","","","","","","","","","","","","","","","","","","","","","","","","",""
"4448","","image-button-response","72","554370","0.0-68.0","A14JPLG3WLKETC","img_art/15.jpg","1","","","","","","","","","","","","","","","","","","","","","","","","",""
"2033","","image-button-response","73","556408","0.0-69.0-0.0","A14JPLG3WLKETC","img_art/15.jpg","4","","","","","","","","","","","","","","","","","","","","","","","","",""
"3765","","image-button-response","74","560180","0.0-70.0-0.0","A14JPLG3WLKETC","img_art/15.jpg","5","","","","","","","","","","","","","","","","","","","","","","","","",""
"null","","html-keyboard-response","75","561183","0.0-71.0","A14JPLG3WLKETC","<p style=""font-size: 48px;"">+</p>","","","","","null","allTrialResponses","1000","1","4","img_art/15.jpg","19","Very good","Stephen,Hunter,Cody,Dylan,Dalton,Trevor","I like how the black and blue clash.,14,140,20","reminds me of birds in trees,14,240,20","Don't love it but it's cute,16,180,20","This is sort of ugly, but I do like the design.,10,40,20","black leaves makes the blue birds stand out.,1,300,20","I really like the colors,14,280,20","Hunter","reminds me of birds in trees,14,240,20","Dalton","black leaves makes the blue birds stand out.,1,300,20","Trevor","I really like the colors,14,280,20","5"
"22917","","survey-text","76","584112","0.0-72.0-0.0","A14JPLG3WLKETC","","","","{""Q0"":""Cleanliness""}","","","","","","","","","","","","","","","","","","","","","","",""
"4450","","image-slider-response","77","588569","0.0-73.0","A14JPLG3WLKETC","","","","","15","","","","","","","","","","","","","","","","","","","","","",""
"4206","","image-button-response","78","593578","0.0-74.0","A14JPLG3WLKETC","img_art/5.jpg","5","","","","","","","","","","","","","","","","","","","","","","","","",""
"1555","","image-button-response","79","595137","0.0-75.0","A14JPLG3WLKETC","img_art/5.jpg","1","","","","","","","","","","","","","","","","","","","","","","","","",""
"2084","","image-button-response","80","597228","0.0-76.0-0.0","A14JPLG3WLKETC","img_art/5.jpg","3","","","","","","","","","","","","","","","","","","","","","","","","",""
"1081","","image-button-response","81","598316","0.0-77.0-0.0","A14JPLG3WLKETC","img_art/5.jpg","4","","","","","","","","","","","","","","","","","","","","","","","","",""
"null","","html-keyboard-response","82","598818","0.0-78.0","A14JPLG3WLKETC","<p style=""font-size: 48px;"">+</p>","","","","","null","allTrialResponses","500","1","5","img_art/5.jpg","15","Cleanliness","Tyler,Hunter,Miguel,John,Dalton,Trevor","Bright and luminous,31,320,20","strong appeal in contrast,27,240,20","Appealing but shapeless,24,160,20","It has a sense of vague familiarity that i like.Like a stick starting a fire at a campsite.,30,120,20","its something. i just dont know what it is.,1,300,20","looks like a little kids painting,-50,280,20","Hunter","strong appeal in contrast,27,240,20","John","It has a sense of vague familiarity that i like.Like a stick starting a fire at a campsite.,30,120,20","Dalton","its something. i just dont know what it is.,1,300,20","5"
"16379","","survey-text","83","615222","0.0-79.0-0.0","A14JPLG3WLKETC","","","","{""Q0"":""SKY""}","","","","","","","","","","","","","","","","","","","","","","",""
"4617","","survey-text","84","624342","0.0-79.1-0.1","A14JPLG3WLKETC","","","","{""Q0"":""sky""}","","","","","","","","","","","","","","","","","","","","","","",""
"9523","","survey-text","85","633870","0.0-80.0-0.0","A14JPLG3WLKETC","","","","{""Q0"":""Superious""}","","","","","","","","","","","","","","","","","","","","","","",""
"3384","","image-slider-response","86","637266","0.0-81.0","A14JPLG3WLKETC","","","","","16","","","","","","","","","","","","","","","","","","","","","",""
"2719","","image-button-response","87","642278","0.0-82.0","A14JPLG3WLKETC","img_art/11.jpg","1","","","","","","","","","","","","","","","","","","","","","","","","",""
"897","","image-button-response","88","643177","0.0-83.0","A14JPLG3WLKETC","img_art/11.jpg","1","","","","","","","","","","","","","","","","","","","","","","","","",""
"1395","","image-button-response","89","644581","0.0-84.0-0.0","A14JPLG3WLKETC","img_art/11.jpg","2","","","","","","","","","","","","","","","","","","","","","","","","",""
"1208","","image-button-response","90","645793","0.0-85.0-0.0","A14JPLG3WLKETC","img_art/11.jpg","4","","","","","","","","","","","","","","","","","","","","","","","","",""
"null","","html-keyboard-response","91","646303","0.0-86.0","A14JPLG3WLKETC","<p style=""font-size: 48px;"">+</p>","","","","","null","allTrialResponses","500","1","6","img_art/11.jpg","16","Superious","Thomas,Hunter,Evan,John,Dalton,Aaron","Lovely. I could look at this for a really long time. I love the details and the composition.,40,220,20","reminds me of home,5,240,20","I dislike how dark this is,-21,140,20","Its interesting.,20,120,20","looks like highways and homes and lives intertwining.,27,300,20","It makes me think of a coastal sea town.,50,20,20","Hunter","reminds me of home,5,240,20","Evan","I dislike how dark this is,-21,140,20","Dalton","looks like highways and homes and lives intertwining.,27,300,20","6"
"9164","","survey-text","92","655494","0.0-87.0-0.0","A14JPLG3WLKETC","","","","{""Q0"":""Colorful""}","","","","","","","","","","","","","","","","","","","","","","",""
"2826","","image-slider-response","93","658327","0.0-88.0","A14JPLG3WLKETC","","","","","7","","","","","","","","","","","","","","","","","","","","","",""
"3508","","image-button-response","94","663333","0.0-89.0","A14JPLG3WLKETC","img_art/12.jpg","2","","","","","","","","","","","","","","","","","","","","","","","","",""
"1954","","image-button-response","95","665293","0.0-90.0","A14JPLG3WLKETC","img_art/12.jpg","4","","","","","","","","","","","","","","","","","","","","","","","","",""
"1414","","image-button-response","96","666711","0.0-91.0-0.0","A14JPLG3WLKETC","img_art/12.jpg","0","","","","","","","","","","","","","","","","","","","","","","","","",""
"1074","","image-button-response","97","667787","0.0-92.0-0.0","A14JPLG3WLKETC","img_art/12.jpg","1","","","","","","","","","","","","","","","","","","","","","","","","",""
"null","","html-keyboard-response","98","668290","0.0-93.0","A14JPLG3WLKETC","<p style=""font-size: 48px;"">+</p>","","","","","null","allTrialResponses","500","1","7","img_art/12.jpg","7","Colorful","Derek,Hunter,Evan,Scott,Dalton,Mason","I love the pattern and this looks like it took a good deal of effort,35,360,20","reminds me of a dixie cup,3,240,20","It reminds me of the documentary Paris is Burning, though I'm not sure why,11,140,20","I don't like the pattern or color choice,-41,20,20","beautiful also reminds me of a quilt,1,300,20","it's ok, but blocky, looks old.,3,100,20","Dalton","beautiful also reminds me of a quilt,1,300,20","Derek","I love the pattern and this looks like it took a good deal of effort,35,360,20","Hunter","reminds me of a dixie cup,3,240,20","6"
"12377","","survey-text","99","680670","0.0-94.0-0.0","A14JPLG3WLKETC","","","","{""Q0"":""Extraordinary""}","","","","","","","","","","","","","","","","","","","","","","",""
"2984","","image-slider-response","100","683662","0.0-95.0","A14JPLG3WLKETC","","","","","24","","","","","","","","","","","","","","","","","","","","","",""
"1559","","image-button-response","101","688671","0.0-96.0","A14JPLG3WLKETC","img_art/19.jpg","5","","","","","","","","","","","","","","","","","","","","","","","","",""
"1274","","image-button-response","102","689959","0.0-97.0","A14JPLG3WLKETC","img_art/19.jpg","0","","","","","","","","","","","","","","","","","","","","","","","","",""
"708","","image-button-response","103","690670","0.0-98.0-0.0","A14JPLG3WLKETC","img_art/19.jpg","1","","","","","","","","","","","","","","","","","","","","","","","","",""
"1021","","image-button-response","104","691698","0.0-99.0-0.0","A14JPLG3WLKETC","img_art/19.jpg","2","","","","","","","","","","","","","","","","","","","","","","","","",""
"null","","html-keyboard-response","105","693204","0.0-100.0","A14JPLG3WLKETC","<p style=""font-size: 48px;"">+</p>","","","","","null","allTrialResponses","1500","1","8","img_art/19.jpg","24","Extraordinary","Derek,Hunter,Steven,Logan,Dalton,Cameron","It has a chaotic energy about it that draws me in,40,360,20","feels free and loose,3,240,20","I like it, I see someone walking his dog in the early morning time,23,160,20","this flow I just really like how everything blends but also doesn't,45,360,20","love the images I can pick out of this art,1,300,20","Snowy winter scene,25,60,20","Derek","It has a chaotic energy about it that draws me in,40,360,20","Hunter","feels free and loose,3,240,20","Steven","I like it, I see someone walking his dog in the early morning time,23,160,20","6"
"7902","","survey-text","106","701134","0.0-101.0-0.0","A14JPLG3WLKETC","","","","{""Q0"":""Attractive""}","","","","","","","","","","","","","","","","","","","","","","",""
"3726","","image-slider-response","107","704867","0.0-102.0","A14JPLG3WLKETC","","","","","25","","","","","","","","","","","","","","","","","","","","","",""
"3051","","image-button-response","108","709876","0.0-103.0","A14JPLG3WLKETC","img_art/17.jpg","5","","","","","","","","","","","","","","","","","","","","","","","","",""
"1235","","image-button-response","109","711115","0.0-104.0","A14JPLG3WLKETC","img_art/17.jpg","0","","","","","","","","","","","","","","","","","","","","","","","","",""
"1386","","image-button-response","110","712508","0.0-105.0-0.0","A14JPLG3WLKETC","img_art/17.jpg","3","","","","","","","","","","","","","","","","","","","","","","","","",""
"2035","","image-button-response","111","714552","0.0-106.0-0.0","A14JPLG3WLKETC","img_art/17.jpg","1","","","","","","","","","","","","","","","","","","","","","","","","",""
"null","","html-keyboard-response","112","715558","0.0-107.0","A14JPLG3WLKETC","<p style=""font-size: 48px;"">+</p>","","","","","null","allTrialResponses","1000","1","9","img_art/17.jpg","25","Attractive","Derek,Hunter,Steven,Edward,Daniel,Garrett","The colors are beautiful and the painting itself is magnificent,50,360,20","impressive attention to subtleties,15,240,20","absolutely gorgeous, I feel solitude again, but the beauty is there also,50,160,20","I love how soft it is,35,60,20","2 paintings in 1 with shared colors,5,320,20","I like the way the colors were used behind the tree. Makes the image colorful and interesting.,30,180,20","Derek","The colors are beautiful and the painting itself is magnificent,50,360,20","Edward","I love how soft it is,35,60,20","Hunter","impressive attention to subtleties,15,240,20","6"
"8708","","survey-text","113","724282","0.0-108.0-0.0","A14JPLG3WLKETC","","","","{""Q0"":""Suspicious""}","","","","","","","","","","","","","","","","","","","","","","",""
"3098","","image-slider-response","114","727418","0.0-109.0","A14JPLG3WLKETC","","","","","17","","","","","","","","","","","","","","","","","","","","","",""
"4631","","image-button-response","115","732421","0.0-110.0","A14JPLG3WLKETC","img_art/25.jpg","4","","","","","","","","","","","","","","","","","","","","","","","","",""
"748","","image-button-response","116","733175","0.0-111.0","A14JPLG3WLKETC","img_art/25.jpg","4","","","","","","","","","","","","","","","","","","","","","","","","",""
"1307","","image-button-response","117","734489","0.0-112.0-0.0","A14JPLG3WLKETC","img_art/25.jpg","0","","","","","","","","","","","","","","","","","","","","","","","","",""
"1083","","image-button-response","118","735579","0.0-113.0-0.0","A14JPLG3WLKETC","img_art/25.jpg","0","","","","","","","","","","","","","","","","","","","","","","","","",""
"804","","image-button-response","119","742394","0.0-113.1-0.1","A14JPLG3WLKETC","img_art/25.jpg","3","","","","","","","","","","","","","","","","","","","","","","","","",""
"null","","html-keyboard-response","120","742898","0.0-114.0","A14JPLG3WLKETC","<p style=""font-size: 48px;"">+</p>","","","","","null","allTrialResponses","500","1","10","img_art/25.jpg","17","Suspicious","Derek,Hunter,Mitchell,Edward,Spencer,Adrian","It's really neat and cool looking,20,360,20","do not like that color of green,-11,240,20","culture, tradition. Village people with an honored elder.,40,180,20","It looks like people worshipping a statue,33,60,20","I really like it, very simple, very tribal,38,120,20","This piece makes me think of oppression and fighting it. Makes me feel calm, sad and strong.,11,60,20","Spencer","I really like it, very simple, very tribal,38,120,20","Derek","It's really neat and cool looking,20,360,20","Edward","It looks like people worshipping a statue,33,60,20","8"
"4187","","survey-text","121","747108","0.0-115.0-0.0","A14JPLG3WLKETC","","","","{""Q0"":""our""}","","","","","","","","","","","","","","","","","","","","","","",""
"11372","","survey-text","122","758486","0.0-116.0-0.0","A14JPLG3WLKETC","","","","{""Q0"":""Independent""}","","","","","","","","","","","","","","","","","","","","","","",""
"3525","","image-slider-response","123","762018","0.0-117.0","A14JPLG3WLKETC","","","","","24","","","","","","","","","","","","","","","","","","","","","",""
"null","","image-button-response","124","767023","0.0-118.0","A14JPLG3WLKETC","img_art/28.jpg","null","","","","","","","","","","","","","","","","","","","","","","","","",""
"3880","","image-button-response","125","770907","0.0-119.0","A14JPLG3WLKETC","img_art/28.jpg","4","","","","","","","","","","","","","","","","","","","","","","","","",""
"1056","","image-button-response","126","771969","0.0-120.0-0.0","A14JPLG3WLKETC","img_art/28.jpg","3","","","","","","","","","","","","","","","","","","","","","","","","",""
"862","","image-button-response","127","772839","0.0-121.0-0.0","A14JPLG3WLKETC","img_art/28.jpg","0","","","","","","","","","","","","","","","","","","","","","","","","",""
"null","","html-keyboard-response","128","773344","0.0-122.0","A14JPLG3WLKETC","<p style=""font-size: 48px;"">+</p>","","","","","null","allTrialResponses","500","1","11","img_art/28.jpg","24","Independent","Derek,Nicholas,Ryan,Edward,Spencer,Isaiah","The colors are dull but there's some kind of nostalgic essence of this painting,15,360,20","Interesting and weird. Perfect conversational piece,33,240,20","Colors look too muddy for my liking,-33,380,20","Salvador Dali called and he thinks this looks pretty good,27,60,20","Too me it's a mish mash, true abstract,-37,120,20","It makes me feel happy, and a little anxious.,50,300,20","Spencer","Too me it's a mish mash, true abstract,-37,120,20","Edward","Salvador Dali called and he thinks this looks pretty good,27,60,20","Derek","The colors are dull but there's some kind of nostalgic essence of this painting,15,360,20","8"
"16410","","survey-text","129","789771","0.0-123.0-0.0","A14JPLG3WLKETC","","","","{""Q0"":""Superious""}","","","","","","","","","","","","","","","","","","","","","","",""
"2314","","image-slider-response","130","792093","0.0-124.0","A14JPLG3WLKETC","","","","","31","","","","","","","","","","","","","","","","","","","","","",""
"4313","","image-button-response","131","797104","0.0-125.0","A14JPLG3WLKETC","img_art/24.jpg","0","","","","","","","","","","","","","","","","","","","","","","","","",""
"754","","image-button-response","132","797878","0.0-126.0","A14JPLG3WLKETC","img_art/24.jpg","0","","","","","","","","","","","","","","","","","","","","","","","","",""
"1019","","image-button-response","133","798902","0.0-127.0-0.0","A14JPLG3WLKETC","img_art/24.jpg","1","","","","","","","","","","","","","","","","","","","","","","","","",""
"1033","","image-button-response","134","799941","0.0-128.0-0.0","A14JPLG3WLKETC","img_art/24.jpg","2","","","","","","","","","","","","","","","","","","","","","","","","",""
"null","","html-keyboard-response","135","801448","0.0-129.0","A14JPLG3WLKETC","<p style=""font-size: 48px;"">+</p>","","","","","null","allTrialResponses","1500","1","12","img_art/24.jpg","31","Superious","Derek,Michael,Jorge,Edward,Spencer,Jesus","I absolutely adore this painting. The colors, designs, everything. It's phenomenal,50,360,20","It's not super high uality  but there is some skill and talent in it I see.,15,140,20","Interested in visiting this place,18,180,20","Very pretty and soft,37,60,20","Happy, the forest as I would love to see it,50,120,20","I like the vivid colors and different textures,32,100,20","Derek","I absolutely adore this painting. The colors, designs, everything. It's phenomenal,50,360,20","Michael","It's not super high uality  but there is some skill and talent in it I see.,15,140,20","Jorge","Interested in visiting this place,18,180,20","8"
"5039","","survey-text","136","806503","0.0-130.0-0.0","A14JPLG3WLKETC","","","","{""Q0"":""Beautiful""}","","","","","","","","","","","","","","","","","","","","","","",""
"10887","","image-slider-response","137","817394","0.0-131.0","A14JPLG3WLKETC","","","","","11","","","","","","","","","","","","","","","","","","","","","",""
"null","","image-button-response","138","822404","0.0-132.0","A14JPLG3WLKETC","img_art/23.jpg","null","","","","","","","","","","","","","","","","","","","","","","","","",""
"8861","","image-button-response","139","831272","0.0-133.0","A14JPLG3WLKETC","img_art/23.jpg","1","","","","","","","","","","","","","","","","","","","","","","","","",""
"999","","image-button-response","140","832274","0.0-134.0-0.0","A14JPLG3WLKETC","img_art/23.jpg","2","","","","","","","","","","","","","","","","","","","","","","","","",""
"1647","","image-button-response","141","833927","0.0-135.0-0.0","A14JPLG3WLKETC","img_art/23.jpg","3","","","","","","","","","","","","","","","","","","","","","","","","",""
"null","","html-keyboard-response","142","834946","0.0-136.0","A14JPLG3WLKETC","<p style=""font-size: 48px;"">+</p>","","","","","null","allTrialResponses","1000","1","13","img_art/23.jpg","11","Beautiful","Derek,Michael,Jorge,Jose,Timothy,Colton","Very colorful and wild. It's cool and I like it,32,360,20","I don't get it.,-40,140,20","puzzled with curiosity,31,180,20","This one is awesome, kinda looks like a cake with sprinkles but in a different universe,50,200,20","This feels so energized, i love it,50,240,20","the pattern is pleasing to the eye,28,220,20","Michael","I don't get it.,-40,140,20","Jorge","puzzled with curiosity,31,180,20","Jose","This one is awesome, kinda looks like a cake with sprinkles but in a different universe,50,200,20","8"
"9521","","survey-text","143","844496","0.0-137.0-0.0","A14JPLG3WLKETC","","","","{""Q0"":""wonderful""}","","","","","","","","","","","","","","","","","","","","","","",""
"2562","","image-slider-response","144","847062","0.0-138.0","A14JPLG3WLKETC","","","","","13","","","","","","","","","","","","","","","","","","","","","",""
"null","","image-button-response","145","852825","0.0-139.0","A14JPLG3WLKETC","img_art/1.jpg","null","","","","","","","","","","","","","","","","","","","","","","","","",""
"2649","","image-button-response","146","855487","0.0-140.0","A14JPLG3WLKETC","img_art/1.jpg","4","","","","","","","","","","","","","","","","","","","","","","","","",""
"1301","","image-button-response","147","856793","0.0-141.0-0.0","A14JPLG3WLKETC","img_art/1.jpg","0","","","","","","","","","","","","","","","","","","","","","","","","",""
"1762","","image-button-response","148","858561","0.0-142.0-0.0","A14JPLG3WLKETC","img_art/1.jpg","3","","","","","","","","","","","","","","","","","","","","","","","","",""
"null","","html-keyboard-response","149","859065","0.0-143.0","A14JPLG3WLKETC","<p style=""font-size: 48px;"">+</p>","","","","","null","allTrialResponses","500","1","14","img_art/1.jpg","13","wonderful","Richard,Michael,Jorge,Jose,Isaac,Luis","nice piece, fall like,31,340,20","Just a mess though a better mess than some others.,-11,140,20","fishing on the lake surrounded by trees,42,180,20","Blurry but that's how emotions are a lot of the time.,27,200,20","The colors are a little too intense.,1,280,20","I love the calming comfort and safe feeling of this,50,400,20","Isaac","The colors are a little too intense.,1,280,20","Richard","nice piece, fall like,31,340,20","Jose","Blurry but that's how emotions are a lot of the time.,27,200,20","8"
"13452","","survey-text","150","872530","0.0-144.0-0.0","A14JPLG3WLKETC","","","","{""Q0"":""Beautiful""}","","","","","","","","","","","","","","","","","","","","","","",""
"4462","","image-slider-response","151","876999","0.0-145.0","A14JPLG3WLKETC","","","","","7","","","","","","","","","","","","","","","","","","","","","",""
"null","","image-button-response","152","882006","0.0-146.0","A14JPLG3WLKETC","img_art/10.jpg","null","","","","","","","","","","","","","","","","","","","","","","","","",""
"1875","","image-button-response","153","883895","0.0-147.0","A14JPLG3WLKETC","img_art/10.jpg","4","","","","","","","","","","","","","","","","","","","","","","","","",""
"1618","","image-button-response","154","885523","0.0-148.0-0.0","A14JPLG3WLKETC","img_art/10.jpg","0","","","","","","","","","","","","","","","","","","","","","","","","",""
"1294","","image-button-response","155","886820","0.0-149.0-0.0","A14JPLG3WLKETC","img_art/10.jpg","2","","","","","","","","","","","","","","","","","","","","","","","","",""
"null","","html-keyboard-response","156","887823","0.0-150.0","A14JPLG3WLKETC","<p style=""font-size: 48px;"">+</p>","","","","","null","allTrialResponses","1000","1","15","img_art/10.jpg","7","Beautiful","Richard,Sean,Mark,Jose,Isaac,Eric","interesting portrayal of a violin?,10,340,20","I see a rollercoaster,23,40,20","Kraken, and I love it.,39,80,20","This is pretty rad. The outline looks like a music staff,15,200,20","It looks intricate.,15,280,20","This piece is unusual in a way that makes me uncomfortable.,-5,100,20","Isaac","It looks intricate.,15,280,20","Richard","interesting portrayal of a violin?,10,340,20","Mark","Kraken, and I love it.,39,80,20","8"
"8521","","survey-text","157","896373","0.0-151.0-0.0","A14JPLG3WLKETC","","","","{""Q0"":""course""}","","","","","","","","","","","","","","","","","","","","","","",""
"6703","","survey-text","158","903084","0.0-152.0-0.0","A14JPLG3WLKETC","","","","{""Q0"":""Nice and attractive""}","","","","","","","","","","","","","","","","","","","","","","",""
"2975","","image-slider-response","159","906063","0.0-153.0","A14JPLG3WLKETC","","","","","11","","","","","","","","","","","","","","","","","","","","","",""
"null","","image-button-response","160","911087","0.0-154.0","A14JPLG3WLKETC","img_art/16.jpg","null","","","","","","","","","","","","","","","","","","","","","","","","",""
"2846","","image-button-response","161","913935","0.0-155.0","A14JPLG3WLKETC","img_art/16.jpg","1","","","","","","","","","","","","","","","","","","","","","","","","",""
"898","","image-button-response","162","914840","0.0-156.0-0.0","A14JPLG3WLKETC","img_art/16.jpg","0","","","","","","","","","","","","","","","","","","","","","","","","",""
"768","","image-button-response","163","915613","0.0-157.0-0.0","A14JPLG3WLKETC","img_art/16.jpg","2","","","","","","","","","","","","","","","","","","","","","","","","",""
"null","","html-keyboard-response","164","917117","0.0-158.0","A14JPLG3WLKETC","<p style=""font-size: 48px;"">+</p>","","","","","null","allTrialResponses","1500","1","16","img_art/16.jpg","11","Nice and attractive","Richard,Jacob,Mark,Caleb,Isaac,Bradley","nonsense art, not really art,-44,340,20","Cool but the bear creeps me out?,8,340,20","I think it's about child abuse. The teddy bear represents innocence and the dark shape is approaching it.,40,80,20","A strange collage made by a child. Do not like the colored face of the bear.,-29,40,20","I wouldn't hang it up on my wall but I like the colors of the bear.,25,280,20","This feels like there's some kind of pedofile thing going on here.,-50,300,20","Jacob","Cool but the bear creeps me out?,8,340,20","Richard","nonsense art, not really art,-44,340,20","Mark","I think it's about child abuse. The teddy bear represents innocence and the dark shape is approaching it.,40,80,20","8"
"12105","","survey-text","165","929247","0.0-159.0-0.0","A14JPLG3WLKETC","","","","{""Q0"":""Attractive""}","","","","","","","","","","","","","","","","","","","","","","",""
"2822","","image-slider-response","166","932075","0.0-160.0","A14JPLG3WLKETC","","","","","17","","","","","","","","","","","","","","","","","","","","","",""
"null","","image-button-response","167","937088","0.0-161.0","A14JPLG3WLKETC","img_art/7.jpg","null","","","","","","","","","","","","","","","","","","","","","","","","",""
"2038","","image-button-response","168","939132","0.0-162.0","A14JPLG3WLKETC","img_art/7.jpg","0","","","","","","","","","","","","","","","","","","","","","","","","",""
"962","","image-button-response","169","940097","0.0-163.0-0.0","A14JPLG3WLKETC","img_art/7.jpg","0","","","","","","","","","","","","","","","","","","","","","","","","",""
"2229","","image-button-response","170","1001521","0.0-163.1-0.1","A14JPLG3WLKETC","img_art/7.jpg","4","","","","","","","","","","","","","","","","","","","","","","","","",""
"1611","","image-button-response","171","1003138","0.0-164.0-0.0","A14JPLG3WLKETC","img_art/7.jpg","1","","","","","","","","","","","","","","","","","","","","","","","","",""
"null","","html-keyboard-response","172","1003640","0.0-165.0","A14JPLG3WLKETC","<p style=""font-size: 48px;"">+</p>","","","","","null","allTrialResponses","500","1","17","img_art/7.jpg","17","Attractive","Richard,Jacob,Mark,Nathan,Alex,Kyle","looks like wallpaper,-6,340,20","Looks like a natural texture, reminds me of rocks.,0,340,20","Reminds me of mold. Repulsive.,-10,80,20","I don't like this kind of color scheme or look they went for,-50,200,20","Hmm interesting, looks like mars or something terrestrial. Too abstract for me and too much brown,4,100,20","It just reminds me of dirt,-10,340,20","Richard","looks like wallpaper,-6,340,20","Alex","Hmm interesting, looks like mars or something terrestrial. Too abstract for me and too much brown,4,100,20","Jacob","Looks like a natural texture, reminds me of rocks.,0,340,20","10"
"13240","","survey-text","173","1016893","0.0-166.0-0.0","A14JPLG3WLKETC","","","","{""Q0"":""wonderful""}","","","","","","","","","","","","","","","","","","","","","","",""
"1880","","image-slider-response","174","1018774","0.0-167.0","A14JPLG3WLKETC","","","","","5","","","","","","","","","","","","","","","","","","","","","",""
"4722","","image-button-response","175","1023779","0.0-168.0","A14JPLG3WLKETC","img_art/6.jpg","3","","","","","","","","","","","","","","","","","","","","","","","","",""
"1001","","image-button-response","176","1024783","0.0-169.0","A14JPLG3WLKETC","img_art/6.jpg","1","","","","","","","","","","","","","","","","","","","","","","","","",""
"579","","image-button-response","177","1025363","0.0-170.0-0.0","A14JPLG3WLKETC","img_art/6.jpg","2","","","","","","","","","","","","","","","","","","","","","","","","",""
"633","","image-button-response","178","1026002","0.0-171.0-0.0","A14JPLG3WLKETC","img_art/6.jpg","0","","","","","","","","","","","","","","","","","","","","","","","","",""
"null","","html-keyboard-response","179","1027006","0.0-172.0","A14JPLG3WLKETC","<p style=""font-size: 48px;"">+</p>","","","","","null","allTrialResponses","1000","1","18","img_art/6.jpg","5","wonderful","Richard,Jacob,Tristan,Joshua,Alex,Connor","simplistic but reminds me of a crow in a field,-10,340,20","Is this a leaf?,4,340,20","Lack of context makes this painting 1-d for me. The headless bird is mysterious and indecipherable.,-10,300,20","Looks like a bird. It's fine.,7,240,20","Definitely belongs at a doctor's office, I think it's a crow or a tree?,-3,100,20","Blackbird in the desert,27,240,20","Jacob","Is this a leaf?,4,340,20","Tristan","Lack of context makes this painting 1-d for me. The headless bird is mysterious and indecipherable.,-10,300,20","Richard","simplistic but reminds me of a crow in a field,-10,340,20","10"
"7379","","survey-text","180","1034403","0.0-173.0-0.0","A14JPLG3WLKETC","","","","{""Q0"":""Very nice""}","","","","","","","","","","","","","","","","","","","","","","",""
"4330","","image-slider-response","181","1038739","0.0-174.0","A14JPLG3WLKETC","","","","","3","","","","","","","","","","","","","","","","","","","","","",""
"null","","image-button-response","182","1043810","0.0-175.0","A14JPLG3WLKETC","img_art/22.jpg","null","","","","","","","","","","","","","","","","","","","","","","","","",""
"1365","","image-button-response","183","1045180","0.0-176.0","A14JPLG3WLKETC","img_art/22.jpg","5","","","","","","","","","","","","","","","","","","","","","","","","",""
"1139","","image-button-response","184","1046324","0.0-177.0-0.0","A14JPLG3WLKETC","img_art/22.jpg","0","","","","","","","","","","","","","","","","","","","","","","","","",""
"715","","image-button-response","185","1047044","0.0-178.0-0.0","A14JPLG3WLKETC","img_art/22.jpg","1","","","","","","","","","","","","","","","","","","","","","","","","",""
"null","","html-keyboard-response","186","1047545","0.0-179.0","A14JPLG3WLKETC","<p style=""font-size: 48px;"">+</p>","","","","","null","allTrialResponses","500","1","19","img_art/22.jpg","3","Very nice","Richard,Jacob,Tristan,Kevin,Shawn,Jeremy","another OK work, mostly because of the blend of colors,12,340,20","I like the mixing of the primary colors.,8,340,20","I appreciate the shapes but the abundance of primary colors make it seem garrish.,-10,300,20","Looks hot where ever that is.,-8,320,20","Still like the colors but not the most interesting composition,17,100,20","Happy. I like to colors,33,60,20","Jeremy","Happy. I like to colors,33,60,20","Richard","another OK work, mostly because of the blend of colors,12,340,20","Jacob","I like the mixing of the primary colors.,8,340,20","10"
"5777","","survey-text","187","1053349","0.0-180.0-0.0","A14JPLG3WLKETC","","","","{""Q0"":""Extraordinary""}","","","","","","","","","","","","","","","","","","","","","","",""
"2888","","image-slider-response","188","1056242","0.0-181.0","A14JPLG3WLKETC","","","","","18","","","","","","","","","","","","","","","","","","","","","",""
"null","","image-button-response","189","1061252","0.0-182.0","A14JPLG3WLKETC","img_art/9.jpg","null","","","","","","","","","","","","","","","","","","","","","","","","",""
"475","","image-button-response","190","1061733","0.0-183.0","A14JPLG3WLKETC","img_art/9.jpg","0","","","","","","","","","","","","","","","","","","","","","","","","",""
"765","","image-button-response","191","1062502","0.0-184.0-0.0","A14JPLG3WLKETC","img_art/9.jpg","1","","","","","","","","","","","","","","","","","","","","","","","","",""
"777","","image-button-response","192","1063282","0.0-185.0-0.0","A14JPLG3WLKETC","img_art/9.jpg","2","","","","","","","","","","","","","","","","","","","","","","","","",""
"null","","html-keyboard-response","193","1064785","0.0-186.0","A14JPLG3WLKETC","<p style=""font-size: 48px;"">+</p>","","","","","null","allTrialResponses","1500","1","20","img_art/9.jpg","18","Extraordinary","Richard,Jacob,Tanner,Charles,Anthony,Jeremy","looks like an imitation of a real piece of art, reclining lady,-1,340,20","So I don't really like this style but it looks somewhat okay,3,340,20","sleep, calm, safe,12,180,20","It's too all over the place,-37,100,20","This piece is very boring to look at.,-27,200,20","I feel this incites anger,-16,60,20","Richard","looks like an imitation of a real piece of art, reclining lady,-1,340,20","Jacob","So I don't really like this style but it looks somewhat okay,3,340,20","Tanner","sleep, calm, safe,12,180,20","10"
"3272","","survey-text","194","1068106","0.0-187.0-0.0","A14JPLG3WLKETC","","","","{""Q0"":""we""}","","","","","","","","","","","","","","","","","","","","","","",""
"8728","","survey-text","195","1076840","0.0-188.0-0.0","A14JPLG3WLKETC","","","","{""Q0"":""Good and suuspicious""}","","","","","","","","","","","","","","","","","","","","","","",""
"2868","","image-slider-response","196","1079716","0.0-189.0","A14JPLG3WLKETC","","","","","15","","","","","","","","","","","","","","","","","","","","","",""
"4929","","image-button-response","197","1084724","0.0-190.0","A14JPLG3WLKETC","img_art/27.jpg","0","","","","","","","","","","","","","","","","","","","","","","","","",""
"1396","","image-button-response","198","1086128","0.0-191.0","A14JPLG3WLKETC","img_art/27.jpg","1","","","","","","","","","","","","","","","","","","","","","","","","",""
"425","","image-button-response","199","1086559","0.0-192.0-0.0","A14JPLG3WLKETC","img_art/27.jpg","0","","","","","","","","","","","","","","","","","","","","","","","","",""
"690","","image-button-response","200","1087256","0.0-193.0-0.0","A14JPLG3WLKETC","img_art/27.jpg","2","","","","","","","","","","","","","","","","","","","","","","","","",""
"null","","html-keyboard-response","201","1088758","0.0-194.0","A14JPLG3WLKETC","<p style=""font-size: 48px;"">+</p>","","","","","null","allTrialResponses","1500","1","21","img_art/27.jpg","15","Good and suuspicious","Richard,Jacob,Tanner,Shane,Marcus,Jesse","like the patterns and colors all but the orange blob on the right,32,340,20","Don't get the point of this piece that much, but it doesn't bug me,1,340,20","makes me think of fume clouds, low visibility,-28,180,20","Makes me feel warm inside,21,80,20","It's okay. Not really interesting to me.,-10,60,20","Doesnt look like anything to me. Doesnt capture my attention.,-25,80,20","Jacob","Don't get the point of this piece that much, but it doesn't bug me,1,340,20","Richard","like the patterns and colors all but the orange blob on the right,32,340,20","Tanner","makes me think of fume clouds, low visibility,-28,180,20","10"
"11318","","survey-text","202","1100090","0.0-195.0-0.0","A14JPLG3WLKETC","","","","{""Q0"":""Gorgeous""}","","","","","","","","","","","","","","","","","","","","","","",""
"886","","image-slider-response","203","1100982","0.0-196.0","A14JPLG3WLKETC","","","","","3","","","","","","","","","","","","","","","","","","","","","",""
"null","","image-button-response","204","1105987","0.0-197.0","A14JPLG3WLKETC","img_art/4.jpg","null","","","","","","","","","","","","","","","","","","","","","","","","",""
"305","","image-button-response","205","1106295","0.0-198.0","A14JPLG3WLKETC","img_art/4.jpg","0","","","","","","","","","","","","","","","","","","","","","","","","",""
"824","","image-button-response","206","1107124","0.0-199.0-0.0","A14JPLG3WLKETC","img_art/4.jpg","1","","","","","","","","","","","","","","","","","","","","","","","","",""
"551","","image-button-response","207","1107682","0.0-200.0-0.0","A14JPLG3WLKETC","img_art/4.jpg","2","","","","","","","","","","","","","","","","","","","","","","","","",""
"null","","html-keyboard-response","208","1109188","0.0-201.0","A14JPLG3WLKETC","<p style=""font-size: 48px;"">+</p>","","","","","null","allTrialResponses","1500","1","22","img_art/4.jpg","3","Gorgeous","Richard,Jacob,Tanner,Lucas,Carlos,Joseph","too childish, not really art in my world,-50,340,20","Looks like they just smothered on some paint and called it a day.,-17,340,20","stresses me out, uncomfortable,-18,180,20","Not bad at all.,20,380,20","Movement. Snakes. Hair. The uncertainty makes my eye return.,21,80,20","It's okay, I guess. Nothing much either way.,5,220,20","Richard","too childish, not really art in my world,-50,340,20","Jacob","Looks like they just smothered on some paint and called it a day.,-17,340,20","Tanner","stresses me out, uncomfortable,-18,180,20","10"
"4764","","survey-text","209","1113965","0.0-202.0-0.0","A14JPLG3WLKETC","","","","{""Q0"":""Excellent""}","","","","","","","","","","","","","","","","","","","","","","",""
"1632","","image-slider-response","210","1115602","0.0-203.0","A14JPLG3WLKETC","","","","","5","","","","","","","","","","","","","","","","","","","","","",""
"null","","image-button-response","211","1120607","0.0-204.0","A14JPLG3WLKETC","img_art/14.jpg","null","","","","","","","","","","","","","","","","","","","","","","","","",""
"1232","","image-button-response","212","1121844","0.0-205.0","A14JPLG3WLKETC","img_art/14.jpg","5","","","","","","","","","","","","","","","","","","","","","","","","",""
"1059","","image-button-response","213","1122905","0.0-206.0-0.0","A14JPLG3WLKETC","img_art/14.jpg","0","","","","","","","","","","","","","","","","","","","","","","","","",""
"382","","image-button-response","214","1123293","0.0-207.0-0.0","A14JPLG3WLKETC","img_art/14.jpg","1","","","","","","","","","","","","","","","","","","","","","","","","",""
"null","","html-keyboard-response","215","1123796","0.0-208.0","A14JPLG3WLKETC","<p style=""font-size: 48px;"">+</p>","","","","","null","allTrialResponses","500","1","23","img_art/14.jpg","5","Excellent","Richard,Jacob,Tanner,Angel,Devon,Alejandro","the colors are peaceful and nature colors, soft,37,340,20","I kind of like it!,6,340,20","somewhat stressful, crazy,-3,180,20","This reminds me of a tree but the tree is sickly, and poorly cared for.,-10,180,20","this would make a very beautiful art project,22,400,20","It looks like a tree but the bleeding water colors lack borders and makes it hard to appreciate the message.,-41,80,20","Alejandro","It looks like a tree but the bleeding water colors lack borders and makes it hard to appreciate the message.,-41,80,20","Richard","the colors are peaceful and nature colors, soft,37,340,20","Jacob","I kind of like it!,6,340,20","10"
"4151","","survey-text","216","1127969","0.0-209.0-0.0","A14JPLG3WLKETC","","","","{""Q0"":""Gorgeous""}","","","","","","","","","","","","","","","","","","","","","","",""
"1167","","image-slider-response","217","1129142","0.0-210.0","A14JPLG3WLKETC","","","","","2","","","","","","","","","","","","","","","","","","","","","",""
"null","","image-button-response","218","1134160","0.0-211.0","A14JPLG3WLKETC","img_art/21.jpg","null","","","","","","","","","","","","","","","","","","","","","","","","",""
"713","","image-button-response","219","1134880","0.0-212.0","A14JPLG3WLKETC","img_art/21.jpg","1","","","","","","","","","","","","","","","","","","","","","","","","",""
"530","","image-button-response","220","1135416","0.0-213.0-0.0","A14JPLG3WLKETC","img_art/21.jpg","0","","","","","","","","","","","","","","","","","","","","","","","","",""
"629","","image-button-response","221","1136049","0.0-214.0-0.0","A14JPLG3WLKETC","img_art/21.jpg","2","","","","","","","","","","","","","","","","","","","","","","","","",""
"null","","html-keyboard-response","222","1137051","0.0-215.0","A14JPLG3WLKETC","<p style=""font-size: 48px;"">+</p>","","","","","null","allTrialResponses","1000","1","24","img_art/21.jpg","2","Gorgeous","Richard,Jacob,Jason,Gabriel,Kenneth,Alejandro","setting sun sky? nice colors and blending,14,340,20","I like how the colors blend together like a beautiful sunset.,25,340,20","The division in the picture is pleasing but the random white dots are distracting,12,20,20","i like watercolor,22,160,20","It actually reminded me of a place I've been to. So I had a positive reaction to it.,22,300,20","Feels like a clash between land and sea,31,80,20","Jacob","I like how the colors blend together like a beautiful sunset.,25,340,20","Richard","setting sun sky? nice colors and blending,14,340,20","Jason","The division in the picture is pleasing but the random white dots are distracting,12,20,20","10"
"10300","","survey-text","223","1147367","0.0-216.0-0.0","A14JPLG3WLKETC","","","","{""Q0"":""Brightful""}","","","","","","","","","","","","","","","","","","","","","","",""
"2028","","image-slider-response","224","1149401","0.0-217.0","A14JPLG3WLKETC","","","","","16","","","","","","","","","","","","","","","","","","","","","",""
"null","","image-button-response","225","1154405","0.0-218.0","A14JPLG3WLKETC","img_art/8.jpg","null","","","","","","","","","","","","","","","","","","","","","","","","",""
"1040","","image-button-response","226","1155451","0.0-219.0","A14JPLG3WLKETC","img_art/8.jpg","2","","","","","","","","","","","","","","","","","","","","","","","","",""
"405","","image-button-response","227","1155859","0.0-220.0-0.0","A14JPLG3WLKETC","img_art/8.jpg","1","","","","","","","","","","","","","","","","","","","","","","","","",""
"410","","image-button-response","228","1156275","0.0-221.0-0.0","A14JPLG3WLKETC","img_art/8.jpg","0","","","","","","","","","","","","","","","","","","","","","","","","",""
"null","","html-keyboard-response","229","1156779","0.0-222.0","A14JPLG3WLKETC","<p style=""font-size: 48px;"">+</p>","","","","","null","allTrialResponses","500","1","25","img_art/8.jpg","16","Brightful","Richard,Jacob,Jason,Victor,Brett,Juan","lots going on with great use of lots of color and geometry,24,340,20","Very cool! I like this piece,9,340,20","There are a lot of different interesting elements in the picture.,12,20,20","I like the colors,10,340,20","Very abstract and seems symbolic,45,360,20","I don't like the negative emotion this picture makes me feel. It's also too abstract.,-30,260,20","Jason","There are a lot of different interesting elements in the picture.,12,20,20","Jacob","Very cool! I like this piece,9,340,20","Richard","lots going on with great use of lots of color and geometry,24,340,20","10"
"7208","","survey-text","230","1164013","0.0-223.0-0.0","A14JPLG3WLKETC","","","","{""Q0"":""table""}","","","","","","","","","","","","","","","","","","","","","","",""
"6030","","survey-text","231","1170048","0.0-224.0-0.0","A14JPLG3WLKETC","","","","{""Q0"":""Nice""}","","","","","","","","","","","","","","","","","","","","","","",""
"16491","","survey-text","232","1188905","0.0-224.1-0.1","A14JPLG3WLKETC","","","","{""Q0"":""Attractive""}","","","","","","","","","","","","","","","","","","","","","","",""
"2634","","image-slider-response","233","1191553","0.0-225.0","A14JPLG3WLKETC","","","","","16","","","","","","","","","","","","","","","","","","","","","",""
"4202","","image-button-response","234","1196559","0.0-226.0","A14JPLG3WLKETC","img_art/13.jpg","1","","","","","","","","","","","","","","","","","","","","","","","","",""
"1640","","image-button-response","235","1198204","0.0-227.0","A14JPLG3WLKETC","img_art/13.jpg","1","","","","","","","","","","","","","","","","","","","","","","","","",""
"536","","image-button-response","236","1198743","0.0-228.0-0.0","A14JPLG3WLKETC","img_art/13.jpg","2","","","","","","","","","","","","","","","","","","","","","","","","",""
"1005","","image-button-response","237","1199753","0.0-229.0-0.0","A14JPLG3WLKETC","img_art/13.jpg","4","","","","","","","","","","","","","","","","","","","","","","","","",""
"null","","html-keyboard-response","238","1200840","0.0-230.0","A14JPLG3WLKETC","<p style=""font-size: 48px;"">+</p>","","","","","null","allTrialResponses","1000","1","26","img_art/13.jpg","16","Attractive","Richard,Jacob,Jason,Brandon,Malik,Cole","kind of like the pattern and colors but don't love it,13,340,20","The paint splatter idea is kind of overused but I like how it brings the piece together,16,340,20","Like the color choices,7,20,20","Simple, but pleasing. The blue gradient is a favorite of mine,32,320,20","Gorgeous contrast and color choice, very pleasing,50,40,20","The blue colors are very calming. Reminds me of water,33,200,20","Jacob","The paint splatter idea is kind of overused but I like how it brings the piece together,16,340,20","Jason","Like the color choices,7,20,20","Malik","Gorgeous contrast and color choice, very pleasing,50,40,20","10"
"9191","","survey-text","239","1210087","0.0-231.0-0.0","A14JPLG3WLKETC","","","","{""Q0"":""Gorgeous""}","","","","","","","","","","","","","","","","","","","","","","",""
"2438","","image-slider-response","240","1212528","0.0-232.0","A14JPLG3WLKETC","","","","","8","","","","","","","","","","","","","","","","","","","","","",""
"null","","image-button-response","241","1217534","0.0-233.0","A14JPLG3WLKETC","img_art/30.jpg","null","","","","","","","","","","","","","","","","","","","","","","","","",""
"627","","image-button-response","242","1218168","0.0-234.0","A14JPLG3WLKETC","img_art/30.jpg","5","","","","","","","","","","","","","","","","","","","","","","","","",""
"997","","image-button-response","243","1219169","0.0-235.0-0.0","A14JPLG3WLKETC","img_art/30.jpg","0","","","","","","","","","","","","","","","","","","","","","","","","",""
"613","","image-button-response","244","1219787","0.0-236.0-0.0","A14JPLG3WLKETC","img_art/30.jpg","1","","","","","","","","","","","","","","","","","","","","","","","","",""
"null","","html-keyboard-response","245","1221293","0.0-237.0","A14JPLG3WLKETC","<p style=""font-size: 48px;"">+</p>","","","","","null","allTrialResponses","1500","1","27","img_art/30.jpg","8","Gorgeous","Austin,Jacob,Jason,Brendan,Malik,Blake","Love the bold brush strokes and the illusion it creates,50,240,20","Looks cool , but no meaning,1,340,20","Do not like the streaks,-14,20,20","i cant really get it,-35,340,20","I can't parse any intention or emotion,-17,40,20","snakes in the grass, I don't like it,-17,280,20","Blake","snakes in the grass, I don't like it,-17,280,20","Austin","Love the bold brush strokes and the illusion it creates,50,240,20","Jacob","Looks cool , but no meaning,1,340,20","10"
"5591","","survey-text","246","1226901","0.0-238.0-0.0","A14JPLG3WLKETC","","","","{""Q0"":""Suspicious""}","","","","","","","","","","","","","","","","","","","","","","",""
"1753","","image-slider-response","247","1228656","0.0-239.0","A14JPLG3WLKETC","","","","","15","","","","","","","","","","","","","","","","","","","","","",""
"4729","","image-button-response","248","1233660","0.0-240.0","A14JPLG3WLKETC","img_art/18.jpg","2","","","","","","","","","","","","","","","","","","","","","","","","",""
"673","","image-button-response","249","1234339","0.0-241.0","A14JPLG3WLKETC","img_art/18.jpg","2","","","","","","","","","","","","","","","","","","","","","","","","",""
"931","","image-button-response","250","1235275","0.0-242.0-0.0","A14JPLG3WLKETC","img_art/18.jpg","3","","","","","","","","","","","","","","","","","","","","","","","","",""
"1738","","image-button-response","251","1237018","0.0-243.0-0.0","A14JPLG3WLKETC","img_art/18.jpg","1","","","","","","","","","","","","","","","","","","","","","","","","",""
"null","","html-keyboard-response","252","1238021","0.0-244.0","A14JPLG3WLKETC","<p style=""font-size: 48px;"">+</p>","","","","","null","allTrialResponses","1000","1","28","img_art/18.jpg","15","Suspicious","Austin,Jacob,Bryce,Paul,Jeffrey,Blake","Nice abstract art,50,240,20","I think this looks pretty cool, I can see what's kind of going on here.,22,340,20","Kinda boring. Not my favorite,-34,20,20","It doesn't look like much, the colors are dark and it doesn't really make me feel anything.,-2,300,20","Makes me to look at it and investigate what it is about and what is going on,17,40,20","i like the colors. outerspace,21,280,20","Bryce","Kinda boring. Not my favorite,-34,20,20","Paul","It doesn't look like much, the colors are dark and it doesn't really make me feel anything.,-2,300,20","Jacob","I think this looks pretty cool, I can see what's kind of going on here.,22,340,20","10"
"4548","","survey-text","253","1242584","0.0-245.0-0.0","A14JPLG3WLKETC","","","","{""Q0"":""Abstract""}","","","","","","","","","","","","","","","","","","","","","","",""
"1170","","image-slider-response","254","1243766","0.0-246.0","A14JPLG3WLKETC","","","","","2","","","","","","","","","","","","","","","","","","","","","",""
"null","","image-button-response","255","1248773","0.0-247.0","A14JPLG3WLKETC","img_art/20.jpg","null","","","","","","","","","","","","","","","","","","","","","","","","",""
"876","","image-button-response","256","1249652","0.0-248.0","A14JPLG3WLKETC","img_art/20.jpg","0","","","","","","","","","","","","","","","","","","","","","","","","",""
"733","","image-button-response","257","1250389","0.0-249.0-0.0","A14JPLG3WLKETC","img_art/20.jpg","1","","","","","","","","","","","","","","","","","","","","","","","","",""
"492","","image-button-response","258","1250886","0.0-250.0-0.0","A14JPLG3WLKETC","img_art/20.jpg","2","","","","","","","","","","","","","","","","","","","","","","","","",""
"null","","html-keyboard-response","259","1252394","0.0-251.0","A14JPLG3WLKETC","<p style=""font-size: 48px;"">+</p>","","","","","null","allTrialResponses","1500","1","29","img_art/20.jpg","2","Abstract","Dustin,Jacob,Bryce,Paul,Travis,Robert","I don't like it. Dark sky and black figures. White objects remind me of bones.,-30,20,20","It looks painted really nicely.,5,340,20","Kinda freaks me out.,-40,20,20","It looks like a junkyard and isn't appealing,-22,300,20","I liked this...I liked the blue and the black and I liked the smoothness to it.,31,260,20","Looks like an old gold mining down now deserted.,11,360,20","Dustin","I don't like it. Dark sky and black figures. White objects remind me of bones.,-30,20,20","Jacob","It looks painted really nicely.,5,340,20","Bryce","Kinda freaks me out.,-40,20,20","10"
"5467","","survey-text","260","1257874","0.0-252.0-0.0","A14JPLG3WLKETC","","","","{""Q0"":""Brightful""}","","","","","","","","","","","","","","","","","","","","","","",""
"2349","","image-slider-response","261","1260228","0.0-253.0","A14JPLG3WLKETC","","","","","10","","","","","","","","","","","","","","","","","","","","","",""
"null","","image-button-response","262","1265237","0.0-254.0","A14JPLG3WLKETC","img_art/26.jpg","null","","","","","","","","","","","","","","","","","","","","","","","","",""
"604","","image-button-response","263","1265849","0.0-255.0","A14JPLG3WLKETC","img_art/26.jpg","5","","","","","","","","","","","","","","","","","","","","","","","","",""
"419","","image-button-response","264","1266270","0.0-256.0-0.0","A14JPLG3WLKETC","img_art/26.jpg","4","","","","","","","","","","","","","","","","","","","","","","","","",""
"380","","image-button-response","265","1266653","0.0-257.0-0.0","A14JPLG3WLKETC","img_art/26.jpg","3","","","","","","","","","","","","","","","","","","","","","","","","",""
"null","","html-keyboard-response","266","1267165","0.0-258.0","A14JPLG3WLKETC","<p style=""font-size: 48px;"">+</p>","","","","","null","allTrialResponses","500","1","30","img_art/26.jpg","10","Brightful","Dustin,Jacob,Bryce,Jonathan,Patrick,Vincent","Reminds me of watercolor. Muted tones and blurry soft brush strokes. Calm to me.,1,20,20","It doesn't look so vibrant, I'm not sure what feelings they were trying to capture,-41,340,20","Love the colors in this one.,22,20,20","It's relaxing to look at but I wish it was just a little more defined,20,140,20","I can somewhat city a city in this drawing,11,280,20","Small town and home feel on A nice day.,28,360,20","Vincent","Small town and home feel on A nice day.,28,360,20","Patrick","I can somewhat city a city in this drawing,11,280,20","Jonathan","It's relaxing to look at but I wish it was just a little more defined,20,140,20","10"
"4229","","image-button-response_instructions","267","1271435","0.0-259.0","A14JPLG3WLKETC","","0","instructions","","","","","","","","","","","","","","","","","","","","","","","",""
"1418","","image-button-response","268","1272864","0.0-260.0","A14JPLG3WLKETC","","0","","","","","","","","","","","","","","","","","","","","","","","","",""
