"rt","url","trial_type","trial_index","time_elapsed","internal_node_id","participant_id","stimulus","button_pressed","Name","responses","response","key_press","variableName","fixationTime","condition","trial","photo","subjectRating","subjectResponse","agentsNames","agent_1_Response","agent_2_Response","agent_3_Response","agent_4_Response","agent_5_Response","agent_6_Response","kept_1_name","kept_1_response","kept_2_name","kept_2_response","kept_3_name","kept_3_response","errorCounter"
"11159","external_page_harvard.html","external-html","0","11251","0.0-0.0","A1591UKT6PC90Q","","","","","","","","","","","","","","","","","","","","","","","","","","",""
"2249","","image-button-response","1","13504","0.0-1.0","A1591UKT6PC90Q","","1","","","","","","","","","","","","","","","","","","","","","","","","",""
"2304","","image-button-response","2","15817","0.0-2.0-0.0","A1591UKT6PC90Q","","1","phone","","","","","","","","","","","","","","","","","","","","","","","",""
"7430","","survey-text","3","23250","0.0-3.0-0.0","A1591UKT6PC90Q","","","","{""Q0"":""A1591UKT6PC90Q""}","","","","","","","","","","","","","","","","","","","","","","",""
"20593","","image-button-response_instructions","4","43846","0.0-4.0","A1591UKT6PC90Q","","0","instructions","","","","","","","","","","","","","","","","","","","","","","","",""
"26856","","image-button-response_instructions","5","70703","0.0-5.0","A1591UKT6PC90Q","img_art/ins/popularity/ins1.png","0","instructions","","","","","","","","","","","","","","","","","","","","","","","",""
"12827","","image-button-response_instructions","6","83532","0.0-6.0","A1591UKT6PC90Q","img_art/ins/popularity/ins2.png","0","instructions","","","","","","","","","","","","","","","","","","","","","","","",""
"12920","","image-button-response_instructions","7","96455","0.0-7.0","A1591UKT6PC90Q","img_art/ins/popularity/ins2Extreme.png","0","instructions","","","","","","","","","","","","","","","","","","","","","","","",""
"21209","","image-button-response_instructions","8","117665","0.0-8.0","A1591UKT6PC90Q","img_art/ins/popularity/ins3KEEPpop.PNG","0","instructions","","","","","","","","","","","","","","","","","","","","","","","",""
"6855","","image-button-response_instructions","9","124522","0.0-9.0","A1591UKT6PC90Q","img_art/ins/popularity/ins3ANamepop.PNG","0","instructions","","","","","","","","","","","","","","","","","","","","","","","",""
"5916","","image-button-response_instructions","10","130440","0.0-10.0","A1591UKT6PC90Q","img_art/ins/popularity/ins3ARatingpop.png","0","instructions","","","","","","","","","","","","","","","","","","","","","","","",""
"6604","","image-button-response_instructions","11","137048","0.0-11.0","A1591UKT6PC90Q","img_art/ins/popularity/ins3ATextpop.png","0","instructions","","","","","","","","","","","","","","","","","","","","","","","",""
"9857","","image-button-response_instructions","12","146908","0.0-12.0","A1591UKT6PC90Q","img_art/ins/popularity/ins3ALikespop.png","0","instructions","","","","","","","","","","","","","","","","","","","","","","","",""
"16132","","image-button-response_instructions","13","163042","0.0-13.0","A1591UKT6PC90Q","img_art/ins/popularity/ins3KEEPpop.PNG","0","instructions","","","","","","","","","","","","","","","","","","","","","","","",""
"28784","","image-button-response_instructions","14","191828","0.0-14.0","A1591UKT6PC90Q","img_art/ins/popularity/ins3_5RED.png","0","instructions","","","","","","","","","","","","","","","","","","","","","","","",""
"7246","","image-button-response_instructions","15","199076","0.0-15.0","A1591UKT6PC90Q","img_art/ins/popularity/ins3KEEPpop.PNG","0","instructions","","","","","","","","","","","","","","","","","","","","","","","",""
"21634","","image-button-response_instructions","16","220711","0.0-16.0","A1591UKT6PC90Q","img_art/ins/popularity/ins4KEEPpop.PNG","0","instructions","","","","","","","","","","","","","","","","","","","","","","","",""
"6776","","image-button-response_instructions","17","227489","0.0-17.0","A1591UKT6PC90Q","img_art/ins/popularity/ins5KEEPpop.PNG","0","instructions","","","","","","","","","","","","","","","","","","","","","","","",""
"2853","","image-button-response_instructions","18","230344","0.0-18.0","A1591UKT6PC90Q","","0","instructions","","","","","","","","","","","","","","","","","","","","","","","",""
"7791","","survey-text","19","238174","0.0-19.0-0.0","A1591UKT6PC90Q","","","","{""Q0"":""but""}","","","","","","","","","","","","","","","","","","","","","","",""
"32835","","survey-text","20","271011","0.0-20.0-0.0","A1591UKT6PC90Q","","","","{""Q0"":""This piece makes me feel nostalgic.""}","","","","","","","","","","","","","","","","","","","","","","",""
"9953.600000023842","","image-slider-response","21","280969","0.0-21.0","A1591UKT6PC90Q","","","","","26","","","","","","","","","","","","","","","","","","","","","",""
"null","","image-button-response","22","285976","0.0-22.0","A1591UKT6PC90Q","img_art/ins/1.jpg","null","","","","","","","","","","","","","","","","","","","","","","","","",""
"44311","","image-button-response","23","330291","0.0-23.0","A1591UKT6PC90Q","img_art/ins/1.jpg","5","","","","","","","","","","","","","","","","","","","","","","","","",""
"9714","","image-button-response","24","340009","0.0-24.0-0.0","A1591UKT6PC90Q","img_art/ins/1.jpg","0","","","","","","","","","","","","","","","","","","","","","","","","",""
"6409","","image-button-response","25","346421","0.0-25.0-0.0","A1591UKT6PC90Q","img_art/ins/1.jpg","4","","","","","","","","","","","","","","","","","","","","","","","","",""
"null","","html-keyboard-response","26","347924","0.0-26.0","A1591UKT6PC90Q","<p style=""font-size: 48px;"">+</p>","","","","","null","allTrialResponses","1500","1","-2","img_art/ins/1.jpg","26","This piece makes me feel nostalgic.","Allison,Ashley,Beth,Dora,Erika,Jen","looks like a lot of things going on in the mist,20,20,20","I just don't get why these type of art would be popular,-32,40,20","This color reminds me of poo,-46,60,20","looks like what my niece in 3rd grade did this afternoon,-50,80,20","I like the sophisticated brushwork,40,100,20","It reminds me of a candy land dream I had,36,120,20","Jen","It reminds me of a candy land dream I had,36,120,20","Allison","looks like a lot of things going on in the mist,20,20,20","Erika","I like the sophisticated brushwork,40,100,20","0"
"20310","","survey-text","27","368241","0.0-27.0-0.0","A1591UKT6PC90Q","","","","{""Q0"":""Boldly foreboding.""}","","","","","","","","","","","","","","","","","","","","","","",""
"7964.100000023842","","image-slider-response","28","376208","0.0-28.0","A1591UKT6PC90Q","","","","","25","","","","","","","","","","","","","","","","","","","","","",""
"null","","image-button-response","29","381214","0.0-29.0","A1591UKT6PC90Q","img_art/ins/2.jpg","null","","","","","","","","","","","","","","","","","","","","","","","","",""
"35020","","image-button-response","30","416237","0.0-30.0","A1591UKT6PC90Q","img_art/ins/2.jpg","4","","","","","","","","","","","","","","","","","","","","","","","","",""
"5150","","image-button-response","31","421390","0.0-31.0-0.0","A1591UKT6PC90Q","img_art/ins/2.jpg","0","","","","","","","","","","","","","","","","","","","","","","","","",""
"1083","","image-button-response","32","422477","0.0-32.0-0.0","A1591UKT6PC90Q","img_art/ins/2.jpg","1","","","","","","","","","","","","","","","","","","","","","","","","",""
"null","","html-keyboard-response","33","422981","0.0-33.0","A1591UKT6PC90Q","<p style=""font-size: 48px;"">+</p>","","","","","null","allTrialResponses","500","1","-1","img_art/ins/2.jpg","25","Boldly foreboding.","Allison,Kara,Katie,Jenna,Erika,Jen","I don't have strong feelings about this,10,20,20","I like the blocks of color arrangements,30,160,20","too much color!,-28,180,20","One of my pet peevs,-48,140,20","I would never be able to compose a sophisticated pallete like this,48,100,20","It reminds me of a fireplace,36,120,20","Erika","I would never be able to compose a sophisticated pallete like this,48,100,20","Allison","I don't have strong feelings about this,10,20,20","Kara","I like the blocks of color arrangements,30,160,20","0"
"48352","","survey-text","34","471339","0.0-34.0-0.0","A1591UKT6PC90Q","","","","{""Q0"":""Cold and flashy.""}","","","","","","","","","","","","","","","","","","","","","","",""
"6731.300000071526","","image-slider-response","35","478073","0.0-35.0","A1591UKT6PC90Q","","","","","-22","","","","","","","","","","","","","","","","","","","","","",""
"null","","image-button-response","36","483077","0.0-36.0","A1591UKT6PC90Q","img_art/ins/3.jpg","null","","","","","","","","","","","","","","","","","","","","","","","","",""
"11935","","image-button-response","37","495014","0.0-37.0","A1591UKT6PC90Q","img_art/ins/3.jpg","3","","","","","","","","","","","","","","","","","","","","","","","","",""
"20981","","image-button-response","38","515998","0.0-38.0-0.0","A1591UKT6PC90Q","img_art/ins/3.jpg","5","","","","","","","","","","","","","","","","","","","","","","","","",""
"8051","","image-button-response","39","524053","0.0-39.0-0.0","A1591UKT6PC90Q","img_art/ins/3.jpg","2","","","","","","","","","","","","","","","","","","","","","","","","",""
"null","","html-keyboard-response","40","524555","0.0-40.0","A1591UKT6PC90Q","<p style=""font-size: 48px;"">+</p>","","","","","null","allTrialResponses","500","1","0","img_art/ins/3.jpg","-22","Cold and flashy.","Allison,Kara,Mary,Leslie,Erika,Rose","enjoy the different shades of blue,22,20,20","calming blue is very nice,36,160,20","I like the overlapping of brushes,41,220,20","It's an alright work,15,200,20","I feel connected to the artist,40,100,20","My daily routine, it's depressing,-20,240,20","Leslie","It's an alright work,15,200,20","Rose","My daily routine, it's depressing,-20,240,20","Mary","I like the overlapping of brushes,41,220,20","0"
"9075","","image-button-response_instructions","41","533633","0.0-41.0","A1591UKT6PC90Q","","0","instructions","","","","","","","","","","","","","","","","","","","","","","","",""
"18360","","survey-likert","42","551996","0.0-42.0-0.0","A1591UKT6PC90Q","","","","{""Q0"":"""",""Q1"":0,""Q2"":1}","","","","","","","","","","","","","","","","","","","","","","",""
"7781","","survey-text","43","559785","0.0-43.0-0.0","A1591UKT6PC90Q","","","","{""Q0"":""rock""}","","","","","","","","","","","","","","","","","","","","","","",""
"43334","","survey-text","44","603121","0.0-44.0-0.0","A1591UKT6PC90Q","","","","{""Q0"":""I feel warmth and hope from this piece.""}","","","","","","","","","","","","","","","","","","","","","","",""
"7295.899999976158","","image-slider-response","45","610419","0.0-45.0","A1591UKT6PC90Q","","","","","17","","","","","","","","","","","","","","","","","","","","","",""
"null","","image-button-response","46","615455","0.0-46.0","A1591UKT6PC90Q","img_art/27.jpg","null","","","","","","","","","","","","","","","","","","","","","","","","",""
"31076","","image-button-response","47","646536","0.0-47.0","A1591UKT6PC90Q","img_art/27.jpg","1","","","","","","","","","","","","","","","","","","","","","","","","",""
"5945","","image-button-response","48","652484","0.0-48.0-0.0","A1591UKT6PC90Q","img_art/27.jpg","4","","","","","","","","","","","","","","","","","","","","","","","","",""
"26413","","image-button-response","49","678900","0.0-49.0-0.0","A1591UKT6PC90Q","img_art/27.jpg","3","","","","","","","","","","","","","","","","","","","","","","","","",""
"null","","html-keyboard-response","50","679904","0.0-50.0","A1591UKT6PC90Q","<p style=""font-size: 48px;"">+</p>","","","","","null","allTrialResponses","1000","1","1","img_art/27.jpg","17","I feel warmth and hope from this piece.","Lindsey,Leah,Jacqueline,Savannah,Brooke,Kristen","Looks like my niece's doodles.,-50,400,20","An attractive assortment of squiggles and colors,22,360,20","I don't really see anything to this art.,-5,300,20","An abstract piece with such lifeless colors.,-26,200,20","Like it, autumn colors, trees and foliage scene.,25,60,20","makes me think of fume clouds, low visibility,-28,280,20","Leah","An attractive assortment of squiggles and colors,22,360,20","Brooke","Like it, autumn colors, trees and foliage scene.,25,60,20","Savannah","An abstract piece with such lifeless colors.,-26,200,20","0"
"38663","","survey-text","51","718573","0.0-51.0-0.0","A1591UKT6PC90Q","","","","{""Q0"":""Bold and exciting, but not for me.""}","","","","","","","","","","","","","","","","","","","","","","",""
"9166.399999976158","","image-slider-response","52","727743","0.0-52.0","A1591UKT6PC90Q","","","","","0","","","","","","","","","","","","","","","","","","","","","",""
"null","","image-button-response","53","732747","0.0-53.0","A1591UKT6PC90Q","img_art/5.jpg","null","","","","","","","","","","","","","","","","","","","","","","","","",""
"41182","","image-button-response","54","773931","0.0-54.0","A1591UKT6PC90Q","img_art/5.jpg","1","","","","","","","","","","","","","","","","","","","","","","","","",""
"5045","","image-button-response","55","778980","0.0-55.0-0.0","A1591UKT6PC90Q","img_art/5.jpg","3","","","","","","","","","","","","","","","","","","","","","","","","",""
"2164","","image-button-response","56","781147","0.0-56.0-0.0","A1591UKT6PC90Q","img_art/5.jpg","3","","","","","","","","","","","","","","","","","","","","","","","","",""
"2315","","image-button-response","57","790402","0.0-56.1-0.1","A1591UKT6PC90Q","img_art/5.jpg","3","","","","","","","","","","","","","","","","","","","","","","","","",""
"20733","","image-button-response","58","814028","0.0-56.2-0.2","A1591UKT6PC90Q","img_art/5.jpg","5","","","","","","","","","","","","","","","","","","","","","","","","",""
"null","","html-keyboard-response","59","815033","0.0-57.0","A1591UKT6PC90Q","<p style=""font-size: 48px;"">+</p>","","","","","null","allTrialResponses","1000","1","2","img_art/5.jpg","0","Bold and exciting, but not for me.","Mary,Leah,Elizabeth,Savannah,Brooke,Shannon","This piece has a good flow. I like the yellow with black combo.,11,180,20","Boring, no flow except the pink feathery band,-42,360,20","Perfect for art exhibition,39,20,20","Boring and appears low effort,-41,200,20","No. What even is this? A mop?,-35,60,20","I don't know what it's supposed to be and it looks ugly the way the colors are on the yellow cube.,-50,220,20","Leah","Boring, no flow except the pink feathery band,-42,360,20","Savannah","Boring and appears low effort,-41,200,20","Shannon","I don't know what it's supposed to be and it looks ugly the way the colors are on the yellow cube.,-50,220,20","4"
"20063","","survey-text","60","835102","0.0-58.0-0.0","A1591UKT6PC90Q","","","","{""Q0"":""I get an exciting, rich vibe from this one.""}","","","","","","","","","","","","","","","","","","","","","","",""
"7006.399999976158","","image-slider-response","61","842110","0.0-59.0","A1591UKT6PC90Q","","","","","36","","","","","","","","","","","","","","","","","","","","","",""
"null","","image-button-response","62","847113","0.0-60.0","A1591UKT6PC90Q","img_art/22.jpg","null","","","","","","","","","","","","","","","","","","","","","","","","",""
"18918","","image-button-response","63","866033","0.0-61.0","A1591UKT6PC90Q","img_art/22.jpg","4","","","","","","","","","","","","","","","","","","","","","","","","",""
"3533","","image-button-response","64","869570","0.0-62.0-0.0","A1591UKT6PC90Q","img_art/22.jpg","5","","","","","","","","","","","","","","","","","","","","","","","","",""
"17960","","image-button-response","65","887532","0.0-63.0-0.0","A1591UKT6PC90Q","img_art/22.jpg","1","","","","","","","","","","","","","","","","","","","","","","","","",""
"null","","html-keyboard-response","66","889034","0.0-64.0","A1591UKT6PC90Q","<p style=""font-size: 48px;"">+</p>","","","","","null","allTrialResponses","1500","1","3","img_art/22.jpg","36","I get an exciting, rich vibe from this one.","Vanessa,Leah,Caitlin,Savannah,Mariah,Shannon","I don't like the colors or the way they've been arranged.,-20,380,20","Pretty colors but too blocky for me,-19,360,20","Looks like the kind of art I would see at the doctor's office.,-5,80,20","Seems too simple.,-19,200,20","The colors are pleasant, the shapes are inviting.,21,140,20","I think this picture looks interesting because of the way the colors work together.,20,220,20","Mariah","The colors are pleasant, the shapes are inviting.,21,140,20","Shannon","I think this picture looks interesting because of the way the colors work together.,20,220,20","Leah","Pretty colors but too blocky for me,-19,360,20","4"
"29542","","survey-text","67","918582","0.0-65.0-0.0","A1591UKT6PC90Q","","","","{""Q0"":""This makes me feel cool and relaxed.""}","","","","","","","","","","","","","","","","","","","","","","",""
"9604.800000071526","","image-slider-response","68","928192","0.0-66.0","A1591UKT6PC90Q","","","","","38","","","","","","","","","","","","","","","","","","","","","",""
"null","","image-button-response","69","933198","0.0-67.0","A1591UKT6PC90Q","img_art/13.jpg","null","","","","","","","","","","","","","","","","","","","","","","","","",""
"8620","","image-button-response","70","941821","0.0-68.0","A1591UKT6PC90Q","img_art/13.jpg","1","","","","","","","","","","","","","","","","","","","","","","","","",""
"5766","","image-button-response","71","947591","0.0-69.0-0.0","A1591UKT6PC90Q","img_art/13.jpg","3","","","","","","","","","","","","","","","","","","","","","","","","",""
"3797","","image-button-response","72","951394","0.0-70.0-0.0","A1591UKT6PC90Q","img_art/13.jpg","0","","","","","","","","","","","","","","","","","","","","","","","","",""
"null","","html-keyboard-response","73","952397","0.0-71.0","A1591UKT6PC90Q","<p style=""font-size: 48px;"">+</p>","","","","","null","allTrialResponses","1000","1","4","img_art/13.jpg","38","This makes me feel cool and relaxed.","Kaitlyn,Leah,Victoria,Brianna,Mariah,Shannon","Like the color choices,7,80,20","Like it a lot, reminds me of rainy day on glass,43,360,20","reminds me of rain,36,400,20","This is a very cool painting, something an art teacher or professor would own.,22,20,20","Rain on a cold window.,22,140,20","It looks like someone splattered a bunch of different colors to make a picture; I think its ugly.,-40,220,20","Leah","Like it a lot, reminds me of rainy day on glass,43,360,20","Brianna","This is a very cool painting, something an art teacher or professor would own.,22,20,20","Kaitlyn","Like the color choices,7,80,20","4"
"20381","","survey-text","74","972786","0.0-72.0-0.0","A1591UKT6PC90Q","","","","{""Q0"":""Love this eclectic little piece.""}","","","","","","","","","","","","","","","","","","","","","","",""
"5782.899999976158","","image-slider-response","75","978572","0.0-73.0","A1591UKT6PC90Q","","","","","35","","","","","","","","","","","","","","","","","","","","","",""
"null","","image-button-response","76","983577","0.0-74.0","A1591UKT6PC90Q","img_art/4.jpg","null","","","","","","","","","","","","","","","","","","","","","","","","",""
"20114","","image-button-response","77","1003695","0.0-75.0","A1591UKT6PC90Q","img_art/4.jpg","2","","","","","","","","","","","","","","","","","","","","","","","","",""
"9314","","image-button-response","78","1013012","0.0-76.0-0.0","A1591UKT6PC90Q","img_art/4.jpg","3","","","","","","","","","","","","","","","","","","","","","","","","",""
"8243","","image-button-response","79","1021258","0.0-77.0-0.0","A1591UKT6PC90Q","img_art/4.jpg","5","","","","","","","","","","","","","","","","","","","","","","","","",""
"null","","html-keyboard-response","80","1022760","0.0-78.0","A1591UKT6PC90Q","<p style=""font-size: 48px;"">+</p>","","","","","null","allTrialResponses","1500","1","5","img_art/4.jpg","35","Love this eclectic little piece.","Kaitlyn,Leah,Sarah,Brianna,Sophia,Leslie","I don't understand this at all,3,80,20","To me just looking at paint scrawls,-41,360,20","too many red/yellow shades, its impact without a reason,-27,180,20","Really don't care for the yellowish brown color in the center.,-19,20,20","This looks like what happens when someone steps on a mustard packet.,-7,280,20","This elicits no reaction in me.,0,380,20","Sarah","too many red/yellow shades, its impact without a reason,-27,180,20","Brianna","Really don't care for the yellowish brown color in the center.,-19,20,20","Leslie","This elicits no reaction in me.,0,380,20","4"
"7489","","survey-text","81","1030264","0.0-79.0-0.0","A1591UKT6PC90Q","","","","{""Q0"":""sky""}","","","","","","","","","","","","","","","","","","","","","","",""
"26833","","survey-text","82","1057100","0.0-80.0-0.0","A1591UKT6PC90Q","","","","{""Q0"":""Very busy, not my style.""}","","","","","","","","","","","","","","","","","","","","","","",""
"24737.700000047684","","image-slider-response","83","1081840","0.0-81.0","A1591UKT6PC90Q","","","","","-11","","","","","","","","","","","","","","","","","","","","","",""
"null","","image-button-response","84","1086844","0.0-82.0","A1591UKT6PC90Q","img_art/15.jpg","null","","","","","","","","","","","","","","","","","","","","","","","","",""
"2248","","image-button-response","85","1089094","0.0-83.0","A1591UKT6PC90Q","img_art/15.jpg","0","","","","","","","","","","","","","","","","","","","","","","","","",""
"6121","","image-button-response","86","1095219","0.0-84.0-0.0","A1591UKT6PC90Q","img_art/15.jpg","3","","","","","","","","","","","","","","","","","","","","","","","","",""
"3956","","image-button-response","87","1099179","0.0-85.0-0.0","A1591UKT6PC90Q","img_art/15.jpg","4","","","","","","","","","","","","","","","","","","","","","","","","",""
"null","","html-keyboard-response","88","1099686","0.0-86.0","A1591UKT6PC90Q","<p style=""font-size: 48px;"">+</p>","","","","","null","allTrialResponses","500","1","6","img_art/15.jpg","-11","Very busy, not my style.","Alexandra,Amber,Sarah,Brianna,Bailey,Leslie","This is sort of ugly, but I do like the design.,10,60,20","Reminds me of blueberry bushes.,7,200,20","this is really pretty! i like the pops of blue in all the black,26,180,20","No opinion truthfully,1,20,20","This is passable, but personally it just has nothing I'd like to see.,-14,360,20","This elicits no reaction in me.,0,380,20","Alexandra","This is sort of ugly, but I do like the design.,10,60,20","Brianna","No opinion truthfully,1,20,20","Bailey","This is passable, but personally it just has nothing I'd like to see.,-14,360,20","4"
"20864","","survey-text","89","1120562","0.0-87.0-0.0","A1591UKT6PC90Q","","","","{""Q0"":""Sophisticated, nice balance""}","","","","","","","","","","","","","","","","","","","","","","",""
"9671.099999904633","","image-slider-response","90","1130236","0.0-88.0","A1591UKT6PC90Q","","","","","30","","","","","","","","","","","","","","","","","","","","","",""
"null","","image-button-response","91","1135243","0.0-89.0","A1591UKT6PC90Q","img_art/18.jpg","null","","","","","","","","","","","","","","","","","","","","","","","","",""
"2599","","image-button-response","92","1137844","0.0-90.0","A1591UKT6PC90Q","img_art/18.jpg","5","","","","","","","","","","","","","","","","","","","","","","","","",""
"6225","","image-button-response","93","1144073","0.0-91.0-0.0","A1591UKT6PC90Q","img_art/18.jpg","3","","","","","","","","","","","","","","","","","","","","","","","","",""
"15624","","image-button-response","94","1159700","0.0-92.0-0.0","A1591UKT6PC90Q","img_art/18.jpg","2","","","","","","","","","","","","","","","","","","","","","","","","",""
"null","","html-keyboard-response","95","1160203","0.0-93.0","A1591UKT6PC90Q","<p style=""font-size: 48px;"">+</p>","","","","","null","allTrialResponses","500","1","7","img_art/18.jpg","30","Sophisticated, nice balance","Alexandra,Monica,Natalie,Brianna,Bailey,Brittany","Ugly, too much is going on,-40,60,20","It doesn't look like much, the colors are dark and it doesn't really make me feel anything.,-2,360,20","my response to the picture is a little bit of anxiety but I like the detail,16,400,20","Very eerie and it's spooky,11,20,20","Looks like a jumbled mess. I prefer a clearer picture,-18,360,20","This is really interesting to look at. I like the colors and the spectral look.,27,40,20","Brittany","This is really interesting to look at. I like the colors and the spectral look.,27,40,20","Brianna","Very eerie and it's spooky,11,20,20","Natalie","my response to the picture is a little bit of anxiety but I like the detail,16,400,20","4"
"12569","","survey-text","96","1172776","0.0-94.0-0.0","A1591UKT6PC90Q","","","","{""Q0"":""Simple and fun""}","","","","","","","","","","","","","","","","","","","","","","",""
"16326.600000023842","","image-slider-response","97","1189108","0.0-95.0","A1591UKT6PC90Q","","","","","13","","","","","","","","","","","","","","","","","","","","","",""
"3153","","image-button-response","98","1194116","0.0-96.0","A1591UKT6PC90Q","img_art/6.jpg","1","","","","","","","","","","","","","","","","","","","","","","","","",""
"25536","","image-button-response","99","1219654","0.0-97.0","A1591UKT6PC90Q","img_art/6.jpg","0","","","","","","","","","","","","","","","","","","","","","","","","",""
"1817","","image-button-response","100","1221474","0.0-98.0-0.0","A1591UKT6PC90Q","img_art/6.jpg","0","","","","","","","","","","","","","","","","","","","","","","","","",""
"2074","","image-button-response","101","1227980","0.0-98.1-0.1","A1591UKT6PC90Q","img_art/6.jpg","3","","","","","","","","","","","","","","","","","","","","","","","","",""
"6151","","image-button-response","102","1234134","0.0-99.0-0.0","A1591UKT6PC90Q","img_art/6.jpg","4","","","","","","","","","","","","","","","","","","","","","","","","",""
"null","","html-keyboard-response","103","1235635","0.0-100.0","A1591UKT6PC90Q","<p style=""font-size: 48px;"">+</p>","","","","","null","allTrialResponses","1500","1","8","img_art/6.jpg","13","Simple and fun","Nicole,Jessica,Natalie,Brianna,Amy,Brittany","The colors and rough brush strokes make me nervous,-10,20,20","Is this a leaf?,4,400,20","reminds me a giant peach,19,400,20","Nice desert scene,10,20,20","Lack of context makes this painting 1-d for me. The headless bird is mysterious and indecipherable.,-10,220,20","It's alright. I imagined the peach from James and the Giant Peach.,1,40,20","Nicole","The colors and rough brush strokes make me nervous,-10,20,20","Brianna","Nice desert scene,10,20,20","Amy","Lack of context makes this painting 1-d for me. The headless bird is mysterious and indecipherable.,-10,220,20","6"
"34463","","survey-text","104","1270110","0.0-101.0-0.0","A1591UKT6PC90Q","","","","{""Q0"":""A drab yet bustling cityscape""}","","","","","","","","","","","","","","","","","","","","","","",""
"7897.799999952316","","image-slider-response","105","1278010","0.0-102.0","A1591UKT6PC90Q","","","","","-15","","","","","","","","","","","","","","","","","","","","","",""
"null","","image-button-response","106","1283015","0.0-103.0","A1591UKT6PC90Q","img_art/11.jpg","null","","","","","","","","","","","","","","","","","","","","","","","","",""
"915","","image-button-response","107","1283932","0.0-104.0","A1591UKT6PC90Q","img_art/11.jpg","2","","","","","","","","","","","","","","","","","","","","","","","","",""
"12660","","image-button-response","108","1296595","0.0-105.0-0.0","A1591UKT6PC90Q","img_art/11.jpg","5","","","","","","","","","","","","","","","","","","","","","","","","",""
"18192","","image-button-response","109","1314790","0.0-106.0-0.0","A1591UKT6PC90Q","img_art/11.jpg","4","","","","","","","","","","","","","","","","","","","","","","","","",""
"null","","html-keyboard-response","110","1315293","0.0-107.0","A1591UKT6PC90Q","<p style=""font-size: 48px;"">+</p>","","","","","null","allTrialResponses","500","1","9","img_art/11.jpg","-15","A drab yet bustling cityscape","Nicole,Erika,Paige,Brianna,Amy,Haley","Those vertical strokes are to die for and I love these colors !!!,50,20,20","I want to know which skyline the artist is depicting,26,100,20","gave me a sense of gloom,-21,60,20","I like dark colors.,31,20,20","Simple and complex. Hopeful yet dark. I love this,35,220,20","Lovely. I could look at this for a really long time. I love the details and the composition.,40,220,20","Paige","gave me a sense of gloom,-21,60,20","Haley","Lovely. I could look at this for a really long time. I love the details and the composition.,40,220,20","Amy","Simple and complex. Hopeful yet dark. I love this,35,220,20","6"
"21863","","survey-text","111","1337165","0.0-108.0-0.0","A1591UKT6PC90Q","","","","{""Q0"":""Adore the color and simplicity""}","","","","","","","","","","","","","","","","","","","","","","",""
"6787.600000023842","","image-slider-response","112","1343954","0.0-109.0","A1591UKT6PC90Q","","","","","42","","","","","","","","","","","","","","","","","","","","","",""
"4024","","image-button-response","113","1348961","0.0-110.0","A1591UKT6PC90Q","img_art/25.jpg","2","","","","","","","","","","","","","","","","","","","","","","","","",""
"26581","","image-button-response","114","1375545","0.0-111.0","A1591UKT6PC90Q","img_art/25.jpg","0","","","","","","","","","","","","","","","","","","","","","","","","",""
"6180","","image-button-response","115","1381727","0.0-112.0-0.0","A1591UKT6PC90Q","img_art/25.jpg","2","","","","","","","","","","","","","","","","","","","","","","","","",""
"6299","","image-button-response","116","1388029","0.0-113.0-0.0","A1591UKT6PC90Q","img_art/25.jpg","4","","","","","","","","","","","","","","","","","","","","","","","","",""
"null","","html-keyboard-response","117","1388534","0.0-114.0","A1591UKT6PC90Q","<p style=""font-size: 48px;"">+</p>","","","","","null","allTrialResponses","500","1","10","img_art/25.jpg","42","Adore the color and simplicity","Christina,Kathryn,Paige,Erica,Amy,Haley","nice colors and it looks like a native work,32,240,20","I feel uneasy. Like watching someone powerful ready to perform a ritual, but I don't know their intentions.,-10,140,20","reminds me of ancient history which makes me happy,40,60,20","reminds me of a demon,-25,80,20","The limited palette make this figure mysterious and interpret-able.,20,220,20","I like the design but the brightness of the color feels almost blinding to me.,-3,220,20","Christina","nice colors and it looks like a native work,32,240,20","Paige","reminds me of ancient history which makes me happy,40,60,20","Amy","The limited palette make this figure mysterious and interpret-able.,20,220,20","6"
"5461","","survey-text","118","1394005","0.0-115.0-0.0","A1591UKT6PC90Q","","","","{""Q0"":""our""}","","","","","","","","","","","","","","","","","","","","","","",""
"57869","","survey-text","119","1451876","0.0-116.0-0.0","A1591UKT6PC90Q","","","","{""Q0"":""Muted watercolors, doesn't elicit much from me""}","","","","","","","","","","","","","","","","","","","","","","",""
"6112.100000023842","","image-slider-response","120","1457991","0.0-117.0","A1591UKT6PC90Q","","","","","-7","","","","","","","","","","","","","","","","","","","","","",""
"null","","image-button-response","121","1462995","0.0-118.0","A1591UKT6PC90Q","img_art/26.jpg","null","","","","","","","","","","","","","","","","","","","","","","","","",""
"17601","","image-button-response","122","1480598","0.0-119.0","A1591UKT6PC90Q","img_art/26.jpg","4","","","","","","","","","","","","","","","","","","","","","","","","",""
"3116","","image-button-response","123","1483717","0.0-120.0-0.0","A1591UKT6PC90Q","img_art/26.jpg","1","","","","","","","","","","","","","","","","","","","","","","","","",""
"7751","","image-button-response","124","1491474","0.0-121.0-0.0","A1591UKT6PC90Q","img_art/26.jpg","3","","","","","","","","","","","","","","","","","","","","","","","","",""
"null","","html-keyboard-response","125","1492976","0.0-122.0","A1591UKT6PC90Q","<p style=""font-size: 48px;"">+</p>","","","","","null","allTrialResponses","1500","1","11","img_art/26.jpg","-7","Muted watercolors, doesn't elicit much from me","Christina,Madison,Paige,Jenna,Amy,Kylie","looks like a little kids painting,-17,240,20","Colors look glum; photograph is not properly contrasted and does not reflect the appropriate amount of natural light.,-10,60,20","somewhat happy, like being outside on a nice day,30,60,20","soft colors & brush work. very easy to look at. makes me happy.,50,360,20","The feeling that I am looking at the world through a dingy filter makes this unpleasant for me.,-20,220,20","Picturesque little town,45,300,20","Amy","The feeling that I am looking at the world through a dingy filter makes this unpleasant for me.,-20,220,20","Madison","Colors look glum; photograph is not properly contrasted and does not reflect the appropriate amount of natural light.,-10,60,20","Jenna","soft colors & brush work. very easy to look at. makes me happy.,50,360,20","6"
"35028","","survey-text","126","1528015","0.0-123.0-0.0","A1591UKT6PC90Q","","","","{""Q0"":""I like the composition and tones, I could see this in my living room.""}","","","","","","","","","","","","","","","","","","","","","","",""
"6436","","image-slider-response","127","1534453","0.0-124.0","A1591UKT6PC90Q","","","","","39","","","","","","","","","","","","","","","","","","","","","",""
"null","","image-button-response","128","1539459","0.0-125.0","A1591UKT6PC90Q","img_art/14.jpg","null","","","","","","","","","","","","","","","","","","","","","","","","",""
"6994","","image-button-response","129","1546456","0.0-126.0","A1591UKT6PC90Q","img_art/14.jpg","4","","","","","","","","","","","","","","","","","","","","","","","","",""
"14218","","image-button-response","130","1560677","0.0-127.0-0.0","A1591UKT6PC90Q","img_art/14.jpg","5","","","","","","","","","","","","","","","","","","","","","","","","",""
"9922","","image-button-response","131","1570606","0.0-128.0-0.0","A1591UKT6PC90Q","img_art/14.jpg","3","","","","","","","","","","","","","","","","","","","","","","","","",""
"null","","html-keyboard-response","132","1571110","0.0-129.0","A1591UKT6PC90Q","<p style=""font-size: 48px;"">+</p>","","","","","null","allTrialResponses","500","1","12","img_art/14.jpg","39","I like the composition and tones, I could see this in my living room.","Destiny,Madison,Sydney,Jenna,Amy,Jordan","I dont really vibe with the grayish color palette,-7,360,20","No strong feelings either direction.,-4,60,20","I'm imagining a flower bouquet with pretty colors which I like.,35,320,20","love the colors. despite their brightness it seems sad somehow.,41,360,20","In others I might say the colors are garish. Here it works perfectly. The balance is wondrous and unlimiting.,25,220,20","this one isn't bad, reminds me a tree that gives life, and people are waiting for someone new to be born,27,20,20","Amy","In others I might say the colors are garish. Here it works perfectly. The balance is wondrous and unlimiting.,25,220,20","Jordan","this one isn't bad, reminds me a tree that gives life, and people are waiting for someone new to be born,27,20,20","Jenna","love the colors. despite their brightness it seems sad somehow.,41,360,20","6"
"40173","","survey-text","133","1611292","0.0-130.0-0.0","A1591UKT6PC90Q","","","","{""Q0"":""Love the languid blues and greens here.""}","","","","","","","","","","","","","","","","","","","","","","",""
"4385.199999928474","","image-slider-response","134","1615680","0.0-131.0","A1591UKT6PC90Q","","","","","50","","","","","","","","","","","","","","","","","","","","","",""
"null","","image-button-response","135","1620686","0.0-132.0","A1591UKT6PC90Q","img_art/9.jpg","null","","","","","","","","","","","","","","","","","","","","","","","","",""
"7210","","image-button-response","136","1627898","0.0-133.0","A1591UKT6PC90Q","img_art/9.jpg","3","","","","","","","","","","","","","","","","","","","","","","","","",""
"2871","","image-button-response","137","1630772","0.0-134.0-0.0","A1591UKT6PC90Q","img_art/9.jpg","0","","","","","","","","","","","","","","","","","","","","","","","","",""
"13985","","image-button-response","138","1644760","0.0-135.0-0.0","A1591UKT6PC90Q","img_art/9.jpg","4","","","","","","","","","","","","","","","","","","","","","","","","",""
"null","","html-keyboard-response","139","1645761","0.0-136.0","A1591UKT6PC90Q","<p style=""font-size: 48px;"">+</p>","","","","","null","allTrialResponses","1000","1","13","img_art/9.jpg","50","Love the languid blues and greens here.","Caroline,Shelby,Gabrielle,Jenna,Amy,Jordan","Stirs up emotions of watching someone sleep which is relaxing,11,100,20","A little too weird for me,-30,240,20","looks like an imitation of a real piece of art, reclining lady,-1,160,20","gorgeous colors, love the little details,42,360,20","The busyness and harsh nature of the lines in this painting  mute my emotional response.,-10,220,20","I just dont like it, no reaction from me at all,-50,20,20","Jenna","gorgeous colors, love the little details,42,360,20","Caroline","Stirs up emotions of watching someone sleep which is relaxing,11,100,20","Amy","The busyness and harsh nature of the lines in this painting  mute my emotional response.,-10,220,20","6"
"19849","","survey-text","140","1665619","0.0-137.0-0.0","A1591UKT6PC90Q","","","","{""Q0"":""A feast for the eyes, would love to see more from this artist.""}","","","","","","","","","","","","","","","","","","","","","","",""
"7629.100000023842","","image-slider-response","141","1673251","0.0-138.0","A1591UKT6PC90Q","","","","","42","","","","","","","","","","","","","","","","","","","","","",""
"null","","image-button-response","142","1678254","0.0-139.0","A1591UKT6PC90Q","img_art/8.jpg","null","","","","","","","","","","","","","","","","","","","","","","","","",""
"20895","","image-button-response","143","1699152","0.0-140.0","A1591UKT6PC90Q","img_art/8.jpg","3","","","","","","","","","","","","","","","","","","","","","","","","",""
"33431","","image-button-response","144","1732586","0.0-141.0-0.0","A1591UKT6PC90Q","img_art/8.jpg","4","","","","","","","","","","","","","","","","","","","","","","","","",""
"5901","","image-button-response","145","1738490","0.0-142.0-0.0","A1591UKT6PC90Q","img_art/8.jpg","2","","","","","","","","","","","","","","","","","","","","","","","","",""
"null","","html-keyboard-response","146","1739993","0.0-143.0","A1591UKT6PC90Q","<p style=""font-size: 48px;"">+</p>","","","","","null","allTrialResponses","1500","1","14","img_art/8.jpg","42","A feast for the eyes, would love to see more from this artist.","Caroline,Heather,Katie,Jenna,Amy,Briana","I love the colors in it and also the faces and door ways. Made me feel hopeful,35,100,20","woman looking over a the community,1,260,20","I like the colors. But I don't like the faces, they look distraught. Faces and sharp shapes make me anxious,1,160,20","beautiful colors & details. love the surrealism & strange angle. the faces are interesting.,50,360,20","The definition and the colors give make this painting accessible and thought provoking.,30,220,20","Its abstract and interesting,24,400,20","Jenna","beautiful colors & details. love the surrealism & strange angle. the faces are interesting.,50,360,20","Amy","The definition and the colors give make this painting accessible and thought provoking.,30,220,20","Katie","I like the colors. But I don't like the faces, they look distraught. Faces and sharp shapes make me anxious,1,160,20","6"
"14897","","survey-text","147","1754897","0.0-144.0-0.0","A1591UKT6PC90Q","","","","{""Q0"":""Nice balance, easy on the eyes.""}","","","","","","","","","","","","","","","","","","","","","","",""
"5252.700000047684","","image-slider-response","148","1760151","0.0-145.0","A1591UKT6PC90Q","","","","","35","","","","","","","","","","","","","","","","","","","","","",""
"null","","image-button-response","149","1765155","0.0-146.0","A1591UKT6PC90Q","img_art/12.jpg","null","","","","","","","","","","","","","","","","","","","","","","","","",""
"3233","","image-button-response","150","1768392","0.0-147.0","A1591UKT6PC90Q","img_art/12.jpg","4","","","","","","","","","","","","","","","","","","","","","","","","",""
"11176","","image-button-response","151","1779571","0.0-148.0-0.0","A1591UKT6PC90Q","img_art/12.jpg","2","","","","","","","","","","","","","","","","","","","","","","","","",""
"5452","","image-button-response","152","1785025","0.0-149.0-0.0","A1591UKT6PC90Q","img_art/12.jpg","3","","","","","","","","","","","","","","","","","","","","","","","","",""
"null","","html-keyboard-response","153","1786528","0.0-150.0","A1591UKT6PC90Q","<p style=""font-size: 48px;"">+</p>","","","","","null","allTrialResponses","1500","1","15","img_art/12.jpg","35","Nice balance, easy on the eyes.","Hannah,Melissa,Katie,Jenna,Amy,Mikayla","I don't get this one. Doesn't evoke an emotional response.,-10,240,20","reminds me of a dixie cup,3,240,20","Squares are rigid. I'm ambivalent.,1,160,20","interesting, but feels like someone cut up a picture and pasted it together wrong. want to see the original,15,360,20","Quite lovely with depth and possibility.,21,220,20","A little bit boring.,-24,300,20","Amy","Quite lovely with depth and possibility.,21,220,20","Katie","Squares are rigid. I'm ambivalent.,1,160,20","Jenna","interesting, but feels like someone cut up a picture and pasted it together wrong. want to see the original,15,360,20","6"
"6096","","survey-text","154","1792643","0.0-151.0-0.0","A1591UKT6PC90Q","","","","{""Q0"":""course""}","","","","","","","","","","","","","","","","","","","","","","",""
"37382","","survey-text","155","1830027","0.0-152.0-0.0","A1591UKT6PC90Q","","","","{""Q0"":""Busy but peaceful, I actually like the colors.""}","","","","","","","","","","","","","","","","","","","","","","",""
"4520.600000023842","","image-slider-response","156","1834549","0.0-153.0","A1591UKT6PC90Q","","","","","29","","","","","","","","","","","","","","","","","","","","","",""
"null","","image-button-response","157","1839555","0.0-154.0","A1591UKT6PC90Q","img_art/28.jpg","null","","","","","","","","","","","","","","","","","","","","","","","","",""
"27776","","image-button-response","158","1867333","0.0-155.0","A1591UKT6PC90Q","img_art/28.jpg","4","","","","","","","","","","","","","","","","","","","","","","","","",""
"17762","","image-button-response","159","1885098","0.0-156.0-0.0","A1591UKT6PC90Q","img_art/28.jpg","2","","","","","","","","","","","","","","","","","","","","","","","","",""
"1858","","image-button-response","160","1886959","0.0-157.0-0.0","A1591UKT6PC90Q","img_art/28.jpg","0","","","","","","","","","","","","","","","","","","","","","","","","",""
"null","","html-keyboard-response","161","1887461","0.0-158.0","A1591UKT6PC90Q","<p style=""font-size: 48px;"">+</p>","","","","","null","allTrialResponses","500","1","16","img_art/28.jpg","29","Busy but peaceful, I actually like the colors.","Lauren,Emily,Katie,Jenna,Amy,Catherine","I feel that the image is invoking a sense of negativity.,-15,340,20","Incoherent ugly mess.,-50,40,20","Like the muted pink colors. However, the mood is sad because of the blurriness,22,160,20","looks like humanoid figures in distress. I like it, but makes me slightly uncomfortable,35,360,20","Contemplative and a little dark. The muted colors and subject create a sense of mystery.,15,220,20","A mom protecting her child because something scary, (perhaps imaginary) wants to take the child.,-10,160,20","Amy","Contemplative and a little dark. The muted colors and subject create a sense of mystery.,15,220,20","Katie","Like the muted pink colors. However, the mood is sad because of the blurriness,22,160,20","Lauren","I feel that the image is invoking a sense of negativity.,-15,340,20","6"
"24668","","survey-text","162","1912133","0.0-159.0-0.0","A1591UKT6PC90Q","","","","{""Q0"":""Drab and depressed, too much charcoal""}","","","","","","","","","","","","","","","","","","","","","","",""
"7181.199999928474","","image-slider-response","163","1919317","0.0-160.0","A1591UKT6PC90Q","","","","","-25","","","","","","","","","","","","","","","","","","","","","",""
"null","","image-button-response","164","1924321","0.0-161.0","A1591UKT6PC90Q","img_art/20.jpg","null","","","","","","","","","","","","","","","","","","","","","","","","",""
"36999","","image-button-response","165","1961322","0.0-162.0","A1591UKT6PC90Q","img_art/20.jpg","2","","","","","","","","","","","","","","","","","","","","","","","","",""
"8829","","image-button-response","166","1970153","0.0-163.0-0.0","A1591UKT6PC90Q","img_art/20.jpg","3","","","","","","","","","","","","","","","","","","","","","","","","",""
"18357","","image-button-response","167","1988514","0.0-164.0-0.0","A1591UKT6PC90Q","img_art/20.jpg","4","","","","","","","","","","","","","","","","","","","","","","","","",""
"null","","html-keyboard-response","168","1990016","0.0-165.0","A1591UKT6PC90Q","<p style=""font-size: 48px;"">+</p>","","","","","null","allTrialResponses","1500","1","17","img_art/20.jpg","-25","Drab and depressed, too much charcoal","Lauren,Marissa,Katie,Miranda,Amy,Rebecca","I like how the image is depicting a scene.,10,340,20","I feel intrigued and impressed,34,160,20","I don't like it. Dark sky and black figures. White objects remind me of bones.,-30,160,20","A painting within a painting, the inner painting looks like a car crash with a semi truck.,21,320,20","Elements that are more defined are incongruous to the soft and melting nature of this painting,5,220,20","reminds me of georgia o'keeffe's skull,22,100,20","Katie","I don't like it. Dark sky and black figures. White objects remind me of bones.,-30,160,20","Miranda","A painting within a painting, the inner painting looks like a car crash with a semi truck.,21,320,20","Amy","Elements that are more defined are incongruous to the soft and melting nature of this painting,5,220,20","6"
"26685","","survey-text","169","2016713","0.0-166.0-0.0","A1591UKT6PC90Q","","","","{""Q0"":""Love this, complex and free and light.""}","","","","","","","","","","","","","","","","","","","","","","",""
"5359","","image-slider-response","170","2022077","0.0-167.0","A1591UKT6PC90Q","","","","","46","","","","","","","","","","","","","","","","","","","","","",""
"null","","image-button-response","171","2027084","0.0-168.0","A1591UKT6PC90Q","img_art/10.jpg","null","","","","","","","","","","","","","","","","","","","","","","","","",""
"4635","","image-button-response","172","2031721","0.0-169.0","A1591UKT6PC90Q","img_art/10.jpg","5","","","","","","","","","","","","","","","","","","","","","","","","",""
"4501","","image-button-response","173","2036224","0.0-170.0-0.0","A1591UKT6PC90Q","img_art/10.jpg","4","","","","","","","","","","","","","","","","","","","","","","","","",""
"19035","","image-button-response","174","2055266","0.0-171.0-0.0","A1591UKT6PC90Q","img_art/10.jpg","3","","","","","","","","","","","","","","","","","","","","","","","","",""
"null","","html-keyboard-response","175","2056268","0.0-172.0","A1591UKT6PC90Q","<p style=""font-size: 48px;"">+</p>","","","","","null","allTrialResponses","1000","1","18","img_art/10.jpg","46","Love this, complex and free and light.","Stephanie,Maria,Katie,Miranda,Amy,Claire","The black color is depressing.,-50,300,20","not sure what to make of this one,0,120,20","Dark and weird. Unidentifiable shape. I can't tell what it is, so I don't like it.,-50,160,20","It reminds me of how my dog has to run all over the place just to poop in one specific location.,-20,320,20","Highly abstract and yet the shapes and colors provide an emotional accessibility for me.,20,220,20","it looks very musical,24,260,20","Claire","it looks very musical,24,260,20","Amy","Highly abstract and yet the shapes and colors provide an emotional accessibility for me.,20,220,20","Miranda","It reminds me of how my dog has to run all over the place just to poop in one specific location.,-20,320,20","6"
"19749","","survey-text","176","2076027","0.0-173.0-0.0","A1591UKT6PC90Q","","","","{""Q0"":""Just no. Looks like a nightmare of christmas past.""}","","","","","","","","","","","","","","","","","","","","","","",""
"5548.700000047684","","image-slider-response","177","2081578","0.0-174.0","A1591UKT6PC90Q","","","","","-47","","","","","","","","","","","","","","","","","","","","","",""
"null","","image-button-response","178","2086583","0.0-175.0","A1591UKT6PC90Q","img_art/23.jpg","null","","","","","","","","","","","","","","","","","","","","","","","","",""
"8611","","image-button-response","179","2095196","0.0-176.0","A1591UKT6PC90Q","img_art/23.jpg","0","","","","","","","","","","","","","","","","","","","","","","","","",""
"2221","","image-button-response","180","2097420","0.0-177.0-0.0","A1591UKT6PC90Q","img_art/23.jpg","2","","","","","","","","","","","","","","","","","","","","","","","","",""
"29592","","image-button-response","181","2127014","0.0-178.0-0.0","A1591UKT6PC90Q","img_art/23.jpg","3","","","","","","","","","","","","","","","","","","","","","","","","",""
"null","","html-keyboard-response","182","2127518","0.0-179.0","A1591UKT6PC90Q","<p style=""font-size: 48px;"">+</p>","","","","","null","allTrialResponses","500","1","19","img_art/23.jpg","-47","Just no. Looks like a nightmare of christmas past.","Chloe,Alexa,Andrea,Miranda,Amy,Claire","Poster shop camp.,-40,220,20","Very colorful and wild. It's cool and I like it,32,40,20","I see souls in torment and that makes me feel uneasy.,-21,240,20","It's very colorful and different, the white looks like people dancing,26,320,20","So exciting and full of the night.,20,220,20","the pattern is pleasing to the eye,28,260,20","Chloe","Poster shop camp.,-40,220,20","Andrea","I see souls in torment and that makes me feel uneasy.,-21,240,20","Miranda","It's very colorful and different, the white looks like people dancing,26,320,20","6"
"19890","","survey-text","183","2147419","0.0-180.0-0.0","A1591UKT6PC90Q","","","","{""Q0"":""I don't get this one at all, the colors are muddy.""}","","","","","","","","","","","","","","","","","","","","","","",""
"7262.399999976158","","image-slider-response","184","2154683","0.0-181.0","A1591UKT6PC90Q","","","","","-44","","","","","","","","","","","","","","","","","","","","","",""
"3817","","image-button-response","185","2159685","0.0-182.0","A1591UKT6PC90Q","img_art/30.jpg","1","","","","","","","","","","","","","","","","","","","","","","","","",""
"2654","","image-button-response","186","2162342","0.0-183.0","A1591UKT6PC90Q","img_art/30.jpg","1","","","","","","","","","","","","","","","","","","","","","","","","",""
"5279","","image-button-response","187","2167624","0.0-184.0-0.0","A1591UKT6PC90Q","img_art/30.jpg","0","","","","","","","","","","","","","","","","","","","","","","","","",""
"41628","","image-button-response","188","2209255","0.0-185.0-0.0","A1591UKT6PC90Q","img_art/30.jpg","3","","","","","","","","","","","","","","","","","","","","","","","","",""
"null","","html-keyboard-response","189","2210761","0.0-186.0","A1591UKT6PC90Q","<p style=""font-size: 48px;"">+</p>","","","","","null","allTrialResponses","1500","1","20","img_art/30.jpg","-44","I don't get this one at all, the colors are muddy.","Chloe,Jennifer,Andrea,Miranda,Gabriela,Crystal","Muddy, sloppy, unprofessional,-44,220,20","The color scheme used in this piece is very ugly.,-50,380,20","It feels like graffiti and the dark colors do nothing for the mood.,-5,240,20","It looks like it was made by pre-k students.,-30,320,20","I like the strong lines or brush strokes. It looks modern and bold,21,140,20","An interesting design but don't like the colors. I value the time and effort put into it, but not a huge fan.,10,300,20","Jennifer","The color scheme used in this piece is very ugly.,-50,380,20","Chloe","Muddy, sloppy, unprofessional,-44,220,20","Miranda","It looks like it was made by pre-k students.,-30,320,20","6"
"3691","","survey-text","190","2214462","0.0-187.0-0.0","A1591UKT6PC90Q","","","","{""Q0"":""we""}","","","","","","","","","","","","","","","","","","","","","","",""
"35165","","survey-text","191","2249631","0.0-188.0-0.0","A1591UKT6PC90Q","","","","{""Q0"":""I get a woodsy, dark feel. I'm not caring for this.""}","","","","","","","","","","","","","","","","","","","","","","",""
"10145.299999952316","","image-slider-response","192","2259779","0.0-189.0","A1591UKT6PC90Q","","","","","4","","","","","","","","","","","","","","","","","","","","","",""
"null","","image-button-response","193","2264783","0.0-190.0","A1591UKT6PC90Q","img_art/24.jpg","null","","","","","","","","","","","","","","","","","","","","","","","","",""
"9115","","image-button-response","194","2273901","0.0-191.0","A1591UKT6PC90Q","img_art/24.jpg","2","","","","","","","","","","","","","","","","","","","","","","","","",""
"3044","","image-button-response","195","2276947","0.0-192.0-0.0","A1591UKT6PC90Q","img_art/24.jpg","1","","","","","","","","","","","","","","","","","","","","","","","","",""
"3141","","image-button-response","196","2280091","0.0-193.0-0.0","A1591UKT6PC90Q","img_art/24.jpg","0","","","","","","","","","","","","","","","","","","","","","","","","",""
"null","","html-keyboard-response","197","2281094","0.0-194.0","A1591UKT6PC90Q","<p style=""font-size: 48px;"">+</p>","","","","","null","allTrialResponses","1000","1","21","img_art/24.jpg","4","I get a woodsy, dark feel. I'm not caring for this.","Chloe,Jennifer,Sierra,Miranda,Alexis,Courtney","Pretty but cheesy,-15,220,20","This piece resembles a waterfall surrounded by trees.,21,380,20","i like that the water seems in motion,6,260,20","I find the colors work really well. It's very pretty but I have no idea as what it is.,34,320,20","Simple. Not too abstract. Love the different flower colors.,20,100,20","What a nice refreshing waterfall.,39,280,20","Sierra","i like that the water seems in motion,6,260,20","Jennifer","This piece resembles a waterfall surrounded by trees.,21,380,20","Chloe","Pretty but cheesy,-15,220,20","6"
"7288","","survey-text","198","2288395","0.0-195.0-0.0","A1591UKT6PC90Q","","","","{""Q0"":""Blah""}","","","","","","","","","","","","","","","","","","","","","","",""
"11762","","survey-text","199","2303610","0.0-195.1-0.1","A1591UKT6PC90Q","","","","{""Q0"":""Just blah""}","","","","","","","","","","","","","","","","","","","","","","",""
"4684.699999928474","","image-slider-response","200","2308298","0.0-196.0","A1591UKT6PC90Q","","","","","-50","","","","","","","","","","","","","","","","","","","","","",""
"null","","image-button-response","201","2313301","0.0-197.0","A1591UKT6PC90Q","img_art/7.jpg","null","","","","","","","","","","","","","","","","","","","","","","","","",""
"6614","","image-button-response","202","2319917","0.0-198.0","A1591UKT6PC90Q","img_art/7.jpg","3","","","","","","","","","","","","","","","","","","","","","","","","",""
"2305","","image-button-response","203","2322226","0.0-199.0-0.0","A1591UKT6PC90Q","img_art/7.jpg","1","","","","","","","","","","","","","","","","","","","","","","","","",""
"1708","","image-button-response","204","2323937","0.0-200.0-0.0","A1591UKT6PC90Q","img_art/7.jpg","5","","","","","","","","","","","","","","","","","","","","","","","","",""
"null","","html-keyboard-response","205","2325439","0.0-201.0","A1591UKT6PC90Q","<p style=""font-size: 48px;"">+</p>","","","","","null","allTrialResponses","1500","1","22","img_art/7.jpg","-50","Just blah","Chloe,Jennifer,Sierra,Meghan,Megan,Erin","Like the tactile quality,30,220,20","Very, very dull compared to the other paintings,-36,380,20","it looks like a dog ran through some wet cement,-22,260,20","I don't like the texture,-49,220,20","Great portrayal of solid surface,19,200,20","Color is bland and looks damaged,-37,120,20","Meghan","I don't like the texture,-49,220,20","Jennifer","Very, very dull compared to the other paintings,-36,380,20","Erin","Color is bland and looks damaged,-37,120,20","6"
"34393","","survey-text","206","2359843","0.0-202.0-0.0","A1591UKT6PC90Q","","","","{""Q0"":""Sophisticated and busy. I like the jewel tones.""}","","","","","","","","","","","","","","","","","","","","","","",""
"3457.5","","image-slider-response","207","2363303","0.0-203.0","A1591UKT6PC90Q","","","","","30","","","","","","","","","","","","","","","","","","","","","",""
"null","","image-button-response","208","2368305","0.0-204.0","A1591UKT6PC90Q","img_art/19.jpg","null","","","","","","","","","","","","","","","","","","","","","","","","",""
"9188","","image-button-response","209","2377495","0.0-205.0","A1591UKT6PC90Q","img_art/19.jpg","4","","","","","","","","","","","","","","","","","","","","","","","","",""
"1276","","image-button-response","210","2378773","0.0-206.0-0.0","A1591UKT6PC90Q","img_art/19.jpg","5","","","","","","","","","","","","","","","","","","","","","","","","",""
"1342","","image-button-response","211","2380121","0.0-207.0-0.0","A1591UKT6PC90Q","img_art/19.jpg","3","","","","","","","","","","","","","","","","","","","","","","","","",""
"null","","html-keyboard-response","212","2380623","0.0-208.0","A1591UKT6PC90Q","<p style=""font-size: 48px;"">+</p>","","","","","null","allTrialResponses","500","1","23","img_art/19.jpg","30","Sophisticated and busy. I like the jewel tones.","Madeline,Jennifer,Angela,Meghan,Mackenzie,Erin","Looks a bit too loose,-2,40,20","Very, very ugly and sloppy,-31,380,20","I like the colors but the scene itself feels too jumbled and cluttered,9,260,20","looks like a shopping center,20,220,20","Shapes give it a feeling of being crowded,-18,20,20","Childish music hall,-20,120,20","Mackenzie","Shapes give it a feeling of being crowded,-18,20,20","Erin","Childish music hall,-20,120,20","Meghan","looks like a shopping center,20,220,20","6"
"29695","","survey-text","213","2410329","0.0-209.0-0.0","A1591UKT6PC90Q","","","","{""Q0"":""I get lost at the bear here.""}","","","","","","","","","","","","","","","","","","","","","","",""
"4698.200000047684","","image-slider-response","214","2415030","0.0-210.0","A1591UKT6PC90Q","","","","","-41","","","","","","","","","","","","","","","","","","","","","",""
"null","","image-button-response","215","2420036","0.0-211.0","A1591UKT6PC90Q","img_art/16.jpg","null","","","","","","","","","","","","","","","","","","","","","","","","",""
"851","","image-button-response","216","2420889","0.0-212.0","A1591UKT6PC90Q","img_art/16.jpg","2","","","","","","","","","","","","","","","","","","","","","","","","",""
"1840","","image-button-response","217","2422732","0.0-213.0-0.0","A1591UKT6PC90Q","img_art/16.jpg","0","","","","","","","","","","","","","","","","","","","","","","","","",""
"4345","","image-button-response","218","2427081","0.0-214.0-0.0","A1591UKT6PC90Q","img_art/16.jpg","5","","","","","","","","","","","","","","","","","","","","","","","","",""
"null","","html-keyboard-response","219","2427583","0.0-215.0","A1591UKT6PC90Q","<p style=""font-size: 48px;"">+</p>","","","","","null","allTrialResponses","500","1","24","img_art/16.jpg","-41","I get lost at the bear here.","Samantha,Makayla,Kimberly,Meghan,Mackenzie,Erin","Creepy teddybear,-50,140,20","It's a little unsettling,2,80,20","Weird and creepy,-30,260,20","feels chaotic and morbid,-39,220,20","I like the mixture of images,23,20,20","Not original. Bear is odd,-50,120,20","Kimberly","Weird and creepy,-30,260,20","Samantha","Creepy teddybear,-50,140,20","Erin","Not original. Bear is odd,-50,120,20","6"
"19730","","survey-text","220","2447320","0.0-216.0-0.0","A1591UKT6PC90Q","","","","{""Q0"":""I sense a vast bleakness in this piece.""}","","","","","","","","","","","","","","","","","","","","","","",""
"15315.200000047684","","image-slider-response","221","2462641","0.0-217.0","A1591UKT6PC90Q","","","","","26","","","","","","","","","","","","","","","","","","","","","",""
"null","","image-button-response","222","2467644","0.0-218.0","A1591UKT6PC90Q","img_art/29.jpg","null","","","","","","","","","","","","","","","","","","","","","","","","",""
"25135","","image-button-response","223","2492782","0.0-219.0","A1591UKT6PC90Q","img_art/29.jpg","4","","","","","","","","","","","","","","","","","","","","","","","","",""
"3452","","image-button-response","224","2496238","0.0-220.0-0.0","A1591UKT6PC90Q","img_art/29.jpg","3","","","","","","","","","","","","","","","","","","","","","","","","",""
"6398","","image-button-response","225","2502641","0.0-221.0-0.0","A1591UKT6PC90Q","img_art/29.jpg","1","","","","","","","","","","","","","","","","","","","","","","","","",""
"null","","html-keyboard-response","226","2504144","0.0-222.0","A1591UKT6PC90Q","<p style=""font-size: 48px;"">+</p>","","","","","null","allTrialResponses","1500","1","25","img_art/29.jpg","26","I sense a vast bleakness in this piece.","Samantha,Katherine,Kimberly,Cassandra,Olivia,Erin","I love this things almost hidden in it like paint brush and other details,50,140,20","I think the grey and red inspire negative feelings but it's not the worst thing.,13,120,20","I like the usage of a physical object,33,260,20","Neural...just a blackboard jungle.,3,120,20","too challenging to comprehend,-28,40,20","Red X is scary, like the bricks,7,120,20","Olivia","too challenging to comprehend,-28,40,20","Cassandra","Neural...just a blackboard jungle.,3,120,20","Katherine","I think the grey and red inspire negative feelings but it's not the worst thing.,13,120,20","6"
"5989","","survey-text","227","2510149","0.0-223.0-0.0","A1591UKT6PC90Q","","","","{""Q0"":""table""}","","","","","","","","","","","","","","","","","","","","","","",""
"34704","","survey-text","228","2544856","0.0-224.0-0.0","A1591UKT6PC90Q","","","","{""Q0"":""This piece feels bright and fresh.""}","","","","","","","","","","","","","","","","","","","","","","",""
"7552.399999976158","","image-slider-response","229","2552411","0.0-225.0","A1591UKT6PC90Q","","","","","32","","","","","","","","","","","","","","","","","","","","","",""
"4395","","image-button-response","230","2557414","0.0-226.0","A1591UKT6PC90Q","img_art/2.jpg","4","","","","","","","","","","","","","","","","","","","","","","","","",""
"2228","","image-button-response","231","2559645","0.0-227.0","A1591UKT6PC90Q","img_art/2.jpg","4","","","","","","","","","","","","","","","","","","","","","","","","",""
"4072","","image-button-response","232","2563719","0.0-228.0-0.0","A1591UKT6PC90Q","img_art/2.jpg","1","","","","","","","","","","","","","","","","","","","","","","","","",""
"20244","","image-button-response","233","2583969","0.0-229.0-0.0","A1591UKT6PC90Q","img_art/2.jpg","5","","","","","","","","","","","","","","","","","","","","","","","","",""
"null","","html-keyboard-response","234","2585473","0.0-230.0","A1591UKT6PC90Q","<p style=""font-size: 48px;"">+</p>","","","","","null","allTrialResponses","1500","1","26","img_art/2.jpg","32","This piece feels bright and fresh.","Emma,Katherine,Chelsea,Cassandra,Olivia,Taylor","Don't love the colors,-30,60,20","The color combo is kind of ugly but there's something charming about it still,17,120,20","Not sure what is happening. I'm not a big fan of the colors but they don't bother me either.,1,180,20","I didn't like this it looked like a kindergardner painted it and the green was out of place.,-46,120,20","i liked the bright colors,13,40,20","Doesn't give me a reaction,10,340,20","Olivia","i liked the bright colors,13,40,20","Katherine","The color combo is kind of ugly but there's something charming about it still,17,120,20","Taylor","Doesn't give me a reaction,10,340,20","6"
"35710","","survey-text","235","2621195","0.0-231.0-0.0","A1591UKT6PC90Q","","","","{""Q0"":""Overgrowth and decay""}","","","","","","","","","","","","","","","","","","","","","","",""
"7608.100000023842","","image-slider-response","236","2628805","0.0-232.0","A1591UKT6PC90Q","","","","","-36","","","","","","","","","","","","","","","","","","","","","",""
"null","","image-button-response","237","2633808","0.0-233.0","A1591UKT6PC90Q","img_art/17.jpg","null","","","","","","","","","","","","","","","","","","","","","","","","",""
"16970","","image-button-response","238","2650782","0.0-234.0","A1591UKT6PC90Q","img_art/17.jpg","2","","","","","","","","","","","","","","","","","","","","","","","","",""
"2597","","image-button-response","239","2653382","0.0-235.0-0.0","A1591UKT6PC90Q","img_art/17.jpg","0","","","","","","","","","","","","","","","","","","","","","","","","",""
"4111","","image-button-response","240","2657496","0.0-236.0-0.0","A1591UKT6PC90Q","img_art/17.jpg","4","","","","","","","","","","","","","","","","","","","","","","","","",""
"null","","html-keyboard-response","241","2658999","0.0-237.0","A1591UKT6PC90Q","<p style=""font-size: 48px;"">+</p>","","","","","null","allTrialResponses","1500","1","27","img_art/17.jpg","-36","Overgrowth and decay","Sara,Katherine,Alicia,Cheyenne,Olivia,Taylor","Beautiful patterns but evokes sad emotions in me due to the color shades,31,160,20","Looks like a weird blurry heaven again! I dig,32,120,20","Like this one, super creative, calming.,43,120,20","I like the colorfulness.,17,200,20","muted tones brings me down,-13,40,20","A very inspiring piece,41,340,20","Alicia","Like this one, super creative, calming.,43,120,20","Sara","Beautiful patterns but evokes sad emotions in me due to the color shades,31,160,20","Olivia","muted tones brings me down,-13,40,20","6"
"23300","","survey-text","242","2682308","0.0-238.0-0.0","A1591UKT6PC90Q","","","","{""Q0"":""Adore this one, the colors are so vibrant""}","","","","","","","","","","","","","","","","","","","","","","",""
"3679.5","","image-slider-response","243","2685990","0.0-239.0","A1591UKT6PC90Q","","","","","47","","","","","","","","","","","","","","","","","","","","","",""
"null","","image-button-response","244","2690993","0.0-240.0","A1591UKT6PC90Q","img_art/21.jpg","null","","","","","","","","","","","","","","","","","","","","","","","","",""
"775","","image-button-response","245","2691770","0.0-241.0","A1591UKT6PC90Q","img_art/21.jpg","1","","","","","","","","","","","","","","","","","","","","","","","","",""
"2181","","image-button-response","246","2693954","0.0-242.0-0.0","A1591UKT6PC90Q","img_art/21.jpg","2","","","","","","","","","","","","","","","","","","","","","","","","",""
"11567","","image-button-response","247","2705524","0.0-243.0-0.0","A1591UKT6PC90Q","img_art/21.jpg","3","","","","","","","","","","","","","","","","","","","","","","","","",""
"null","","html-keyboard-response","248","2706027","0.0-244.0","A1591UKT6PC90Q","<p style=""font-size: 48px;"">+</p>","","","","","null","allTrialResponses","500","1","28","img_art/21.jpg","47","Adore this one, the colors are so vibrant","Sara,Ashley,Alicia,Jamie,Olivia,Kelsey","It looks confusing,-21,160,20","Disturbing, land meets ocean, lvoely really.,43,320,20","Don't know why I like it, cant describe, maybe many landscapes?,47,120,20","Contrast of fire and water looks cool,20,320,20","feels like a wave coming into light,9,40,20","i like watercolor,22,240,20","Ashley","Disturbing, land meets ocean, lvoely really.,43,320,20","Alicia","Don't know why I like it, cant describe, maybe many landscapes?,47,120,20","Jamie","Contrast of fire and water looks cool,20,320,20","6"
"25158","","survey-text","249","2731198","0.0-245.0-0.0","A1591UKT6PC90Q","","","","{""Q0"":""Messy nothingness.""}","","","","","","","","","","","","","","","","","","","","","","",""
"5184.799999952316","","image-slider-response","250","2736385","0.0-246.0","A1591UKT6PC90Q","","","","","-29","","","","","","","","","","","","","","","","","","","","","",""
"3513","","image-button-response","251","2741389","0.0-247.0","A1591UKT6PC90Q","img_art/3.jpg","0","","","","","","","","","","","","","","","","","","","","","","","","",""
"5946","","image-button-response","252","2747338","0.0-248.0","A1591UKT6PC90Q","img_art/3.jpg","2","","","","","","","","","","","","","","","","","","","","","","","","",""
"17448","","image-button-response","253","2764789","0.0-249.0-0.0","A1591UKT6PC90Q","img_art/3.jpg","1","","","","","","","","","","","","","","","","","","","","","","","","",""
"2142","","image-button-response","254","2766934","0.0-250.0-0.0","A1591UKT6PC90Q","img_art/3.jpg","0","","","","","","","","","","","","","","","","","","","","","","","","",""
"null","","html-keyboard-response","255","2767936","0.0-251.0","A1591UKT6PC90Q","<p style=""font-size: 48px;"">+</p>","","","","","null","allTrialResponses","1000","1","29","img_art/3.jpg","-29","Messy nothingness.","Anna,Ashley,Alicia,Jamie,Alyssa,Amanda","Definition of mediocre abstract art,-12,300,20","Reminds of John Lenonn's art a bit.,27,320,20","scribbles in red. 2 minute piece.,-30,120,20","Looks like somebody squirted ketchup everywhere,-40,320,20","Looks like someone spilled ketchup and forgot to clean it up,-30,160,20","Looks like someone threw blood at a wall,-50,180,20","Alicia","scribbles in red. 2 minute piece.,-30,120,20","Ashley","Reminds of John Lenonn's art a bit.,27,320,20","Anna","Definition of mediocre abstract art,-12,300,20","6"
"22062","","survey-text","256","2790012","0.0-252.0-0.0","A1591UKT6PC90Q","","","","{""Q0"":""Too heavy and foreboding. I would want to leave the room.""}","","","","","","","","","","","","","","","","","","","","","","",""
"5843.400000095367","","image-slider-response","257","2795858","0.0-253.0","A1591UKT6PC90Q","","","","","-35","","","","","","","","","","","","","","","","","","","","","",""
"null","","image-button-response","258","2800861","0.0-254.0","A1591UKT6PC90Q","img_art/1.jpg","null","","","","","","","","","","","","","","","","","","","","","","","","",""
"6472","","image-button-response","259","2807336","0.0-255.0","A1591UKT6PC90Q","img_art/1.jpg","2","","","","","","","","","","","","","","","","","","","","","","","","",""
"3836","","image-button-response","260","2811176","0.0-256.0-0.0","A1591UKT6PC90Q","img_art/1.jpg","3","","","","","","","","","","","","","","","","","","","","","","","","",""
"3087","","image-button-response","261","2814267","0.0-257.0-0.0","A1591UKT6PC90Q","img_art/1.jpg","5","","","","","","","","","","","","","","","","","","","","","","","","",""
"null","","html-keyboard-response","262","2815270","0.0-258.0","A1591UKT6PC90Q","<p style=""font-size: 48px;"">+</p>","","","","","null","allTrialResponses","1000","1","30","img_art/1.jpg","-35","Too heavy and foreboding. I would want to leave the room.","Anna,Ashley,Alicia,Rachel,Kaylee,Autumn","The colors are nice but that's all it is,21,300,20","More passable, colorful, abstract.,13,320,20","just colors mixed together. not interesting.,5,120,20","While I like the colors, I find nothing interesting or thought provoking about it.,10,80,20","a colorful piece of art,25,200,20","Doesn't represent anything in particular.,-47,340,20","Alicia","just colors mixed together. not interesting.,5,120,20","Rachel","While I like the colors, I find nothing interesting or thought provoking about it.,10,80,20","Autumn","Doesn't represent anything in particular.,-47,340,20","6"
"12462","","image-button-response_instructions","263","2827740","0.0-259.0","A1591UKT6PC90Q","","0","instructions","","","","","","","","","","","","","","","","","","","","","","","",""
"1671","","image-button-response","264","2829422","0.0-260.0","A1591UKT6PC90Q","","0","","","","","","","","","","","","","","","","","","","","","","","","",""
