"rt","url","trial_type","trial_index","time_elapsed","internal_node_id","participant_id","stimulus","button_pressed","Name","responses","response","key_press","variableName","fixationTime","condition","trial","photo","subjectRating","subjectResponse","agentsNames","agent_1_Response","agent_2_Response","agent_3_Response","agent_4_Response","agent_5_Response","agent_6_Response","kept_1_name","kept_1_response","kept_2_name","kept_2_response","kept_3_name","kept_3_response","errorCounter"
"6950","external_page_harvard.html","external-html","0","7032","0.0-0.0","A16335MOISDG1F","","","","","","","","","","","","","","","","","","","","","","","","","","",""
"1383","","image-button-response","1","8416","0.0-1.0","A16335MOISDG1F","","0","","","","","","","","","","","","","","","","","","","","","","","","",""
"3415","","image-button-response","2","11834","0.0-2.0-0.0","A16335MOISDG1F","","1","phone","","","","","","","","","","","","","","","","","","","","","","","",""
"3662","","survey-text","3","15498","0.0-3.0-0.0","A16335MOISDG1F","","","","{""Q0"":""A16335MOISDG1F""}","","","","","","","","","","","","","","","","","","","","","","",""
"8140","","image-button-response_instructions","4","23639","0.0-4.0","A16335MOISDG1F","","0","instructions","","","","","","","","","","","","","","","","","","","","","","","",""
"46560","","image-button-response_instructions","5","70201","0.0-5.0","A16335MOISDG1F","img_art/ins/popularity/ins1.png","0","instructions","","","","","","","","","","","","","","","","","","","","","","","",""
"7872","","image-button-response_instructions","6","78074","0.0-6.0","A16335MOISDG1F","img_art/ins/popularity/ins2.png","0","instructions","","","","","","","","","","","","","","","","","","","","","","","",""
"6012","","image-button-response_instructions","7","84087","0.0-7.0","A16335MOISDG1F","img_art/ins/popularity/ins2Extreme.png","0","instructions","","","","","","","","","","","","","","","","","","","","","","","",""
"11215","","image-button-response_instructions","8","95303","0.0-8.0","A16335MOISDG1F","img_art/ins/popularity/ins3KEEPpop.PNG","0","instructions","","","","","","","","","","","","","","","","","","","","","","","",""
"6341","","image-button-response_instructions","9","101645","0.0-9.0","A16335MOISDG1F","img_art/ins/popularity/ins3ANamepop.PNG","0","instructions","","","","","","","","","","","","","","","","","","","","","","","",""
"5695","","image-button-response_instructions","10","107342","0.0-10.0","A16335MOISDG1F","img_art/ins/popularity/ins3ARatingpop.png","0","instructions","","","","","","","","","","","","","","","","","","","","","","","",""
"5171","","image-button-response_instructions","11","112514","0.0-11.0","A16335MOISDG1F","img_art/ins/popularity/ins3ATextpop.png","0","instructions","","","","","","","","","","","","","","","","","","","","","","","",""
"5384","","image-button-response_instructions","12","117899","0.0-12.0","A16335MOISDG1F","img_art/ins/popularity/ins3ALikespop.png","0","instructions","","","","","","","","","","","","","","","","","","","","","","","",""
"10603","","image-button-response_instructions","13","128502","0.0-13.0","A16335MOISDG1F","img_art/ins/popularity/ins3KEEPpop.PNG","0","instructions","","","","","","","","","","","","","","","","","","","","","","","",""
"12104","","image-button-response_instructions","14","140607","0.0-14.0","A16335MOISDG1F","img_art/ins/popularity/ins3_5RED.png","0","instructions","","","","","","","","","","","","","","","","","","","","","","","",""
"4224","","image-button-response_instructions","15","144832","0.0-15.0","A16335MOISDG1F","img_art/ins/popularity/ins3KEEPpop.PNG","0","instructions","","","","","","","","","","","","","","","","","","","","","","","",""
"11418","","image-button-response_instructions","16","156250","0.0-16.0","A16335MOISDG1F","img_art/ins/popularity/ins4KEEPpop.PNG","0","instructions","","","","","","","","","","","","","","","","","","","","","","","",""
"8555","","image-button-response_instructions","17","164806","0.0-17.0","A16335MOISDG1F","img_art/ins/popularity/ins5KEEPpop.PNG","0","instructions","","","","","","","","","","","","","","","","","","","","","","","",""
"4069","","image-button-response_instructions","18","168876","0.0-18.0","A16335MOISDG1F","","0","instructions","","","","","","","","","","","","","","","","","","","","","","","",""
"7206","","survey-text","19","176101","0.0-19.0-0.0","A16335MOISDG1F","","","","{""Q0"":""but""}","","","","","","","","","","","","","","","","","","","","","","",""
"16885","","survey-text","20","192987","0.0-20.0-0.0","A16335MOISDG1F","","","","{""Q0"":""This reminds me of the fall.""}","","","","","","","","","","","","","","","","","","","","","","",""
"8245.099999999627","","image-slider-response","21","201234","0.0-21.0","A16335MOISDG1F","","","","","24","","","","","","","","","","","","","","","","","","","","","",""
"null","","image-button-response","22","206244","0.0-22.0","A16335MOISDG1F","img_art/ins/1.jpg","null","","","","","","","","","","","","","","","","","","","","","","","","",""
"2032","","image-button-response","23","208278","0.0-23.0","A16335MOISDG1F","img_art/ins/1.jpg","5","","","","","","","","","","","","","","","","","","","","","","","","",""
"3324","","image-button-response","24","211603","0.0-24.0-0.0","A16335MOISDG1F","img_art/ins/1.jpg","3","","","","","","","","","","","","","","","","","","","","","","","","",""
"12107","","image-button-response","25","223712","0.0-25.0-0.0","A16335MOISDG1F","img_art/ins/1.jpg","4","","","","","","","","","","","","","","","","","","","","","","","","",""
"null","","html-keyboard-response","26","224717","0.0-26.0","A16335MOISDG1F","<p style=""font-size: 48px;"">+</p>","","","","","null","allTrialResponses","1000","1","-2","img_art/ins/1.jpg","24","This reminds me of the fall.","Adam,Alex,Ben,Carl,Daniel,Jack","Seems like doodles,-20,20,20","very creative work.,36,40,20","This color reminds me of poo,-46,60,20","very calming artwork,42,80,20","It looks like a murder scene.,-48,100,20","I like the sophisticated brushwork,40,120,20","Jack","I like the sophisticated brushwork,40,120,20","Carl","very calming artwork,42,80,20","Daniel","It looks like a murder scene.,-48,100,20","0"
"29494","","survey-text","27","254219","0.0-27.0-0.0","A16335MOISDG1F","","","","{""Q0"":""It makes me think of a firetruck arriving at a burning building""}","","","","","","","","","","","","","","","","","","","","","","",""
"4349.9000000003725","","image-slider-response","28","258570","0.0-28.0","A16335MOISDG1F","","","","","-5","","","","","","","","","","","","","","","","","","","","","",""
"3951","","image-button-response","29","263580","0.0-29.0","A16335MOISDG1F","img_art/ins/2.jpg","1","","","","","","","","","","","","","","","","","","","","","","","","",""
"139","","image-button-response","30","263721","0.0-30.0","A16335MOISDG1F","img_art/ins/2.jpg","1","","","","","","","","","","","","","","","","","","","","","","","","",""
"177","","image-button-response","31","263899","0.0-31.0-0.0","A16335MOISDG1F","img_art/ins/2.jpg","1","","","","","","","","","","","","","","","","","","","","","","","","",""
"2385","","image-button-response","32","271744","0.0-31.1-0.1","A16335MOISDG1F","img_art/ins/2.jpg","3","","","","","","","","","","","","","","","","","","","","","","","","",""
"4356","","image-button-response","33","276102","0.0-32.0-0.0","A16335MOISDG1F","img_art/ins/2.jpg","5","","","","","","","","","","","","","","","","","","","","","","","","",""
"null","","html-keyboard-response","34","277104","0.0-33.0","A16335MOISDG1F","<p style=""font-size: 48px;"">+</p>","","","","","null","allTrialResponses","1000","1","-1","img_art/ins/2.jpg","-5","It makes me think of a firetruck arriving at a burning building","James,John,Kyle,Carl,Daniel,Jack","looks too angry,-50,140,20","love the texture of paint,48,160,20","Idk, it is just annoying,-32,180,20","I can feel the artist's passion in it,45,80,20","One of my pet peevs,-48,100,20","I would never be able to compose a sophisticated pallete like this,48,120,20","John","love the texture of paint,48,160,20","Carl","I can feel the artist's passion in it,45,80,20","Jack","I would never be able to compose a sophisticated pallete like this,48,120,20","2"
"15582","","survey-text","35","292695","0.0-34.0-0.0","A16335MOISDG1F","","","","{""Q0"":""This reminds me of an ice cave in a video game or something""}","","","","","","","","","","","","","","","","","","","","","","",""
"2307.800000000745","","image-slider-response","36","295004","0.0-35.0","A16335MOISDG1F","","","","","23","","","","","","","","","","","","","","","","","","","","","",""
"2276","","image-button-response","37","300006","0.0-36.0","A16335MOISDG1F","img_art/ins/3.jpg","5","","","","","","","","","","","","","","","","","","","","","","","","",""
"5170","","image-button-response","38","305180","0.0-37.0","A16335MOISDG1F","img_art/ins/3.jpg","5","","","","","","","","","","","","","","","","","","","","","","","","",""
"7073","","image-button-response","39","312254","0.0-38.0-0.0","A16335MOISDG1F","img_art/ins/3.jpg","0","","","","","","","","","","","","","","","","","","","","","","","","",""
"1537","","image-button-response","40","313793","0.0-39.0-0.0","A16335MOISDG1F","img_art/ins/3.jpg","0","","","","","","","","","","","","","","","","","","","","","","","","",""
"9119","","image-button-response","41","325319","0.0-39.1-0.1","A16335MOISDG1F","img_art/ins/3.jpg","2","","","","","","","","","","","","","","","","","","","","","","","","",""
"null","","html-keyboard-response","42","326325","0.0-40.0","A16335MOISDG1F","<p style=""font-size: 48px;"">+</p>","","","","","null","allTrialResponses","1000","1","0","img_art/ins/3.jpg","23","This reminds me of an ice cave in a video game or something","Mike,John,Sam,Carl,Ron,Jack","enjoy the different shades of blue,22,200,20","I like the overlapping of brushes,41,160,20","I can feel a rainy day from this painting,18,240,20","It's an alright work,15,80,20","It looks depressing,-26,220,20","I feel connected to the artist,40,120,20","Jack","I feel connected to the artist,40,120,20","Mike","enjoy the different shades of blue,22,200,20","Sam","I can feel a rainy day from this painting,18,240,20","4"
"27351","","image-button-response_instructions","43","353687","0.0-41.0","A16335MOISDG1F","","0","instructions","","","","","","","","","","","","","","","","","","","","","","","",""
"17150","","survey-likert","44","370839","0.0-42.0-0.0","A16335MOISDG1F","","","","{""Q0"":"""",""Q1"":0,""Q2"":1}","","","","","","","","","","","","","","","","","","","","","","",""
"4281","","survey-text","45","375123","0.0-43.0-0.0","A16335MOISDG1F","","","","{""Q0"":""rock""}","","","","","","","","","","","","","","","","","","","","","","",""
"13075","","survey-text","46","388199","0.0-44.0-0.0","A16335MOISDG1F","","","","{""Q0"":""It reminds me of a wall outside of a castle""}","","","","","","","","","","","","","","","","","","","","","","",""
"2970.7999999998137","","image-slider-response","47","391171","0.0-45.0","A16335MOISDG1F","","","","","8","","","","","","","","","","","","","","","","","","","","","",""
"2688","","image-button-response","48","396192","0.0-46.0","A16335MOISDG1F","img_art/8.jpg","2","","","","","","","","","","","","","","","","","","","","","","","","",""
"1723","","image-button-response","49","397919","0.0-47.0","A16335MOISDG1F","img_art/8.jpg","2","","","","","","","","","","","","","","","","","","","","","","","","",""
"9180","","image-button-response","50","407100","0.0-48.0-0.0","A16335MOISDG1F","img_art/8.jpg","4","","","","","","","","","","","","","","","","","","","","","","","","",""
"4636","","image-button-response","51","411737","0.0-49.0-0.0","A16335MOISDG1F","img_art/8.jpg","0","","","","","","","","","","","","","","","","","","","","","","","","",""
"null","","html-keyboard-response","52","412754","0.0-50.0","A16335MOISDG1F","<p style=""font-size: 48px;"">+</p>","","","","","null","allTrialResponses","1000","1","1","img_art/8.jpg","8","It reminds me of a wall outside of a castle","Andrew,Cameron,Chase,David,Adrian,Christopher","Looks like it would be an interesting place to live,35,160,20","what's going on here. looks like scary town.,-25,60,20","This is kind of neat. I really like how things are oriented and the shapes used.,18,120,20","I like how the piece is showcasing emotion in relation to something.,25,340,20","Pleasant colors, lots of interest. Not sure what's going on but I like it.,20,60,20","it's interesting but i don't enjoy the style,-5,160,20","Chase","This is kind of neat. I really like how things are oriented and the shapes used.,18,120,20","Adrian","Pleasant colors, lots of interest. Not sure what's going on but I like it.,20,60,20","Andrew","Looks like it would be an interesting place to live,35,160,20","4"
"12653","","survey-text","53","425415","0.0-51.0-0.0","A16335MOISDG1F","","","","{""Q0"":""Reminds me of a tank blowing things up in battle""}","","","","","","","","","","","","","","","","","","","","","","",""
"2577.899999999441","","image-slider-response","54","427994","0.0-52.0","A16335MOISDG1F","","","","","-22","","","","","","","","","","","","","","","","","","","","","",""
"3615","","image-button-response","55","433002","0.0-53.0","A16335MOISDG1F","img_art/21.jpg","2","","","","","","","","","","","","","","","","","","","","","","","","",""
"1207","","image-button-response","56","434212","0.0-54.0","A16335MOISDG1F","img_art/21.jpg","2","","","","","","","","","","","","","","","","","","","","","","","","",""
"4950","","image-button-response","57","439163","0.0-55.0-0.0","A16335MOISDG1F","img_art/21.jpg","5","","","","","","","","","","","","","","","","","","","","","","","","",""
"2350","","image-button-response","58","441516","0.0-56.0-0.0","A16335MOISDG1F","img_art/21.jpg","0","","","","","","","","","","","","","","","","","","","","","","","","",""
"null","","html-keyboard-response","59","442518","0.0-57.0","A16335MOISDG1F","<p style=""font-size: 48px;"">+</p>","","","","","null","allTrialResponses","1000","1","2","img_art/21.jpg","-22","Reminds me of a tank blowing things up in battle","Andrew,Dustin,Chase,Robert,Adrian,Juan","I love the contrasting tones between the two sides,36,160,20","Immediately a positive response! I like the muted colors. the blurriness calms me. It's serene,40,20,20","Kind of looks like a sky with a storm or tornado.,10,120,20","A battle at sea, the red is a bomb exploding.,-31,360,20","I like this piece more the more I look at. Still wouldn't want it in my home, though.,8,60,20","The colors and softness work together to make something that's lovely.,42,260,20","Chase","Kind of looks like a sky with a storm or tornado.,10,120,20","Juan","The colors and softness work together to make something that's lovely.,42,260,20","Andrew","I love the contrasting tones between the two sides,36,160,20","4"
"22397","","survey-text","60","464924","0.0-58.0-0.0","A16335MOISDG1F","","","","{""Q0"":""It seems very sensual to me. It reminds me of a naked woman""}","","","","","","","","","","","","","","","","","","","","","","",""
"3728.600000000559","","image-slider-response","61","468654","0.0-59.0","A16335MOISDG1F","","","","","14","","","","","","","","","","","","","","","","","","","","","",""
"4594","","image-button-response","62","473657","0.0-60.0","A16335MOISDG1F","img_art/30.jpg","5","","","","","","","","","","","","","","","","","","","","","","","","",""
"1646","","image-button-response","63","475306","0.0-61.0","A16335MOISDG1F","img_art/30.jpg","5","","","","","","","","","","","","","","","","","","","","","","","","",""
"5554","","image-button-response","64","480861","0.0-62.0-0.0","A16335MOISDG1F","img_art/30.jpg","0","","","","","","","","","","","","","","","","","","","","","","","","",""
"3449","","image-button-response","65","484311","0.0-63.0-0.0","A16335MOISDG1F","img_art/30.jpg","0","","","","","","","","","","","","","","","","","","","","","","","","",""
"3793","","image-button-response","66","490547","0.0-63.1-0.1","A16335MOISDG1F","img_art/30.jpg","4","","","","","","","","","","","","","","","","","","","","","","","","",""
"null","","html-keyboard-response","67","491057","0.0-64.0","A16335MOISDG1F","<p style=""font-size: 48px;"">+</p>","","","","","null","allTrialResponses","500","1","3","img_art/30.jpg","14","It seems very sensual to me. It reminds me of a naked woman","Andrew,Bryce,Chase,Jason,Caleb,Juan","It's a really interesting piece,20,160,20","Very colorful! Wow!,22,20,20","Too dark and ugly with all the black smears,-20,120,20","Do not like the streaks,-14,20,20","Colors are nice but it just seems too simple.,-26,40,20","I like the red against the blue, but otherwise, it's not really my taste,4,260,20","Juan","I like the red against the blue, but otherwise, it's not really my taste,4,260,20","Andrew","It's a really interesting piece,20,160,20","Caleb","Colors are nice but it just seems too simple.,-26,40,20","6"
"15595","","survey-text","68","506662","0.0-65.0-0.0","A16335MOISDG1F","","","","{""Q0"":""It makes me think of a downed tree in the forrest""}","","","","","","","","","","","","","","","","","","","","","","",""
"9877.799999999814","","image-slider-response","69","516541","0.0-66.0","A16335MOISDG1F","","","","","-8","","","","","","","","","","","","","","","","","","","","","",""
"null","","image-button-response","70","521545","0.0-67.0","A16335MOISDG1F","img_art/1.jpg","null","","","","","","","","","","","","","","","","","","","","","","","","",""
"2565","","image-button-response","71","524113","0.0-68.0","A16335MOISDG1F","img_art/1.jpg","4","","","","","","","","","","","","","","","","","","","","","","","","",""
"2729","","image-button-response","72","526843","0.0-69.0-0.0","A16335MOISDG1F","img_art/1.jpg","5","","","","","","","","","","","","","","","","","","","","","","","","",""
"6565","","image-button-response","73","533410","0.0-70.0-0.0","A16335MOISDG1F","img_art/1.jpg","2","","","","","","","","","","","","","","","","","","","","","","","","",""
"null","","html-keyboard-response","74","534923","0.0-71.0","A16335MOISDG1F","<p style=""font-size: 48px;"">+</p>","","","","","null","allTrialResponses","1500","1","4","img_art/1.jpg","-8","It makes me think of a downed tree in the forrest","Andrew,Malik,Joseph,Seth,Caleb,Juan","Makes me think of a bad thunderstorm,11,160,20","Vague and directionless,-14,40,20","Happy! Reminds me of hiking in tennesee.,18,220,20","Might be a person rowing their boat across the lake. Not sure if the background is trees or not.,12,60,20","Its simply okay.,3,40,20","I don't like how this one makes me feel.,-32,260,20","Caleb","Its simply okay.,3,40,20","Juan","I don't like how this one makes me feel.,-32,260,20","Joseph","Happy! Reminds me of hiking in tennesee.,18,220,20","6"
"17575","","survey-text","75","552508","0.0-72.0-0.0","A16335MOISDG1F","","","","{""Q0"":""It reminds me of a horse and a rabbit at the same time""}","","","","","","","","","","","","","","","","","","","","","","",""
"2129","","image-slider-response","76","554639","0.0-73.0","A16335MOISDG1F","","","","","28","","","","","","","","","","","","","","","","","","","","","",""
"null","","image-button-response","77","559653","0.0-74.0","A16335MOISDG1F","img_art/4.jpg","null","","","","","","","","","","","","","","","","","","","","","","","","",""
"3595","","image-button-response","78","563252","0.0-75.0","A16335MOISDG1F","img_art/4.jpg","0","","","","","","","","","","","","","","","","","","","","","","","","",""
"6008","","image-button-response","79","569261","0.0-76.0-0.0","A16335MOISDG1F","img_art/4.jpg","5","","","","","","","","","","","","","","","","","","","","","","","","",""
"5154","","image-button-response","80","574416","0.0-77.0-0.0","A16335MOISDG1F","img_art/4.jpg","2","","","","","","","","","","","","","","","","","","","","","","","","",""
"null","","html-keyboard-response","81","574923","0.0-78.0","A16335MOISDG1F","<p style=""font-size: 48px;"">+</p>","","","","","null","allTrialResponses","500","1","5","img_art/4.jpg","28","It reminds me of a horse and a rabbit at the same time","Mitchell,Samuel,Joseph,Spencer,Caleb,Juan","Hearts, family connected. They are standing on a narrow base and could fall to pieces at anytime.,40,180,20","The muted tones,-11,400,20","It's okay, I guess. Nothing much either way.,5,220,20","To me just looking at paint scrawls,-41,120,20","Colors are horrendous, look like bodily fluids have been smeared.,-50,40,20","Again, this is too abstract and I really don't like the colors.,-21,260,20","Mitchell","Hearts, family connected. They are standing on a narrow base and could fall to pieces at anytime.,40,180,20","Juan","Again, this is too abstract and I really don't like the colors.,-21,260,20","Joseph","It's okay, I guess. Nothing much either way.,5,220,20","6"
"4597","","survey-text","82","579536","0.0-79.0-0.0","A16335MOISDG1F","","","","{""Q0"":""sky""}","","","","","","","","","","","","","","","","","","","","","","",""
"25928","","survey-text","83","605465","0.0-80.0-0.0","A16335MOISDG1F","","","","{""Q0"":""It gives me the feeling of a whale in the ocean or a volcano""}","","","","","","","","","","","","","","","","","","","","","","",""
"4874.799999999814","","image-slider-response","84","610341","0.0-81.0","A16335MOISDG1F","","","","","-10","","","","","","","","","","","","","","","","","","","","","",""
"null","","image-button-response","85","615343","0.0-82.0","A16335MOISDG1F","img_art/5.jpg","null","","","","","","","","","","","","","","","","","","","","","","","","",""
"489","","image-button-response","86","615833","0.0-83.0","A16335MOISDG1F","img_art/5.jpg","4","","","","","","","","","","","","","","","","","","","","","","","","",""
"3228","","image-button-response","87","619063","0.0-84.0-0.0","A16335MOISDG1F","img_art/5.jpg","2","","","","","","","","","","","","","","","","","","","","","","","","",""
"2561","","image-button-response","88","621625","0.0-85.0-0.0","A16335MOISDG1F","img_art/5.jpg","5","","","","","","","","","","","","","","","","","","","","","","","","",""
"null","","html-keyboard-response","89","622639","0.0-86.0","A16335MOISDG1F","<p style=""font-size: 48px;"">+</p>","","","","","null","allTrialResponses","1000","1","6","img_art/5.jpg","-10","It gives me the feeling of a whale in the ocean or a volcano","Mitchell,Jonathan,Joseph,Eric,Elijah,Juan","Building remnants in the sand.,1,180,20","I hate the shapes,-30,140,20","I like that the pyramid is putting off a beacon of light.,11,220,20","I'm reminded of a volcano with weird colors.,-5,100,20","Makes me feel weird,-16,80,20","The yellow is garish and the picture doesn't look liked anything.,-49,260,20","Elijah","Makes me feel weird,-16,80,20","Joseph","I like that the pyramid is putting off a beacon of light.,11,220,20","Juan","The yellow is garish and the picture doesn't look liked anything.,-49,260,20","6"
"27457","","survey-text","90","650107","0.0-87.0-0.0","A16335MOISDG1F","","","","{""Q0"":""My first thought upon seeing this was a memory of the story about Noah's ark""}","","","","","","","","","","","","","","","","","","","","","","",""
"2247.2000000001863","","image-slider-response","91","652355","0.0-88.0","A16335MOISDG1F","","","","","17","","","","","","","","","","","","","","","","","","","","","",""
"null","","image-button-response","92","657357","0.0-89.0","A16335MOISDG1F","img_art/10.jpg","null","","","","","","","","","","","","","","","","","","","","","","","","",""
"6268","","image-button-response","93","663627","0.0-90.0","A16335MOISDG1F","img_art/10.jpg","5","","","","","","","","","","","","","","","","","","","","","","","","",""
"1175","","image-button-response","94","664804","0.0-91.0-0.0","A16335MOISDG1F","img_art/10.jpg","3","","","","","","","","","","","","","","","","","","","","","","","","",""
"2974","","image-button-response","95","667779","0.0-92.0-0.0","A16335MOISDG1F","img_art/10.jpg","2","","","","","","","","","","","","","","","","","","","","","","","","",""
"null","","html-keyboard-response","96","668787","0.0-93.0","A16335MOISDG1F","<p style=""font-size: 48px;"">+</p>","","","","","null","allTrialResponses","1000","1","7","img_art/10.jpg","17","My first thought upon seeing this was a memory of the story about Noah's ark","Richard,Michael,Joseph,William,Elijah,Juan","interesting portrayal of a violin?,10,340,20","Ugly and low skill. I wouldn't want it.,-50,140,20","The loop type thing reminds me of interconnectedness and life and hope.,12,220,20","absolutely beautiful piece of art,49,380,20","Makes me feel amazed,23,80,20","It's interesting and my eyes keep being drawn to different parts of the picture.,11,260,20","Juan","It's interesting and my eyes keep being drawn to different parts of the picture.,11,260,20","William","absolutely beautiful piece of art,49,380,20","Joseph","The loop type thing reminds me of interconnectedness and life and hope.,12,220,20","6"
"43543","","survey-text","97","712340","0.0-94.0-0.0","A16335MOISDG1F","","","","{""Q0"":""I feel this is a terrifying creature larger than all others.""}","","","","","","","","","","","","","","","","","","","","","","",""
"3074.5","","image-slider-response","98","715415","0.0-95.0","A16335MOISDG1F","","","","","-39","","","","","","","","","","","","","","","","","","","","","",""
"null","","image-button-response","99","720423","0.0-96.0","A16335MOISDG1F","img_art/25.jpg","null","","","","","","","","","","","","","","","","","","","","","","","","",""
"746","","image-button-response","100","721171","0.0-97.0","A16335MOISDG1F","img_art/25.jpg","4","","","","","","","","","","","","","","","","","","","","","","","","",""
"2831","","image-button-response","101","724003","0.0-98.0-0.0","A16335MOISDG1F","img_art/25.jpg","3","","","","","","","","","","","","","","","","","","","","","","","","",""
"8882","","image-button-response","102","732887","0.0-99.0-0.0","A16335MOISDG1F","img_art/25.jpg","0","","","","","","","","","","","","","","","","","","","","","","","","",""
"null","","html-keyboard-response","103","734391","0.0-100.0","A16335MOISDG1F","<p style=""font-size: 48px;"">+</p>","","","","","null","allTrialResponses","1500","1","8","img_art/25.jpg","-39","I feel this is a terrifying creature larger than all others.","Isaiah,Jake,Joseph,William,Brett,Juan","I feel little to no emotion looking at this painting.,0,300,20","This is strange and poorly done.,-2,360,20","Ghosts are NOT my thing.,-13,220,20","makes me think of a scary movie,-20,380,20","Egyptian heiroglyphics and painting,15,360,20","I don't like the color. I don't like the abstract-ness of it.,-22,260,20","Brett","Egyptian heiroglyphics and painting,15,360,20","William","makes me think of a scary movie,-20,380,20","Isaiah","I feel little to no emotion looking at this painting.,0,300,20","6"
"29982","","survey-text","104","764384","0.0-101.0-0.0","A16335MOISDG1F","","","","{""Q0"":""It reminds me of someone laying in a bedroom in a very old time period""}","","","","","","","","","","","","","","","","","","","","","","",""
"1826","","image-slider-response","105","766211","0.0-102.0","A16335MOISDG1F","","","","","27","","","","","","","","","","","","","","","","","","","","","",""
"null","","image-button-response","106","771213","0.0-103.0","A16335MOISDG1F","img_art/9.jpg","null","","","","","","","","","","","","","","","","","","","","","","","","",""
"1261","","image-button-response","107","772478","0.0-104.0","A16335MOISDG1F","img_art/9.jpg","5","","","","","","","","","","","","","","","","","","","","","","","","",""
"2508","","image-button-response","108","774988","0.0-105.0-0.0","A16335MOISDG1F","img_art/9.jpg","4","","","","","","","","","","","","","","","","","","","","","","","","",""
"3578","","image-button-response","109","778568","0.0-106.0-0.0","A16335MOISDG1F","img_art/9.jpg","1","","","","","","","","","","","","","","","","","","","","","","","","",""
"null","","html-keyboard-response","110","780070","0.0-107.0","A16335MOISDG1F","<p style=""font-size: 48px;"">+</p>","","","","","null","allTrialResponses","1500","1","9","img_art/9.jpg","27","It reminds me of someone laying in a bedroom in a very old time period","Isaiah,Alexis,Lucas,William,Brett,Antonio","The piece of art makes me happy, it reminds me of a lively carnival.,15,300,20","This photo make me feel peaceful. It looks like a woman sleeping in a garden,42,140,20","I like the way the artist has painted his painting.,20,380,20","reminds me of a story book,18,380,20","Peaceful dreaming,40,360,20","Stirs up emotions of watching someone sleep which is relaxing,11,220,20","Antonio","Stirs up emotions of watching someone sleep which is relaxing,11,220,20","Brett","Peaceful dreaming,40,360,20","Alexis","This photo make me feel peaceful. It looks like a woman sleeping in a garden,42,140,20","6"
"11034","","survey-text","111","791114","0.0-108.0-0.0","A16335MOISDG1F","","","","{""Q0"":""This feels messy, like a crime scene""}","","","","","","","","","","","","","","","","","","","","","","",""
"2508.899999999441","","image-slider-response","112","793624","0.0-109.0","A16335MOISDG1F","","","","","-50","","","","","","","","","","","","","","","","","","","","","",""
"3011","","image-button-response","113","798626","0.0-110.0","A16335MOISDG1F","img_art/3.jpg","1","","","","","","","","","","","","","","","","","","","","","","","","",""
"885","","image-button-response","114","799514","0.0-111.0","A16335MOISDG1F","img_art/3.jpg","4","","","","","","","","","","","","","","","","","","","","","","","","",""
"3493","","image-button-response","115","803008","0.0-112.0-0.0","A16335MOISDG1F","img_art/3.jpg","5","","","","","","","","","","","","","","","","","","","","","","","","",""
"1921","","image-button-response","116","804930","0.0-113.0-0.0","A16335MOISDG1F","img_art/3.jpg","1","","","","","","","","","","","","","","","","","","","","","","","","",""
"null","","html-keyboard-response","117","805937","0.0-114.0","A16335MOISDG1F","<p style=""font-size: 48px;"">+</p>","","","","","null","allTrialResponses","1000","1","10","img_art/3.jpg","-50","This feels messy, like a crime scene","Tyler,Alexis,Trevor,Hunter,Brett,Antonio","This doesn't grab me. Perhaps the red is meant to be provocative; I find it gimmicky.,-9,320,20","It looks like a child drawing,-29,140,20","looks more classic but i'm not a fan of the colors,7,280,20","strong color, interesting negative shapes,21,240,20","Confusion and mayhem,-10,360,20","The red makes me think of blood which makes me think of pain,-50,220,20","Brett","Confusion and mayhem,-10,360,20","Antonio","The red makes me think of blood which makes me think of pain,-50,220,20","Alexis","It looks like a child drawing,-29,140,20","6"
"5208","","survey-text","118","811162","0.0-115.0-0.0","A16335MOISDG1F","","","","{""Q0"":""our""}","","","","","","","","","","","","","","","","","","","","","","",""
"24245","","survey-text","119","835408","0.0-116.0-0.0","A16335MOISDG1F","","","","{""Q0"":""This reminds me of a bland middle american town.""}","","","","","","","","","","","","","","","","","","","","","","",""
"6211.700000000186","","image-slider-response","120","841621","0.0-117.0","A16335MOISDG1F","","","","","6","","","","","","","","","","","","","","","","","","","","","",""
"2173","","image-button-response","121","846637","0.0-118.0","A16335MOISDG1F","img_art/26.jpg","5","","","","","","","","","","","","","","","","","","","","","","","","",""
"469","","image-button-response","122","847109","0.0-119.0","A16335MOISDG1F","img_art/26.jpg","5","","","","","","","","","","","","","","","","","","","","","","","","",""
"2203","","image-button-response","123","849314","0.0-120.0-0.0","A16335MOISDG1F","img_art/26.jpg","4","","","","","","","","","","","","","","","","","","","","","","","","",""
"5827","","image-button-response","124","855143","0.0-121.0-0.0","A16335MOISDG1F","img_art/26.jpg","0","","","","","","","","","","","","","","","","","","","","","","","","",""
"null","","html-keyboard-response","125","855653","0.0-122.0","A16335MOISDG1F","<p style=""font-size: 48px;"">+</p>","","","","","null","allTrialResponses","500","1","11","img_art/26.jpg","6","This reminds me of a bland middle american town.","Kyle,Alexis,Edward,Colton,Brett,Antonio","This seems like a quiet painting,11,340,20","it makes me feel normal and calm, I like the busy city street,10,140,20","Elevator art but the watercolors are good,29,60,20","very impressionistic,11,220,20","Picturesque little town,45,360,20","Calming and relaxing,28,220,20","Antonio","Calming and relaxing,28,220,20","Brett","Picturesque little town,45,360,20","Kyle","This seems like a quiet painting,11,340,20","6"
"25121","","survey-text","126","880786","0.0-123.0-0.0","A16335MOISDG1F","","","","{""Q0"":""It feels like a party where someone shows up that wasn't invited""}","","","","","","","","","","","","","","","","","","","","","","",""
"3545.600000000559","","image-slider-response","127","884333","0.0-124.0","A16335MOISDG1F","","","","","-22","","","","","","","","","","","","","","","","","","","","","",""
"null","","image-button-response","128","889338","0.0-125.0","A16335MOISDG1F","img_art/23.jpg","null","","","","","","","","","","","","","","","","","","","","","","","","",""
"568","","image-button-response","129","889910","0.0-126.0","A16335MOISDG1F","img_art/23.jpg","1","","","","","","","","","","","","","","","","","","","","","","","","",""
"2943","","image-button-response","130","892854","0.0-127.0-0.0","A16335MOISDG1F","img_art/23.jpg","5","","","","","","","","","","","","","","","","","","","","","","","","",""
"5351","","image-button-response","131","898207","0.0-128.0-0.0","A16335MOISDG1F","img_art/23.jpg","3","","","","","","","","","","","","","","","","","","","","","","","","",""
"null","","html-keyboard-response","132","899209","0.0-129.0","A16335MOISDG1F","<p style=""font-size: 48px;"">+</p>","","","","","null","allTrialResponses","1000","1","12","img_art/23.jpg","-22","It feels like a party where someone shows up that wasn't invited","Kyle,Jack,Dakota,Garrett,Brett,Antonio","Mostly neutral but a bit too guady with the brash colors,-6,340,20","awesome colors. love the white drawing the eye to the center. oddly comforting.,50,320,20","teeth! dancing people, celebrations,-39,280,20","I really like the way all the colors look, I think this is a pretty picture.,40,180,20","Universal celebration,40,360,20","Like the colors and made me feel happy,23,220,20","Jack","awesome colors. love the white drawing the eye to the center. oddly comforting.,50,320,20","Antonio","Like the colors and made me feel happy,23,220,20","Garrett","I really like the way all the colors look, I think this is a pretty picture.,40,180,20","6"
"22119","","survey-text","133","921339","0.0-130.0-0.0","A16335MOISDG1F","","","","{""Q0"":""A very midevil times feeling.""}","","","","","","","","","","","","","","","","","","","","","","",""
"3111.600000000559","","image-slider-response","134","924452","0.0-131.0","A16335MOISDG1F","","","","","-7","","","","","","","","","","","","","","","","","","","","","",""
"null","","image-button-response","135","929454","0.0-132.0","A16335MOISDG1F","img_art/18.jpg","null","","","","","","","","","","","","","","","","","","","","","","","","",""
"558","","image-button-response","136","930015","0.0-133.0","A16335MOISDG1F","img_art/18.jpg","1","","","","","","","","","","","","","","","","","","","","","","","","",""
"543","","image-button-response","137","930559","0.0-134.0-0.0","A16335MOISDG1F","img_art/18.jpg","2","","","","","","","","","","","","","","","","","","","","","","","","",""
"4479","","image-button-response","138","935040","0.0-135.0-0.0","A16335MOISDG1F","img_art/18.jpg","0","","","","","","","","","","","","","","","","","","","","","","","","",""
"null","","html-keyboard-response","139","936542","0.0-136.0","A16335MOISDG1F","<p style=""font-size: 48px;"">+</p>","","","","","null","allTrialResponses","1500","1","13","img_art/18.jpg","-7","A very midevil times feeling.","Nicholas,Jack,Noah,Garrett,Steven,Antonio","Id love to see this piece closer. So much extra details hidden it it.,50,240,20","hauntingly beautiful. more things revealed the longer you look. love the spirit-like figure in the top left.,47,320,20","enjoy the juxtaposition of abstract with tangible elements & the use of color,10,260,20","I think its supposed to be a boat and the boat looks kind of interesting to me.,10,180,20","Oh heck yes! I see two warriors riding down from valhalla, awesome painting,50,160,20","I think of the ocean and a boat tossed about on the waves. In the upper left is a figure. It is pleasant,30,220,20","Jack","hauntingly beautiful. more things revealed the longer you look. love the spirit-like figure in the top left.,47,320,20","Noah","enjoy the juxtaposition of abstract with tangible elements & the use of color,10,260,20","Nicholas","Id love to see this piece closer. So much extra details hidden it it.,50,240,20","6"
"25102","","survey-text","140","961655","0.0-137.0-0.0","A16335MOISDG1F","","","","{""Q0"":""This seems like an old town where people would be traveling on horse and buggy""}","","","","","","","","","","","","","","","","","","","","","","",""
"1853.7999999998137","","image-slider-response","141","963509","0.0-138.0","A16335MOISDG1F","","","","","12","","","","","","","","","","","","","","","","","","","","","",""
"null","","image-button-response","142","968516","0.0-139.0","A16335MOISDG1F","img_art/19.jpg","null","","","","","","","","","","","","","","","","","","","","","","","","",""
"744","","image-button-response","143","969262","0.0-140.0","A16335MOISDG1F","img_art/19.jpg","0","","","","","","","","","","","","","","","","","","","","","","","","",""
"1082","","image-button-response","144","970346","0.0-141.0-0.0","A16335MOISDG1F","img_art/19.jpg","3","","","","","","","","","","","","","","","","","","","","","","","","",""
"1264","","image-button-response","145","971611","0.0-142.0-0.0","A16335MOISDG1F","img_art/19.jpg","0","","","","","","","","","","","","","","","","","","","","","","","","",""
"2230","","image-button-response","146","976895","0.0-142.1-0.1","A16335MOISDG1F","img_art/19.jpg","2","","","","","","","","","","","","","","","","","","","","","","","","",""
"null","","html-keyboard-response","147","977905","0.0-143.0","A16335MOISDG1F","<p style=""font-size: 48px;"">+</p>","","","","","null","allTrialResponses","1000","1","14","img_art/19.jpg","12","This seems like an old town where people would be traveling on horse and buggy","Nicholas,Jack,Noah,Cody,Jesse,Paul","Intersting but not for me,21,240,20","love the muted colors and added sketchy lines. calming without being boring.,50,320,20","the way the landscape is portrayed captivates me - I enjoy studying the structure,32,260,20","Interesting, leaves you wondering what it is,40,180,20","I dont like the smudge effect,-7,80,20","The shapes make me recall a city scene but it looks dirty,-22,300,20","Nicholas","Intersting but not for me,21,240,20","Cody","Interesting, leaves you wondering what it is,40,180,20","Noah","the way the landscape is portrayed captivates me - I enjoy studying the structure,32,260,20","8"
"17548","","survey-text","148","995464","0.0-144.0-0.0","A16335MOISDG1F","","","","{""Q0"":""It makes me think of loneliness""}","","","","","","","","","","","","","","","","","","","","","","",""
"2779.899999999441","","image-slider-response","149","998245","0.0-145.0","A16335MOISDG1F","","","","","-32","","","","","","","","","","","","","","","","","","","","","",""
"null","","image-button-response","150","1003250","0.0-146.0","A16335MOISDG1F","img_art/6.jpg","null","","","","","","","","","","","","","","","","","","","","","","","","",""
"924","","image-button-response","151","1004176","0.0-147.0","A16335MOISDG1F","img_art/6.jpg","2","","","","","","","","","","","","","","","","","","","","","","","","",""
"10861","","image-button-response","152","1015038","0.0-148.0-0.0","A16335MOISDG1F","img_art/6.jpg","4","","","","","","","","","","","","","","","","","","","","","","","","",""
"4305","","image-button-response","153","1019346","0.0-149.0-0.0","A16335MOISDG1F","img_art/6.jpg","0","","","","","","","","","","","","","","","","","","","","","","","","",""
"null","","html-keyboard-response","154","1020348","0.0-150.0","A16335MOISDG1F","<p style=""font-size: 48px;"">+</p>","","","","","null","allTrialResponses","1000","1","15","img_art/6.jpg","-32","It makes me think of loneliness","Nicholas,Miguel,Noah,Cody,Logan,Connor","It isnt bad but sort of too bland,0,240,20","Bird? It's a bird.,23,160,20","intrigues me - not sure what I'm seeing, but I like combination of colour and texture,21,260,20","Birds are cool but I don't love it,10,180,20","boring. don't really like birds,1,360,20","Blackbird in the desert,27,240,20","Noah","intrigues me - not sure what I'm seeing, but I like combination of colour and texture,21,260,20","Logan","boring. don't really like birds,1,360,20","Nicholas","It isnt bad but sort of too bland,0,240,20","8"
"5036","","survey-text","155","1025400","0.0-151.0-0.0","A16335MOISDG1F","","","","{""Q0"":""course""}","","","","","","","","","","","","","","","","","","","","","","",""
"34547","","survey-text","156","1059948","0.0-152.0-0.0","A16335MOISDG1F","","","","{""Q0"":""It seems like an image of what a battlefield might have looked like in olden times I like it""}","","","","","","","","","","","","","","","","","","","","","","",""
"1945.7999999998137","","image-slider-response","157","1061895","0.0-153.0","A16335MOISDG1F","","","","","19","","","","","","","","","","","","","","","","","","","","","",""
"null","","image-button-response","158","1066905","0.0-154.0","A16335MOISDG1F","img_art/7.jpg","null","","","","","","","","","","","","","","","","","","","","","","","","",""
"4601","","image-button-response","159","1071509","0.0-155.0","A16335MOISDG1F","img_art/7.jpg","0","","","","","","","","","","","","","","","","","","","","","","","","",""
"5146","","image-button-response","160","1076657","0.0-156.0-0.0","A16335MOISDG1F","img_art/7.jpg","5","","","","","","","","","","","","","","","","","","","","","","","","",""
"2820","","image-button-response","161","1079479","0.0-157.0-0.0","A16335MOISDG1F","img_art/7.jpg","4","","","","","","","","","","","","","","","","","","","","","","","","",""
"null","","html-keyboard-response","162","1080981","0.0-158.0","A16335MOISDG1F","<p style=""font-size: 48px;"">+</p>","","","","","null","allTrialResponses","1500","1","16","img_art/7.jpg","19","It seems like an image of what a battlefield might have looked like in olden times I like it","Nicholas,Carlos,Noah,Brendan,Logan,Nathan","Makes me want to feel it,19,240,20","The dried bottom of a puddle in July.,-41,80,20","elicits no real response,0,260,20","some rocks on a mars?,7,340,20","mars also crunchy leaves maybe a beehive,32,360,20","I don't like this kind of color scheme or look they went for,-50,200,20","Nicholas","Makes me want to feel it,19,240,20","Nathan","I don't like this kind of color scheme or look they went for,-50,200,20","Logan","mars also crunchy leaves maybe a beehive,32,360,20","8"
"20380","","survey-text","163","1101374","0.0-159.0-0.0","A16335MOISDG1F","","","","{""Q0"":""It reminds me of a crowded european city""}","","","","","","","","","","","","","","","","","","","","","","",""
"2805.7000000001863","","image-slider-response","164","1104181","0.0-160.0","A16335MOISDG1F","","","","","-9","","","","","","","","","","","","","","","","","","","","","",""
"null","","image-button-response","165","1109183","0.0-161.0","A16335MOISDG1F","img_art/12.jpg","null","","","","","","","","","","","","","","","","","","","","","","","","",""
"520","","image-button-response","166","1109706","0.0-162.0","A16335MOISDG1F","img_art/12.jpg","1","","","","","","","","","","","","","","","","","","","","","","","","",""
"709","","image-button-response","167","1110416","0.0-163.0-0.0","A16335MOISDG1F","img_art/12.jpg","3","","","","","","","","","","","","","","","","","","","","","","","","",""
"626","","image-button-response","168","1111045","0.0-164.0-0.0","A16335MOISDG1F","img_art/12.jpg","4","","","","","","","","","","","","","","","","","","","","","","","","",""
"null","","html-keyboard-response","169","1112556","0.0-165.0","A16335MOISDG1F","<p style=""font-size: 48px;"">+</p>","","","","","null","allTrialResponses","1500","1","17","img_art/12.jpg","-9","It reminds me of a crowded european city","Nicholas,Aaron,Jeffrey,Justin,Logan,Nathan","It is interesting but seems like some cheap painting from like walmart,24,240,20","Therapist wall art.,10,20,20","good colours scheme; organised,17,40,20","Too blocky and not interesting enough.,-15,280,20","giving me major endless summer vibes,26,360,20","Kind of interesting, seems almost nostalgic in a way to me.,10,200,20","Aaron","Therapist wall art.,10,20,20","Justin","Too blocky and not interesting enough.,-15,280,20","Logan","giving me major endless summer vibes,26,360,20","8"
"29581","","survey-text","170","1142141","0.0-166.0-0.0","A16335MOISDG1F","","","","{""Q0"":""Very beautiful. Also feels like maybe it could be done by a child.""}","","","","","","","","","","","","","","","","","","","","","","",""
"1529.5999999996275","","image-slider-response","171","1143671","0.0-167.0","A16335MOISDG1F","","","","","32","","","","","","","","","","","","","","","","","","","","","",""
"null","","image-button-response","172","1148684","0.0-168.0","A16335MOISDG1F","img_art/27.jpg","null","","","","","","","","","","","","","","","","","","","","","","","","",""
"518","","image-button-response","173","1149204","0.0-169.0","A16335MOISDG1F","img_art/27.jpg","5","","","","","","","","","","","","","","","","","","","","","","","","",""
"4329","","image-button-response","174","1153534","0.0-170.0-0.0","A16335MOISDG1F","img_art/27.jpg","2","","","","","","","","","","","","","","","","","","","","","","","","",""
"1135","","image-button-response","175","1154671","0.0-171.0-0.0","A16335MOISDG1F","img_art/27.jpg","4","","","","","","","","","","","","","","","","","","","","","","","","",""
"null","","html-keyboard-response","176","1155172","0.0-172.0","A16335MOISDG1F","<p style=""font-size: 48px;"">+</p>","","","","","null","allTrialResponses","500","1","18","img_art/27.jpg","32","Very beautiful. Also feels like maybe it could be done by a child.","Anthony,Aaron,Bryan,Justin,Logan,Austin","Somewhat boring piece,-3,200,20","It looks like when my little sister took magic markers to the wall.,-11,20,20","Not fond of the bad pencil drawing mixed with the drab colors.,-21,400,20","The colors are put together in an interesting way.,-9,280,20","demon vs angel brawl over lemon lime sprite,-10,360,20","Like the abstractness of this picture,20,240,20","Austin","Like the abstractness of this picture,20,240,20","Bryan","Not fond of the bad pencil drawing mixed with the drab colors.,-21,400,20","Logan","demon vs angel brawl over lemon lime sprite,-10,360,20","8"
"30638","","survey-text","177","1185817","0.0-173.0-0.0","A16335MOISDG1F","","","","{""Q0"":""An interesting view of a river but not for me.""}","","","","","","","","","","","","","","","","","","","","","","",""
"2180.800000000745","","image-slider-response","178","1187998","0.0-174.0","A16335MOISDG1F","","","","","-6","","","","","","","","","","","","","","","","","","","","","",""
"null","","image-button-response","179","1193024","0.0-175.0","A16335MOISDG1F","img_art/24.jpg","null","","","","","","","","","","","","","","","","","","","","","","","","",""
"4369","","image-button-response","180","1197396","0.0-176.0","A16335MOISDG1F","img_art/24.jpg","2","","","","","","","","","","","","","","","","","","","","","","","","",""
"1812","","image-button-response","181","1199210","0.0-177.0-0.0","A16335MOISDG1F","img_art/24.jpg","5","","","","","","","","","","","","","","","","","","","","","","","","",""
"1276","","image-button-response","182","1200488","0.0-178.0-0.0","A16335MOISDG1F","img_art/24.jpg","3","","","","","","","","","","","","","","","","","","","","","","","","",""
"null","","html-keyboard-response","183","1201990","0.0-179.0","A16335MOISDG1F","<p style=""font-size: 48px;"">+</p>","","","","","null","allTrialResponses","1500","1","19","img_art/24.jpg","-6","An interesting view of a river but not for me.","Kenneth,Tristan,Bryan,Ryan,Logan,Austin","Cute; I like what the image itself & the colors.,25,300,20","The contorted angles of the flowing water upset the harmony,-20,300,20","Abstract falls & nature.,41,400,20","Beautiful,  peaceful,50,380,20","brick wall waterfall girl you think you got it all,50,360,20","Evokes pleasant feelings,50,240,20","Bryan","Abstract falls & nature.,41,400,20","Austin","Evokes pleasant feelings,50,240,20","Ryan","Beautiful,  peaceful,50,380,20","8"
"31341","","survey-text","184","1233344","0.0-180.0-0.0","A16335MOISDG1F","","","","{""Q0"":""It feels like a piece in a museum that is also inside of another piece in a museum""}","","","","","","","","","","","","","","","","","","","","","","",""
"2098.800000000745","","image-slider-response","185","1235444","0.0-181.0","A16335MOISDG1F","","","","","40","","","","","","","","","","","","","","","","","","","","","",""
"null","","image-button-response","186","1240452","0.0-182.0","A16335MOISDG1F","img_art/17.jpg","null","","","","","","","","","","","","","","","","","","","","","","","","",""
"1224","","image-button-response","187","1241678","0.0-183.0","A16335MOISDG1F","img_art/17.jpg","5","","","","","","","","","","","","","","","","","","","","","","","","",""
"1347","","image-button-response","188","1243027","0.0-184.0-0.0","A16335MOISDG1F","img_art/17.jpg","3","","","","","","","","","","","","","","","","","","","","","","","","",""
"2584","","image-button-response","189","1245613","0.0-185.0-0.0","A16335MOISDG1F","img_art/17.jpg","1","","","","","","","","","","","","","","","","","","","","","","","","",""
"null","","html-keyboard-response","190","1247121","0.0-186.0","A16335MOISDG1F","<p style=""font-size: 48px;"">+</p>","","","","","null","allTrialResponses","1500","1","20","img_art/17.jpg","40","It feels like a piece in a museum that is also inside of another piece in a museum","Jared,Gregory,Bryan,Ryan,Benjamin,Austin","the colors, the arch and the wall,15,400,20","Looks like some fantasy tree. Nice,30,220,20","Reminds me of winters in Minnesota.,48,400,20","Feels supernatural and scary,-16,380,20","Don't really like pastels.,-10,260,20","Has a unique vibe to it,50,240,20","Austin","Has a unique vibe to it,50,240,20","Ryan","Feels supernatural and scary,-16,380,20","Gregory","Looks like some fantasy tree. Nice,30,220,20","8"
"2403","","survey-text","191","1249549","0.0-187.0-0.0","A16335MOISDG1F","","","","{""Q0"":""we""}","","","","","","","","","","","","","","","","","","","","","","",""
"22899","","survey-text","192","1272450","0.0-188.0-0.0","A16335MOISDG1F","","","","{""Q0"":""My initial response is fear. This reminds me of murder hornets""}","","","","","","","","","","","","","","","","","","","","","","",""
"2088.4000000003725","","image-slider-response","193","1274539","0.0-189.0","A16335MOISDG1F","","","","","-49","","","","","","","","","","","","","","","","","","","","","",""
"null","","image-button-response","194","1279545","0.0-190.0","A16335MOISDG1F","img_art/15.jpg","null","","","","","","","","","","","","","","","","","","","","","","","","",""
"2777","","image-button-response","195","1282324","0.0-191.0","A16335MOISDG1F","img_art/15.jpg","3","","","","","","","","","","","","","","","","","","","","","","","","",""
"3714","","image-button-response","196","1286038","0.0-192.0-0.0","A16335MOISDG1F","img_art/15.jpg","2","","","","","","","","","","","","","","","","","","","","","","","","",""
"1612","","image-button-response","197","1287653","0.0-193.0-0.0","A16335MOISDG1F","img_art/15.jpg","0","","","","","","","","","","","","","","","","","","","","","","","","",""
"null","","html-keyboard-response","198","1289160","0.0-194.0","A16335MOISDG1F","<p style=""font-size: 48px;"">+</p>","","","","","null","allTrialResponses","1500","1","21","img_art/15.jpg","-49","My initial response is fear. This reminds me of murder hornets","Thomas,Gregory,Derek,Ryan,Timothy,Austin","Interesting, and I don't dislike it.,9,220,20","Black and blue is my favorite color combination,35,220,20","Although it looks a bit bland in terms of color, I really like the print/pattern,25,360,20","It triggers my tripophobia,-50,380,20","This painting gives a calm vibe but no stronger emotions than that,10,240,20","Perfect Abstract painting,50,240,20","Ryan","It triggers my tripophobia,-50,380,20","Derek","Although it looks a bit bland in terms of color, I really like the print/pattern,25,360,20","Thomas","Interesting, and I don't dislike it.,9,220,20","8"
"24995","","survey-text","199","1314168","0.0-195.0-0.0","A16335MOISDG1F","","","","{""Q0"":""This reminds me of the imagery from slumdog millionaire""}","","","","","","","","","","","","","","","","","","","","","","",""
"3536.7999999998137","","image-slider-response","200","1317706","0.0-196.0","A16335MOISDG1F","","","","","2","","","","","","","","","","","","","","","","","","","","","",""
"null","","image-button-response","201","1322709","0.0-197.0","A16335MOISDG1F","img_art/22.jpg","null","","","","","","","","","","","","","","","","","","","","","","","","",""
"3594","","image-button-response","202","1326305","0.0-198.0","A16335MOISDG1F","img_art/22.jpg","3","","","","","","","","","","","","","","","","","","","","","","","","",""
"3323","","image-button-response","203","1329630","0.0-199.0-0.0","A16335MOISDG1F","img_art/22.jpg","0","","","","","","","","","","","","","","","","","","","","","","","","",""
"974","","image-button-response","204","1330606","0.0-200.0-0.0","A16335MOISDG1F","img_art/22.jpg","4","","","","","","","","","","","","","","","","","","","","","","","","",""
"null","","html-keyboard-response","205","1331121","0.0-201.0","A16335MOISDG1F","<p style=""font-size: 48px;"">+</p>","","","","","null","allTrialResponses","500","1","22","img_art/22.jpg","2","This reminds me of the imagery from slumdog millionaire","Thomas,Jordan,Derek,Ryan,Nathaniel,Jose","Beautiful. I love the color contrast and gradients.,50,220,20","The colors are too dark, too much red,2,160,20","Really pretty. Love the colors.,30,360,20","Very generic, seen many times before,-43,380,20","Looks like a giant blob,-45,220,20","Cool squares but what's the circle?,38,200,20","Ryan","Very generic, seen many times before,-43,380,20","Thomas","Beautiful. I love the color contrast and gradients.,50,220,20","Nathaniel","Looks like a giant blob,-45,220,20","8"
"13626","","survey-text","206","1344761","0.0-202.0-0.0","A16335MOISDG1F","","","","{""Q0"":""Like a childs christmas painting.""}","","","","","","","","","","","","","","","","","","","","","","",""
"1660.6000000005588","","image-slider-response","207","1346422","0.0-203.0","A16335MOISDG1F","","","","","16","","","","","","","","","","","","","","","","","","","","","",""
"null","","image-button-response","208","1351431","0.0-204.0","A16335MOISDG1F","img_art/2.jpg","null","","","","","","","","","","","","","","","","","","","","","","","","",""
"2230","","image-button-response","209","1353665","0.0-205.0","A16335MOISDG1F","img_art/2.jpg","5","","","","","","","","","","","","","","","","","","","","","","","","",""
"591","","image-button-response","210","1354257","0.0-206.0-0.0","A16335MOISDG1F","img_art/2.jpg","3","","","","","","","","","","","","","","","","","","","","","","","","",""
"3172","","image-button-response","211","1357431","0.0-207.0-0.0","A16335MOISDG1F","img_art/2.jpg","2","","","","","","","","","","","","","","","","","","","","","","","","",""
"null","","html-keyboard-response","212","1357936","0.0-208.0","A16335MOISDG1F","<p style=""font-size: 48px;"">+</p>","","","","","null","allTrialResponses","500","1","23","img_art/2.jpg","16","Like a childs christmas painting.","Thomas,John,Taylor,Ryan,Nathaniel,Stephen","My first thought was that it looks like a children's art project,-30,220,20","Its meh. Doesnt illicit any strong feelings in me,1,120,20","Have now advanced from kindergarten to the first grade.,-5,200,20","Very simple and childish,40,380,20","Too gloopy and unfocused,-38,220,20","Colors mix nicely.,5,140,20","Stephen","Colors mix nicely.,5,140,20","Ryan","Very simple and childish,40,380,20","Taylor","Have now advanced from kindergarten to the first grade.,-5,200,20","8"
"12187","","survey-text","213","1370137","0.0-209.0-0.0","A16335MOISDG1F","","","","{""Q0"":""Reminds me of a basement in a video game.""}","","","","","","","","","","","","","","","","","","","","","","",""
"3841.5","","image-slider-response","214","1373980","0.0-210.0","A16335MOISDG1F","","","","","21","","","","","","","","","","","","","","","","","","","","","",""
"null","","image-button-response","215","1378982","0.0-211.0","A16335MOISDG1F","img_art/29.jpg","null","","","","","","","","","","","","","","","","","","","","","","","","",""
"463","","image-button-response","216","1379448","0.0-212.0","A16335MOISDG1F","img_art/29.jpg","3","","","","","","","","","","","","","","","","","","","","","","","","",""
"5605","","image-button-response","217","1385053","0.0-213.0-0.0","A16335MOISDG1F","img_art/29.jpg","5","","","","","","","","","","","","","","","","","","","","","","","","",""
"1856","","image-button-response","218","1386911","0.0-214.0-0.0","A16335MOISDG1F","img_art/29.jpg","4","","","","","","","","","","","","","","","","","","","","","","","","",""
"null","","html-keyboard-response","219","1387918","0.0-215.0","A16335MOISDG1F","<p style=""font-size: 48px;"">+</p>","","","","","null","allTrialResponses","1000","1","24","img_art/29.jpg","21","Reminds me of a basement in a video game.","Gabriel,Peter,Taylor,Ryan,Zachary,Stephen","dont like this one,-20,160,20","Looks like a jail cell,-15,320,20","I would give up and give it a red X too.,-5,200,20","Once again, very modern, activists will love,27,380,20","It looks like someone did not like their art and drew an x over it.,-32,400,20","Really enjoy everything about this one.,50,140,20","Ryan","Once again, very modern, activists will love,27,380,20","Stephen","Really enjoy everything about this one.,50,140,20","Zachary","It looks like someone did not like their art and drew an x over it.,-32,400,20","8"
"14414","","survey-text","220","1402346","0.0-216.0-0.0","A16335MOISDG1F","","","","{""Q0"":""Very futuristic in style. I like this a lot.""}","","","","","","","","","","","","","","","","","","","","","","",""
"4731.600000000559","","image-slider-response","221","1407079","0.0-217.0","A16335MOISDG1F","","","","","50","","","","","","","","","","","","","","","","","","","","","",""
"null","","image-button-response","222","1412090","0.0-218.0","A16335MOISDG1F","img_art/13.jpg","null","","","","","","","","","","","","","","","","","","","","","","","","",""
"740","","image-button-response","223","1412833","0.0-219.0","A16335MOISDG1F","img_art/13.jpg","5","","","","","","","","","","","","","","","","","","","","","","","","",""
"2083","","image-button-response","224","1414918","0.0-220.0-0.0","A16335MOISDG1F","img_art/13.jpg","3","","","","","","","","","","","","","","","","","","","","","","","","",""
"2107","","image-button-response","225","1417026","0.0-221.0-0.0","A16335MOISDG1F","img_art/13.jpg","0","","","","","","","","","","","","","","","","","","","","","","","","",""
"null","","html-keyboard-response","226","1418039","0.0-222.0","A16335MOISDG1F","<p style=""font-size: 48px;"">+</p>","","","","","null","allTrialResponses","1000","1","25","img_art/13.jpg","50","Very futuristic in style. I like this a lot.","Victor,Jorge,Shawn,Ryan,Zachary,Stephen","Great color balance. I like the splatter, and how the vertical lines go from sharper to more blended.,31,340,20","It reminds me of rain,11,180,20","Industrial Jackson Pollock knock-off,-20,100,20","Feels calm and could be placed in anyones house,43,380,20","Peaceful colors.,20,400,20","Like how realistic it looks.,33,140,20","Stephen","Like how realistic it looks.,33,140,20","Ryan","Feels calm and could be placed in anyones house,43,380,20","Victor","Great color balance. I like the splatter, and how the vertical lines go from sharper to more blended.,31,340,20","8"
"4258","","survey-text","227","1422323","0.0-223.0-0.0","A16335MOISDG1F","","","","{""Q0"":""table""}","","","","","","","","","","","","","","","","","","","","","","",""
"25019","","survey-text","228","1447343","0.0-224.0-0.0","A16335MOISDG1F","","","","{""Q0"":""Makes me think of a not so distant future where things are very grey""}","","","","","","","","","","","","","","","","","","","","","","",""
"2002.699999999255","","image-slider-response","229","1449347","0.0-225.0","A16335MOISDG1F","","","","","-18","","","","","","","","","","","","","","","","","","","","","",""
"null","","image-button-response","230","1454351","0.0-226.0","A16335MOISDG1F","img_art/11.jpg","null","","","","","","","","","","","","","","","","","","","","","","","","",""
"893","","image-button-response","231","1455246","0.0-227.0","A16335MOISDG1F","img_art/11.jpg","4","","","","","","","","","","","","","","","","","","","","","","","","",""
"2474","","image-button-response","232","1457720","0.0-228.0-0.0","A16335MOISDG1F","img_art/11.jpg","0","","","","","","","","","","","","","","","","","","","","","","","","",""
"2409","","image-button-response","233","1460130","0.0-229.0-0.0","A16335MOISDG1F","img_art/11.jpg","2","","","","","","","","","","","","","","","","","","","","","","","","",""
"null","","html-keyboard-response","234","1461632","0.0-230.0","A16335MOISDG1F","<p style=""font-size: 48px;"">+</p>","","","","","null","allTrialResponses","1500","1","26","img_art/11.jpg","-18","Makes me think of a not so distant future where things are very grey","Victor,Christian,Joshua,Ryan,Matthew,Stephen","Love the colors against the black and gray. The lines are calming.,22,340,20","to me, perfect reflection of the modern commute,32,140,20","Is interesting. Wouldn't bother me to have this hanging where I'd see it every day.,11,240,20","It makes me feel angry and overwhelmed,-29,380,20","Dark but bright, city but ocean, musical scales.,50,120,20","Very good use of colors,44,140,20","Matthew","Dark but bright, city but ocean, musical scales.,50,120,20","Victor","Love the colors against the black and gray. The lines are calming.,22,340,20","Joshua","Is interesting. Wouldn't bother me to have this hanging where I'd see it every day.,11,240,20","8"
"32325","","survey-text","235","1493973","0.0-231.0-0.0","A16335MOISDG1F","","","","{""Q0"":""I get a fraudulent feeling from this. Like it was created by a computer.""}","","","","","","","","","","","","","","","","","","","","","","",""
"2282.7000000011176","","image-slider-response","236","1496257","0.0-232.0","A16335MOISDG1F","","","","","-20","","","","","","","","","","","","","","","","","","","","","",""
"null","","image-button-response","237","1501260","0.0-233.0","A16335MOISDG1F","img_art/20.jpg","null","","","","","","","","","","","","","","","","","","","","","","","","",""
"1547","","image-button-response","238","1502811","0.0-234.0","A16335MOISDG1F","img_art/20.jpg","1","","","","","","","","","","","","","","","","","","","","","","","","",""
"2810","","image-button-response","239","1505622","0.0-235.0-0.0","A16335MOISDG1F","img_art/20.jpg","5","","","","","","","","","","","","","","","","","","","","","","","","",""
"346","","image-button-response","240","1505969","0.0-236.0-0.0","A16335MOISDG1F","img_art/20.jpg","3","","","","","","","","","","","","","","","","","","","","","","","","",""
"null","","html-keyboard-response","241","1506482","0.0-237.0","A16335MOISDG1F","<p style=""font-size: 48px;"">+</p>","","","","","null","allTrialResponses","500","1","27","img_art/20.jpg","-20","I get a fraudulent feeling from this. Like it was created by a computer.","Victor,Luke,Joshua,Bradley,Matthew,Ian","sort of pleasant to look at, but can't tell if it's supposed to be something,13,340,20","it looks like a car crash which is depressing,-19,20,20","Reminds me of the Southwest; i.e. New Mexico or Arizona. It's interesting.,12,240,20","A truck rolled over?  I do like the pictures and the technique though.,25,300,20","Painting within a painting, abstract.,32,120,20","A painting within a painting, the inner painting looks like a car crash with a semi truck.,21,260,20","Luke","it looks like a car crash which is depressing,-19,20,20","Ian","A painting within a painting, the inner painting looks like a car crash with a semi truck.,21,260,20","Bradley","A truck rolled over?  I do like the pictures and the technique though.,25,300,20","8"
"27964","","survey-text","242","1534463","0.0-238.0-0.0","A16335MOISDG1F","","","","{""Q0"":""Very childlike but also some scary imagery. This young person may be calling for help""}","","","","","","","","","","","","","","","","","","","","","","",""
"2142.800000000745","","image-slider-response","243","1536607","0.0-239.0","A16335MOISDG1F","","","","","-32","","","","","","","","","","","","","","","","","","","","","",""
"null","","image-button-response","244","1541618","0.0-240.0","A16335MOISDG1F","img_art/16.jpg","null","","","","","","","","","","","","","","","","","","","","","","","","",""
"2688","","image-button-response","245","1544309","0.0-241.0","A16335MOISDG1F","img_art/16.jpg","1","","","","","","","","","","","","","","","","","","","","","","","","",""
"661","","image-button-response","246","1544972","0.0-242.0-0.0","A16335MOISDG1F","img_art/16.jpg","3","","","","","","","","","","","","","","","","","","","","","","","","",""
"2095","","image-button-response","247","1547068","0.0-243.0-0.0","A16335MOISDG1F","img_art/16.jpg","0","","","","","","","","","","","","","","","","","","","","","","","","",""
"null","","html-keyboard-response","248","1547570","0.0-244.0","A16335MOISDG1F","<p style=""font-size: 48px;"">+</p>","","","","","null","allTrialResponses","500","1","28","img_art/16.jpg","-32","Very childlike but also some scary imagery. This young person may be calling for help","Angel,Luke,Alejandro,Bradley,Alexander,Ian","I see something that is supposed to be comforting but it's been discarded and lost.,-20,180,20","while simple, it seems to have a deeper meaning on childhood,33,20,20","Garble and nonsense,-50,80,20","This feels like there's some kind of pedofile thing going on here.,-50,300,20","Strange and bleak.,-20,120,20","This looks like it was made by an art student filled with angst,-30,260,20","Luke","while simple, it seems to have a deeper meaning on childhood,33,20,20","Bradley","This feels like there's some kind of pedofile thing going on here.,-50,300,20","Angel","I see something that is supposed to be comforting but it's been discarded and lost.,-20,180,20","8"
"14267","","survey-text","249","1561853","0.0-245.0-0.0","A16335MOISDG1F","","","","{""Q0"":""It reminds me of Japan. Very engaging.""}","","","","","","","","","","","","","","","","","","","","","","",""
"2457.5999999996275","","image-slider-response","250","1564312","0.0-246.0","A16335MOISDG1F","","","","","50","","","","","","","","","","","","","","","","","","","","","",""
"null","","image-button-response","251","1569315","0.0-247.0","A16335MOISDG1F","img_art/14.jpg","null","","","","","","","","","","","","","","","","","","","","","","","","",""
"688","","image-button-response","252","1570006","0.0-248.0","A16335MOISDG1F","img_art/14.jpg","2","","","","","","","","","","","","","","","","","","","","","","","","",""
"3706","","image-button-response","253","1573713","0.0-249.0-0.0","A16335MOISDG1F","img_art/14.jpg","3","","","","","","","","","","","","","","","","","","","","","","","","",""
"936","","image-button-response","254","1574651","0.0-250.0-0.0","A16335MOISDG1F","img_art/14.jpg","1","","","","","","","","","","","","","","","","","","","","","","","","",""
"null","","html-keyboard-response","255","1575152","0.0-251.0","A16335MOISDG1F","<p style=""font-size: 48px;"">+</p>","","","","","null","allTrialResponses","500","1","29","img_art/14.jpg","50","It reminds me of Japan. Very engaging.","Angel,Luke,Luis,Bradley,Adam,Mason","This reminds me of a tree but the tree is sickly, and poorly cared for.,-10,180,20","looks like it's symbolizing rebirth which is hopeful,22,20,20","Love the assortment of colors and flowers, expressing gentle and caring,50,400,20","I don't know why, but this piece makes me happy.,20,300,20","Very abstract. Unsure of what I'm looking at. No emotions towards it.,-6,40,20","ok, gloomy though.,12,100,20","Luis","Love the assortment of colors and flowers, expressing gentle and caring,50,400,20","Bradley","I don't know why, but this piece makes me happy.,20,300,20","Luke","looks like it's symbolizing rebirth which is hopeful,22,20,20","8"
"12355","","survey-text","256","1587515","0.0-252.0-0.0","A16335MOISDG1F","","","","{""Q0"":""It seems like shady backroom deals being done.""}","","","","","","","","","","","","","","","","","","","","","","",""
"2280.5999999996275","","image-slider-response","257","1589797","0.0-253.0","A16335MOISDG1F","","","","","-14","","","","","","","","","","","","","","","","","","","","","",""
"null","","image-button-response","258","1594801","0.0-254.0","A16335MOISDG1F","img_art/28.jpg","null","","","","","","","","","","","","","","","","","","","","","","","","",""
"7220","","image-button-response","259","1602024","0.0-255.0","A16335MOISDG1F","img_art/28.jpg","2","","","","","","","","","","","","","","","","","","","","","","","","",""
"6889","","image-button-response","260","1608915","0.0-256.0-0.0","A16335MOISDG1F","img_art/28.jpg","2","","","","","","","","","","","","","","","","","","","","","","","","",""
"3053","","image-button-response","261","1614527","0.0-256.1-0.1","A16335MOISDG1F","img_art/28.jpg","4","","","","","","","","","","","","","","","","","","","","","","","","",""
"1681","","image-button-response","262","1616210","0.0-257.0-0.0","A16335MOISDG1F","img_art/28.jpg","5","","","","","","","","","","","","","","","","","","","","","","","","",""
"null","","html-keyboard-response","263","1617225","0.0-258.0","A16335MOISDG1F","<p style=""font-size: 48px;"">+</p>","","","","","null","allTrialResponses","1000","1","30","img_art/28.jpg","-14","It seems like shady backroom deals being done.","Sean,Luke,Luis,Bradley,Scott,Daniel","it looks alright,-1,40,20","no clear colors or meaning to evoke emotions,-15,20,20","Self-hate and abuse at home, unsafe and torturing,-30,400,20","I think this may have to do with humpty dumpty?,-7,300,20","I don't like the color choice,-30,20,20","Compact grey mess lack negative space,-10,320,20","Luis","Self-hate and abuse at home, unsafe and torturing,-30,400,20","Scott","I don't like the color choice,-30,20,20","Daniel","Compact grey mess lack negative space,-10,320,20","10"
"8307","","image-button-response_instructions","264","1625549","0.0-259.0","A16335MOISDG1F","","0","instructions","","","","","","","","","","","","","","","","","","","","","","","",""
"884","","image-button-response","265","1626437","0.0-260.0","A16335MOISDG1F","","0","","","","","","","","","","","","","","","","","","","","","","","","",""
