"rt","url","trial_type","trial_index","time_elapsed","internal_node_id","participant_id","stimulus","button_pressed","Name","responses","response","key_press","variableName","fixationTime","condition","trial","photo","subjectRating","subjectResponse","agentsNames","agent_1_Response","agent_2_Response","agent_3_Response","agent_4_Response","agent_5_Response","agent_6_Response","kept_1_name","kept_1_response","kept_2_name","kept_2_response","kept_3_name","kept_3_response","errorCounter"
"18447","external_page_harvard.html","external-html","0","18653","0.0-0.0","A168B0VAQ1RXKB","","","","","","","","","","","","","","","","","","","","","","","","","","",""
"1991","","image-button-response","1","20650","0.0-1.0","A168B0VAQ1RXKB","","1","","","","","","","","","","","","","","","","","","","","","","","","",""
"2162","","image-button-response","2","22826","0.0-2.0-0.0","A168B0VAQ1RXKB","","1","phone","","","","","","","","","","","","","","","","","","","","","","","",""
"8788","","survey-text","3","31618","0.0-3.0-0.0","A168B0VAQ1RXKB","","","","{""Q0"":""A168B0VAQ1RXKB""}","","","","","","","","","","","","","","","","","","","","","","",""
"8690","","image-button-response_instructions","4","40315","0.0-4.0","A168B0VAQ1RXKB","","0","instructions","","","","","","","","","","","","","","","","","","","","","","","",""
"24593","","image-button-response_instructions","5","64912","0.0-5.0","A168B0VAQ1RXKB","img_art/ins/popularity/ins1.png","0","instructions","","","","","","","","","","","","","","","","","","","","","","","",""
"7071","","image-button-response_instructions","6","71987","0.0-6.0","A168B0VAQ1RXKB","img_art/ins/popularity/ins2.png","0","instructions","","","","","","","","","","","","","","","","","","","","","","","",""
"5908","","image-button-response_instructions","7","77898","0.0-7.0","A168B0VAQ1RXKB","img_art/ins/popularity/ins2Extreme.png","0","instructions","","","","","","","","","","","","","","","","","","","","","","","",""
"5830","","image-button-response_instructions","8","83730","0.0-8.0","A168B0VAQ1RXKB","img_art/ins/popularity/ins3KEEPpop.PNG","0","instructions","","","","","","","","","","","","","","","","","","","","","","","",""
"5588","","image-button-response_instructions","9","89322","0.0-9.0","A168B0VAQ1RXKB","img_art/ins/popularity/ins3ANamepop.PNG","0","instructions","","","","","","","","","","","","","","","","","","","","","","","",""
"2733","","image-button-response_instructions","10","92058","0.0-10.0","A168B0VAQ1RXKB","img_art/ins/popularity/ins3ARatingpop.png","0","instructions","","","","","","","","","","","","","","","","","","","","","","","",""
"2213","","image-button-response_instructions","11","94273","0.0-11.0","A168B0VAQ1RXKB","img_art/ins/popularity/ins3ATextpop.png","0","instructions","","","","","","","","","","","","","","","","","","","","","","","",""
"6039","","image-button-response_instructions","12","100315","0.0-12.0","A168B0VAQ1RXKB","img_art/ins/popularity/ins3ALikespop.png","0","instructions","","","","","","","","","","","","","","","","","","","","","","","",""
"5436","","image-button-response_instructions","13","105754","0.0-13.0","A168B0VAQ1RXKB","img_art/ins/popularity/ins3KEEPpop.PNG","0","instructions","","","","","","","","","","","","","","","","","","","","","","","",""
"5118","","image-button-response_instructions","14","110876","0.0-14.0","A168B0VAQ1RXKB","img_art/ins/popularity/ins3_5RED.png","0","instructions","","","","","","","","","","","","","","","","","","","","","","","",""
"2364","","image-button-response_instructions","15","113243","0.0-15.0","A168B0VAQ1RXKB","img_art/ins/popularity/ins3KEEPpop.PNG","0","instructions","","","","","","","","","","","","","","","","","","","","","","","",""
"6396","","image-button-response_instructions","16","119642","0.0-16.0","A168B0VAQ1RXKB","img_art/ins/popularity/ins4KEEPpop.PNG","0","instructions","","","","","","","","","","","","","","","","","","","","","","","",""
"3429","","image-button-response_instructions","17","123074","0.0-17.0","A168B0VAQ1RXKB","img_art/ins/popularity/ins5KEEPpop.PNG","0","instructions","","","","","","","","","","","","","","","","","","","","","","","",""
"1213","","image-button-response_instructions","18","124290","0.0-18.0","A168B0VAQ1RXKB","","0","instructions","","","","","","","","","","","","","","","","","","","","","","","",""
"7343","","survey-text","19","131690","0.0-19.0-0.0","A168B0VAQ1RXKB","","","","{""Q0"":""but""}","","","","","","","","","","","","","","","","","","","","","","",""
"22980","","survey-text","20","154674","0.0-20.0-0.0","A168B0VAQ1RXKB","","","","{""Q0"":""I like how fluid it is and the suggestion of movement.""}","","","","","","","","","","","","","","","","","","","","","","",""
"3888","","image-slider-response","21","158570","0.0-21.0","A168B0VAQ1RXKB","","","","","24","","","","","","","","","","","","","","","","","","","","","",""
"null","","image-button-response","22","163594","0.0-22.0","A168B0VAQ1RXKB","img_art/ins/1.jpg","null","","","","","","","","","","","","","","","","","","","","","","","","",""
"4942","","image-button-response","23","168539","0.0-23.0","A168B0VAQ1RXKB","img_art/ins/1.jpg","4","","","","","","","","","","","","","","","","","","","","","","","","",""
"2716","","image-button-response","24","171258","0.0-24.0-0.0","A168B0VAQ1RXKB","img_art/ins/1.jpg","5","","","","","","","","","","","","","","","","","","","","","","","","",""
"3548","","image-button-response","25","174811","0.0-25.0-0.0","A168B0VAQ1RXKB","img_art/ins/1.jpg","0","","","","","","","","","","","","","","","","","","","","","","","","",""
"null","","html-keyboard-response","26","175834","0.0-26.0","A168B0VAQ1RXKB","<p style=""font-size: 48px;"">+</p>","","","","","null","allTrialResponses","1000","1","-2","img_art/ins/1.jpg","24","I like how fluid it is and the suggestion of movement.","Allison,Ashley,Beth,Dora,Erika,Jen","looks like a lot of things going on in the mist,20,20,20","I just don't get why these type of art would be popular,-32,40,20","This color reminds me of poo,-46,60,20","looks like what my niece in 3rd grade did this afternoon,-50,80,20","I like the sophisticated brushwork,40,100,20","It reminds me of a candy land dream I had,36,120,20","Erika","I like the sophisticated brushwork,40,100,20","Jen","It reminds me of a candy land dream I had,36,120,20","Allison","looks like a lot of things going on in the mist,20,20,20","0"
"20722","","survey-text","27","196570","0.0-27.0-0.0","A168B0VAQ1RXKB","","","","{""Q0"":""I live the bright colors and the brush work. ""}","","","","","","","","","","","","","","","","","","","","","","",""
"3691","","image-slider-response","28","200266","0.0-28.0","A168B0VAQ1RXKB","","","","","14","","","","","","","","","","","","","","","","","","","","","",""
"2948","","image-button-response","29","205275","0.0-29.0","A168B0VAQ1RXKB","img_art/ins/2.jpg","1","","","","","","","","","","","","","","","","","","","","","","","","",""
"790","","image-button-response","30","206067","0.0-30.0","A168B0VAQ1RXKB","img_art/ins/2.jpg","1","","","","","","","","","","","","","","","","","","","","","","","","",""
"3917","","image-button-response","31","209986","0.0-31.0-0.0","A168B0VAQ1RXKB","img_art/ins/2.jpg","4","","","","","","","","","","","","","","","","","","","","","","","","",""
"4877","","image-button-response","32","214867","0.0-32.0-0.0","A168B0VAQ1RXKB","img_art/ins/2.jpg","5","","","","","","","","","","","","","","","","","","","","","","","","",""
"null","","html-keyboard-response","33","215377","0.0-33.0","A168B0VAQ1RXKB","<p style=""font-size: 48px;"">+</p>","","","","","null","allTrialResponses","500","1","-1","img_art/ins/2.jpg","14","I live the bright colors and the brush work. ","Allison,Kara,Katie,Jenna,Erika,Jen","I don't have strong feelings about this,10,20,20","I like the blocks of color arrangements,30,160,20","too much color!,-28,180,20","One of my pet peevs,-48,140,20","I would never be able to compose a sophisticated pallete like this,48,100,20","It reminds me of a fireplace,36,120,20","Kara","I like the blocks of color arrangements,30,160,20","Erika","I would never be able to compose a sophisticated pallete like this,48,100,20","Jen","It reminds me of a fireplace,36,120,20","0"
"17751","","survey-text","34","233138","0.0-34.0-0.0","A168B0VAQ1RXKB","","","","{""Q0"":""Love the use of blue. Reminds me of winter.""}","","","","","","","","","","","","","","","","","","","","","","",""
"2687","","image-slider-response","35","235828","0.0-35.0","A168B0VAQ1RXKB","","","","","35","","","","","","","","","","","","","","","","","","","","","",""
"3570","","image-button-response","36","240843","0.0-36.0","A168B0VAQ1RXKB","img_art/ins/3.jpg","1","","","","","","","","","","","","","","","","","","","","","","","","",""
"683","","image-button-response","37","241530","0.0-37.0","A168B0VAQ1RXKB","img_art/ins/3.jpg","1","","","","","","","","","","","","","","","","","","","","","","","","",""
"4806","","image-button-response","38","246338","0.0-38.0-0.0","A168B0VAQ1RXKB","img_art/ins/3.jpg","4","","","","","","","","","","","","","","","","","","","","","","","","",""
"3077","","image-button-response","39","249418","0.0-39.0-0.0","A168B0VAQ1RXKB","img_art/ins/3.jpg","5","","","","","","","","","","","","","","","","","","","","","","","","",""
"null","","html-keyboard-response","40","250420","0.0-40.0","A168B0VAQ1RXKB","<p style=""font-size: 48px;"">+</p>","","","","","null","allTrialResponses","1000","1","0","img_art/ins/3.jpg","35","Love the use of blue. Reminds me of winter.","Mary,Kara,Rose,Leslie,Erika,Jen","I like the overlapping of brushes,41,220,20","calming blue is very nice,36,160,20","My daily routine, it's depressing,-20,240,20","It's an alright work,15,200,20","I feel connected to the artist,40,100,20","I can feel a rainy day from this painting,18,120,20","Kara","calming blue is very nice,36,160,20","Erika","I feel connected to the artist,40,100,20","Jen","I can feel a rainy day from this painting,18,120,20","0"
"5526","","image-button-response_instructions","41","255955","0.0-41.0","A168B0VAQ1RXKB","","0","instructions","","","","","","","","","","","","","","","","","","","","","","","",""
"12439","","survey-likert","42","268398","0.0-42.0-0.0","A168B0VAQ1RXKB","","","","{""Q0"":"""",""Q1"":0,""Q2"":1}","","","","","","","","","","","","","","","","","","","","","","",""
"5482","","survey-text","43","273890","0.0-43.0-0.0","A168B0VAQ1RXKB","","","","{""Q0"":""rock""}","","","","","","","","","","","","","","","","","","","","","","",""
"22017","","survey-text","44","295909","0.0-44.0-0.0","A168B0VAQ1RXKB","","","","{""Q0"":""The composition is fine but not wild about the colors.""}","","","","","","","","","","","","","","","","","","","","","","",""
"2953","","image-slider-response","45","298866","0.0-45.0","A168B0VAQ1RXKB","","","","","-7","","","","","","","","","","","","","","","","","","","","","",""
"null","","image-button-response","46","303915","0.0-46.0","A168B0VAQ1RXKB","img_art/22.jpg","null","","","","","","","","","","","","","","","","","","","","","","","","",""
"5735","","image-button-response","47","309651","0.0-47.0","A168B0VAQ1RXKB","img_art/22.jpg","5","","","","","","","","","","","","","","","","","","","","","","","","",""
"2670","","image-button-response","48","312323","0.0-48.0-0.0","A168B0VAQ1RXKB","img_art/22.jpg","2","","","","","","","","","","","","","","","","","","","","","","","","",""
"2363","","image-button-response","49","314691","0.0-49.0-0.0","A168B0VAQ1RXKB","img_art/22.jpg","1","","","","","","","","","","","","","","","","","","","","","","","","",""
"null","","html-keyboard-response","50","315195","0.0-50.0","A168B0VAQ1RXKB","<p style=""font-size: 48px;"">+</p>","","","","","null","allTrialResponses","500","1","1","img_art/22.jpg","-7","The composition is fine but not wild about the colors.","Mikayla,Kylie,Diana,Mariah,Jennifer,Amy","So colorful i love it!,22,300,20","Climate change in a big city,35,300,20","I think the colors are beautiful they remind me of a sunset.,13,380,20","The colors are pleasant, the shapes are inviting.,21,140,20","Colors are subdued yet vibrant,30,380,20","I appreciate the shapes but the abundance of primary colors make it seem garrish.,-10,220,20","Amy","I appreciate the shapes but the abundance of primary colors make it seem garrish.,-10,220,20","Diana","I think the colors are beautiful they remind me of a sunset.,13,380,20","Kylie","Climate change in a big city,35,300,20","0"
"19647","","survey-text","51","334850","0.0-51.0-0.0","A168B0VAQ1RXKB","","","","{""Q0"":""I really like the composition and the use of color here. ""}","","","","","","","","","","","","","","","","","","","","","","",""
"3284","","image-slider-response","52","338138","0.0-52.0","A168B0VAQ1RXKB","","","","","33","","","","","","","","","","","","","","","","","","","","","",""
"null","","image-button-response","53","343154","0.0-53.0","A168B0VAQ1RXKB","img_art/21.jpg","null","","","","","","","","","","","","","","","","","","","","","","","","",""
"1150","","image-button-response","54","344306","0.0-54.0","A168B0VAQ1RXKB","img_art/21.jpg","2","","","","","","","","","","","","","","","","","","","","","","","","",""
"6045","","image-button-response","55","350354","0.0-55.0-0.0","A168B0VAQ1RXKB","img_art/21.jpg","5","","","","","","","","","","","","","","","","","","","","","","","","",""
"4131","","image-button-response","56","354490","0.0-56.0-0.0","A168B0VAQ1RXKB","img_art/21.jpg","0","","","","","","","","","","","","","","","","","","","","","","","","",""
"null","","html-keyboard-response","57","354994","0.0-57.0","A168B0VAQ1RXKB","<p style=""font-size: 48px;"">+</p>","","","","","null","allTrialResponses","500","1","2","img_art/21.jpg","33","I really like the composition and the use of color here. ","Autumn,Kylie,Diana,Taylor,Briana,Amy","Amazing colors.,34,340,20","Makes me think of a battleship targeting a beautiful mountainside,0,300,20","Makes me feel light and airy. Like I've gone back in time to 1700th century France.,43,380,20","I love the contrasting tones between the two sides,36,340,20","Unfinished. Confusing to look at,-12,400,20","A landscape that leaves me inspired and hopeful.,20,220,20","Diana","Makes me feel light and airy. Like I've gone back in time to 1700th century France.,43,380,20","Amy","A landscape that leaves me inspired and hopeful.,20,220,20","Autumn","Amazing colors.,34,340,20","0"
"41496","","survey-text","58","396498","0.0-58.0-0.0","A168B0VAQ1RXKB","","","","{""Q0"":""A lot happening here, something you can look at for a long while and still find something new. Like the colors.""}","","","","","","","","","","","","","","","","","","","","","","",""
"3101","","image-slider-response","59","399602","0.0-59.0","A168B0VAQ1RXKB","","","","","32","","","","","","","","","","","","","","","","","","","","","",""
"null","","image-button-response","60","404611","0.0-60.0","A168B0VAQ1RXKB","img_art/20.jpg","null","","","","","","","","","","","","","","","","","","","","","","","","",""
"8198","","image-button-response","61","412811","0.0-61.0","A168B0VAQ1RXKB","img_art/20.jpg","5","","","","","","","","","","","","","","","","","","","","","","","","",""
"2149","","image-button-response","62","414962","0.0-62.0-0.0","A168B0VAQ1RXKB","img_art/20.jpg","2","","","","","","","","","","","","","","","","","","","","","","","","",""
"5222","","image-button-response","63","420187","0.0-63.0-0.0","A168B0VAQ1RXKB","img_art/20.jpg","0","","","","","","","","","","","","","","","","","","","","","","","","",""
"null","","html-keyboard-response","64","420704","0.0-64.0","A168B0VAQ1RXKB","<p style=""font-size: 48px;"">+</p>","","","","","null","allTrialResponses","500","1","3","img_art/20.jpg","32","A lot happening here, something you can look at for a long while and still find something new. Like the colors.","Autumn,Michelle,Diana,Brooke,Olivia,Amy","It's ok. Very abstract.,18,340,20","Reminds me of Dali for some reason, whom I don't like,-7,280,20","I'm not sure why this reminds me of surrealism. It might be the colors used.,16,380,20","Dinosaur skill and some dark shadow above,-30,60,20","crash after traffic causing grief,-11,40,20","Elements that are more defined are incongruous to the soft and melting nature of this painting,5,220,20","Amy","Elements that are more defined are incongruous to the soft and melting nature of this painting,5,220,20","Diana","I'm not sure why this reminds me of surrealism. It might be the colors used.,16,380,20","Autumn","It's ok. Very abstract.,18,340,20","0"
"20175","","survey-text","65","440890","0.0-65.0-0.0","A168B0VAQ1RXKB","","","","{""Q0"":""Don't like this at all. Looks like a child's scribblings.""}","","","","","","","","","","","","","","","","","","","","","","",""
"3013","","image-slider-response","66","443906","0.0-66.0","A168B0VAQ1RXKB","","","","","-31","","","","","","","","","","","","","","","","","","","","","",""
"3054","","image-button-response","67","448924","0.0-67.0","A168B0VAQ1RXKB","img_art/3.jpg","0","","","","","","","","","","","","","","","","","","","","","","","","",""
"2692","","image-button-response","68","451618","0.0-68.0","A168B0VAQ1RXKB","img_art/3.jpg","3","","","","","","","","","","","","","","","","","","","","","","","","",""
"5358","","image-button-response","69","456978","0.0-69.0-0.0","A168B0VAQ1RXKB","img_art/3.jpg","1","","","","","","","","","","","","","","","","","","","","","","","","",""
"2228","","image-button-response","70","459210","0.0-70.0-0.0","A168B0VAQ1RXKB","img_art/3.jpg","0","","","","","","","","","","","","","","","","","","","","","","","","",""
"null","","html-keyboard-response","71","460224","0.0-71.0","A168B0VAQ1RXKB","<p style=""font-size: 48px;"">+</p>","","","","","null","allTrialResponses","1000","1","4","img_art/3.jpg","-31","Don't like this at all. Looks like a child's scribblings.","Autumn,Danielle,Diana,Savannah,Kaitlin,Amy","Unfocused and rushed.,-28,340,20","Looks like it was painted with blood, which I'm aware is an art style, but it just looks messy.,-20,340,20","I didn't feel the color choice when I first looked. I did however like the placement of the gray.,-28,380,20","Completely incomprehensible.,-33,200,20","good choice of color,12,60,20","i like the colors particulairly the contrast of foreground to background. Exciting and thoughtful.,10,220,20","Savannah","Completely incomprehensible.,-33,200,20","Danielle","Looks like it was painted with blood, which I'm aware is an art style, but it just looks messy.,-20,340,20","Autumn","Unfocused and rushed.,-28,340,20","0"
"34339","","survey-text","72","494570","0.0-72.0-0.0","A168B0VAQ1RXKB","","","","{""Q0"":""It looks like it's trying to be dynamic and failing. Not interesting at all.""}","","","","","","","","","","","","","","","","","","","","","","",""
"2909","","image-slider-response","73","497482","0.0-73.0","A168B0VAQ1RXKB","","","","","-35","","","","","","","","","","","","","","","","","","","","","",""
"2205","","image-button-response","74","502495","0.0-74.0","A168B0VAQ1RXKB","img_art/14.jpg","1","","","","","","","","","","","","","","","","","","","","","","","","",""
"849","","image-button-response","75","503347","0.0-75.0","A168B0VAQ1RXKB","img_art/14.jpg","1","","","","","","","","","","","","","","","","","","","","","","","","",""
"3662","","image-button-response","76","507011","0.0-76.0-0.0","A168B0VAQ1RXKB","img_art/14.jpg","4","","","","","","","","","","","","","","","","","","","","","","","","",""
"4412","","image-button-response","77","511427","0.0-77.0-0.0","A168B0VAQ1RXKB","img_art/14.jpg","3","","","","","","","","","","","","","","","","","","","","","","","","",""
"null","","html-keyboard-response","78","511934","0.0-78.0","A168B0VAQ1RXKB","<p style=""font-size: 48px;"">+</p>","","","","","null","allTrialResponses","500","1","5","img_art/14.jpg","-35","It looks like it's trying to be dynamic and failing. Not interesting at all.","Autumn,Danielle,Amber,Savannah,Miranda,Kaylee","It's too basic.,23,340,20","Too much yellow in this image, i'm not a fan of art that is overly-saturated with yellow,-30,340,20","Reminds me of the outdoors.,12,200,20","Again. This is pretty neutral, leaning dislike.,-18,200,20","This just looks like a kids watercolor painting.,-30,320,20","it looks like a tree on desert,23,200,20","Danielle","Too much yellow in this image, i'm not a fan of art that is overly-saturated with yellow,-30,340,20","Miranda","This just looks like a kids watercolor painting.,-30,320,20","Savannah","Again. This is pretty neutral, leaning dislike.,-18,200,20","0"
"4925","","survey-text","79","516882","0.0-79.0-0.0","A168B0VAQ1RXKB","","","","{""Q0"":""sky""}","","","","","","","","","","","","","","","","","","","","","","",""
"27582","","survey-text","80","544466","0.0-80.0-0.0","A168B0VAQ1RXKB","","","","{""Q0"":""Not wild about the colors but love the brush work. Looks like a cave painting. ""}","","","","","","","","","","","","","","","","","","","","","","",""
"3740","","image-slider-response","81","548210","0.0-81.0","A168B0VAQ1RXKB","","","","","28","","","","","","","","","","","","","","","","","","","","","",""
"null","","image-button-response","82","553215","0.0-82.0","A168B0VAQ1RXKB","img_art/7.jpg","null","","","","","","","","","","","","","","","","","","","","","","","","",""
"1914","","image-button-response","83","555130","0.0-83.0","A168B0VAQ1RXKB","img_art/7.jpg","3","","","","","","","","","","","","","","","","","","","","","","","","",""
"4365","","image-button-response","84","559498","0.0-84.0-0.0","A168B0VAQ1RXKB","img_art/7.jpg","2","","","","","","","","","","","","","","","","","","","","","","","","",""
"2661","","image-button-response","85","562163","0.0-85.0-0.0","A168B0VAQ1RXKB","img_art/7.jpg","0","","","","","","","","","","","","","","","","","","","","","","","","",""
"null","","html-keyboard-response","86","563675","0.0-86.0","A168B0VAQ1RXKB","<p style=""font-size: 48px;"">+</p>","","","","","null","allTrialResponses","1500","1","6","img_art/7.jpg","28","Not wild about the colors but love the brush work. Looks like a cave painting. ","Alexandra,Danielle,Catherine,Savannah,Miranda,Meghan","I do not like the boring colors in this.,-20,60,20","I don't like this kind of color scheme or look they went for,-50,340,20","Looking through a microscope at the ground at a beach.,20,160,20","More saturated color, even more interpretations to have.,44,200,20","This looks like a literal picture of the ground so I'm really not too sure about this one.,-42,320,20","I don't like the texture,-49,220,20","Savannah","More saturated color, even more interpretations to have.,44,200,20","Catherine","Looking through a microscope at the ground at a beach.,20,160,20","Alexandra","I do not like the boring colors in this.,-20,60,20","0"
"20143","","survey-text","87","583827","0.0-87.0-0.0","A168B0VAQ1RXKB","","","","{""Q0"":""Looks like a child's fingerpainting. Don't like this at all.""}","","","","","","","","","","","","","","","","","","","","","","",""
"3452","","image-slider-response","88","587282","0.0-88.0","A168B0VAQ1RXKB","","","","","-42","","","","","","","","","","","","","","","","","","","","","",""
"3565","","image-button-response","89","592305","0.0-89.0","A168B0VAQ1RXKB","img_art/30.jpg","1","","","","","","","","","","","","","","","","","","","","","","","","",""
"832","","image-button-response","90","593139","0.0-90.0","A168B0VAQ1RXKB","img_art/30.jpg","1","","","","","","","","","","","","","","","","","","","","","","","","",""
"3614","","image-button-response","91","596755","0.0-91.0-0.0","A168B0VAQ1RXKB","img_art/30.jpg","3","","","","","","","","","","","","","","","","","","","","","","","","",""
"4275","","image-button-response","92","601033","0.0-92.0-0.0","A168B0VAQ1RXKB","img_art/30.jpg","4","","","","","","","","","","","","","","","","","","","","","","","","",""
"null","","html-keyboard-response","93","602054","0.0-93.0","A168B0VAQ1RXKB","<p style=""font-size: 48px;"">+</p>","","","","","null","allTrialResponses","1000","1","7","img_art/30.jpg","-42","Looks like a child's fingerpainting. Don't like this at all.","Alexandra,Destiny,Catherine,Savannah,Alyssa,Madeline","I really love the pastel colors and the 3D design in this,43,60,20","literally stupid I made this with as seen on tv products when I was 7,-42,360,20","connection, Everything is connected even in contrast.,42,160,20","Colors are nice but it just seems too simple.,-26,200,20","ugly nasty colors,-10,160,20","A bit haphazard looking and lacking in vision,2,40,20","Destiny","literally stupid I made this with as seen on tv products when I was 7,-42,360,20","Savannah","Colors are nice but it just seems too simple.,-26,200,20","Alyssa","ugly nasty colors,-10,160,20","0"
"27164","","survey-text","94","629227","0.0-94.0-0.0","A168B0VAQ1RXKB","","","","{""Q0"":""I like this a lot. Very stylized view of a tree, interesting use of light and color.""}","","","","","","","","","","","","","","","","","","","","","","",""
"2658","","image-slider-response","95","631890","0.0-95.0","A168B0VAQ1RXKB","","","","","25","","","","","","","","","","","","","","","","","","","","","",""
"4495","","image-button-response","96","636905","0.0-96.0","A168B0VAQ1RXKB","img_art/17.jpg","0","","","","","","","","","","","","","","","","","","","","","","","","",""
"502","","image-button-response","97","637410","0.0-97.0","A168B0VAQ1RXKB","img_art/17.jpg","0","","","","","","","","","","","","","","","","","","","","","","","","",""
"1615","","image-button-response","98","639027","0.0-98.0-0.0","A168B0VAQ1RXKB","img_art/17.jpg","0","","","","","","","","","","","","","","","","","","","","","","","","",""
"6316","","image-button-response","99","649771","0.0-98.1-0.1","A168B0VAQ1RXKB","img_art/17.jpg","3","","","","","","","","","","","","","","","","","","","","","","","","",""
"2212","","image-button-response","100","651987","0.0-99.0-0.0","A168B0VAQ1RXKB","img_art/17.jpg","4","","","","","","","","","","","","","","","","","","","","","","","","",""
"null","","html-keyboard-response","101","652989","0.0-100.0","A168B0VAQ1RXKB","<p style=""font-size: 48px;"">+</p>","","","","","null","allTrialResponses","1000","1","8","img_art/17.jpg","25","I like this a lot. Very stylized view of a tree, interesting use of light and color.","Molly,Destiny,Julia,Savannah,Alyssa,Madison","Wow, I haven't seen anything better than this.,40,340,20","similar to last one, still pretty cool but I liked arrangement of last one better,13,360,20","I'm not into paintings of trees,-18,40,20","Not even abstract to me, very clear meaning.,44,200,20","It gorgeous and i love how the tree is almost 3 dimensional.So many elements to it.,50,160,20","No strong reaction. Beautiful design, but hue appears taciturn. Bad photograph?,1,60,20","Molly","Wow, I haven't seen anything better than this.,40,340,20","Savannah","Not even abstract to me, very clear meaning.,44,200,20","Alyssa","It gorgeous and i love how the tree is almost 3 dimensional.So many elements to it.,50,160,20","2"
"24556","","survey-text","102","677554","0.0-101.0-0.0","A168B0VAQ1RXKB","","","","{""Q0"":""The colors here are awful. Really ugly painting.""}","","","","","","","","","","","","","","","","","","","","","","",""
"2605","","image-slider-response","103","680163","0.0-102.0","A168B0VAQ1RXKB","","","","","-47","","","","","","","","","","","","","","","","","","","","","",""
"1949","","image-button-response","104","685184","0.0-103.0","A168B0VAQ1RXKB","img_art/29.jpg","1","","","","","","","","","","","","","","","","","","","","","","","","",""
"1000","","image-button-response","105","686187","0.0-104.0","A168B0VAQ1RXKB","img_art/29.jpg","1","","","","","","","","","","","","","","","","","","","","","","","","",""
"2813","","image-button-response","106","689002","0.0-105.0-0.0","A168B0VAQ1RXKB","img_art/29.jpg","3","","","","","","","","","","","","","","","","","","","","","","","","",""
"3789","","image-button-response","107","692795","0.0-106.0-0.0","A168B0VAQ1RXKB","img_art/29.jpg","5","","","","","","","","","","","","","","","","","","","","","","","","",""
"null","","html-keyboard-response","108","694300","0.0-107.0","A168B0VAQ1RXKB","<p style=""font-size: 48px;"">+</p>","","","","","null","allTrialResponses","1500","1","9","img_art/29.jpg","-47","The colors here are awful. Really ugly painting.","Molly,Erica,Leslie,Savannah,Alyssa,Tiffany","Looks kinda scary.,25,340,20","Looks like an accident more than an art to me,-26,80,20","I can relate to the frustration this evokes.,20,380,20","Looks wrong. Like a real painting was vandalized.,-50,200,20","Its interesting although doesnt illicit any strong emotions from me,10,160,20","I feel a little disgust. There is something off-putting about the smooth shapes and dark colors.,-43,360,20","Erica","Looks like an accident more than an art to me,-26,80,20","Savannah","Looks wrong. Like a real painting was vandalized.,-50,200,20","Tiffany","I feel a little disgust. There is something off-putting about the smooth shapes and dark colors.,-43,360,20","2"
"37053","","survey-text","109","731364","0.0-108.0-0.0","A168B0VAQ1RXKB","","","","{""Q0"":""I don't mind abstract paintings but this doesn't interest me at all. ""}","","","","","","","","","","","","","","","","","","","","","","",""
"2459","","image-slider-response","110","733826","0.0-109.0","A168B0VAQ1RXKB","","","","","-16","","","","","","","","","","","","","","","","","","","","","",""
"4597","","image-button-response","111","738841","0.0-110.0","A168B0VAQ1RXKB","img_art/1.jpg","2","","","","","","","","","","","","","","","","","","","","","","","","",""
"1304","","image-button-response","112","740146","0.0-111.0","A168B0VAQ1RXKB","img_art/1.jpg","2","","","","","","","","","","","","","","","","","","","","","","","","",""
"4894","","image-button-response","113","745042","0.0-112.0-0.0","A168B0VAQ1RXKB","img_art/1.jpg","0","","","","","","","","","","","","","","","","","","","","","","","","",""
"5469","","image-button-response","114","750514","0.0-113.0-0.0","A168B0VAQ1RXKB","img_art/1.jpg","3","","","","","","","","","","","","","","","","","","","","","","","","",""
"null","","html-keyboard-response","115","751519","0.0-114.0","A168B0VAQ1RXKB","<p style=""font-size: 48px;"">+</p>","","","","","null","allTrialResponses","1000","1","10","img_art/1.jpg","-16","I don't mind abstract paintings but this doesn't interest me at all. ","Haley,Erica,Jacqueline,Savannah,Brianna,Tiffany","Pleasant, but a tad too monochromatic in some areas for my taste,7,220,20","Makes me warm and relaxed,38,80,20","It's alright but lacks any depth.,-5,300,20","Its simply okay.,3,200,20","It's very colorful, and I like it,11,20,20","I feel relaxed, like I'm watching the leaves change color.,17,360,20","Jacqueline","It's alright but lacks any depth.,-5,300,20","Haley","Pleasant, but a tad too monochromatic in some areas for my taste,7,220,20","Savannah","Its simply okay.,3,200,20","2"
"6709","","survey-text","116","758251","0.0-115.0-0.0","A168B0VAQ1RXKB","","","","{""Q0"":""our""}","","","","","","","","","","","","","","","","","","","","","","",""
"18901","","survey-text","117","777154","0.0-116.0-0.0","A168B0VAQ1RXKB","","","","{""Q0"":""I like this a lot. Love the depth and the use of color here.""}","","","","","","","","","","","","","","","","","","","","","","",""
"2389","","image-slider-response","118","779546","0.0-117.0","A168B0VAQ1RXKB","","","","","34","","","","","","","","","","","","","","","","","","","","","",""
"2590","","image-button-response","119","784560","0.0-118.0","A168B0VAQ1RXKB","img_art/18.jpg","0","","","","","","","","","","","","","","","","","","","","","","","","",""
"703","","image-button-response","120","785266","0.0-119.0","A168B0VAQ1RXKB","img_art/18.jpg","0","","","","","","","","","","","","","","","","","","","","","","","","",""
"7174","","image-button-response","121","792443","0.0-120.0-0.0","A168B0VAQ1RXKB","img_art/18.jpg","4","","","","","","","","","","","","","","","","","","","","","","","","",""
"1996","","image-button-response","122","794442","0.0-121.0-0.0","A168B0VAQ1RXKB","img_art/18.jpg","3","","","","","","","","","","","","","","","","","","","","","","","","",""
"null","","html-keyboard-response","123","795959","0.0-122.0","A168B0VAQ1RXKB","<p style=""font-size: 48px;"">+</p>","","","","","null","allTrialResponses","1500","1","11","img_art/18.jpg","34","I like this a lot. Love the depth and the use of color here.","Haley,Vanessa,Jacqueline,Savannah,Shannon,Alexis","I could stare at this for long stretches of time and still find new details. I love it.,40,220,20","Again, this is too abtract.,-25,380,20","Kinda neat, looks like cavalry, or a knight.,15,300,20","Accents make this piece.,21,200,20","I think its supposed to be a boat and the boat looks kind of interesting to me.,10,220,20","Crusade-feel, but a little too abstract for my taste,23,100,20","Haley","I could stare at this for long stretches of time and still find new details. I love it.,40,220,20","Shannon","I think its supposed to be a boat and the boat looks kind of interesting to me.,10,220,20","Savannah","Accents make this piece.,21,200,20","2"
"17601","","survey-text","124","813570","0.0-123.0-0.0","A168B0VAQ1RXKB","","","","{""Q0"":""Hate the colors. Looks like a child's fingerpainting project.""}","","","","","","","","","","","","","","","","","","","","","","",""
"3060","","image-slider-response","125","816634","0.0-124.0","A168B0VAQ1RXKB","","","","","-37","","","","","","","","","","","","","","","","","","","","","",""
"2029","","image-button-response","126","821650","0.0-125.0","A168B0VAQ1RXKB","img_art/2.jpg","1","","","","","","","","","","","","","","","","","","","","","","","","",""
"680","","image-button-response","127","822331","0.0-126.0","A168B0VAQ1RXKB","img_art/2.jpg","1","","","","","","","","","","","","","","","","","","","","","","","","",""
"653","","image-button-response","128","822986","0.0-127.0-0.0","A168B0VAQ1RXKB","img_art/2.jpg","0","","","","","","","","","","","","","","","","","","","","","","","","",""
"5046","","image-button-response","129","828034","0.0-128.0-0.0","A168B0VAQ1RXKB","img_art/2.jpg","3","","","","","","","","","","","","","","","","","","","","","","","","",""
"null","","html-keyboard-response","130","828539","0.0-129.0","A168B0VAQ1RXKB","<p style=""font-size: 48px;"">+</p>","","","","","null","allTrialResponses","500","1","12","img_art/2.jpg","-37","Hate the colors. Looks like a child's fingerpainting project.","Haley,Claire,Sydney,Savannah,Shannon,Kayla","My first thought was that it looks like a children's art project,-30,220,20","too blocky and don't like color combination,-32,260,20","I like the color, but I feel like I see a creepy face which I dislike.,-5,320,20","Very gross colors. What were they thinking?,-47,200,20","I like this picture a little because the colors make it look a little vibrant.,10,220,20","Different cultures. I like that it brings differences together.,4,180,20","Claire","too blocky and don't like color combination,-32,260,20","Haley","My first thought was that it looks like a children's art project,-30,220,20","Savannah","Very gross colors. What were they thinking?,-47,200,20","2"
"26621","","survey-text","131","855170","0.0-130.0-0.0","A168B0VAQ1RXKB","","","","{""Q0"":""Love the detail and the theme is fascinating.""}","","","","","","","","","","","","","","","","","","","","","","",""
"4396","","image-slider-response","132","859570","0.0-131.0","A168B0VAQ1RXKB","","","","","27","","","","","","","","","","","","","","","","","","","","","",""
"2375","","image-button-response","133","864586","0.0-132.0","A168B0VAQ1RXKB","img_art/10.jpg","1","","","","","","","","","","","","","","","","","","","","","","","","",""
"647","","image-button-response","134","865234","0.0-133.0","A168B0VAQ1RXKB","img_art/10.jpg","1","","","","","","","","","","","","","","","","","","","","","","","","",""
"1990","","image-button-response","135","867226","0.0-134.0-0.0","A168B0VAQ1RXKB","img_art/10.jpg","0","","","","","","","","","","","","","","","","","","","","","","","","",""
"6645","","image-button-response","136","873874","0.0-135.0-0.0","A168B0VAQ1RXKB","img_art/10.jpg","2","","","","","","","","","","","","","","","","","","","","","","","","",""
"null","","html-keyboard-response","137","874379","0.0-136.0","A168B0VAQ1RXKB","<p style=""font-size: 48px;"">+</p>","","","","","null","allTrialResponses","500","1","13","img_art/10.jpg","27","Love the detail and the theme is fascinating.","Haley,Claire,Katherine,Savannah,Margaret,Katie","Makes me want to know more about it, and potentially the artist.,20,220,20","it looks very musical,24,260,20","This is pretty rad. The outline looks like a music staff,15,120,20","This is a scribble of a mad man. Appears low effort.,-33,200,20","I think this was going to be a guitar but then the artist got mad and gave up,-4,100,20","Dark and weird. Unidentifiable shape. I can't tell what it is, so I don't like it.,-50,160,20","Claire","it looks very musical,24,260,20","Haley","Makes me want to know more about it, and potentially the artist.,20,220,20","Katherine","This is pretty rad. The outline looks like a music staff,15,120,20","2"
"24637","","survey-text","138","899026","0.0-137.0-0.0","A168B0VAQ1RXKB","","","","{""Q0"":""It's just okay. Looks kind of crude and amateurish. ""}","","","","","","","","","","","","","","","","","","","","","","",""
"3996","","image-slider-response","139","903026","0.0-138.0","A168B0VAQ1RXKB","","","","","4","","","","","","","","","","","","","","","","","","","","","",""
"2198","","image-button-response","140","908040","0.0-139.0","A168B0VAQ1RXKB","img_art/19.jpg","1","","","","","","","","","","","","","","","","","","","","","","","","",""
"528","","image-button-response","141","908571","0.0-140.0","A168B0VAQ1RXKB","img_art/19.jpg","1","","","","","","","","","","","","","","","","","","","","","","","","",""
"2685","","image-button-response","142","911258","0.0-141.0-0.0","A168B0VAQ1RXKB","img_art/19.jpg","0","","","","","","","","","","","","","","","","","","","","","","","","",""
"6461","","image-button-response","143","917723","0.0-142.0-0.0","A168B0VAQ1RXKB","img_art/19.jpg","4","","","","","","","","","","","","","","","","","","","","","","","","",""
"null","","html-keyboard-response","144","919230","0.0-143.0","A168B0VAQ1RXKB","<p style=""font-size: 48px;"">+</p>","","","","","null","allTrialResponses","1500","1","14","img_art/19.jpg","4","It's just okay. Looks kind of crude and amateurish. ","Haley,Claire,Katherine,Courtney,Cassidy,Melissa","I like this as a whole, but the longer I look at it, the less it pleases me,-10,220,20","way too much going on,-33,260,20","I dig the not being able to tell what anything is but knowing everything is supposed to be something,46,120,20","Thats a lazy town,-8,280,20","too much going on, can't tell what it is,-14,140,20","feels free and loose,3,240,20","Claire","way too much going on,-33,260,20","Haley","I like this as a whole, but the longer I look at it, the less it pleases me,-10,220,20","Cassidy","too much going on, can't tell what it is,-14,140,20","2"
"22667","","survey-text","145","941906","0.0-144.0-0.0","A168B0VAQ1RXKB","","","","{""Q0"":""Soothing colors and very interesting composition. ""}","","","","","","","","","","","","","","","","","","","","","","",""
"2468","","image-slider-response","146","944377","0.0-145.0","A168B0VAQ1RXKB","","","","","14","","","","","","","","","","","","","","","","","","","","","",""
"2860","","image-button-response","147","949390","0.0-146.0","A168B0VAQ1RXKB","img_art/28.jpg","1","","","","","","","","","","","","","","","","","","","","","","","","",""
"992","","image-button-response","148","950386","0.0-147.0","A168B0VAQ1RXKB","img_art/28.jpg","1","","","","","","","","","","","","","","","","","","","","","","","","",""
"901","","image-button-response","149","951290","0.0-148.0-0.0","A168B0VAQ1RXKB","img_art/28.jpg","0","","","","","","","","","","","","","","","","","","","","","","","","",""
"8190","","image-button-response","150","959483","0.0-149.0-0.0","A168B0VAQ1RXKB","img_art/28.jpg","2","","","","","","","","","","","","","","","","","","","","","","","","",""
"null","","html-keyboard-response","151","960989","0.0-150.0","A168B0VAQ1RXKB","<p style=""font-size: 48px;"">+</p>","","","","","null","allTrialResponses","1500","1","15","img_art/28.jpg","14","Soothing colors and very interesting composition. ","Haley,Claire,Dominique,Emily,Cassidy,Stephanie","I can't explain why, but I really love this one,50,220,20","not a fan of the colors or strokes used,-27,260,20","This is one of my favorites. It says to me to take time for people,37,400,20","Incoherent ugly mess.,-50,40,20","Almost looks like child's artwork, sloppy and chaotic,6,140,20","The colors are neutral but I see a mother helping her child,31,300,20","Claire","not a fan of the colors or strokes used,-27,260,20","Haley","I can't explain why, but I really love this one,50,220,20","Dominique","This is one of my favorites. It says to me to take time for people,37,400,20","2"
"6202","","survey-text","152","967211","0.0-151.0-0.0","A168B0VAQ1RXKB","","","","{""Q0"":""course""}","","","","","","","","","","","","","","","","","","","","","","",""
"16638","","survey-text","153","983851","0.0-152.0-0.0","A168B0VAQ1RXKB","","","","{""Q0"":""Awful. Looks unfinished. ""}","","","","","","","","","","","","","","","","","","","","","","",""
"3140","","image-slider-response","154","986994","0.0-153.0","A168B0VAQ1RXKB","","","","","-48","","","","","","","","","","","","","","","","","","","","","",""
"null","","image-button-response","155","991997","0.0-154.0","A168B0VAQ1RXKB","img_art/5.jpg","null","","","","","","","","","","","","","","","","","","","","","","","","",""
"2372","","image-button-response","156","994370","0.0-155.0","A168B0VAQ1RXKB","img_art/5.jpg","3","","","","","","","","","","","","","","","","","","","","","","","","",""
"2301","","image-button-response","157","996674","0.0-156.0-0.0","A168B0VAQ1RXKB","img_art/5.jpg","5","","","","","","","","","","","","","","","","","","","","","","","","",""
"1821","","image-button-response","158","998499","0.0-157.0-0.0","A168B0VAQ1RXKB","img_art/5.jpg","1","","","","","","","","","","","","","","","","","","","","","","","","",""
"null","","html-keyboard-response","159","1000009","0.0-158.0","A168B0VAQ1RXKB","<p style=""font-size: 48px;"">+</p>","","","","","null","allTrialResponses","1500","1","16","img_art/5.jpg","-48","Awful. Looks unfinished. ","Haley,Claire,Dominique,Cynthia,Rachel,Allison","I'm confused by what I am looking at,-3,220,20","I like the strokes and colors used,20,260,20","It speaks volumes to some. It's also a conversational piece. And very different ideas,34,400,20","boring and unsure,-25,320,20","Not sure what to make of this one.,-1,80,20","Too loud. Dislike the bright yellow.,-5,140,20","Cynthia","boring and unsure,-25,320,20","Allison","Too loud. Dislike the bright yellow.,-5,140,20","Claire","I like the strokes and colors used,20,260,20","2"
"25268","","survey-text","160","1025290","0.0-159.0-0.0","A168B0VAQ1RXKB","","","","{""Q0"":""Looks like an autumn scene. I find it kind of soothing. ""}","","","","","","","","","","","","","","","","","","","","","","",""
"2372","","image-slider-response","161","1027666","0.0-160.0","A168B0VAQ1RXKB","","","","","10","","","","","","","","","","","","","","","","","","","","","",""
"null","","image-button-response","162","1032680","0.0-161.0","A168B0VAQ1RXKB","img_art/27.jpg","null","","","","","","","","","","","","","","","","","","","","","","","","",""
"4953","","image-button-response","163","1037634","0.0-162.0","A168B0VAQ1RXKB","img_art/27.jpg","5","","","","","","","","","","","","","","","","","","","","","","","","",""
"2662","","image-button-response","164","1040298","0.0-163.0-0.0","A168B0VAQ1RXKB","img_art/27.jpg","1","","","","","","","","","","","","","","","","","","","","","","","","",""
"1548","","image-button-response","165","1041850","0.0-164.0-0.0","A168B0VAQ1RXKB","img_art/27.jpg","2","","","","","","","","","","","","","","","","","","","","","","","","",""
"null","","html-keyboard-response","166","1043361","0.0-165.0","A168B0VAQ1RXKB","<p style=""font-size: 48px;"">+</p>","","","","","null","allTrialResponses","1500","1","17","img_art/27.jpg","10","Looks like an autumn scene. I find it kind of soothing. ","Kristen,Claire,Jordan,Cynthia,Katelyn,Allison","makes me think of fume clouds, low visibility,-28,280,20","looks like a little kid did it,-30,260,20","two warring cities, separated by a small desert,50,20,20","dirty and misunderstood,-47,320,20","Doesnt look like anything to me. Doesnt capture my attention.,-25,100,20","Warn colors are pretty, but too blotchy for me.,3,140,20","Allison","Warn colors are pretty, but too blotchy for me.,3,140,20","Claire","looks like a little kid did it,-30,260,20","Jordan","two warring cities, separated by a small desert,50,20,20","2"
"18205","","survey-text","167","1061578","0.0-166.0-0.0","A168B0VAQ1RXKB","","","","{""Q0"":""Love this. Really like the colors and the brush style. ""}","","","","","","","","","","","","","","","","","","","","","","",""
"2676","","image-slider-response","168","1064257","0.0-167.0","A168B0VAQ1RXKB","","","","","50","","","","","","","","","","","","","","","","","","","","","",""
"2686","","image-button-response","169","1069280","0.0-168.0","A168B0VAQ1RXKB","img_art/24.jpg","0","","","","","","","","","","","","","","","","","","","","","","","","",""
"536","","image-button-response","170","1069818","0.0-169.0","A168B0VAQ1RXKB","img_art/24.jpg","0","","","","","","","","","","","","","","","","","","","","","","","","",""
"892","","image-button-response","171","1070715","0.0-170.0-0.0","A168B0VAQ1RXKB","img_art/24.jpg","1","","","","","","","","","","","","","","","","","","","","","","","","",""
"5605","","image-button-response","172","1076323","0.0-171.0-0.0","A168B0VAQ1RXKB","img_art/24.jpg","4","","","","","","","","","","","","","","","","","","","","","","","","",""
"null","","html-keyboard-response","173","1077330","0.0-172.0","A168B0VAQ1RXKB","<p style=""font-size: 48px;"">+</p>","","","","","null","allTrialResponses","1000","1","18","img_art/24.jpg","50","Love this. Really like the colors and the brush style. ","Emma,Claire,Jordan,Heather,Andrea,Allison","Beautiful, good colors, love water,50,60,20","reminds me of a beautiful waterfall,50,260,20","It's beautiful! I love it! I see a waterfall, and they are my favorite things in the world,50,20,20","i feel peace and wanting. i love waterfalls,50,260,20","Waterfall, and I love the coloring.,48,240,20","I appreciate the earth tones. Soothing.,5,140,20","Emma","Beautiful, good colors, love water,50,60,20","Claire","reminds me of a beautiful waterfall,50,260,20","Andrea","Waterfall, and I love the coloring.,48,240,20","2"
"17340","","survey-text","174","1094682","0.0-173.0-0.0","A168B0VAQ1RXKB","","","","{""Q0"":""I like the composition but I don't like the color choices at all.""}","","","","","","","","","","","","","","","","","","","","","","",""
"4077","","image-slider-response","175","1098762","0.0-174.0","A168B0VAQ1RXKB","","","","","-3","","","","","","","","","","","","","","","","","","","","","",""
"3029","","image-button-response","176","1103780","0.0-175.0","A168B0VAQ1RXKB","img_art/12.jpg","0","","","","","","","","","","","","","","","","","","","","","","","","",""
"508","","image-button-response","177","1104291","0.0-176.0","A168B0VAQ1RXKB","img_art/12.jpg","0","","","","","","","","","","","","","","","","","","","","","","","","",""
"2190","","image-button-response","178","1106482","0.0-177.0-0.0","A168B0VAQ1RXKB","img_art/12.jpg","2","","","","","","","","","","","","","","","","","","","","","","","","",""
"6949","","image-button-response","179","1113434","0.0-178.0-0.0","A168B0VAQ1RXKB","img_art/12.jpg","3","","","","","","","","","","","","","","","","","","","","","","","","",""
"null","","html-keyboard-response","180","1114439","0.0-179.0","A168B0VAQ1RXKB","<p style=""font-size: 48px;"">+</p>","","","","","null","allTrialResponses","1000","1","19","img_art/12.jpg","-3","I like the composition but I don't like the color choices at all.","Emma,Claire,Morgan,Christina,Andrea,Erika","Pretty but not a huge fan of the colors,20,60,20","i like the repetition,30,260,20","Ugly color combinations, no focus.,-25,380,20","way too 90s/80s for me,-9,240,20","It just feels like a jigsaw puzzle,-4,240,20","I don't like it, but I appreciate the effort and technique,11,100,20","Emma","Pretty but not a huge fan of the colors,20,60,20","Morgan","Ugly color combinations, no focus.,-25,380,20","Christina","way too 90s/80s for me,-9,240,20","2"
"18103","","survey-text","181","1132553","0.0-180.0-0.0","A168B0VAQ1RXKB","","","","{""Q0"":""Don't like the design or the colors. Boring.""}","","","","","","","","","","","","","","","","","","","","","","",""
"2324","","image-slider-response","182","1134882","0.0-181.0","A168B0VAQ1RXKB","","","","","-16","","","","","","","","","","","","","","","","","","","","","",""
"null","","image-button-response","183","1139898","0.0-182.0","A168B0VAQ1RXKB","img_art/15.jpg","null","","","","","","","","","","","","","","","","","","","","","","","","",""
"2599","","image-button-response","184","1142499","0.0-183.0","A168B0VAQ1RXKB","img_art/15.jpg","4","","","","","","","","","","","","","","","","","","","","","","","","",""
"3412","","image-button-response","185","1145914","0.0-184.0-0.0","A168B0VAQ1RXKB","img_art/15.jpg","5","","","","","","","","","","","","","","","","","","","","","","","","",""
"3630","","image-button-response","186","1149547","0.0-185.0-0.0","A168B0VAQ1RXKB","img_art/15.jpg","0","","","","","","","","","","","","","","","","","","","","","","","","",""
"null","","html-keyboard-response","187","1150559","0.0-186.0","A168B0VAQ1RXKB","<p style=""font-size: 48px;"">+</p>","","","","","null","allTrialResponses","1000","1","20","img_art/15.jpg","-16","Don't like the design or the colors. Boring.","Emma,Jamie,Morgan,Christina,Ashley,Shelby","Don't love it but it's cute,16,60,20","Black and blue is my favorite color combination,35,320,20","Leafs spread on the ground.,27,380,20","I really like the colors,14,240,20","I think of birds, nature, levels of space.,18,320,20","This painting gives a calm vibe but no stronger emotions than that,10,240,20","Ashley","I think of birds, nature, levels of space.,18,320,20","Shelby","This painting gives a calm vibe but no stronger emotions than that,10,240,20","Emma","Don't love it but it's cute,16,60,20","2"
"10068","","survey-text","188","1160651","0.0-187.0-0.0","A168B0VAQ1RXKB","","","","{""Q0"":""we""}","","","","","","","","","","","","","","","","","","","","","","",""
"22430","","survey-text","189","1183082","0.0-188.0-0.0","A168B0VAQ1RXKB","","","","{""Q0"":""Love the composition and the use of color. Fascinating and intense. ""}","","","","","","","","","","","","","","","","","","","","","","",""
"3524","","image-slider-response","190","1186610","0.0-189.0","A168B0VAQ1RXKB","","","","","50","","","","","","","","","","","","","","","","","","","","","",""
"2685","","image-button-response","191","1191620","0.0-190.0","A168B0VAQ1RXKB","img_art/8.jpg","0","","","","","","","","","","","","","","","","","","","","","","","","",""
"1684","","image-button-response","192","1193307","0.0-191.0","A168B0VAQ1RXKB","img_art/8.jpg","0","","","","","","","","","","","","","","","","","","","","","","","","",""
"1776","","image-button-response","193","1195084","0.0-192.0-0.0","A168B0VAQ1RXKB","img_art/8.jpg","4","","","","","","","","","","","","","","","","","","","","","","","","",""
"2091","","image-button-response","194","1197178","0.0-193.0-0.0","A168B0VAQ1RXKB","img_art/8.jpg","2","","","","","","","","","","","","","","","","","","","","","","","","",""
"null","","html-keyboard-response","195","1198700","0.0-194.0","A168B0VAQ1RXKB","<p style=""font-size: 48px;"">+</p>","","","","","null","allTrialResponses","1500","1","21","img_art/8.jpg","50","Love the composition and the use of color. Fascinating and intense. ","Emma,Sara,Anna,Cheyenne,Ashley,Shelby","Love the colors & block-style,50,60,20","Very interesting use of blocks,21,160,20","The shapes and colors work well together.,40,300,20","Has nice depth to it.,12,200,20","Escher? Dali? Could be their lovechild?,50,320,20","Too much going on, too many colors, makes me feel uneasy,-20,240,20","Emma","Love the colors & block-style,50,60,20","Ashley","Escher? Dali? Could be their lovechild?,50,320,20","Anna","The shapes and colors work well together.,40,300,20","2"
"30002","","survey-text","196","1228714","0.0-195.0-0.0","A168B0VAQ1RXKB","","","","{""Q0"":""Looks like a a seed starting to sprout. Not terrible interesting but not offensive at all. ""}","","","","","","","","","","","","","","","","","","","","","","",""
"5605","","image-slider-response","197","1234322","0.0-196.0","A168B0VAQ1RXKB","","","","","2","","","","","","","","","","","","","","","","","","","","","",""
"null","","image-button-response","198","1239340","0.0-197.0","A168B0VAQ1RXKB","img_art/6.jpg","null","","","","","","","","","","","","","","","","","","","","","","","","",""
"3629","","image-button-response","199","1242971","0.0-198.0","A168B0VAQ1RXKB","img_art/6.jpg","4","","","","","","","","","","","","","","","","","","","","","","","","",""
"2989","","image-button-response","200","1245963","0.0-199.0-0.0","A168B0VAQ1RXKB","img_art/6.jpg","5","","","","","","","","","","","","","","","","","","","","","","","","",""
"4411","","image-button-response","201","1250378","0.0-200.0-0.0","A168B0VAQ1RXKB","img_art/6.jpg","1","","","","","","","","","","","","","","","","","","","","","","","","",""
"null","","html-keyboard-response","202","1251900","0.0-201.0","A168B0VAQ1RXKB","<p style=""font-size: 48px;"">+</p>","","","","","null","allTrialResponses","1500","1","22","img_art/6.jpg","2","Looks like a a seed starting to sprout. Not terrible interesting but not offensive at all. ","Emma,Sophia,Anna,Kaitlyn,Ashley,Breanna","Birds are cool but I don't love it,10,60,20","It's okay. It kind of looks like a bird with his head buried in his feathers.,2,280,20","It reminds me of a simplistic bird. I like the colors used.,40,300,20","I like the simplicity of the picture,30,80,20","A lot of people will lvoe this, I do not.,1,320,20","Not impressed, just very plain,-10,380,20","Ashley","A lot of people will lvoe this, I do not.,1,320,20","Breanna","Not impressed, just very plain,-10,380,20","Sophia","It's okay. It kind of looks like a bird with his head buried in his feathers.,2,280,20","2"
"30530","","survey-text","203","1282443","0.0-202.0-0.0","A168B0VAQ1RXKB","","","","{""Q0"":""Colors are too pale and makes the composition look dull and uninteresting. ""}","","","","","","","","","","","","","","","","","","","","","","",""
"3238","","image-slider-response","204","1285683","0.0-203.0","A168B0VAQ1RXKB","","","","","-14","","","","","","","","","","","","","","","","","","","","","",""
"null","","image-button-response","205","1290699","0.0-204.0","A168B0VAQ1RXKB","img_art/26.jpg","null","","","","","","","","","","","","","","","","","","","","","","","","",""
"5838","","image-button-response","206","1296539","0.0-205.0","A168B0VAQ1RXKB","img_art/26.jpg","4","","","","","","","","","","","","","","","","","","","","","","","","",""
"4343","","image-button-response","207","1300884","0.0-206.0-0.0","A168B0VAQ1RXKB","img_art/26.jpg","5","","","","","","","","","","","","","","","","","","","","","","","","",""
"1979","","image-button-response","208","1302866","0.0-207.0-0.0","A168B0VAQ1RXKB","img_art/26.jpg","3","","","","","","","","","","","","","","","","","","","","","","","","",""
"null","","html-keyboard-response","209","1303880","0.0-208.0","A168B0VAQ1RXKB","<p style=""font-size: 48px;"">+</p>","","","","","null","allTrialResponses","1000","1","23","img_art/26.jpg","-14","Colors are too pale and makes the composition look dull and uninteresting. ","Hailey,Sophia,Chelsea,Victoria,Ashley,Breanna","bedroom in the outdoors. warm,9,200,20","I like this. Looks like a city street and I can use my imagination to make it come alive.,15,280,20","I wish it were more pastel but I think it is relaxing to look at.,30,180,20","feels a tad old,30,400,20","Telented watercolor artist or second grader.,18,320,20","Splash of paint in an ordered way,7,380,20","Ashley","Telented watercolor artist or second grader.,18,320,20","Breanna","Splash of paint in an ordered way,7,380,20","Victoria","feels a tad old,30,400,20","2"
"19117","","survey-text","210","1323010","0.0-209.0-0.0","A168B0VAQ1RXKB","","","","{""Q0"":""I like the technique and it's an interesting composition.""}","","","","","","","","","","","","","","","","","","","","","","",""
"2380","","image-slider-response","211","1325394","0.0-210.0","A168B0VAQ1RXKB","","","","","11","","","","","","","","","","","","","","","","","","","","","",""
"null","","image-button-response","212","1330400","0.0-211.0","A168B0VAQ1RXKB","img_art/16.jpg","null","","","","","","","","","","","","","","","","","","","","","","","","",""
"1825","","image-button-response","213","1332226","0.0-212.0","A168B0VAQ1RXKB","img_art/16.jpg","2","","","","","","","","","","","","","","","","","","","","","","","","",""
"6101","","image-button-response","214","1338330","0.0-213.0-0.0","A168B0VAQ1RXKB","img_art/16.jpg","3","","","","","","","","","","","","","","","","","","","","","","","","",""
"853","","image-button-response","215","1339186","0.0-214.0-0.0","A168B0VAQ1RXKB","img_art/16.jpg","4","","","","","","","","","","","","","","","","","","","","","","","","",""
"null","","html-keyboard-response","216","1340200","0.0-215.0","A168B0VAQ1RXKB","<p style=""font-size: 48px;"">+</p>","","","","","null","allTrialResponses","1000","1","24","img_art/16.jpg","11","I like the technique and it's an interesting composition.","Kelly,Caitlin,Elizabeth,Victoria,Ashley,Breanna","Looks like someone got really high and did a bad photoshop job.,-27,220,20","It is sick to put a teddy bear and a gun on the same piece of canvas.,-40,80,20","Picture seems unique,12,20,20","liked the bear, nothing else made sense,10,400,20","A lot fo these could abstract or childrens work.,23,320,20","The bear is terrifying,-50,380,20","Elizabeth","Picture seems unique,12,20,20","Victoria","liked the bear, nothing else made sense,10,400,20","Ashley","A lot fo these could abstract or childrens work.,23,320,20","2"
"37222","","survey-text","217","1377434","0.0-216.0-0.0","A168B0VAQ1RXKB","","","","{""Q0"":""Kind of creepy. Maybe it's the green color that makes it a litle unsettling. ""}","","","","","","","","","","","","","","","","","","","","","","",""
"2774","","image-slider-response","218","1380212","0.0-217.0","A168B0VAQ1RXKB","","","","","-13","","","","","","","","","","","","","","","","","","","","","",""
"1580","","image-button-response","219","1385230","0.0-218.0","A168B0VAQ1RXKB","img_art/25.jpg","1","","","","","","","","","","","","","","","","","","","","","","","","",""
"618","","image-button-response","220","1385850","0.0-219.0","A168B0VAQ1RXKB","img_art/25.jpg","1","","","","","","","","","","","","","","","","","","","","","","","","",""
"1859","","image-button-response","221","1387714","0.0-220.0-0.0","A168B0VAQ1RXKB","img_art/25.jpg","3","","","","","","","","","","","","","","","","","","","","","","","","",""
"4013","","image-button-response","222","1391731","0.0-221.0-0.0","A168B0VAQ1RXKB","img_art/25.jpg","5","","","","","","","","","","","","","","","","","","","","","","","","",""
"null","","html-keyboard-response","223","1392250","0.0-222.0","A168B0VAQ1RXKB","<p style=""font-size: 48px;"">+</p>","","","","","null","allTrialResponses","500","1","25","img_art/25.jpg","-13","Kind of creepy. Maybe it's the green color that makes it a litle unsettling. ","Leah,Laura,Elizabeth,Victoria,Ashley,Alexa","I really like it, very simple, very tribal,38,360,20","I think of death,-28,320,20","Love the color hues and the texture it creates,50,20,20","makes me think of a scary movie,-20,400,20","haunting, a lovely impression.,50,320,20","It's really neat and cool looking,20,40,20","Laura","I think of death,-28,320,20","Victoria","makes me think of a scary movie,-20,400,20","Alexa","It's really neat and cool looking,20,40,20","2"
"5417","","survey-text","224","1397690","0.0-223.0-0.0","A168B0VAQ1RXKB","","","","{""Q0"":""table""}","","","","","","","","","","","","","","","","","","","","","","",""
"18294","","survey-text","225","1415986","0.0-224.0-0.0","A168B0VAQ1RXKB","","","","{""Q0"":""Don't like the colors and it just looks like random scribbling. ""}","","","","","","","","","","","","","","","","","","","","","","",""
"2764","","image-slider-response","226","1418754","0.0-225.0","A168B0VAQ1RXKB","","","","","-25","","","","","","","","","","","","","","","","","","","","","",""
"null","","image-button-response","227","1423770","0.0-226.0","A168B0VAQ1RXKB","img_art/9.jpg","null","","","","","","","","","","","","","","","","","","","","","","","","",""
"159","","image-button-response","228","1423930","0.0-227.0","A168B0VAQ1RXKB","img_art/9.jpg","2","","","","","","","","","","","","","","","","","","","","","","","","",""
"6629","","image-button-response","229","1430563","0.0-228.0-0.0","A168B0VAQ1RXKB","img_art/9.jpg","1","","","","","","","","","","","","","","","","","","","","","","","","",""
"3709","","image-button-response","230","1434274","0.0-229.0-0.0","A168B0VAQ1RXKB","img_art/9.jpg","5","","","","","","","","","","","","","","","","","","","","","","","","",""
"null","","html-keyboard-response","231","1435782","0.0-230.0","A168B0VAQ1RXKB","<p style=""font-size: 48px;"">+</p>","","","","","null","allTrialResponses","1500","1","26","img_art/9.jpg","-25","Don't like the colors and it just looks like random scribbling. ","Mackenzie,Laura,Natalie,Victoria,Michaela,Alexa","I enjoy the design, but the colors look waxy,-7,20,20","autopsy, morgue, dead corpses - don't like the flesh tones,-43,320,20","Gives me anxiety,-23,400,20","reminds me of a story book,18,400,20","The colors remind me of peacocks,24,260,20","It's wild and chaotic but also beautiful and has some kind of calming factor about it,20,40,20","Natalie","Gives me anxiety,-23,400,20","Laura","autopsy, morgue, dead corpses - don't like the flesh tones,-43,320,20","Alexa","It's wild and chaotic but also beautiful and has some kind of calming factor about it,20,40,20","2"
"21608","","survey-text","232","1457402","0.0-231.0-0.0","A168B0VAQ1RXKB","","","","{""Q0"":""Love the colors and the technique. Has tons of depth. ""}","","","","","","","","","","","","","","","","","","","","","","",""
"2364","","image-slider-response","233","1459770","0.0-232.0","A168B0VAQ1RXKB","","","","","30","","","","","","","","","","","","","","","","","","","","","",""
"2158","","image-button-response","234","1464791","0.0-233.0","A168B0VAQ1RXKB","img_art/13.jpg","1","","","","","","","","","","","","","","","","","","","","","","","","",""
"737","","image-button-response","235","1465531","0.0-234.0","A168B0VAQ1RXKB","img_art/13.jpg","1","","","","","","","","","","","","","","","","","","","","","","","","",""
"1189","","image-button-response","236","1466722","0.0-235.0-0.0","A168B0VAQ1RXKB","img_art/13.jpg","2","","","","","","","","","","","","","","","","","","","","","","","","",""
"5149","","image-button-response","237","1471874","0.0-236.0-0.0","A168B0VAQ1RXKB","img_art/13.jpg","5","","","","","","","","","","","","","","","","","","","","","","","","",""
"null","","html-keyboard-response","238","1473390","0.0-237.0","A168B0VAQ1RXKB","<p style=""font-size: 48px;"">+</p>","","","","","null","allTrialResponses","1500","1","27","img_art/13.jpg","30","Love the colors and the technique. Has tons of depth. ","Monica,Laura,Natalie,Angelica,Sabrina,Alexa","It's like any other splatter paint art piece, nothing special,1,360,20","water on my shower curtain - I feel refreshed, renewed,9,320,20","I like the colors,7,400,20","It's too violent looking and there's too much contrast between the white/black.,-21,280,20","I love the edgy nature,50,120,20","This looks like a staple bedroom or bathroom piece,41,40,20","Laura","water on my shower curtain - I feel refreshed, renewed,9,320,20","Natalie","I like the colors,7,400,20","Alexa","This looks like a staple bedroom or bathroom piece,41,40,20","2"
"21206","","survey-text","239","1494610","0.0-238.0-0.0","A168B0VAQ1RXKB","","","","{""Q0"":""Fascinating. I could look at this for an hour and still find something new.""}","","","","","","","","","","","","","","","","","","","","","","",""
"2581","","image-slider-response","240","1497194","0.0-239.0","A168B0VAQ1RXKB","","","","","50","","","","","","","","","","","","","","","","","","","","","",""
"null","","image-button-response","241","1502211","0.0-240.0","A168B0VAQ1RXKB","img_art/11.jpg","null","","","","","","","","","","","","","","","","","","","","","","","","",""
"822","","image-button-response","242","1503034","0.0-241.0","A168B0VAQ1RXKB","img_art/11.jpg","3","","","","","","","","","","","","","","","","","","","","","","","","",""
"2540","","image-button-response","243","1505578","0.0-242.0-0.0","A168B0VAQ1RXKB","img_art/11.jpg","4","","","","","","","","","","","","","","","","","","","","","","","","",""
"2176","","image-button-response","244","1507756","0.0-243.0-0.0","A168B0VAQ1RXKB","img_art/11.jpg","5","","","","","","","","","","","","","","","","","","","","","","","","",""
"null","","html-keyboard-response","245","1508759","0.0-244.0","A168B0VAQ1RXKB","<p style=""font-size: 48px;"">+</p>","","","","","null","allTrialResponses","1000","1","28","img_art/11.jpg","50","Fascinating. I could look at this for an hour and still find something new.","Kimberly,Laura,Natalie,Jenna,Abigail,Alexa","It's cables in a city,21,260,20","i think of beatnik music and dark piano lounges,25,320,20","pic looks alright,8,400,20","makes me think of city highways & bridges on a rainy, foggy day. I like the melancholy it evokes.,43,360,20","Rainy highways in RI,20,20,20","There's a lot going on in this painting but it is pleasing and neat looking,31,40,20","Jenna","makes me think of city highways & bridges on a rainy, foggy day. I like the melancholy it evokes.,43,360,20","Abigail","Rainy highways in RI,20,20,20","Alexa","There's a lot going on in this painting but it is pleasing and neat looking,31,40,20","2"
"37827","","survey-text","246","1546601","0.0-245.0-0.0","A168B0VAQ1RXKB","","","","{""Q0"":""Not wild about this. Not much of interest and the colors are too monochromatic. ""}","","","","","","","","","","","","","","","","","","","","","","",""
"2493","","image-slider-response","247","1549098","0.0-246.0","A168B0VAQ1RXKB","","","","","-13","","","","","","","","","","","","","","","","","","","","","",""
"null","","image-button-response","248","1554101","0.0-247.0","A168B0VAQ1RXKB","img_art/4.jpg","null","","","","","","","","","","","","","","","","","","","","","","","","",""
"972","","image-button-response","249","1555075","0.0-248.0","A168B0VAQ1RXKB","img_art/4.jpg","2","","","","","","","","","","","","","","","","","","","","","","","","",""
"4749","","image-button-response","250","1559826","0.0-249.0-0.0","A168B0VAQ1RXKB","img_art/4.jpg","4","","","","","","","","","","","","","","","","","","","","","","","","",""
"925","","image-button-response","251","1560754","0.0-250.0-0.0","A168B0VAQ1RXKB","img_art/4.jpg","5","","","","","","","","","","","","","","","","","","","","","","","","",""
"null","","html-keyboard-response","252","1561259","0.0-251.0","A168B0VAQ1RXKB","<p style=""font-size: 48px;"">+</p>","","","","","null","allTrialResponses","500","1","29","img_art/4.jpg","-13","Not wild about this. Not much of interest and the colors are too monochromatic. ","Sierra,Amanda,Chloe,Jenna,Abigail,Alexa","it looks like a deformed hand,-9,260,20","Looks like an abstract version of the Scream painting,-50,180,20","Great movement but don't love the yellowy tones.,31,220,20","creepy, looks like a deformed hand, but the background is pretty,5,360,20","A hand reaching for something it cannot obtain,-9,20,20","A bit too plain for my tastes,-10,40,20","Chloe","Great movement but don't love the yellowy tones.,31,220,20","Abigail","A hand reaching for something it cannot obtain,-9,20,20","Alexa","A bit too plain for my tastes,-10,40,20","2"
"30993","","survey-text","253","1592267","0.0-252.0-0.0","A168B0VAQ1RXKB","","","","{""Q0"":""Not wild about the background colors but I love the white foreground. Looks like a symphony orchestra. ""}","","","","","","","","","","","","","","","","","","","","","","",""
"3588","","image-slider-response","254","1595859","0.0-253.0","A168B0VAQ1RXKB","","","","","21","","","","","","","","","","","","","","","","","","","","","",""
"null","","image-button-response","255","1600874","0.0-254.0","A168B0VAQ1RXKB","img_art/23.jpg","null","","","","","","","","","","","","","","","","","","","","","","","","",""
"3599","","image-button-response","256","1604475","0.0-255.0","A168B0VAQ1RXKB","img_art/23.jpg","4","","","","","","","","","","","","","","","","","","","","","","","","",""
"1461","","image-button-response","257","1605939","0.0-256.0-0.0","A168B0VAQ1RXKB","img_art/23.jpg","5","","","","","","","","","","","","","","","","","","","","","","","","",""
"5205","","image-button-response","258","1611146","0.0-257.0-0.0","A168B0VAQ1RXKB","img_art/23.jpg","1","","","","","","","","","","","","","","","","","","","","","","","","",""
"null","","html-keyboard-response","259","1612650","0.0-258.0","A168B0VAQ1RXKB","<p style=""font-size: 48px;"">+</p>","","","","","null","allTrialResponses","1500","1","30","img_art/23.jpg","21","Not wild about the background colors but I love the white foreground. Looks like a symphony orchestra. ","Bailey,Sarah,Chloe,Paige,Abigail,Alexa","Not a fan of these dot pieces. They hurt my eyes.,-25,360,20","it's not uninteresting, but i'm not responding to it,-7,180,20","Poster shop camp.,-40,220,20","Does not incite any emotional response,1,60,20","I like the contrast,29,20,20","Very colorful and wild. It's cool and I like it,32,40,20","Abigail","I like the contrast,29,20,20","Alexa","Very colorful and wild. It's cool and I like it,32,40,20","Sarah","it's not uninteresting, but i'm not responding to it,-7,180,20","2"
"3595","","image-button-response_instructions","260","1616258","0.0-259.0","A168B0VAQ1RXKB","","0","instructions","","","","","","","","","","","","","","","","","","","","","","","",""
