"rt","url","trial_type","trial_index","time_elapsed","internal_node_id","participant_id","stimulus","button_pressed","Name","responses","response","key_press","variableName","fixationTime","condition","trial","photo","subjectRating","subjectResponse","agentsNames","agent_1_Response","agent_2_Response","agent_3_Response","agent_4_Response","agent_5_Response","agent_6_Response","kept_1_name","kept_1_response","kept_2_name","kept_2_response","kept_3_name","kept_3_response","errorCounter"
"164880","external_page_harvard.html","external-html","0","164980","0.0-0.0","A17AMTRIYI2Z2D","","","","","","","","","","","","","","","","","","","","","","","","","","",""
"1513","","image-button-response","1","166495","0.0-1.0","A17AMTRIYI2Z2D","","0","","","","","","","","","","","","","","","","","","","","","","","","",""
"1962","","image-button-response","2","168462","0.0-2.0-0.0","A17AMTRIYI2Z2D","","1","phone","","","","","","","","","","","","","","","","","","","","","","","",""
"4849","","survey-text","3","173312","0.0-3.0-0.0","A17AMTRIYI2Z2D","","","","{""Q0"":""A17AMTRIYI2Z2D""}","","","","","","","","","","","","","","","","","","","","","","",""
"12482","","image-button-response_instructions","4","185795","0.0-4.0","A17AMTRIYI2Z2D","","0","instructions","","","","","","","","","","","","","","","","","","","","","","","",""
"49118","","image-button-response_instructions","5","234915","0.0-5.0","A17AMTRIYI2Z2D","img_art/ins/popularity/ins1.png","0","instructions","","","","","","","","","","","","","","","","","","","","","","","",""
"7316","","image-button-response_instructions","6","242232","0.0-6.0","A17AMTRIYI2Z2D","img_art/ins/popularity/ins2.png","0","instructions","","","","","","","","","","","","","","","","","","","","","","","",""
"7948","","image-button-response_instructions","7","250182","0.0-7.0","A17AMTRIYI2Z2D","img_art/ins/popularity/ins2Extreme.png","0","instructions","","","","","","","","","","","","","","","","","","","","","","","",""
"26682","","image-button-response_instructions","8","276865","0.0-8.0","A17AMTRIYI2Z2D","img_art/ins/popularity/ins3KEEPpop.PNG","0","instructions","","","","","","","","","","","","","","","","","","","","","","","",""
"11249","","image-button-response_instructions","9","288115","0.0-9.0","A17AMTRIYI2Z2D","img_art/ins/popularity/ins3ANamepop.PNG","0","instructions","","","","","","","","","","","","","","","","","","","","","","","",""
"5232","","image-button-response_instructions","10","293348","0.0-10.0","A17AMTRIYI2Z2D","img_art/ins/popularity/ins3ARatingpop.png","0","instructions","","","","","","","","","","","","","","","","","","","","","","","",""
"4565","","image-button-response_instructions","11","297916","0.0-11.0","A17AMTRIYI2Z2D","img_art/ins/popularity/ins3ATextpop.png","0","instructions","","","","","","","","","","","","","","","","","","","","","","","",""
"8379","","image-button-response_instructions","12","306296","0.0-12.0","A17AMTRIYI2Z2D","img_art/ins/popularity/ins3ALikespop.png","0","instructions","","","","","","","","","","","","","","","","","","","","","","","",""
"18898","","image-button-response_instructions","13","325195","0.0-13.0","A17AMTRIYI2Z2D","img_art/ins/popularity/ins3KEEPpop.PNG","0","instructions","","","","","","","","","","","","","","","","","","","","","","","",""
"21250","","image-button-response_instructions","14","346446","0.0-14.0","A17AMTRIYI2Z2D","img_art/ins/popularity/ins3_5RED.png","0","instructions","","","","","","","","","","","","","","","","","","","","","","","",""
"8948","","image-button-response_instructions","15","355396","0.0-15.0","A17AMTRIYI2Z2D","img_art/ins/popularity/ins3KEEPpop.PNG","0","instructions","","","","","","","","","","","","","","","","","","","","","","","",""
"13286","","image-button-response_instructions","16","368683","0.0-16.0","A17AMTRIYI2Z2D","img_art/ins/popularity/ins4KEEPpop.PNG","0","instructions","","","","","","","","","","","","","","","","","","","","","","","",""
"6965","","image-button-response_instructions","17","375649","0.0-17.0","A17AMTRIYI2Z2D","img_art/ins/popularity/ins5KEEPpop.PNG","0","instructions","","","","","","","","","","","","","","","","","","","","","","","",""
"1766","","image-button-response_instructions","18","377416","0.0-18.0","A17AMTRIYI2Z2D","","0","instructions","","","","","","","","","","","","","","","","","","","","","","","",""
"6408","","survey-text","19","383849","0.0-19.0-0.0","A17AMTRIYI2Z2D","","","","{""Q0"":""but""}","","","","","","","","","","","","","","","","","","","","","","",""
"34580","","survey-text","20","418430","0.0-20.0-0.0","A17AMTRIYI2Z2D","","","","{""Q0"":""It is very frenzied and fast moving.""}","","","","","","","","","","","","","","","","","","","","","","",""
"35699","","image-slider-response","21","454133","0.0-21.0","A17AMTRIYI2Z2D","","","","","15","","","","","","","","","","","","","","","","","","","","","",""
"null","","image-button-response","22","459135","0.0-22.0","A17AMTRIYI2Z2D","img_art/ins/1.jpg","null","","","","","","","","","","","","","","","","","","","","","","","","",""
"6797","","image-button-response","23","465933","0.0-23.0","A17AMTRIYI2Z2D","img_art/ins/1.jpg","1","","","","","","","","","","","","","","","","","","","","","","","","",""
"6682","","image-button-response","24","472617","0.0-24.0-0.0","A17AMTRIYI2Z2D","img_art/ins/1.jpg","5","","","","","","","","","","","","","","","","","","","","","","","","",""
"2197","","image-button-response","25","474816","0.0-25.0-0.0","A17AMTRIYI2Z2D","img_art/ins/1.jpg","3","","","","","","","","","","","","","","","","","","","","","","","","",""
"null","","html-keyboard-response","26","475319","0.0-26.0","A17AMTRIYI2Z2D","<p style=""font-size: 48px;"">+</p>","","","","","null","allTrialResponses","500","1","-2","img_art/ins/1.jpg","15","It is very frenzied and fast moving.","Adam,Alex,Ben,Carl,Daniel,Jack","Seems like doodles,-20,20,20","very creative work.,36,40,20","This color reminds me of poo,-46,60,20","very calming artwork,42,80,20","It looks like a murder scene.,-48,100,20","I like the sophisticated brushwork,40,120,20","Alex","very creative work.,36,40,20","Jack","I like the sophisticated brushwork,40,120,20","Carl","very calming artwork,42,80,20","0"
"28957","","survey-text","27","504281","0.0-27.0-0.0","A17AMTRIYI2Z2D","","","","{""Q0"":""Warm and inviting work""}","","","","","","","","","","","","","","","","","","","","","","",""
"9216","","image-slider-response","28","513497","0.0-28.0","A17AMTRIYI2Z2D","","","","","30","","","","","","","","","","","","","","","","","","","","","",""
"null","","image-button-response","29","518500","0.0-29.0","A17AMTRIYI2Z2D","img_art/ins/2.jpg","null","","","","","","","","","","","","","","","","","","","","","","","","",""
"2280","","image-button-response","30","520781","0.0-30.0","A17AMTRIYI2Z2D","img_art/ins/2.jpg","3","","","","","","","","","","","","","","","","","","","","","","","","",""
"6799","","image-button-response","31","527581","0.0-31.0-0.0","A17AMTRIYI2Z2D","img_art/ins/2.jpg","1","","","","","","","","","","","","","","","","","","","","","","","","",""
"12466","","image-button-response","32","540049","0.0-32.0-0.0","A17AMTRIYI2Z2D","img_art/ins/2.jpg","4","","","","","","","","","","","","","","","","","","","","","","","","",""
"null","","html-keyboard-response","33","541049","0.0-33.0","A17AMTRIYI2Z2D","<p style=""font-size: 48px;"">+</p>","","","","","null","allTrialResponses","1000","1","-1","img_art/ins/2.jpg","30","Warm and inviting work","James,Alex,Kyle,Carl,John,Jack","looks too angry,-50,140,20","I like the blocks of color arrangements,30,40,20","Idk, it is just annoying,-32,180,20","I can feel the artist's passion in it,45,80,20","love the texture of paint,48,160,20","I would never be able to compose a sophisticated pallete like this,48,120,20","Carl","I can feel the artist's passion in it,45,80,20","Alex","I like the blocks of color arrangements,30,40,20","John","love the texture of paint,48,160,20","0"
"41448","","survey-text","34","582501","0.0-34.0-0.0","A17AMTRIYI2Z2D","","","","{""Q0"":""Cool, very chilling, I shivered when I first looked at it.""}","","","","","","","","","","","","","","","","","","","","","","",""
"7911","","image-slider-response","35","590415","0.0-35.0","A17AMTRIYI2Z2D","","","","","40","","","","","","","","","","","","","","","","","","","","","",""
"null","","image-button-response","36","595417","0.0-36.0","A17AMTRIYI2Z2D","img_art/ins/3.jpg","null","","","","","","","","","","","","","","","","","","","","","","","","",""
"6967","","image-button-response","37","602384","0.0-37.0","A17AMTRIYI2Z2D","img_art/ins/3.jpg","0","","","","","","","","","","","","","","","","","","","","","","","","",""
"4349","","image-button-response","38","606734","0.0-38.0-0.0","A17AMTRIYI2Z2D","img_art/ins/3.jpg","5","","","","","","","","","","","","","","","","","","","","","","","","",""
"3115","","image-button-response","39","609851","0.0-39.0-0.0","A17AMTRIYI2Z2D","img_art/ins/3.jpg","1","","","","","","","","","","","","","","","","","","","","","","","","",""
"null","","html-keyboard-response","40","610852","0.0-40.0","A17AMTRIYI2Z2D","<p style=""font-size: 48px;"">+</p>","","","","","null","allTrialResponses","1000","1","0","img_art/ins/3.jpg","40","Cool, very chilling, I shivered when I first looked at it.","Mike,Alex,Ron,Carl,John,Sam","enjoy the different shades of blue,22,200,20","calming blue is very nice,36,40,20","It looks depressing,-26,220,20","It's an alright work,15,80,20","I like the overlapping of brushes,41,160,20","I can feel a rainy day from this painting,18,240,20","Mike","enjoy the different shades of blue,22,200,20","Sam","I can feel a rainy day from this painting,18,240,20","Alex","calming blue is very nice,36,40,20","0"
"9542","","image-button-response_instructions","41","620398","0.0-41.0","A17AMTRIYI2Z2D","","0","instructions","","","","","","","","","","","","","","","","","","","","","","","",""
"15637","","survey-likert","42","636037","0.0-42.0-0.0","A17AMTRIYI2Z2D","","","","{""Q0"":"""",""Q1"":0,""Q2"":1}","","","","","","","","","","","","","","","","","","","","","","",""
"4895","","survey-text","43","640935","0.0-43.0-0.0","A17AMTRIYI2Z2D","","","","{""Q0"":""rock""}","","","","","","","","","","","","","","","","","","","","","","",""
"42879","","survey-text","44","683815","0.0-44.0-0.0","A17AMTRIYI2Z2D","","","","{""Q0"":""Very messy and uninspiring.""}","","","","","","","","","","","","","","","","","","","","","","",""
"8951","","image-slider-response","45","692768","0.0-45.0","A17AMTRIYI2Z2D","","","","","-40","","","","","","","","","","","","","","","","","","","","","",""
"null","","image-button-response","46","697781","0.0-46.0","A17AMTRIYI2Z2D","img_art/29.jpg","null","","","","","","","","","","","","","","","","","","","","","","","","",""
"4471","","image-button-response","47","702252","0.0-47.0","A17AMTRIYI2Z2D","img_art/29.jpg","0","","","","","","","","","","","","","","","","","","","","","","","","",""
"11763","","image-button-response","48","714016","0.0-48.0-0.0","A17AMTRIYI2Z2D","img_art/29.jpg","3","","","","","","","","","","","","","","","","","","","","","","","","",""
"5418","","image-button-response","49","719435","0.0-49.0-0.0","A17AMTRIYI2Z2D","img_art/29.jpg","5","","","","","","","","","","","","","","","","","","","","","","","","",""
"null","","html-keyboard-response","50","720437","0.0-50.0","A17AMTRIYI2Z2D","<p style=""font-size: 48px;"">+</p>","","","","","null","allTrialResponses","1000","1","1","img_art/29.jpg","-40","Very messy and uninspiring.","Joshua,Alex,Ryan,Carlos,Aaron,Anthony","I don't like the red X through it.,-20,240,20","The texture really stands out, this is an interesting composition,6,100,20","Once again, very modern, activists will love,27,380,20","It feels like looking through layers of frustration.,19,80,20","I like the texture and colors and how it makes me feel. I like how it's different from other abstract art.,45,20,20","Very interesting composition,41,200,20","Joshua","I don't like the red X through it.,-20,240,20","Carlos","It feels like looking through layers of frustration.,19,80,20","Anthony","Very interesting composition,41,200,20","0"
"57808","","survey-text","51","778250","0.0-51.0-0.0","A17AMTRIYI2Z2D","","","","{""Q0"":""Beautiful back ground colors, but I don't know about the scribbles.""}","","","","","","","","","","","","","","","","","","","","","","",""
"8551","","image-slider-response","52","786803","0.0-52.0","A17AMTRIYI2Z2D","","","","","10","","","","","","","","","","","","","","","","","","","","","",""
"null","","image-button-response","53","791804","0.0-53.0","A17AMTRIYI2Z2D","img_art/27.jpg","null","","","","","","","","","","","","","","","","","","","","","","","","",""
"3231","","image-button-response","54","795035","0.0-54.0","A17AMTRIYI2Z2D","img_art/27.jpg","3","","","","","","","","","","","","","","","","","","","","","","","","",""
"8015","","image-button-response","55","803053","0.0-55.0-0.0","A17AMTRIYI2Z2D","img_art/27.jpg","1","","","","","","","","","","","","","","","","","","","","","","","","",""
"12832","","image-button-response","56","815886","0.0-56.0-0.0","A17AMTRIYI2Z2D","img_art/27.jpg","4","","","","","","","","","","","","","","","","","","","","","","","","",""
"null","","html-keyboard-response","57","817387","0.0-57.0","A17AMTRIYI2Z2D","<p style=""font-size: 48px;"">+</p>","","","","","null","allTrialResponses","1500","1","2","img_art/27.jpg","10","Beautiful back ground colors, but I don't know about the scribbles.","Joshua,Kevin,Bradley,Carlos,Jonathan,Anthony","Reminds me of something I'd see in a gold frame from the Eighties.,-9,240,20","A fall mess going on here,2,320,20","Yikes. I think I made this in kindergarten.,-20,300,20","The green lines disrupt the image in an unpleasant and hurried way.,-30,80,20","Very cool colors and I like the contrast of lights and darks,30,140,20","Somewhat boring piece,-3,200,20","Carlos","The green lines disrupt the image in an unpleasant and hurried way.,-30,80,20","Kevin","A fall mess going on here,2,320,20","Jonathan","Very cool colors and I like the contrast of lights and darks,30,140,20","0"
"38263","","survey-text","58","855653","0.0-58.0-0.0","A17AMTRIYI2Z2D","","","","{""Q0"":""Interesting flow, the picture gets deeper the longer you look.""}","","","","","","","","","","","","","","","","","","","","","","",""
"7911","","image-slider-response","59","863567","0.0-59.0","A17AMTRIYI2Z2D","","","","","45","","","","","","","","","","","","","","","","","","","","","",""
"3235","","image-button-response","60","868569","0.0-60.0","A17AMTRIYI2Z2D","img_art/11.jpg","0","","","","","","","","","","","","","","","","","","","","","","","","",""
"9999","","image-button-response","61","878569","0.0-61.0","A17AMTRIYI2Z2D","img_art/11.jpg","4","","","","","","","","","","","","","","","","","","","","","","","","",""
"4763","","image-button-response","62","883334","0.0-62.0-0.0","A17AMTRIYI2Z2D","img_art/11.jpg","3","","","","","","","","","","","","","","","","","","","","","","","","",""
"1182","","image-button-response","63","884517","0.0-63.0-0.0","A17AMTRIYI2Z2D","img_art/11.jpg","0","","","","","","","","","","","","","","","","","","","","","","","","",""
"null","","html-keyboard-response","64","886019","0.0-64.0","A17AMTRIYI2Z2D","<p style=""font-size: 48px;"">+</p>","","","","","null","allTrialResponses","1500","1","3","img_art/11.jpg","45","Interesting flow, the picture gets deeper the longer you look.","Marcus,Kevin,Christian,Carlos,Jonathan,Sean","I like this one very much, especially the shades of gray.,30,60,20","Thats a creepy old rollercoasters abandoned,-2,320,20","to me, perfect reflection of the modern commute,32,140,20","The colors are lovely. February getting ready to yield to March.,41,80,20","Those vertical strokes are to die for and I love these colors !!!,50,140,20","pic looks alright,8,40,20","Jonathan","Those vertical strokes are to die for and I love these colors !!!,50,140,20","Carlos","The colors are lovely. February getting ready to yield to March.,41,80,20","Marcus","I like this one very much, especially the shades of gray.,30,60,20","0"
"47331","","survey-text","65","933354","0.0-65.0-0.0","A17AMTRIYI2Z2D","","","","{""Q0"":""I like the way the distortion can mean several things.""}","","","","","","","","","","","","","","","","","","","","","","",""
"7078","","image-slider-response","66","940434","0.0-66.0","A17AMTRIYI2Z2D","","","","","30","","","","","","","","","","","","","","","","","","","","","",""
"null","","image-button-response","67","945436","0.0-67.0","A17AMTRIYI2Z2D","img_art/4.jpg","null","","","","","","","","","","","","","","","","","","","","","","","","",""
"6751","","image-button-response","68","952187","0.0-68.0","A17AMTRIYI2Z2D","img_art/4.jpg","0","","","","","","","","","","","","","","","","","","","","","","","","",""
"3446","","image-button-response","69","955634","0.0-69.0-0.0","A17AMTRIYI2Z2D","img_art/4.jpg","3","","","","","","","","","","","","","","","","","","","","","","","","",""
"17268","","image-button-response","70","972904","0.0-70.0-0.0","A17AMTRIYI2Z2D","img_art/4.jpg","1","","","","","","","","","","","","","","","","","","","","","","","","",""
"null","","html-keyboard-response","71","973405","0.0-71.0","A17AMTRIYI2Z2D","<p style=""font-size: 48px;"">+</p>","","","","","null","allTrialResponses","500","1","4","img_art/4.jpg","30","I like the way the distortion can mean several things.","Marcus,Paul,Miguel,Carlos,Jonathan,Tyler","Really like the colors, but don't like the object/squiggle in darker gold and black,4,60,20","The dark yellow color makes me think of mustard, which I dislike,-27,300,20","I don't like murky colors.,-40,160,20","Movement. Snakes. Hair. The uncertainty makes my eye return.,21,80,20","Mcdonald's french fries :(,-40,140,20","This is what makes suburban dads say, ""my 4-year-old can do that."",-49,320,20","Marcus","Really like the colors, but don't like the object/squiggle in darker gold and black,4,60,20","Carlos","Movement. Snakes. Hair. The uncertainty makes my eye return.,21,80,20","Paul","The dark yellow color makes me think of mustard, which I dislike,-27,300,20","0"
"27329","","survey-text","72","1000737","0.0-72.0-0.0","A17AMTRIYI2Z2D","","","","{""Q0"":""A simple, yet multi-layed scene.""}","","","","","","","","","","","","","","","","","","","","","","",""
"8366","","image-slider-response","73","1009105","0.0-73.0","A17AMTRIYI2Z2D","","","","","25","","","","","","","","","","","","","","","","","","","","","",""
"null","","image-button-response","74","1014107","0.0-74.0","A17AMTRIYI2Z2D","img_art/6.jpg","null","","","","","","","","","","","","","","","","","","","","","","","","",""
"864","","image-button-response","75","1014971","0.0-75.0","A17AMTRIYI2Z2D","img_art/6.jpg","3","","","","","","","","","","","","","","","","","","","","","","","","",""
"9246","","image-button-response","76","1024219","0.0-76.0-0.0","A17AMTRIYI2Z2D","img_art/6.jpg","0","","","","","","","","","","","","","","","","","","","","","","","","",""
"5868","","image-button-response","77","1030088","0.0-77.0-0.0","A17AMTRIYI2Z2D","img_art/6.jpg","2","","","","","","","","","","","","","","","","","","","","","","","","",""
"null","","html-keyboard-response","78","1031089","0.0-78.0","A17AMTRIYI2Z2D","<p style=""font-size: 48px;"">+</p>","","","","","null","allTrialResponses","1000","1","5","img_art/6.jpg","25","A simple, yet multi-layed scene.","Marcus,Paul,Jorge,Carlos,Scott,Shane","I like the orange color, and I don't know why but I like this piece.,22,60,20","Maybe it's supposed to be a bird but it looks like a scary cloaked figure. it's just too simple and jarring,-23,300,20","seeds of change,11,180,20","Clean and simple, a pleasant resting place for the eyes.,21,80,20","reminds me of a bird,31,20,20","A bird standing in the sun,37,80,20","Carlos","Clean and simple, a pleasant resting place for the eyes.,21,80,20","Marcus","I like the orange color, and I don't know why but I like this piece.,22,60,20","Jorge","seeds of change,11,180,20","0"
"4375","","survey-text","79","1035471","0.0-79.0-0.0","A17AMTRIYI2Z2D","","","","{""Q0"":""sky""}","","","","","","","","","","","","","","","","","","","","","","",""
"32717","","survey-text","80","1068189","0.0-80.0-0.0","A17AMTRIYI2Z2D","","","","{""Q0"":""Beautiful use of contrast and colors.""}","","","","","","","","","","","","","","","","","","","","","","",""
"6115","","image-slider-response","81","1074304","0.0-81.0","A17AMTRIYI2Z2D","","","","","40","","","","","","","","","","","","","","","","","","","","","",""
"4616","","image-button-response","82","1079306","0.0-82.0","A17AMTRIYI2Z2D","img_art/17.jpg","1","","","","","","","","","","","","","","","","","","","","","","","","",""
"3581","","image-button-response","83","1082889","0.0-83.0","A17AMTRIYI2Z2D","img_art/17.jpg","3","","","","","","","","","","","","","","","","","","","","","","","","",""
"9098","","image-button-response","84","1091989","0.0-84.0-0.0","A17AMTRIYI2Z2D","img_art/17.jpg","2","","","","","","","","","","","","","","","","","","","","","","","","",""
"5131","","image-button-response","85","1097122","0.0-85.0-0.0","A17AMTRIYI2Z2D","img_art/17.jpg","1","","","","","","","","","","","","","","","","","","","","","","","","",""
"null","","html-keyboard-response","86","1098623","0.0-86.0","A17AMTRIYI2Z2D","<p style=""font-size: 48px;"">+</p>","","","","","null","allTrialResponses","1500","1","6","img_art/17.jpg","40","Beautiful use of contrast and colors.","Marcus,John,Jorge,Carlos,Bryce,Tristan","I like this, but it's a bit bland.,10,60,20","It gorgeous and i love how the tree is almost 3 dimensional.So many elements to it.,50,120,20","battle between nature and man,31,180,20","It feels like nature overtaking civilization.,21,80,20","Doesnt really do anythingb for me.,4,20,20","peaceful. contemplative. balanced. old,10,300,20","Carlos","It feels like nature overtaking civilization.,21,80,20","Jorge","battle between nature and man,31,180,20","John","It gorgeous and i love how the tree is almost 3 dimensional.So many elements to it.,50,120,20","0"
"27125","","survey-text","87","1125753","0.0-87.0-0.0","A17AMTRIYI2Z2D","","","","{""Q0"":""Good use of abstraction coloring.""}","","","","","","","","","","","","","","","","","","","","","","",""
"5715","","image-slider-response","88","1131469","0.0-88.0","A17AMTRIYI2Z2D","","","","","20","","","","","","","","","","","","","","","","","","","","","",""
"null","","image-button-response","89","1136471","0.0-89.0","A17AMTRIYI2Z2D","img_art/22.jpg","null","","","","","","","","","","","","","","","","","","","","","","","","",""
"1547","","image-button-response","90","1138019","0.0-90.0","A17AMTRIYI2Z2D","img_art/22.jpg","3","","","","","","","","","","","","","","","","","","","","","","","","",""
"2500","","image-button-response","91","1140520","0.0-91.0-0.0","A17AMTRIYI2Z2D","img_art/22.jpg","5","","","","","","","","","","","","","","","","","","","","","","","","",""
"5731","","image-button-response","92","1146252","0.0-92.0-0.0","A17AMTRIYI2Z2D","img_art/22.jpg","1","","","","","","","","","","","","","","","","","","","","","","","","",""
"null","","html-keyboard-response","93","1147755","0.0-93.0","A17AMTRIYI2Z2D","<p style=""font-size: 48px;"">+</p>","","","","","null","allTrialResponses","1500","1","7","img_art/22.jpg","20","Good use of abstraction coloring.","Christopher,John,Jorge,Carlos,Isaac,Michael","boring, too many red and yellow tones for my taste,-15,160,20","Its okay,it doesnt make me feel any sort of strong emotion,1,120,20","A key to the unknown,15,180,20","The colors are pleasant, the shapes are inviting.,21,80,20","The colors clash, and I don't know what is happening.,-23,280,20","There is some flow and organization.,10,140,20","Carlos","The colors are pleasant, the shapes are inviting.,21,80,20","Michael","There is some flow and organization.,10,140,20","John","Its okay,it doesnt make me feel any sort of strong emotion,1,120,20","0"
"68531","","survey-text","94","1216289","0.0-94.0-0.0","A17AMTRIYI2Z2D","","","","{""Q0"":""I like the colors of the scene quite a bit, the paint dots on the bottom are weird though.""}","","","","","","","","","","","","","","","","","","","","","","",""
"6898","","image-slider-response","95","1223190","0.0-95.0","A17AMTRIYI2Z2D","","","","","40","","","","","","","","","","","","","","","","","","","","","",""
"null","","image-button-response","96","1228191","0.0-96.0","A17AMTRIYI2Z2D","img_art/21.jpg","null","","","","","","","","","","","","","","","","","","","","","","","","",""
"398","","image-button-response","97","1228590","0.0-97.0","A17AMTRIYI2Z2D","img_art/21.jpg","0","","","","","","","","","","","","","","","","","","","","","","","","",""
"11215","","image-button-response","98","1239806","0.0-98.0-0.0","A17AMTRIYI2Z2D","img_art/21.jpg","4","","","","","","","","","","","","","","","","","","","","","","","","",""
"2265","","image-button-response","99","1242073","0.0-99.0-0.0","A17AMTRIYI2Z2D","img_art/21.jpg","1","","","","","","","","","","","","","","","","","","","","","","","","",""
"null","","html-keyboard-response","100","1243575","0.0-100.0","A17AMTRIYI2Z2D","<p style=""font-size: 48px;"">+</p>","","","","","null","allTrialResponses","1500","1","8","img_art/21.jpg","40","I like the colors of the scene quite a bit, the paint dots on the bottom are weird though.","Cameron,John,Luke,Carlos,Ethan,Michael","Like the colors. Don't like the white dots on the right side of the painting though.,15,60,20","I like the colors that were used and the stark contrast between the two sides,25,120,20","the vast colors make me happy,15,20,20","Motion, the light marks in the lower right corner are very appealing.,15,80,20","This is lovely. I like the mix of colors, the warn and cool slowly combining.,39,120,20","What's the point?,-30,140,20","Cameron","Like the colors. Don't like the white dots on the right side of the painting though.,15,60,20","Ethan","This is lovely. I like the mix of colors, the warn and cool slowly combining.,39,120,20","John","I like the colors that were used and the stark contrast between the two sides,25,120,20","0"
"12928","","survey-text","101","1256506","0.0-101.0-0.0","A17AMTRIYI2Z2D","","","","{""Q0"":""A simple watercolor""}","","","","","","","","","","","","","","","","","","","","","","",""
"6832","","image-slider-response","102","1263340","0.0-102.0","A17AMTRIYI2Z2D","","","","","5","","","","","","","","","","","","","","","","","","","","","",""
"null","","image-button-response","103","1268341","0.0-103.0","A17AMTRIYI2Z2D","img_art/26.jpg","null","","","","","","","","","","","","","","","","","","","","","","","","",""
"1311","","image-button-response","104","1269653","0.0-104.0","A17AMTRIYI2Z2D","img_art/26.jpg","3","","","","","","","","","","","","","","","","","","","","","","","","",""
"9502","","image-button-response","105","1279156","0.0-105.0-0.0","A17AMTRIYI2Z2D","img_art/26.jpg","0","","","","","","","","","","","","","","","","","","","","","","","","",""
"2632","","image-button-response","106","1281790","0.0-106.0-0.0","A17AMTRIYI2Z2D","img_art/26.jpg","5","","","","","","","","","","","","","","","","","","","","","","","","",""
"null","","html-keyboard-response","107","1282791","0.0-107.0","A17AMTRIYI2Z2D","<p style=""font-size: 48px;"">+</p>","","","","","null","allTrialResponses","1000","1","9","img_art/26.jpg","5","A simple watercolor","Cameron,John,Derek,Noah,Ethan,Jesus","street scene is okay?,15,60,20","Its pretty.And a nice use of water colors.,25,120,20","Looks messy and like it was painted by a small child,-48,360,20","fairly neutral, really,8,260,20","I can tell it's some sort of outdoor scene. It looks very amateurish.,-9,120,20","Very interesting to look at, I like the shapes, textures and colors.,30,100,20","Noah","fairly neutral, really,8,260,20","Cameron","street scene is okay?,15,60,20","Jesus","Very interesting to look at, I like the shapes, textures and colors.,30,100,20","0"
"36479","","survey-text","108","1319274","0.0-108.0-0.0","A17AMTRIYI2Z2D","","","","{""Q0"":""Like the flowing water through the scene.""}","","","","","","","","","","","","","","","","","","","","","","",""
"6447","","image-slider-response","109","1325723","0.0-109.0","A17AMTRIYI2Z2D","","","","","25","","","","","","","","","","","","","","","","","","","","","",""
"null","","image-button-response","110","1330725","0.0-110.0","A17AMTRIYI2Z2D","img_art/24.jpg","null","","","","","","","","","","","","","","","","","","","","","","","","",""
"6895","","image-button-response","111","1337621","0.0-111.0","A17AMTRIYI2Z2D","img_art/24.jpg","0","","","","","","","","","","","","","","","","","","","","","","","","",""
"4002","","image-button-response","112","1341624","0.0-112.0-0.0","A17AMTRIYI2Z2D","img_art/24.jpg","5","","","","","","","","","","","","","","","","","","","","","","","","",""
"2215","","image-button-response","113","1343840","0.0-113.0-0.0","A17AMTRIYI2Z2D","img_art/24.jpg","0","","","","","","","","","","","","","","","","","","","","","","","","",""
"5974","","image-button-response","114","1355672","0.0-113.1-0.1","A17AMTRIYI2Z2D","img_art/24.jpg","4","","","","","","","","","","","","","","","","","","","","","","","","",""
"null","","html-keyboard-response","115","1356172","0.0-114.0","A17AMTRIYI2Z2D","<p style=""font-size: 48px;"">+</p>","","","","","null","allTrialResponses","500","1","10","img_art/24.jpg","25","Like the flowing water through the scene.","Cameron,Nathaniel,Jacob,Noah,Lucas,Jesus","Mountain stream pineapple texture?,30,60,20","Feels surreal, in a way, and vibrant,37,220,20","Vibrant, beautiful depiction.,50,340,20","this evokes a gutural reaction - it displeases me how similar it is to art I saw growing up,-30,260,20","Extraordinary and unusual.,30,380,20","I like the vivid colors and different textures,32,100,20","Cameron","Mountain stream pineapple texture?,30,60,20","Jesus","I like the vivid colors and different textures,32,100,20","Lucas","Extraordinary and unusual.,30,380,20","2"
"4542","","survey-text","116","1360722","0.0-115.0-0.0","A17AMTRIYI2Z2D","","","","{""Q0"":""our""}","","","","","","","","","","","","","","","","","","","","","","",""
"33833","","survey-text","117","1394555","0.0-116.0-0.0","A17AMTRIYI2Z2D","","","","{""Q0"":""Wonderful abtract cubist shapes.""}","","","","","","","","","","","","","","","","","","","","","","",""
"7551","","image-slider-response","118","1402108","0.0-117.0","A17AMTRIYI2Z2D","","","","","35","","","","","","","","","","","","","","","","","","","","","",""
"3731","","image-button-response","119","1407109","0.0-118.0","A17AMTRIYI2Z2D","img_art/8.jpg","3","","","","","","","","","","","","","","","","","","","","","","","","",""
"1197","","image-button-response","120","1408307","0.0-119.0","A17AMTRIYI2Z2D","img_art/8.jpg","3","","","","","","","","","","","","","","","","","","","","","","","","",""
"3250","","image-button-response","121","1411558","0.0-120.0-0.0","A17AMTRIYI2Z2D","img_art/8.jpg","4","","","","","","","","","","","","","","","","","","","","","","","","",""
"1279","","image-button-response","122","1412839","0.0-121.0-0.0","A17AMTRIYI2Z2D","img_art/8.jpg","5","","","","","","","","","","","","","","","","","","","","","","","","",""
"null","","html-keyboard-response","123","1413339","0.0-122.0","A17AMTRIYI2Z2D","<p style=""font-size: 48px;"">+</p>","","","","","null","allTrialResponses","500","1","11","img_art/8.jpg","35","Wonderful abtract cubist shapes.","Cameron,Joseph,Dylan,Travis,Lucas,Jesus","what's going on here. looks like scary town.,-25,60,20","The faces are kinda freaky.,-17,220,20","The colors are nice but the big face in the sky is creepy,-11,40,20","I like the colors and the scene.,24,260,20","Different styles make this picture outstanding.,20,380,20","The different shapes are fun to look for.,30,100,20","Travis","I like the colors and the scene.,24,260,20","Lucas","Different styles make this picture outstanding.,20,380,20","Jesus","The different shapes are fun to look for.,30,100,20","2"
"32364","","survey-text","124","1445707","0.0-123.0-0.0","A17AMTRIYI2Z2D","","","","{""Q0"":""Dull background and uninspriing colors""}","","","","","","","","","","","","","","","","","","","","","","",""
"8832","","image-slider-response","125","1454541","0.0-124.0","A17AMTRIYI2Z2D","","","","","-25","","","","","","","","","","","","","","","","","","","","","",""
"null","","image-button-response","126","1459543","0.0-125.0","A17AMTRIYI2Z2D","img_art/30.jpg","null","","","","","","","","","","","","","","","","","","","","","","","","",""
"3031","","image-button-response","127","1462574","0.0-126.0","A17AMTRIYI2Z2D","img_art/30.jpg","3","","","","","","","","","","","","","","","","","","","","","","","","",""
"2916","","image-button-response","128","1465492","0.0-127.0-0.0","A17AMTRIYI2Z2D","img_art/30.jpg","1","","","","","","","","","","","","","","","","","","","","","","","","",""
"2864","","image-button-response","129","1468359","0.0-128.0-0.0","A17AMTRIYI2Z2D","img_art/30.jpg","2","","","","","","","","","","","","","","","","","","","","","","","","",""
"null","","html-keyboard-response","130","1469359","0.0-129.0","A17AMTRIYI2Z2D","<p style=""font-size: 48px;"">+</p>","","","","","null","allTrialResponses","1000","1","12","img_art/30.jpg","-25","Dull background and uninspriing colors","Ian,Brandon,Peter,Travis,Lucas,Jesus","It looks like it was made by pre-k students.,-30,260,20","Too abstract, looks like something I could paint,-50,320,20","I feel nothing towards,-1,320,20","I didn't like this...it looks like someone just finger painted it.,-10,260,20","I like the way the artist has painted his work.,40,380,20","I like the forefront design.,10,100,20","Travis","I didn't like this...it looks like someone just finger painted it.,-10,260,20","Brandon","Too abstract, looks like something I could paint,-50,320,20","Peter","I feel nothing towards,-1,320,20","2"
"43212","","survey-text","131","1512575","0.0-130.0-0.0","A17AMTRIYI2Z2D","","","","{""Q0"":""Very busy, but somewhat pleasing.""}","","","","","","","","","","","","","","","","","","","","","","",""
"5062","","image-slider-response","132","1517639","0.0-131.0","A17AMTRIYI2Z2D","","","","","15","","","","","","","","","","","","","","","","","","","","","",""
"2501","","image-button-response","133","1522640","0.0-132.0","A17AMTRIYI2Z2D","img_art/19.jpg","0","","","","","","","","","","","","","","","","","","","","","","","","",""
"751","","image-button-response","134","1523392","0.0-133.0","A17AMTRIYI2Z2D","img_art/19.jpg","0","","","","","","","","","","","","","","","","","","","","","","","","",""
"8479","","image-button-response","135","1531872","0.0-134.0-0.0","A17AMTRIYI2Z2D","img_art/19.jpg","3","","","","","","","","","","","","","","","","","","","","","","","","",""
"6000","","image-button-response","136","1537876","0.0-135.0-0.0","A17AMTRIYI2Z2D","img_art/19.jpg","4","","","","","","","","","","","","","","","","","","","","","","","","",""
"null","","html-keyboard-response","137","1539376","0.0-136.0","A17AMTRIYI2Z2D","<p style=""font-size: 48px;"">+</p>","","","","","null","allTrialResponses","1500","1","13","img_art/19.jpg","15","Very busy, but somewhat pleasing.","Grant,Brandon,Peter,Travis,Charles,Alexander","It's a cute city scene, but nothing special.,10,200,20","Not a fan of the blobbiness,-22,320,20","Looks like hustle and bustle ,,3,320,20","Nuetral...can't think of anything to say,4,260,20","The blue makes it look like it has depth,11,100,20","Messy pantry full of food.,5,120,20","Grant","It's a cute city scene, but nothing special.,10,200,20","Travis","Nuetral...can't think of anything to say,4,260,20","Charles","The blue makes it look like it has depth,11,100,20","2"
"27076","","survey-text","138","1566456","0.0-137.0-0.0","A17AMTRIYI2Z2D","","","","{""Q0"":""I like the inset scene""}","","","","","","","","","","","","","","","","","","","","","","",""
"4235","","image-slider-response","139","1570692","0.0-138.0","A17AMTRIYI2Z2D","","","","","25","","","","","","","","","","","","","","","","","","","","","",""
"null","","image-button-response","140","1575694","0.0-139.0","A17AMTRIYI2Z2D","img_art/9.jpg","null","","","","","","","","","","","","","","","","","","","","","","","","",""
"2148","","image-button-response","141","1577842","0.0-140.0","A17AMTRIYI2Z2D","img_art/9.jpg","0","","","","","","","","","","","","","","","","","","","","","","","","",""
"5265","","image-button-response","142","1583109","0.0-141.0-0.0","A17AMTRIYI2Z2D","img_art/9.jpg","2","","","","","","","","","","","","","","","","","","","","","","","","",""
"2382","","image-button-response","143","1585492","0.0-142.0-0.0","A17AMTRIYI2Z2D","img_art/9.jpg","5","","","","","","","","","","","","","","","","","","","","","","","","",""
"null","","html-keyboard-response","144","1586994","0.0-143.0","A17AMTRIYI2Z2D","<p style=""font-size: 48px;"">+</p>","","","","","null","allTrialResponses","1500","1","14","img_art/9.jpg","25","I like the inset scene","Grant,Patrick,Angel,Travis,Charles,Jason","The colors are pretty, and remind me of a circus.,5,200,20","Spiral patterns are not my thing,-30,280,20","This feels dreamy. Like I'm seeing inside someone's head while they're sleeping.,20,180,20","Stuipid looking...dumb,-48,260,20","It's too all over the place,-37,100,20","Focal point is interesting,2,20,20","Grant","The colors are pretty, and remind me of a circus.,5,200,20","Angel","This feels dreamy. Like I'm seeing inside someone's head while they're sleeping.,20,180,20","Jason","Focal point is interesting,2,20,20","2"
"36478","","survey-text","145","1623476","0.0-144.0-0.0","A17AMTRIYI2Z2D","","","","{""Q0"":""Very nice abstraction, I like how the colors blend.""}","","","","","","","","","","","","","","","","","","","","","","",""
"6616","","image-slider-response","146","1630093","0.0-145.0","A17AMTRIYI2Z2D","","","","","40","","","","","","","","","","","","","","","","","","","","","",""
"4299","","image-button-response","147","1635095","0.0-146.0","A17AMTRIYI2Z2D","img_art/28.jpg","1","","","","","","","","","","","","","","","","","","","","","","","","",""
"830","","image-button-response","148","1635926","0.0-147.0","A17AMTRIYI2Z2D","img_art/28.jpg","1","","","","","","","","","","","","","","","","","","","","","","","","",""
"4732","","image-button-response","149","1640660","0.0-148.0-0.0","A17AMTRIYI2Z2D","img_art/28.jpg","4","","","","","","","","","","","","","","","","","","","","","","","","",""
"3682","","image-button-response","150","1644343","0.0-149.0-0.0","A17AMTRIYI2Z2D","img_art/28.jpg","0","","","","","","","","","","","","","","","","","","","","","","","","",""
"null","","html-keyboard-response","151","1645845","0.0-150.0","A17AMTRIYI2Z2D","<p style=""font-size: 48px;"">+</p>","","","","","null","allTrialResponses","1500","1","15","img_art/28.jpg","40","Very nice abstraction, I like how the colors blend.","Grant,Stephen,Angel,Spencer,Thomas,Jason","The darker colors make this unnerving.,40,200,20","Good use of shapes.,7,140,20","My immediate reaction was to think of smog. It recalls choking on dirty air.,-20,180,20","Too me it's a mish mash, true abstract,-37,120,20","I can't explain why, but I really love this one,50,220,20","Not sure what way this picture is suppose to be oriented,-5,20,20","Stephen","Good use of shapes.,7,140,20","Thomas","I can't explain why, but I really love this one,50,220,20","Grant","The darker colors make this unnerving.,40,200,20","2"
"5857","","survey-text","152","1651709","0.0-151.0-0.0","A17AMTRIYI2Z2D","","","","{""Q0"":""course""}","","","","","","","","","","","","","","","","","","","","","","",""
"25650","","survey-text","153","1677360","0.0-152.0-0.0","A17AMTRIYI2Z2D","","","","{""Q0"":""The colors pop on this one.""}","","","","","","","","","","","","","","","","","","","","","","",""
"7964","","image-slider-response","154","1685326","0.0-153.0","A17AMTRIYI2Z2D","","","","","30","","","","","","","","","","","","","","","","","","","","","",""
"null","","image-button-response","155","1690328","0.0-154.0","A17AMTRIYI2Z2D","img_art/2.jpg","null","","","","","","","","","","","","","","","","","","","","","","","","",""
"1180","","image-button-response","156","1691510","0.0-155.0","A17AMTRIYI2Z2D","img_art/2.jpg","1","","","","","","","","","","","","","","","","","","","","","","","","",""
"6745","","image-button-response","157","1698257","0.0-156.0-0.0","A17AMTRIYI2Z2D","img_art/2.jpg","3","","","","","","","","","","","","","","","","","","","","","","","","",""
"4252","","image-button-response","158","1702510","0.0-157.0-0.0","A17AMTRIYI2Z2D","img_art/2.jpg","2","","","","","","","","","","","","","","","","","","","","","","","","",""
"null","","html-keyboard-response","159","1703012","0.0-158.0","A17AMTRIYI2Z2D","<p style=""font-size: 48px;"">+</p>","","","","","null","allTrialResponses","500","1","16","img_art/2.jpg","30","The colors pop on this one.","Grant,Stephen,Edward,Richard,Thomas,Devon","The colors are entirely unappealing and very unpleasant to look at.,-20,200,20","Colors mix nicely.,5,140,20","My immediate reaction was it looked like a class but then I saw a smile in the middle,11,60,20","doctor's office art work, nice colors and not offensive,23,340,20","My first thought was that it looks like a children's art project,-30,220,20","another confusing piece of art,-12,400,20","Stephen","Colors mix nicely.,5,140,20","Richard","doctor's office art work, nice colors and not offensive,23,340,20","Edward","My immediate reaction was it looked like a class but then I saw a smile in the middle,11,60,20","2"
"32976","","survey-text","160","1735991","0.0-159.0-0.0","A17AMTRIYI2Z2D","","","","{""Q0"":""The line flow on this is very interesting to me.""}","","","","","","","","","","","","","","","","","","","","","","",""
"5548","","image-slider-response","161","1741541","0.0-160.0","A17AMTRIYI2Z2D","","","","","30","","","","","","","","","","","","","","","","","","","","","",""
"null","","image-button-response","162","1746543","0.0-161.0","A17AMTRIYI2Z2D","img_art/10.jpg","null","","","","","","","","","","","","","","","","","","","","","","","","",""
"4731","","image-button-response","163","1751274","0.0-162.0","A17AMTRIYI2Z2D","img_art/10.jpg","2","","","","","","","","","","","","","","","","","","","","","","","","",""
"3432","","image-button-response","164","1754708","0.0-163.0-0.0","A17AMTRIYI2Z2D","img_art/10.jpg","3","","","","","","","","","","","","","","","","","","","","","","","","",""
"3065","","image-button-response","165","1757774","0.0-164.0-0.0","A17AMTRIYI2Z2D","img_art/10.jpg","5","","","","","","","","","","","","","","","","","","","","","","","","",""
"null","","html-keyboard-response","166","1759276","0.0-165.0","A17AMTRIYI2Z2D","<p style=""font-size: 48px;"">+</p>","","","","","null","allTrialResponses","1500","1","17","img_art/10.jpg","30","The line flow on this is very interesting to me.","Garrett,Stephen,Edward,Richard,Seth,Andrew","I can't tell what this picture is supposed to mean and I think the colors are lacking variety.,-42,180,20","Very nice painting, would like it more with different color choice.,6,140,20","It looks like it's sinking but it could also be a view from above,40,60,20","interesting portrayal of a violin?,10,340,20","It reminds me of the ocean. Almost like a battlefield, but on the water.,19,60,20","Makes me think of the exhilaration of a roller coaster,31,160,20","Edward","It looks like it's sinking but it could also be a view from above,40,60,20","Richard","interesting portrayal of a violin?,10,340,20","Andrew","Makes me think of the exhilaration of a roller coaster,31,160,20","2"
"30280","","survey-text","167","1789560","0.0-166.0-0.0","A17AMTRIYI2Z2D","","","","{""Q0"":""Very haphazard, no flow.""}","","","","","","","","","","","","","","","","","","","","","","",""
"7315","","image-slider-response","168","1796877","0.0-167.0","A17AMTRIYI2Z2D","","","","","-50","","","","","","","","","","","","","","","","","","","","","",""
"null","","image-button-response","169","1801879","0.0-168.0","A17AMTRIYI2Z2D","img_art/3.jpg","null","","","","","","","","","","","","","","","","","","","","","","","","",""
"1148","","image-button-response","170","1803028","0.0-169.0","A17AMTRIYI2Z2D","img_art/3.jpg","0","","","","","","","","","","","","","","","","","","","","","","","","",""
"3198","","image-button-response","171","1806227","0.0-170.0-0.0","A17AMTRIYI2Z2D","img_art/3.jpg","1","","","","","","","","","","","","","","","","","","","","","","","","",""
"8847","","image-button-response","172","1815075","0.0-171.0-0.0","A17AMTRIYI2Z2D","img_art/3.jpg","3","","","","","","","","","","","","","","","","","","","","","","","","",""
"null","","html-keyboard-response","173","1816577","0.0-172.0","A17AMTRIYI2Z2D","<p style=""font-size: 48px;"">+</p>","","","","","null","allTrialResponses","1500","1","18","img_art/3.jpg","-50","Very haphazard, no flow.","Robert,Nicholas,Edward,Richard,Nathan,Andrew","I think of an angry child,-50,360,20","Too angry and scribbly,-43,240,20","It looks like someone took a red sharpie and just scribbled angrily,-20,60,20","7th grade art, not much effort to do this.,-39,340,20","Looks like it was painted with blood, which I'm aware is an art style, but it just looks messy.,-20,200,20","It doesn't make me think of art,-20,160,20","Robert","I think of an angry child,-50,360,20","Nicholas","Too angry and scribbly,-43,240,20","Richard","7th grade art, not much effort to do this.,-39,340,20","2"
"46248","","survey-text","174","1862828","0.0-173.0-0.0","A17AMTRIYI2Z2D","","","","{""Q0"":""Nice scene, desert-like""}","","","","","","","","","","","","","","","","","","","","","","",""
"5582","","image-slider-response","175","1868411","0.0-174.0","A17AMTRIYI2Z2D","","","","","25","","","","","","","","","","","","","","","","","","","","","",""
"null","","image-button-response","176","1873413","0.0-175.0","A17AMTRIYI2Z2D","img_art/20.jpg","null","","","","","","","","","","","","","","","","","","","","","","","","",""
"5911","","image-button-response","177","1879326","0.0-176.0","A17AMTRIYI2Z2D","img_art/20.jpg","4","","","","","","","","","","","","","","","","","","","","","","","","",""
"3231","","image-button-response","178","1882558","0.0-177.0-0.0","A17AMTRIYI2Z2D","img_art/20.jpg","0","","","","","","","","","","","","","","","","","","","","","","","","",""
"5014","","image-button-response","179","1887576","0.0-178.0-0.0","A17AMTRIYI2Z2D","img_art/20.jpg","5","","","","","","","","","","","","","","","","","","","","","","","","",""
"null","","html-keyboard-response","180","1888077","0.0-179.0","A17AMTRIYI2Z2D","<p style=""font-size: 48px;"">+</p>","","","","","null","allTrialResponses","500","1","19","img_art/20.jpg","25","Nice scene, desert-like","Robert,Nicholas,Devin,Richard,Vincent,Adrian","Looks like an old gold mining down now deserted.,11,360,20","Use of white on foreground is too big and steals eyes away from rest of painting,2,240,20","Looks somewhat dark and emotional,-10,380,20","The white blob on the left seems out of place,-34,340,20","I love the colors and coukd spend alot of time with the picture,33,360,20","Not sure what it is. The colors are pleasant; makes me want to figure it out. An animal skull in the desert?,10,60,20","Vincent","I love the colors and coukd spend alot of time with the picture,33,360,20","Robert","Looks like an old gold mining down now deserted.,11,360,20","Adrian","Not sure what it is. The colors are pleasant; makes me want to figure it out. An animal skull in the desert?,10,60,20","2"
"74547","","survey-text","181","1962629","0.0-180.0-0.0","A17AMTRIYI2Z2D","","","","{""Q0"":""The figure is very prominent and seems to just jump out of the scene.""}","","","","","","","","","","","","","","","","","","","","","","",""
"5462","","image-slider-response","182","1968092","0.0-181.0","A17AMTRIYI2Z2D","","","","","40","","","","","","","","","","","","","","","","","","","","","",""
"null","","image-button-response","183","1973094","0.0-182.0","A17AMTRIYI2Z2D","img_art/25.jpg","null","","","","","","","","","","","","","","","","","","","","","","","","",""
"7450","","image-button-response","184","1980545","0.0-183.0","A17AMTRIYI2Z2D","img_art/25.jpg","5","","","","","","","","","","","","","","","","","","","","","","","","",""
"1848","","image-button-response","185","1982396","0.0-184.0-0.0","A17AMTRIYI2Z2D","img_art/25.jpg","0","","","","","","","","","","","","","","","","","","","","","","","","",""
"2431","","image-button-response","186","1984829","0.0-185.0-0.0","A17AMTRIYI2Z2D","img_art/25.jpg","1","","","","","","","","","","","","","","","","","","","","","","","","",""
"null","","html-keyboard-response","187","1985830","0.0-186.0","A17AMTRIYI2Z2D","<p style=""font-size: 48px;"">+</p>","","","","","null","allTrialResponses","1000","1","20","img_art/25.jpg","40","The figure is very prominent and seems to just jump out of the scene.","Robert,Jared,Tanner,Shawn,Vincent,Adrian","It made me think of healing.,22,360,20","the green is serene. the figure is scare crow like,7,400,20","reminds me of the grim reaper,3,180,20","Cheesy and unprofessional,-30,100,20","Iike this picture; it speaks to me on a personal level. But seems to scare the ones around me.,7,360,20","This piece makes me think of oppression and fighting it. Makes me feel calm, sad and strong.,11,60,20","Adrian","This piece makes me think of oppression and fighting it. Makes me feel calm, sad and strong.,11,60,20","Robert","It made me think of healing.,22,360,20","Jared","the green is serene. the figure is scare crow like,7,400,20","2"
"3491","","survey-text","188","1989329","0.0-187.0-0.0","A17AMTRIYI2Z2D","","","","{""Q0"":""we""}","","","","","","","","","","","","","","","","","","","","","","",""
"37315","","survey-text","189","2026645","0.0-188.0-0.0","A17AMTRIYI2Z2D","","","","{""Q0"":""Very birds in a bush or a tree like.""}","","","","","","","","","","","","","","","","","","","","","","",""
"5078","","image-slider-response","190","2031726","0.0-189.0","A17AMTRIYI2Z2D","","","","","20","","","","","","","","","","","","","","","","","","","","","",""
"null","","image-button-response","191","2036728","0.0-190.0","A17AMTRIYI2Z2D","img_art/15.jpg","null","","","","","","","","","","","","","","","","","","","","","","","","",""
"1518","","image-button-response","192","2038246","0.0-191.0","A17AMTRIYI2Z2D","img_art/15.jpg","2","","","","","","","","","","","","","","","","","","","","","","","","",""
"6132","","image-button-response","193","2044379","0.0-192.0-0.0","A17AMTRIYI2Z2D","img_art/15.jpg","3","","","","","","","","","","","","","","","","","","","","","","","","",""
"11499","","image-button-response","194","2055880","0.0-193.0-0.0","A17AMTRIYI2Z2D","img_art/15.jpg","4","","","","","","","","","","","","","","","","","","","","","","","","",""
"null","","html-keyboard-response","195","2056382","0.0-194.0","A17AMTRIYI2Z2D","<p style=""font-size: 48px;"">+</p>","","","","","null","allTrialResponses","500","1","21","img_art/15.jpg","20","Very birds in a bush or a tree like.","Robert,Jared,Kyle,Victor,Jeffrey,Adrian","This piece is too dark,-42,360,20","i cant find somthing ilike about it,-31,400,20","I like it as the colors complement each other well,21,340,20","I like the random blue dabs to break up the black, but it looks unfinished.,4,340,20","dark and I can not see a meaning behind it,-31,40,20","Not a fan. This piece would only go with very specific decor in a modern home.,-35,60,20","Kyle","I like it as the colors complement each other well,21,340,20","Victor","I like the random blue dabs to break up the black, but it looks unfinished.,4,340,20","Jeffrey","dark and I can not see a meaning behind it,-31,40,20","2"
"41510","","survey-text","196","2097896","0.0-195.0-0.0","A17AMTRIYI2Z2D","","","","{""Q0"":""Great spatter patterns contrast well with the background colors.""}","","","","","","","","","","","","","","","","","","","","","","",""
"6362","","image-slider-response","197","2104260","0.0-196.0","A17AMTRIYI2Z2D","","","","","35","","","","","","","","","","","","","","","","","","","","","",""
"null","","image-button-response","198","2109262","0.0-197.0","A17AMTRIYI2Z2D","img_art/13.jpg","null","","","","","","","","","","","","","","","","","","","","","","","","",""
"3032","","image-button-response","199","2112294","0.0-198.0","A17AMTRIYI2Z2D","img_art/13.jpg","2","","","","","","","","","","","","","","","","","","","","","","","","",""
"3317","","image-button-response","200","2115613","0.0-199.0-0.0","A17AMTRIYI2Z2D","img_art/13.jpg","3","","","","","","","","","","","","","","","","","","","","","","","","",""
"9532","","image-button-response","201","2125146","0.0-200.0-0.0","A17AMTRIYI2Z2D","img_art/13.jpg","0","","","","","","","","","","","","","","","","","","","","","","","","",""
"null","","html-keyboard-response","202","2125648","0.0-201.0","A17AMTRIYI2Z2D","<p style=""font-size: 48px;"">+</p>","","","","","null","allTrialResponses","500","1","22","img_art/13.jpg","35","Great spatter patterns contrast well with the background colors.","Jeremy,James,Kyle,Victor,Jeffrey,Mitchell","Pleased. I like to combination of colors,17,60,20","This is a very cool painting, something an art teacher or professor would own.,22,380,20","I like the colors together,17,340,20","Great color balance. I like the splatter, and how the vertical lines go from sharper to more blended.,31,340,20","Messy but organised, helps me to relax and observe,8,40,20","Magnified rain around trees. Beautiful happy colors. The little person on the right feels nature is huge.,45,180,20","Kyle","I like the colors together,17,340,20","Victor","Great color balance. I like the splatter, and how the vertical lines go from sharper to more blended.,31,340,20","Jeremy","Pleased. I like to combination of colors,17,60,20","2"
"31261","","survey-text","203","2156914","0.0-202.0-0.0","A17AMTRIYI2Z2D","","","","{""Q0"":""A rocky canyon with a few different paths.""}","","","","","","","","","","","","","","","","","","","","","","",""
"3915","","image-slider-response","204","2160830","0.0-203.0","A17AMTRIYI2Z2D","","","","","20","","","","","","","","","","","","","","","","","","","","","",""
"null","","image-button-response","205","2165832","0.0-204.0","A17AMTRIYI2Z2D","img_art/7.jpg","null","","","","","","","","","","","","","","","","","","","","","","","","",""
"2581","","image-button-response","206","2168414","0.0-205.0","A17AMTRIYI2Z2D","img_art/7.jpg","0","","","","","","","","","","","","","","","","","","","","","","","","",""
"2132","","image-button-response","207","2170547","0.0-206.0-0.0","A17AMTRIYI2Z2D","img_art/7.jpg","3","","","","","","","","","","","","","","","","","","","","","","","","",""
"4432","","image-button-response","208","2174980","0.0-207.0-0.0","A17AMTRIYI2Z2D","img_art/7.jpg","2","","","","","","","","","","","","","","","","","","","","","","","","",""
"null","","html-keyboard-response","209","2176483","0.0-208.0","A17AMTRIYI2Z2D","<p style=""font-size: 48px;"">+</p>","","","","","null","allTrialResponses","1500","1","23","img_art/7.jpg","20","A rocky canyon with a few different paths.","Jeremy,Brett,Kyle,Victor,Corey,Mark","Happy. Looking at the moon,43,60,20","No particular reaction to this,10,360,20","It just reminds me of dirt,-10,340,20","I like the texture,12,340,20","looks like a close up of irritated skin under a microscope,-49,260,20","Reminds me of mold. Repulsive.,-10,80,20","Jeremy","Happy. Looking at the moon,43,60,20","Victor","I like the texture,12,340,20","Kyle","It just reminds me of dirt,-10,340,20","2"
"32190","","survey-text","210","2208678","0.0-209.0-0.0","A17AMTRIYI2Z2D","","","","{""Q0"":""Colors are very warm and the scene seems to invite you in.""}","","","","","","","","","","","","","","","","","","","","","","",""
"7735","","image-slider-response","211","2216414","0.0-210.0","A17AMTRIYI2Z2D","","","","","45","","","","","","","","","","","","","","","","","","","","","",""
"null","","image-button-response","212","2221415","0.0-211.0","A17AMTRIYI2Z2D","img_art/1.jpg","null","","","","","","","","","","","","","","","","","","","","","","","","",""
"864","","image-button-response","213","2222281","0.0-212.0","A17AMTRIYI2Z2D","img_art/1.jpg","4","","","","","","","","","","","","","","","","","","","","","","","","",""
"1882","","image-button-response","214","2224164","0.0-213.0-0.0","A17AMTRIYI2Z2D","img_art/1.jpg","5","","","","","","","","","","","","","","","","","","","","","","","","",""
"1365","","image-button-response","215","2225531","0.0-214.0-0.0","A17AMTRIYI2Z2D","img_art/1.jpg","3","","","","","","","","","","","","","","","","","","","","","","","","",""
"null","","html-keyboard-response","216","2226032","0.0-215.0","A17AMTRIYI2Z2D","<p style=""font-size: 48px;"">+</p>","","","","","null","allTrialResponses","500","1","24","img_art/1.jpg","45","Colors are very warm and the scene seems to invite you in.","Jeremy,Blake,Kyle,Victor,Brendan,Jordan","fearful. Makes me think of fire,-10,60,20","colors that are fairly warm. its ok,8,280,20","Too similar to some of the other pieces,-18,340,20","I like the colors and layers,25,340,20","a colorful piece of art,25,340,20","I like the warmth of the picture,21,160,20","Brendan","a colorful piece of art,25,340,20","Jordan","I like the warmth of the picture,21,160,20","Victor","I like the colors and layers,25,340,20","2"
"39045","","survey-text","217","2265081","0.0-216.0-0.0","A17AMTRIYI2Z2D","","","","{""Q0"":""I like the shapes and the colors of this piece.""}","","","","","","","","","","","","","","","","","","","","","","",""
"4082","","image-slider-response","218","2269164","0.0-217.0","A17AMTRIYI2Z2D","","","","","35","","","","","","","","","","","","","","","","","","","","","",""
"null","","image-button-response","219","2274166","0.0-218.0","A17AMTRIYI2Z2D","img_art/12.jpg","null","","","","","","","","","","","","","","","","","","","","","","","","",""
"3681","","image-button-response","220","2277848","0.0-219.0","A17AMTRIYI2Z2D","img_art/12.jpg","3","","","","","","","","","","","","","","","","","","","","","","","","",""
"3348","","image-button-response","221","2281198","0.0-220.0-0.0","A17AMTRIYI2Z2D","img_art/12.jpg","0","","","","","","","","","","","","","","","","","","","","","","","","",""
"5965","","image-button-response","222","2287165","0.0-221.0-0.0","A17AMTRIYI2Z2D","img_art/12.jpg","5","","","","","","","","","","","","","","","","","","","","","","","","",""
"null","","html-keyboard-response","223","2288166","0.0-222.0","A17AMTRIYI2Z2D","<p style=""font-size: 48px;"">+</p>","","","","","null","allTrialResponses","1000","1","25","img_art/12.jpg","35","I like the shapes and the colors of this piece.","Cole,Adam,Jesse,Victor,Brendan,Jordan","Interesting colors. I really dont like modern art though,24,200,20","Minimalist colors and shapes.,-5,40,20","Just confuses me overall,-11,80,20","I like the colors and pattern,21,340,20","wtf is that i dont get it,-50,340,20","Made me uncomfortable, reminded me of the 90s,-9,160,20","Victor","I like the colors and pattern,21,340,20","Cole","Interesting colors. I really dont like modern art though,24,200,20","Jordan","Made me uncomfortable, reminded me of the 90s,-9,160,20","2"
"4789","","survey-text","224","2292965","0.0-223.0-0.0","A17AMTRIYI2Z2D","","","","{""Q0"":""table""}","","","","","","","","","","","","","","","","","","","","","","",""
"48766","","survey-text","225","2341732","0.0-224.0-0.0","A17AMTRIYI2Z2D","","","","{""Q0"":""The subject looks like they are melting out of the painting at you.""}","","","","","","","","","","","","","","","","","","","","","","",""
"4816","","image-slider-response","226","2346548","0.0-225.0","A17AMTRIYI2Z2D","","","","","30","","","","","","","","","","","","","","","","","","","","","",""
"null","","image-button-response","227","2351550","0.0-226.0","A17AMTRIYI2Z2D","img_art/18.jpg","null","","","","","","","","","","","","","","","","","","","","","","","","",""
"3315","","image-button-response","228","2354865","0.0-227.0","A17AMTRIYI2Z2D","img_art/18.jpg","5","","","","","","","","","","","","","","","","","","","","","","","","",""
"1831","","image-button-response","229","2356699","0.0-228.0-0.0","A17AMTRIYI2Z2D","img_art/18.jpg","0","","","","","","","","","","","","","","","","","","","","","","","","",""
"1829","","image-button-response","230","2358529","0.0-229.0-0.0","A17AMTRIYI2Z2D","img_art/18.jpg","2","","","","","","","","","","","","","","","","","","","","","","","","",""
"null","","html-keyboard-response","231","2359030","0.0-230.0","A17AMTRIYI2Z2D","<p style=""font-size: 48px;"">+</p>","","","","","null","allTrialResponses","500","1","26","img_art/18.jpg","30","The subject looks like they are melting out of the painting at you.","Cole,Samuel,Brian,Victor,Dakota,Jordan","Two people fighting with one watching,17,200,20","death rides in life,-25,400,20","Very classy, I feel like it's the apocalypse.,25,380,20","nice balance of color. The different sizes and types of strokes give a lot to look at,18,340,20","afraid and anxious,21,280,20","Interesting and capitvating to look at,19,160,20","Jordan","Interesting and capitvating to look at,19,160,20","Cole","Two people fighting with one watching,17,200,20","Brian","Very classy, I feel like it's the apocalypse.,25,380,20","2"
"18164","","survey-text","232","2377199","0.0-231.0-0.0","A17AMTRIYI2Z2D","","","","{""Q0"":""Very simple, too simple""}","","","","","","","","","","","","","","","","","","","","","","",""
"3865","","image-slider-response","233","2381065","0.0-232.0","A17AMTRIYI2Z2D","","","","","-30","","","","","","","","","","","","","","","","","","","","","",""
"null","","image-button-response","234","2386066","0.0-233.0","A17AMTRIYI2Z2D","img_art/14.jpg","null","","","","","","","","","","","","","","","","","","","","","","","","",""
"1898","","image-button-response","235","2387966","0.0-234.0","A17AMTRIYI2Z2D","img_art/14.jpg","2","","","","","","","","","","","","","","","","","","","","","","","","",""
"3232","","image-button-response","236","2391199","0.0-235.0-0.0","A17AMTRIYI2Z2D","img_art/14.jpg","0","","","","","","","","","","","","","","","","","","","","","","","","",""
"5449","","image-button-response","237","2396649","0.0-236.0-0.0","A17AMTRIYI2Z2D","img_art/14.jpg","3","","","","","","","","","","","","","","","","","","","","","","","","",""
"null","","html-keyboard-response","238","2398151","0.0-237.0","A17AMTRIYI2Z2D","<p style=""font-size: 48px;"">+</p>","","","","","null","allTrialResponses","1500","1","27","img_art/14.jpg","-30","Very simple, too simple","Cole,Kenneth,Brian,Daniel,Mason,Jordan","Simplistic. Looks like a child did it,14,200,20","Its cute, but not my favorite.,8,300,20","I don't care for the style,-38,380,20","Baby's room palette with tree confusion in a more confused substrate.,-15,320,20","ok, gloomy though.,12,100,20","Reminds me of art class,22,160,20","Brian","I don't care for the style,-38,380,20","Cole","Simplistic. Looks like a child did it,14,200,20","Daniel","Baby's room palette with tree confusion in a more confused substrate.,-15,320,20","2"
"19276","","survey-text","239","2417433","0.0-238.0-0.0","A17AMTRIYI2Z2D","","","","{""Q0"":""The styles contrast too much.""}","","","","","","","","","","","","","","","","","","","","","","",""
"6365","","image-slider-response","240","2423799","0.0-239.0","A17AMTRIYI2Z2D","","","","","-25","","","","","","","","","","","","","","","","","","","","","",""
"null","","image-button-response","241","2428801","0.0-240.0","A17AMTRIYI2Z2D","img_art/16.jpg","null","","","","","","","","","","","","","","","","","","","","","","","","",""
"1729","","image-button-response","242","2430530","0.0-241.0","A17AMTRIYI2Z2D","img_art/16.jpg","3","","","","","","","","","","","","","","","","","","","","","","","","",""
"1518","","image-button-response","243","2432049","0.0-242.0-0.0","A17AMTRIYI2Z2D","img_art/16.jpg","4","","","","","","","","","","","","","","","","","","","","","","","","",""
"3248","","image-button-response","244","2435299","0.0-243.0-0.0","A17AMTRIYI2Z2D","img_art/16.jpg","0","","","","","","","","","","","","","","","","","","","","","","","","",""
"null","","html-keyboard-response","245","2435800","0.0-244.0","A17AMTRIYI2Z2D","<p style=""font-size: 48px;"">+</p>","","","","","null","allTrialResponses","500","1","28","img_art/16.jpg","-25","The styles contrast too much.","Cole,Colton,Brian,Daniel,Alexis,Hunter","Weird mixed media piece,-50,200,20","the materials used are interesting,30,220,20","I love the teddy bear,50,380,20","Ugly, broken up and mismatched,-50,320,20","It looks very generic, like items were pasted onto the background,-38,140,20","so close to feeling intentional,-4,240,20","Daniel","Ugly, broken up and mismatched,-50,320,20","Alexis","It looks very generic, like items were pasted onto the background,-38,140,20","Cole","Weird mixed media piece,-50,200,20","2"
"36443","","survey-text","246","2472249","0.0-245.0-0.0","A17AMTRIYI2Z2D","","","","{""Q0"":""The background and foreground contrast nicely together.""}","","","","","","","","","","","","","","","","","","","","","","",""
"5531","","image-slider-response","247","2477782","0.0-246.0","A17AMTRIYI2Z2D","","","","","35","","","","","","","","","","","","","","","","","","","","","",""
"null","","image-button-response","248","2482785","0.0-247.0","A17AMTRIYI2Z2D","img_art/23.jpg","null","","","","","","","","","","","","","","","","","","","","","","","","",""
"3331","","image-button-response","249","2486116","0.0-248.0","A17AMTRIYI2Z2D","img_art/23.jpg","4","","","","","","","","","","","","","","","","","","","","","","","","",""
"2299","","image-button-response","250","2488416","0.0-249.0-0.0","A17AMTRIYI2Z2D","img_art/23.jpg","5","","","","","","","","","","","","","","","","","","","","","","","","",""
"5480","","image-button-response","251","2493897","0.0-250.0-0.0","A17AMTRIYI2Z2D","img_art/23.jpg","2","","","","","","","","","","","","","","","","","","","","","","","","",""
"null","","html-keyboard-response","252","2495398","0.0-251.0","A17AMTRIYI2Z2D","<p style=""font-size: 48px;"">+</p>","","","","","null","allTrialResponses","1500","1","29","img_art/23.jpg","35","The background and foreground contrast nicely together.","Cole,Taylor,Timothy,Daniel,Alexis,Bryan","White in the middle look like people dancing naked,19,200,20","SOME thought was put into this one.,5,200,20","This feels so energized, i love it,50,240,20","Too busy with color with warrior lineup,0,320,20","It looks like a parade of musicians full of excitement. Makes me feel upbeat,33,140,20","Looks like fireworks.,21,400,20","Alexis","It looks like a parade of musicians full of excitement. Makes me feel upbeat,33,140,20","Bryan","Looks like fireworks.,21,400,20","Timothy","This feels so energized, i love it,50,240,20","2"
"24263","","survey-text","253","2519666","0.0-252.0-0.0","A17AMTRIYI2Z2D","","","","{""Q0"":""Has more depth when you really look into it.""}","","","","","","","","","","","","","","","","","","","","","","",""
"6615","","image-slider-response","254","2526283","0.0-253.0","A17AMTRIYI2Z2D","","","","","20","","","","","","","","","","","","","","","","","","","","","",""
"null","","image-button-response","255","2531285","0.0-254.0","A17AMTRIYI2Z2D","img_art/5.jpg","null","","","","","","","","","","","","","","","","","","","","","","","","",""
"3247","","image-button-response","256","2534533","0.0-255.0","A17AMTRIYI2Z2D","img_art/5.jpg","3","","","","","","","","","","","","","","","","","","","","","","","","",""
"3849","","image-button-response","257","2538383","0.0-256.0-0.0","A17AMTRIYI2Z2D","img_art/5.jpg","0","","","","","","","","","","","","","","","","","","","","","","","","",""
"1349","","image-button-response","258","2539734","0.0-257.0-0.0","A17AMTRIYI2Z2D","img_art/5.jpg","4","","","","","","","","","","","","","","","","","","","","","","","","",""
"null","","html-keyboard-response","259","2540235","0.0-258.0","A17AMTRIYI2Z2D","<p style=""font-size: 48px;"">+</p>","","","","","null","allTrialResponses","500","1","30","img_art/5.jpg","20","Has more depth when you really look into it.","Steven,Dustin,Timothy,Jose,Alexis,Bryan","I dont really get anything from this,-25,160,20","I don't get it at all. But, maybe it is the top portion of a piece of fruit.,-50,20,20","This feels joyful,39,240,20","Don't love don't hate,8,200,20","I am confused as to what this is supposed to be,6,140,20","Looks like a yellow plastic trash bag.,-42,400,20","Jose","Don't love don't hate,8,200,20","Steven","I dont really get anything from this,-25,160,20","Alexis","I am confused as to what this is supposed to be,6,140,20","2"
"3443","","image-button-response_instructions","260","2543683","0.0-259.0","A17AMTRIYI2Z2D","","0","instructions","","","","","","","","","","","","","","","","","","","","","","","",""
