"rt","url","trial_type","trial_index","time_elapsed","internal_node_id","participant_id","stimulus","button_pressed","Name","responses","response","key_press","variableName","fixationTime","condition","trial","photo","subjectRating","subjectResponse","agentsNames","agent_1_Response","agent_2_Response","agent_3_Response","agent_4_Response","agent_5_Response","agent_6_Response","kept_1_name","kept_1_response","kept_2_name","kept_2_response","kept_3_name","kept_3_response","errorCounter"
"381415","external_page_harvard.html","external-html","0","382186","0.0-0.0","A17FYMZVQ56MGG","","","","","","","","","","","","","","","","","","","","","","","","","","",""
"3383","","image-button-response","1","385605","0.0-1.0","A17FYMZVQ56MGG","","1","","","","","","","","","","","","","","","","","","","","","","","","",""
"4130","","image-button-response","2","389760","0.0-2.0-0.0","A17FYMZVQ56MGG","","1","phone","","","","","","","","","","","","","","","","","","","","","","","",""
"17241","","survey-text","3","407013","0.0-3.0-0.0","A17FYMZVQ56MGG","","","","{""Q0"":""A17FYMZVQ56MGG""}","","","","","","","","","","","","","","","","","","","","","","",""
"128566","","image-button-response_instructions","4","535594","0.0-4.0","A17FYMZVQ56MGG","","0","instructions","","","","","","","","","","","","","","","","","","","","","","","",""
"54298","","image-button-response_instructions","5","589900","0.0-5.0","A17FYMZVQ56MGG","img_art/ins/popularity/ins1.png","0","instructions","","","","","","","","","","","","","","","","","","","","","","","",""
"22669","","image-button-response_instructions","6","612576","0.0-6.0","A17FYMZVQ56MGG","img_art/ins/popularity/ins2.png","0","instructions","","","","","","","","","","","","","","","","","","","","","","","",""
"7197","","image-button-response_instructions","7","619785","0.0-7.0","A17FYMZVQ56MGG","img_art/ins/popularity/ins2Extreme.png","0","instructions","","","","","","","","","","","","","","","","","","","","","","","",""
"55066","","image-button-response_instructions","8","674859","0.0-8.0","A17FYMZVQ56MGG","img_art/ins/popularity/ins3KEEPpop.PNG","0","instructions","","","","","","","","","","","","","","","","","","","","","","","",""
"5723","","image-button-response_instructions","9","680590","0.0-9.0","A17FYMZVQ56MGG","img_art/ins/popularity/ins3ANamepop.PNG","0","instructions","","","","","","","","","","","","","","","","","","","","","","","",""
"11709","","image-button-response_instructions","10","692307","0.0-10.0","A17FYMZVQ56MGG","img_art/ins/popularity/ins3ARatingpop.png","0","instructions","","","","","","","","","","","","","","","","","","","","","","","",""
"6042","","image-button-response_instructions","11","698354","0.0-11.0","A17FYMZVQ56MGG","img_art/ins/popularity/ins3ATextpop.png","0","instructions","","","","","","","","","","","","","","","","","","","","","","","",""
"51192","","image-button-response_instructions","12","749551","0.0-12.0","A17FYMZVQ56MGG","img_art/ins/popularity/ins3ALikespop.png","0","instructions","","","","","","","","","","","","","","","","","","","","","","","",""
"19218","","image-button-response_instructions","13","768792","0.0-13.0","A17FYMZVQ56MGG","img_art/ins/popularity/ins3KEEPpop.PNG","0","instructions","","","","","","","","","","","","","","","","","","","","","","","",""
"69047","","image-button-response_instructions","14","837845","0.0-14.0","A17FYMZVQ56MGG","img_art/ins/popularity/ins3_5RED.png","0","instructions","","","","","","","","","","","","","","","","","","","","","","","",""
"3966","","image-button-response_instructions","15","841818","0.0-15.0","A17FYMZVQ56MGG","img_art/ins/popularity/ins3KEEPpop.PNG","0","instructions","","","","","","","","","","","","","","","","","","","","","","","",""
"15834","","image-button-response_instructions","16","857658","0.0-16.0","A17FYMZVQ56MGG","img_art/ins/popularity/ins4KEEPpop.PNG","0","instructions","","","","","","","","","","","","","","","","","","","","","","","",""
"8660","","image-button-response_instructions","17","866325","0.0-17.0","A17FYMZVQ56MGG","img_art/ins/popularity/ins5KEEPpop.PNG","0","instructions","","","","","","","","","","","","","","","","","","","","","","","",""
"8654","","image-button-response_instructions","18","874991","0.0-18.0","A17FYMZVQ56MGG","","0","instructions","","","","","","","","","","","","","","","","","","","","","","","",""
"20739","","survey-text","19","895993","0.0-19.0-0.0","A17FYMZVQ56MGG","","","","{""Q0"":""but""}","","","","","","","","","","","","","","","","","","","","","","",""
"42505","","survey-text","20","938508","0.0-20.0-0.0","A17FYMZVQ56MGG","","","","{""Q0"":""looks like there was poop thrown on it""}","","","","","","","","","","","","","","","","","","","","","","",""
"9500","","image-slider-response","21","948030","0.0-21.0","A17FYMZVQ56MGG","","","","","-40","","","","","","","","","","","","","","","","","","","","","",""
"null","","image-button-response","22","953073","0.0-22.0","A17FYMZVQ56MGG","img_art/ins/1.jpg","null","","","","","","","","","","","","","","","","","","","","","","","","",""
"19042","","image-button-response","23","972126","0.0-23.0","A17FYMZVQ56MGG","img_art/ins/1.jpg","2","","","","","","","","","","","","","","","","","","","","","","","","",""
"1793","","image-button-response","24","973931","0.0-24.0-0.0","A17FYMZVQ56MGG","img_art/ins/1.jpg","1","","","","","","","","","","","","","","","","","","","","","","","","",""
"2129","","image-button-response","25","976078","0.0-25.0-0.0","A17FYMZVQ56MGG","img_art/ins/1.jpg","3","","","","","","","","","","","","","","","","","","","","","","","","",""
"null","","html-keyboard-response","26","977095","0.0-26.0","A17FYMZVQ56MGG","<p style=""font-size: 48px;"">+</p>","","","","","null","allTrialResponses","1000","1","-2","img_art/ins/1.jpg","-40","looks like there was poop thrown on it","Allison,Ashley,Beth,Dora,Erika,Jen","looks like a lot of things going on in the mist,20,20,20","I just don't get why these type of art would be popular,-32,40,20","This color reminds me of poo,-46,60,20","looks like what my niece in 3rd grade did this afternoon,-50,80,20","I like the sophisticated brushwork,40,100,20","It reminds me of a candy land dream I had,36,120,20","Beth","This color reminds me of poo,-46,60,20","Ashley","I just don't get why these type of art would be popular,-32,40,20","Dora","looks like what my niece in 3rd grade did this afternoon,-50,80,20","0"
"46168","","survey-text","27","1023323","0.0-27.0-0.0","A17FYMZVQ56MGG","","","","{""Q0"":""looks like a distorted pic og a beer mug""}","","","","","","","","","","","","","","","","","","","","","","",""
"5702.100000143051","","image-slider-response","28","1029038","0.0-28.0","A17FYMZVQ56MGG","","","","","26","","","","","","","","","","","","","","","","","","","","","",""
"null","","image-button-response","29","1034066","0.0-29.0","A17FYMZVQ56MGG","img_art/ins/2.jpg","null","","","","","","","","","","","","","","","","","","","","","","","","",""
"43957","","image-button-response","30","1078031","0.0-30.0","A17FYMZVQ56MGG","img_art/ins/2.jpg","4","","","","","","","","","","","","","","","","","","","","","","","","",""
"5029","","image-button-response","31","1083074","0.0-31.0-0.0","A17FYMZVQ56MGG","img_art/ins/2.jpg","2","","","","","","","","","","","","","","","","","","","","","","","","",""
"8608","","image-button-response","32","1091698","0.0-32.0-0.0","A17FYMZVQ56MGG","img_art/ins/2.jpg","3","","","","","","","","","","","","","","","","","","","","","","","","",""
"null","","html-keyboard-response","33","1093231","0.0-33.0","A17FYMZVQ56MGG","<p style=""font-size: 48px;"">+</p>","","","","","null","allTrialResponses","1500","1","-1","img_art/ins/2.jpg","26","looks like a distorted pic og a beer mug","Jenna,Ashley,Beth,Dora,Kara,Katie","One of my pet peevs,-48,140,20","Idk, it is just annoying,-32,40,20","meaningless painting,-45,60,20","looks too angry,-50,80,20","I like the blocks of color arrangements,30,160,20","too much color!,-28,180,20","Kara","I like the blocks of color arrangements,30,160,20","Beth","meaningless painting,-45,60,20","Dora","looks too angry,-50,80,20","0"
"63411","","survey-text","34","1156675","0.0-34.0-0.0","A17FYMZVQ56MGG","","","","{""Q0"":""love the different shades of blue""}","","","","","","","","","","","","","","","","","","","","","","",""
"13102.199999809265","","image-slider-response","35","1169786","0.0-35.0","A17FYMZVQ56MGG","","","","","47","","","","","","","","","","","","","","","","","","","","","",""
"null","","image-button-response","36","1174802","0.0-36.0","A17FYMZVQ56MGG","img_art/ins/3.jpg","null","","","","","","","","","","","","","","","","","","","","","","","","",""
"6604","","image-button-response","37","1181417","0.0-37.0","A17FYMZVQ56MGG","img_art/ins/3.jpg","4","","","","","","","","","","","","","","","","","","","","","","","","",""
"10494","","image-button-response","38","1191924","0.0-38.0-0.0","A17FYMZVQ56MGG","img_art/ins/3.jpg","1","","","","","","","","","","","","","","","","","","","","","","","","",""
"968","","image-button-response","39","1192906","0.0-39.0-0.0","A17FYMZVQ56MGG","img_art/ins/3.jpg","0","","","","","","","","","","","","","","","","","","","","","","","","",""
"null","","html-keyboard-response","40","1194454","0.0-40.0","A17FYMZVQ56MGG","<p style=""font-size: 48px;"">+</p>","","","","","null","allTrialResponses","1500","1","0","img_art/ins/3.jpg","47","love the different shades of blue","Mary,Leslie,Beth,Dora,Kara,Rose","I like the overlapping of brushes,41,220,20","It's an alright work,15,200,20","This thing gives me anxiety,-41,60,20","My worst nightmare,-42,80,20","calming blue is very nice,36,160,20","My daily routine, it's depressing,-20,240,20","Kara","calming blue is very nice,36,160,20","Leslie","It's an alright work,15,200,20","Mary","I like the overlapping of brushes,41,220,20","0"
"9806","","image-button-response_instructions","41","1204308","0.0-41.0","A17FYMZVQ56MGG","","0","instructions","","","","","","","","","","","","","","","","","","","","","","","",""
"37793","","survey-likert","42","1242110","0.0-42.0-0.0","A17FYMZVQ56MGG","","","","{""Q0"":"""",""Q1"":0,""Q2"":1}","","","","","","","","","","","","","","","","","","","","","","",""
"9877","","survey-text","43","1252014","0.0-43.0-0.0","A17FYMZVQ56MGG","","","","{""Q0"":""rock""}","","","","","","","","","","","","","","","","","","","","","","",""
"101984","","survey-text","44","1354007","0.0-44.0-0.0","A17FYMZVQ56MGG","","","","{""Q0"":""lots of color""}","","","","","","","","","","","","","","","","","","","","","","",""
"16725.400000095367","","image-slider-response","45","1370742","0.0-45.0","A17FYMZVQ56MGG","","","","","11","","","","","","","","","","","","","","","","","","","","","",""
"null","","image-button-response","46","1376004","0.0-46.0","A17FYMZVQ56MGG","img_art/12.jpg","null","","","","","","","","","","","","","","","","","","","","","","","","",""
"13595","","image-button-response","47","1389609","0.0-47.0","A17FYMZVQ56MGG","img_art/12.jpg","3","","","","","","","","","","","","","","","","","","","","","","","","",""
"7435","","image-button-response","48","1397056","0.0-48.0-0.0","A17FYMZVQ56MGG","img_art/12.jpg","5","","","","","","","","","","","","","","","","","","","","","","","","",""
"1664","","image-button-response","49","1398735","0.0-49.0-0.0","A17FYMZVQ56MGG","img_art/12.jpg","5","","","","","","","","","","","","","","","","","","","","","","","","",""
"1556","","image-button-response","50","1419703","0.0-49.1-0.1","A17FYMZVQ56MGG","img_art/12.jpg","1","","","","","","","","","","","","","","","","","","","","","","","","",""
"null","","html-keyboard-response","51","1420223","0.0-50.0","A17FYMZVQ56MGG","<p style=""font-size: 48px;"">+</p>","","","","","null","allTrialResponses","500","1","1","img_art/12.jpg","11","lots of color","Meghan,Nicole,Hailey,Leah,Michaela,Vanessa","I don't like the pattern or color choice,-41,220,20","I like all the squares and the colors but it feels too cluttered to me,20,20,20","negative feelings with these blocks,-20,200,20","Looks like a puzzle I want to put together, but not hang in my den,2,360,20","It looks like old lady upholstery,12,260,20","This is too abstract and the colors are too worn out.,-23,380,20","Leah","Looks like a puzzle I want to put together, but not hang in my den,2,360,20","Vanessa","This is too abstract and the colors are too worn out.,-23,380,20","Nicole","I like all the squares and the colors but it feels too cluttered to me,20,20,20","2"
"32036","","survey-text","52","1452281","0.0-51.0-0.0","A17FYMZVQ56MGG","","","","{""Q0"":""too distorted to tell what it is""}","","","","","","","","","","","","","","","","","","","","","","",""
"6966.300000190735","","image-slider-response","53","1459261","0.0-52.0","A17FYMZVQ56MGG","","","","","-49","","","","","","","","","","","","","","","","","","","","","",""
"null","","image-button-response","54","1464291","0.0-53.0","A17FYMZVQ56MGG","img_art/26.jpg","null","","","","","","","","","","","","","","","","","","","","","","","","",""
"24621","","image-button-response","55","1488919","0.0-54.0","A17FYMZVQ56MGG","img_art/26.jpg","5","","","","","","","","","","","","","","","","","","","","","","","","",""
"21557","","image-button-response","56","1510486","0.0-55.0-0.0","A17FYMZVQ56MGG","img_art/26.jpg","1","","","","","","","","","","","","","","","","","","","","","","","","",""
"11461","","image-button-response","57","1521958","0.0-56.0-0.0","A17FYMZVQ56MGG","img_art/26.jpg","2","","","","","","","","","","","","","","","","","","","","","","","","",""
"null","","html-keyboard-response","58","1523472","0.0-57.0","A17FYMZVQ56MGG","<p style=""font-size: 48px;"">+</p>","","","","","null","allTrialResponses","1500","1","2","img_art/26.jpg","-49","too distorted to tell what it is","Paige,Nicole,Elizabeth,Leah,Alyssa,Vanessa","somewhat happy, like being outside on a nice day,30,60,20","It's relaxing to look at but I wish it was just a little more defined,20,20,20","Like the soft blend of colors,26,20,20","Really like it, a very nice neighborhood scene to me,42,360,20","Its pretty.And a nice use of water colors.,25,160,20","Something I'd see in a thrift store. It looks like not much effort was used to paint this.,9,380,20","Vanessa","Something I'd see in a thrift store. It looks like not much effort was used to paint this.,9,380,20","Nicole","It's relaxing to look at but I wish it was just a little more defined,20,20,20","Elizabeth","Like the soft blend of colors,26,20,20","2"
"174105","","survey-text","59","1697601","0.0-58.0-0.0","A17FYMZVQ56MGG","","","","{""Q0"":""its a bunch of pastel colors slopped on a page""}","","","","","","","","","","","","","","","","","","","","","","",""
"8558","","image-slider-response","60","1706169","0.0-59.0","A17FYMZVQ56MGG","","","","","-48","","","","","","","","","","","","","","","","","","","","","",""
"null","","image-button-response","61","1711181","0.0-60.0","A17FYMZVQ56MGG","img_art/19.jpg","null","","","","","","","","","","","","","","","","","","","","","","","","",""
"15934","","image-button-response","62","1727127","0.0-61.0","A17FYMZVQ56MGG","img_art/19.jpg","4","","","","","","","","","","","","","","","","","","","","","","","","",""
"2698","","image-button-response","63","1729837","0.0-62.0-0.0","A17FYMZVQ56MGG","img_art/19.jpg","5","","","","","","","","","","","","","","","","","","","","","","","","",""
"12598","","image-button-response","64","1742452","0.0-63.0-0.0","A17FYMZVQ56MGG","img_art/19.jpg","2","","","","","","","","","","","","","","","","","","","","","","","","",""
"null","","html-keyboard-response","65","1743473","0.0-64.0","A17FYMZVQ56MGG","<p style=""font-size: 48px;"">+</p>","","","","","null","allTrialResponses","1000","1","3","img_art/19.jpg","-48","its a bunch of pastel colors slopped on a page","Kylie,Nicole,Elizabeth,Maria,Brittany,Vanessa","Reminds me of a quaint little town I once visited in Italy,50,300,20","Feels like something I would hang in my dining room,42,20,20","Like the painting strokes,39,20,20","the way the landscape is portrayed captivates me - I enjoy studying the structure,32,120,20","It looks too much of a rough sketch. Don't really enjoy looking at it.,-9,40,20","Again, this is too abstract.,-10,380,20","Brittany","It looks too much of a rough sketch. Don't really enjoy looking at it.,-9,40,20","Vanessa","Again, this is too abstract.,-10,380,20","Elizabeth","Like the painting strokes,39,20,20","2"
"65503","","survey-text","66","1809000","0.0-65.0-0.0","A17FYMZVQ56MGG","","","","{""Q0"":""distorted pic of the top of trees in the fall""}","","","","","","","","","","","","","","","","","","","","","","",""
"6241.700000047684","","image-slider-response","67","1815249","0.0-66.0","A17FYMZVQ56MGG","","","","","-50","","","","","","","","","","","","","","","","","","","","","",""
"null","","image-button-response","68","1820271","0.0-67.0","A17FYMZVQ56MGG","img_art/1.jpg","null","","","","","","","","","","","","","","","","","","","","","","","","",""
"22220","","image-button-response","69","1842505","0.0-68.0","A17FYMZVQ56MGG","img_art/1.jpg","1","","","","","","","","","","","","","","","","","","","","","","","","",""
"1367","","image-button-response","70","1843883","0.0-69.0-0.0","A17FYMZVQ56MGG","img_art/1.jpg","0","","","","","","","","","","","","","","","","","","","","","","","","",""
"1543","","image-button-response","71","1845442","0.0-70.0-0.0","A17FYMZVQ56MGG","img_art/1.jpg","3","","","","","","","","","","","","","","","","","","","","","","","","",""
"null","","html-keyboard-response","72","1846469","0.0-71.0","A17FYMZVQ56MGG","<p style=""font-size: 48px;"">+</p>","","","","","null","allTrialResponses","1000","1","4","img_art/1.jpg","-50","distorted pic of the top of trees in the fall","Jasmine,Chelsea,Elizabeth,Diana,Brittany,Vanessa","Too similar to some of the other pieces,-18,340,20","The colors are a little too intense.,1,180,20","Absolutely love this painting,50,20,20","Might be a person rowing their boat across the lake. Not sure if the background is trees or not.,12,380,20","It reminds me of a sunset I once saw.,16,40,20","I don't like how this one makes me feel.,-32,380,20","Chelsea","The colors are a little too intense.,1,180,20","Jasmine","Too similar to some of the other pieces,-18,340,20","Diana","Might be a person rowing their boat across the lake. Not sure if the background is trees or not.,12,380,20","2"
"125196","","survey-text","73","1971698","0.0-72.0-0.0","A17FYMZVQ56MGG","","","","{""Q0"":""looks unfinished""}","","","","","","","","","","","","","","","","","","","","","","",""
"7006","","image-slider-response","74","1978716","0.0-73.0","A17FYMZVQ56MGG","","","","","-50","","","","","","","","","","","","","","","","","","","","","",""
"null","","image-button-response","75","1983764","0.0-74.0","A17FYMZVQ56MGG","img_art/16.jpg","null","","","","","","","","","","","","","","","","","","","","","","","","",""
"134959","","image-button-response","76","2118733","0.0-75.0","A17FYMZVQ56MGG","img_art/16.jpg","2","","","","","","","","","","","","","","","","","","","","","","","","",""
"7972","","image-button-response","77","2126719","0.0-76.0-0.0","A17FYMZVQ56MGG","img_art/16.jpg","3","","","","","","","","","","","","","","","","","","","","","","","","",""
"11492","","image-button-response","78","2138228","0.0-77.0-0.0","A17FYMZVQ56MGG","img_art/16.jpg","5","","","","","","","","","","","","","","","","","","","","","","","","",""
"null","","html-keyboard-response","79","2139244","0.0-78.0","A17FYMZVQ56MGG","<p style=""font-size: 48px;"">+</p>","","","","","null","allTrialResponses","1000","1","5","img_art/16.jpg","-50","looks unfinished","Jasmine,Chelsea,Emma,Diana,Makayla,Shannon","I like it because it's quite different from the rest,23,340,20","I wouldn't hang it up on my wall but I like the colors of the bear.,25,180,20","Kind of creepyyyyyy,-41,60,20","This one isn't for me. It came off as strange but not in a good way.,-44,380,20","It's a little unsettling,2,80,20","I think this picture is weird and the colors are very boring.,-50,220,20","Emma","Kind of creepyyyyyy,-41,60,20","Diana","This one isn't for me. It came off as strange but not in a good way.,-44,380,20","Shannon","I think this picture is weird and the colors are very boring.,-50,220,20","2"
"14451","","survey-text","80","2153731","0.0-79.0-0.0","A17FYMZVQ56MGG","","","","{""Q0"":""sky""}","","","","","","","","","","","","","","","","","","","","","","",""
"44668","","survey-text","81","2198408","0.0-80.0-0.0","A17FYMZVQ56MGG","","","","{""Q0"":""looks like a kids finger painting""}","","","","","","","","","","","","","","","","","","","","","","",""
"6132.799999952316","","image-slider-response","82","2204550","0.0-81.0","A17FYMZVQ56MGG","","","","","-50","","","","","","","","","","","","","","","","","","","","","",""
"2627","","image-button-response","83","2209568","0.0-82.0","A17FYMZVQ56MGG","img_art/4.jpg","0","","","","","","","","","","","","","","","","","","","","","","","","",""
"2342","","image-button-response","84","2211918","0.0-83.0","A17FYMZVQ56MGG","img_art/4.jpg","0","","","","","","","","","","","","","","","","","","","","","","","","",""
"20775","","image-button-response","85","2232706","0.0-84.0-0.0","A17FYMZVQ56MGG","img_art/4.jpg","5","","","","","","","","","","","","","","","","","","","","","","","","",""
"7159","","image-button-response","86","2239877","0.0-85.0-0.0","A17FYMZVQ56MGG","img_art/4.jpg","1","","","","","","","","","","","","","","","","","","","","","","","","",""
"null","","html-keyboard-response","87","2240393","0.0-86.0","A17FYMZVQ56MGG","<p style=""font-size: 48px;"">+</p>","","","","","null","allTrialResponses","500","1","6","img_art/4.jpg","-50","looks like a kids finger painting","Kelsey,Jennifer,Emma,Diana,Taylor,Shannon","this is terrible,-49,240,20","Ugly and bland compared to the other pieces.,-33,380,20","Interesting but maybe a little creepy,0,60,20","Odd but intriguing. I feel emotion from this. Like a woman bent over carrying these emotions on her back.,33,380,20","Reminds me of a first place trophy,30,340,20","I think that this picture is too boring in terms of color and it looks ugly.,-41,220,20","Kelsey","this is terrible,-49,240,20","Shannon","I think that this picture is too boring in terms of color and it looks ugly.,-41,220,20","Jennifer","Ugly and bland compared to the other pieces.,-33,380,20","2"
"59134","","survey-text","88","2299552","0.0-87.0-0.0","A17FYMZVQ56MGG","","","","{""Q0"":""looks like a kindergarten painting""}","","","","","","","","","","","","","","","","","","","","","","",""
"6368","","image-slider-response","89","2305928","0.0-88.0","A17FYMZVQ56MGG","","","","","-50","","","","","","","","","","","","","","","","","","","","","",""
"null","","image-button-response","90","2310946","0.0-89.0","A17FYMZVQ56MGG","img_art/2.jpg","null","","","","","","","","","","","","","","","","","","","","","","","","",""
"1972","","image-button-response","91","2312928","0.0-90.0","A17FYMZVQ56MGG","img_art/2.jpg","0","","","","","","","","","","","","","","","","","","","","","","","","",""
"22050","","image-button-response","92","2334986","0.0-91.0-0.0","A17FYMZVQ56MGG","img_art/2.jpg","1","","","","","","","","","","","","","","","","","","","","","","","","",""
"3058","","image-button-response","93","2338060","0.0-92.0-0.0","A17FYMZVQ56MGG","img_art/2.jpg","4","","","","","","","","","","","","","","","","","","","","","","","","",""
"null","","html-keyboard-response","94","2339087","0.0-93.0","A17FYMZVQ56MGG","<p style=""font-size: 48px;"">+</p>","","","","","null","allTrialResponses","1000","1","7","img_art/2.jpg","-50","looks like a kindergarten painting","Kelsey,Jennifer,Tiffany,Victoria,Jordan,Shannon","i dont like it, no thank you,-28,240,20","Ugly color scheme,-50,380,20","I feel claustrophobic. I'm looking at a busy shop, but the simple shapes and continuous colors make it hectic.,-8,360,20","I like the colors,22,400,20","I can't get past the fact that it looks like someone wearing a mask,-46,20,20","I like this picture a little because the colors make it look a little vibrant.,10,220,20","Kelsey","i dont like it, no thank you,-28,240,20","Jennifer","Ugly color scheme,-50,380,20","Jordan","I can't get past the fact that it looks like someone wearing a mask,-46,20,20","2"
"89842","","survey-text","95","2428998","0.0-94.0-0.0","A17FYMZVQ56MGG","","","","{""Q0"":""looks unfinished""}","","","","","","","","","","","","","","","","","","","","","","",""
"7143.5","","image-slider-response","96","2436152","0.0-95.0","A17FYMZVQ56MGG","","","","","-46","","","","","","","","","","","","","","","","","","","","","",""
"null","","image-button-response","97","2441180","0.0-96.0","A17FYMZVQ56MGG","img_art/6.jpg","null","","","","","","","","","","","","","","","","","","","","","","","","",""
"18849","","image-button-response","98","2460041","0.0-97.0","A17FYMZVQ56MGG","img_art/6.jpg","3","","","","","","","","","","","","","","","","","","","","","","","","",""
"11003","","image-button-response","99","2471054","0.0-98.0-0.0","A17FYMZVQ56MGG","img_art/6.jpg","0","","","","","","","","","","","","","","","","","","","","","","","","",""
"1610","","image-button-response","100","2472677","0.0-99.0-0.0","A17FYMZVQ56MGG","img_art/6.jpg","1","","","","","","","","","","","","","","","","","","","","","","","","",""
"null","","html-keyboard-response","101","2473687","0.0-100.0","A17FYMZVQ56MGG","<p style=""font-size: 48px;"">+</p>","","","","","null","allTrialResponses","1000","1","8","img_art/6.jpg","-46","looks unfinished","Kelsey,Jennifer,Kristen,Amy,Jordan,Bailey","its like a jalapeno,-28,240,20","I am neutral towards this piece.,0,380,20","loneliness, fragile, forever alone, a girl who's been there for eternity, only think tracking time is the length of her hair,9,280,20","Lack of context makes this painting 1-d for me. The headless bird is mysterious and indecipherable.,-10,220,20","This is interesting, I feel solitude, and loneliness from this.,13,20,20","Not my favorite, but I like the empty vibe and the imagination it invokes. A skinny girl with long legs, perhaps, looking over a cliff,9,360,20","Amy","Lack of context makes this painting 1-d for me. The headless bird is mysterious and indecipherable.,-10,220,20","Kelsey","its like a jalapeno,-28,240,20","Jennifer","I am neutral towards this piece.,0,380,20","2"
"138743","","survey-text","102","2612463","0.0-101.0-0.0","A17FYMZVQ56MGG","","","","{""Q0"":""looks like a close up of a bar of soap with herbs in it""}","","","","","","","","","","","","","","","","","","","","","","",""
"9498.5","","image-slider-response","103","2621972","0.0-102.0","A17FYMZVQ56MGG","","","","","-25","","","","","","","","","","","","","","","","","","","","","",""
"3450","","image-button-response","104","2626991","0.0-103.0","A17FYMZVQ56MGG","img_art/7.jpg","0","","","","","","","","","","","","","","","","","","","","","","","","",""
"7046","","image-button-response","105","2634053","0.0-104.0","A17FYMZVQ56MGG","img_art/7.jpg","2","","","","","","","","","","","","","","","","","","","","","","","","",""
"11253","","image-button-response","106","2645319","0.0-105.0-0.0","A17FYMZVQ56MGG","img_art/7.jpg","5","","","","","","","","","","","","","","","","","","","","","","","","",""
"3574","","image-button-response","107","2648903","0.0-106.0-0.0","A17FYMZVQ56MGG","img_art/7.jpg","0","","","","","","","","","","","","","","","","","","","","","","","","",""
"null","","html-keyboard-response","108","2650419","0.0-107.0","A17FYMZVQ56MGG","<p style=""font-size: 48px;"">+</p>","","","","","null","allTrialResponses","1500","1","9","img_art/7.jpg","-25","looks like a close up of a bar of soap with herbs in it","Kelsey,Jennifer,Grace,Amy,Kayla,Isabella","its like oatmeal with granola,-47,240,20","Very, very dull compared to the other paintings,-36,380,20","Makes me itch - looks like a closeup of an ant colony or something.,-1,180,20","Limited emotional reaction for me. No focus and highly abstract,-20,220,20","Dinosaur bones. Death.,-14,180,20","Dessert like almost like dry land,4,280,20","Grace","Makes me itch - looks like a closeup of an ant colony or something.,-1,180,20","Isabella","Dessert like almost like dry land,4,280,20","Kelsey","its like oatmeal with granola,-47,240,20","2"
"31407","","survey-text","109","2681864","0.0-108.0-0.0","A17FYMZVQ56MGG","","","","{""Q0"":""chinese writing?""}","","","","","","","","","","","","","","","","","","","","","","",""
"18116.799999952316","","image-slider-response","110","2699998","0.0-109.0","A17FYMZVQ56MGG","","","","","-50","","","","","","","","","","","","","","","","","","","","","",""
"null","","image-button-response","111","2705037","0.0-110.0","A17FYMZVQ56MGG","img_art/30.jpg","null","","","","","","","","","","","","","","","","","","","","","","","","",""
"81992","","image-button-response","112","2787037","0.0-111.0","A17FYMZVQ56MGG","img_art/30.jpg","0","","","","","","","","","","","","","","","","","","","","","","","","",""
"16819","","image-button-response","113","2803865","0.0-112.0-0.0","A17FYMZVQ56MGG","img_art/30.jpg","1","","","","","","","","","","","","","","","","","","","","","","","","",""
"1945","","image-button-response","114","2805825","0.0-113.0-0.0","A17FYMZVQ56MGG","img_art/30.jpg","2","","","","","","","","","","","","","","","","","","","","","","","","",""
"null","","html-keyboard-response","115","2807343","0.0-114.0","A17FYMZVQ56MGG","<p style=""font-size: 48px;"">+</p>","","","","","null","allTrialResponses","1500","1","10","img_art/30.jpg","-50","chinese writing?","Kelsey,Sierra,Grace,Leslie,Olivia,Isabella","dont like this much at all,-30,240,20","i dont like how the colors are mixed,-6,260,20","A little too dull. Would've liked brighter colors. Also looks washed out.,1,180,20","The brush strokes are appealing, and make me want to look at this longer.,11,380,20","perceiving greatness,20,40,20","I like the back but the red lines in the front distress me,-7,280,20","Kelsey","dont like this much at all,-30,240,20","Sierra","i dont like how the colors are mixed,-6,260,20","Grace","A little too dull. Would've liked brighter colors. Also looks washed out.,1,180,20","2"
"6161","","survey-text","116","2813543","0.0-115.0-0.0","A17FYMZVQ56MGG","","","","{""Q0"":""our""}","","","","","","","","","","","","","","","","","","","","","","",""
"29292","","survey-text","117","2842842","0.0-116.0-0.0","A17FYMZVQ56MGG","","","","{""Q0"":""this actually looks pretty cool""}","","","","","","","","","","","","","","","","","","","","","","",""
"6314.200000047684","","image-slider-response","118","2849168","0.0-117.0","A17FYMZVQ56MGG","","","","","50","","","","","","","","","","","","","","","","","","","","","",""
"null","","image-button-response","119","2854185","0.0-118.0","A17FYMZVQ56MGG","img_art/25.jpg","null","","","","","","","","","","","","","","","","","","","","","","","","",""
"25292","","image-button-response","120","2879499","0.0-119.0","A17FYMZVQ56MGG","img_art/25.jpg","1","","","","","","","","","","","","","","","","","","","","","","","","",""
"1355","","image-button-response","121","2880864","0.0-120.0-0.0","A17FYMZVQ56MGG","img_art/25.jpg","2","","","","","","","","","","","","","","","","","","","","","","","","",""
"6733","","image-button-response","122","2887608","0.0-121.0-0.0","A17FYMZVQ56MGG","img_art/25.jpg","3","","","","","","","","","","","","","","","","","","","","","","","","",""
"null","","html-keyboard-response","123","2888618","0.0-122.0","A17FYMZVQ56MGG","<p style=""font-size: 48px;"">+</p>","","","","","null","allTrialResponses","1000","1","11","img_art/25.jpg","50","this actually looks pretty cool","Kelsey,Sierra,Grace,Erin,Christina,Alicia","quite unnerving,-15,240,20","the green is serene. the figure is scare crow like,7,260,20","Scary. Something out of a Stephen King book/movie.,-31,180,20","Looks like glow in the dark halloween decoration,-38,120,20","nice colors and it looks like a native work,32,240,20","death. childish nightmare.,-29,120,20","Sierra","the green is serene. the figure is scare crow like,7,260,20","Grace","Scary. Something out of a Stephen King book/movie.,-31,180,20","Erin","Looks like glow in the dark halloween decoration,-38,120,20","2"
"113177","","survey-text","124","3001813","0.0-123.0-0.0","A17FYMZVQ56MGG","","","","{""Q0"":""abstract painting of a guitar""}","","","","","","","","","","","","","","","","","","","","","","",""
"8634.5","","image-slider-response","125","3010459","0.0-124.0","A17FYMZVQ56MGG","","","","","18","","","","","","","","","","","","","","","","","","","","","",""
"null","","image-button-response","126","3015483","0.0-125.0","A17FYMZVQ56MGG","img_art/10.jpg","null","","","","","","","","","","","","","","","","","","","","","","","","",""
"178794","","image-button-response","127","3194288","0.0-126.0","A17FYMZVQ56MGG","img_art/10.jpg","3","","","","","","","","","","","","","","","","","","","","","","","","",""
"36369","","image-button-response","128","3230669","0.0-127.0-0.0","A17FYMZVQ56MGG","img_art/10.jpg","5","","","","","","","","","","","","","","","","","","","","","","","","",""
"3327","","image-button-response","129","3234012","0.0-128.0-0.0","A17FYMZVQ56MGG","img_art/10.jpg","2","","","","","","","","","","","","","","","","","","","","","","","","",""
"null","","html-keyboard-response","130","3234521","0.0-129.0","A17FYMZVQ56MGG","<p style=""font-size: 48px;"">+</p>","","","","","null","allTrialResponses","500","1","12","img_art/10.jpg","18","abstract painting of a guitar","Lauren,Sierra,Grace,Erin,Andrea,Erika","I can't really tell what this is suppose to represent, but overall I don't like the design.,-20,340,20","it just doesnt appeal to me.,-10,260,20","First impression was musical instrument then, because of the gray colors, death.,5,180,20","Cello music instrument,11,120,20","Kraken, and I love it.,39,240,20","Good texture, expressive,18,100,20","Erin","Cello music instrument,11,120,20","Erika","Good texture, expressive,18,100,20","Grace","First impression was musical instrument then, because of the gray colors, death.,5,180,20","2"
"32964","","survey-text","131","3267511","0.0-130.0-0.0","A17FYMZVQ56MGG","","","","{""Q0"":""i think its a waterfall""}","","","","","","","","","","","","","","","","","","","","","","",""
"47527.40000009537","","image-slider-response","132","3315045","0.0-131.0","A17FYMZVQ56MGG","","","","","-34","","","","","","","","","","","","","","","","","","","","","",""
"null","","image-button-response","133","3320073","0.0-132.0","A17FYMZVQ56MGG","img_art/24.jpg","null","","","","","","","","","","","","","","","","","","","","","","","","",""
"67890","","image-button-response","134","3387971","0.0-133.0","A17FYMZVQ56MGG","img_art/24.jpg","2","","","","","","","","","","","","","","","","","","","","","","","","",""
"9754","","image-button-response","135","3397738","0.0-134.0-0.0","A17FYMZVQ56MGG","img_art/24.jpg","0","","","","","","","","","","","","","","","","","","","","","","","","",""
"3586","","image-button-response","136","3401336","0.0-135.0-0.0","A17FYMZVQ56MGG","img_art/24.jpg","1","","","","","","","","","","","","","","","","","","","","","","","","",""
"null","","html-keyboard-response","137","3402853","0.0-136.0","A17FYMZVQ56MGG","<p style=""font-size: 48px;"">+</p>","","","","","null","allTrialResponses","1500","1","13","img_art/24.jpg","-34","i think its a waterfall","Madeline,Julia,Grace,Erin,Amanda,Erika","colors are good but the style is iffy,12,40,20","it's a nice stream, but I don't care for plain nature,-15,40,20","Abstract falls & nature.,41,180,20","Too literal, not abstract,-29,120,20","Beautiful,  peaceful,50,180,20","Very nice textures and subject,38,100,20","Grace","Abstract falls & nature.,41,180,20","Madeline","colors are good but the style is iffy,12,40,20","Julia","it's a nice stream, but I don't care for plain nature,-15,40,20","2"
"43596","","survey-text","138","3446477","0.0-137.0-0.0","A17FYMZVQ56MGG","","","","{""Q0"":""looks like a chalk drawing in elementary""}","","","","","","","","","","","","","","","","","","","","","","",""
"9584.5","","image-slider-response","139","3456074","0.0-138.0","A17FYMZVQ56MGG","","","","","-46","","","","","","","","","","","","","","","","","","","","","",""
"null","","image-button-response","140","3461083","0.0-139.0","A17FYMZVQ56MGG","img_art/9.jpg","null","","","","","","","","","","","","","","","","","","","","","","","","",""
"15771","","image-button-response","141","3476863","0.0-140.0","A17FYMZVQ56MGG","img_art/9.jpg","3","","","","","","","","","","","","","","","","","","","","","","","","",""
"5403","","image-button-response","142","3482280","0.0-141.0-0.0","A17FYMZVQ56MGG","img_art/9.jpg","2","","","","","","","","","","","","","","","","","","","","","","","","",""
"1762","","image-button-response","143","3484053","0.0-142.0-0.0","A17FYMZVQ56MGG","img_art/9.jpg","1","","","","","","","","","","","","","","","","","","","","","","","","",""
"null","","html-keyboard-response","144","3485577","0.0-143.0","A17FYMZVQ56MGG","<p style=""font-size: 48px;"">+</p>","","","","","null","allTrialResponses","1500","1","14","img_art/9.jpg","-46","looks like a chalk drawing in elementary","Madeline,Julia,Grace,Kaylee,Sabrina,Rebecca","I really like the colors and details.,8,40,20","I don't like the framing of this one,-25,40,20","Huh?  Doesn't invoke much.,-37,180,20","not my type of art,-33,200,20","Calming and relaxing,42,120,20","love the color palette, but I'm gonna be honest, I don't really understand it,14,100,20","Kaylee","not my type of art,-33,200,20","Grace","Huh?  Doesn't invoke much.,-37,180,20","Julia","I don't like the framing of this one,-25,40,20","2"
"25981","","survey-text","145","3511599","0.0-144.0-0.0","A17FYMZVQ56MGG","","","","{""Q0"":""too busy and too abstract""}","","","","","","","","","","","","","","","","","","","","","","",""
"5212.5","","image-slider-response","146","3516819","0.0-145.0","A17FYMZVQ56MGG","","","","","-47","","","","","","","","","","","","","","","","","","","","","",""
"null","","image-button-response","147","3521842","0.0-146.0","A17FYMZVQ56MGG","img_art/23.jpg","null","","","","","","","","","","","","","","","","","","","","","","","","",""
"217","","image-button-response","148","3522067","0.0-147.0","A17FYMZVQ56MGG","img_art/23.jpg","0","","","","","","","","","","","","","","","","","","","","","","","","",""
"14169","","image-button-response","149","3536244","0.0-148.0-0.0","A17FYMZVQ56MGG","img_art/23.jpg","3","","","","","","","","","","","","","","","","","","","","","","","","",""
"1953","","image-button-response","150","3538208","0.0-149.0-0.0","A17FYMZVQ56MGG","img_art/23.jpg","5","","","","","","","","","","","","","","","","","","","","","","","","",""
"null","","html-keyboard-response","151","3538717","0.0-150.0","A17FYMZVQ56MGG","<p style=""font-size: 48px;"">+</p>","","","","","null","allTrialResponses","500","1","15","img_art/23.jpg","-47","too busy and too abstract","Megan,Julia,Grace,Kaylee,Erica,Sydney","Too busy with color with warrior lineup,0,200,20","this looks like a pop rock album cover,-10,40,20","Looks like fireworks.,21,180,20","i completely dont get it,-47,200,20","Very energetic, seems like it is pulling me in,24,80,20","The piece seems chaotic, and I dislike the random pop of white within so many colors.,-10,320,20","Megan","Too busy with color with warrior lineup,0,200,20","Kaylee","i completely dont get it,-47,200,20","Sydney","The piece seems chaotic, and I dislike the random pop of white within so many colors.,-10,320,20","2"
"8066","","survey-text","152","3546846","0.0-151.0-0.0","A17FYMZVQ56MGG","","","","{""Q0"":""course""}","","","","","","","","","","","","","","","","","","","","","","",""
"23762","","survey-text","153","3570614","0.0-152.0-0.0","A17FYMZVQ56MGG","","","","{""Q0"":""i dont get it""}","","","","","","","","","","","","","","","","","","","","","","",""
"10060.200000047684","","image-slider-response","154","3580684","0.0-153.0","A17FYMZVQ56MGG","","","","","-50","","","","","","","","","","","","","","","","","","","","","",""
"null","","image-button-response","155","3585712","0.0-154.0","A17FYMZVQ56MGG","img_art/28.jpg","null","","","","","","","","","","","","","","","","","","","","","","","","",""
"57299","","image-button-response","156","3643019","0.0-155.0","A17FYMZVQ56MGG","img_art/28.jpg","3","","","","","","","","","","","","","","","","","","","","","","","","",""
"2207","","image-button-response","157","3645237","0.0-156.0-0.0","A17FYMZVQ56MGG","img_art/28.jpg","4","","","","","","","","","","","","","","","","","","","","","","","","",""
"2209","","image-button-response","158","3647456","0.0-157.0-0.0","A17FYMZVQ56MGG","img_art/28.jpg","0","","","","","","","","","","","","","","","","","","","","","","","","",""
"null","","html-keyboard-response","159","3648470","0.0-158.0","A17FYMZVQ56MGG","<p style=""font-size: 48px;"">+</p>","","","","","null","allTrialResponses","1000","1","16","img_art/28.jpg","-50","i dont get it","Megan,Gabrielle,Jenna,Kaylee,Kaitlin,Sydney","Compact grey mess lack negative space,-10,200,20","bland coloring but pattern interesting,2,160,20","looks like humanoid figures in distress. I like it, but makes me slightly uncomfortable,35,360,20","i dont understand it,-34,200,20","i'm not too impressed with this one.,-10,60,20","I enjoy the colors.,25,320,20","Kaylee","i dont understand it,-34,200,20","Kaitlin","i'm not too impressed with this one.,-10,60,20","Megan","Compact grey mess lack negative space,-10,200,20","2"
"129600","","survey-text","160","3778094","0.0-159.0-0.0","A17FYMZVQ56MGG","","","","{""Q0"":""looks like a straw jabbed in a lemon""}","","","","","","","","","","","","","","","","","","","","","","",""
"11161.5","","image-slider-response","161","3789270","0.0-160.0","A17FYMZVQ56MGG","","","","","-50","","","","","","","","","","","","","","","","","","","","","",""
"null","","image-button-response","162","3794300","0.0-161.0","A17FYMZVQ56MGG","img_art/5.jpg","null","","","","","","","","","","","","","","","","","","","","","","","","",""
"12278","","image-button-response","163","3806586","0.0-162.0","A17FYMZVQ56MGG","img_art/5.jpg","2","","","","","","","","","","","","","","","","","","","","","","","","",""
"5269","","image-button-response","164","3811864","0.0-163.0-0.0","A17FYMZVQ56MGG","img_art/5.jpg","4","","","","","","","","","","","","","","","","","","","","","","","","",""
"1867","","image-button-response","165","3813747","0.0-164.0-0.0","A17FYMZVQ56MGG","img_art/5.jpg","5","","","","","","","","","","","","","","","","","","","","","","","","",""
"null","","html-keyboard-response","166","3815254","0.0-165.0","A17FYMZVQ56MGG","<p style=""font-size: 48px;"">+</p>","","","","","null","allTrialResponses","1500","1","17","img_art/5.jpg","-50","looks like a straw jabbed in a lemon","Megan,Monica,Gabriela,Kaylee,Kaitlin,Morgan","Cop out, easy money for artist for a 4 min piece,-29,200,20","I like how simple it is and the pink brushstrokes are nice,27,360,20","I am confused as to what this is supposed to be,6,140,20","a volcano erruption,21,200,20","a bit confused about this picture,-9,60,20","Dull pyramid that says nothing.,7,380,20","Gabriela","I am confused as to what this is supposed to be,6,140,20","Kaitlin","a bit confused about this picture,-9,60,20","Morgan","Dull pyramid that says nothing.,7,380,20","2"
"126241","","survey-text","167","3941522","0.0-166.0-0.0","A17FYMZVQ56MGG","","","","{""Q0"":""too pale and unfinished""}","","","","","","","","","","","","","","","","","","","","","","",""
"8285.200000047684","","image-slider-response","168","3949814","0.0-167.0","A17FYMZVQ56MGG","","","","","-20","","","","","","","","","","","","","","","","","","","","","",""
"null","","image-button-response","169","3954829","0.0-168.0","A17FYMZVQ56MGG","img_art/17.jpg","null","","","","","","","","","","","","","","","","","","","","","","","","",""
"10724","","image-button-response","170","3965562","0.0-169.0","A17FYMZVQ56MGG","img_art/17.jpg","5","","","","","","","","","","","","","","","","","","","","","","","","",""
"19821","","image-button-response","171","3985394","0.0-170.0-0.0","A17FYMZVQ56MGG","img_art/17.jpg","4","","","","","","","","","","","","","","","","","","","","","","","","",""
"2600","","image-button-response","172","3988008","0.0-171.0-0.0","A17FYMZVQ56MGG","img_art/17.jpg","1","","","","","","","","","","","","","","","","","","","","","","","","",""
"null","","html-keyboard-response","173","3989527","0.0-172.0","A17FYMZVQ56MGG","<p style=""font-size: 48px;"">+</p>","","","","","null","allTrialResponses","1500","1","18","img_art/17.jpg","-20","too pale and unfinished","Heather,Kelly,Gabriela,Autumn,Kaitlin,Morgan","Beautiful simply beautiful. i would love this,,50,260,20","I really like this, especially the tree.,23,220,20","This makes me feel inspired and happy. I love everything about this portrait,45,140,20","Looks awesome .,33,340,20","i feel some sadness in this picture,25,60,20","Tree of knowledge in a quiet school.,17,380,20","Morgan","Tree of knowledge in a quiet school.,17,380,20","Kaitlin","i feel some sadness in this picture,25,60,20","Kelly","I really like this, especially the tree.,23,220,20","2"
"13501","","survey-text","174","4003089","0.0-173.0-0.0","A17FYMZVQ56MGG","","","","{""Q0"":""too blotchy""}","","","","","","","","","","","","","","","","","","","","","","",""
"5816.599999904633","","image-slider-response","175","4008914","0.0-174.0","A17FYMZVQ56MGG","","","","","-49","","","","","","","","","","","","","","","","","","","","","",""
"null","","image-button-response","176","4013938","0.0-175.0","A17FYMZVQ56MGG","img_art/22.jpg","null","","","","","","","","","","","","","","","","","","","","","","","","",""
"12819","","image-button-response","177","4026765","0.0-176.0","A17FYMZVQ56MGG","img_art/22.jpg","3","","","","","","","","","","","","","","","","","","","","","","","","",""
"3512","","image-button-response","178","4030287","0.0-177.0-0.0","A17FYMZVQ56MGG","img_art/22.jpg","0","","","","","","","","","","","","","","","","","","","","","","","","",""
"4056","","image-button-response","179","4034355","0.0-178.0-0.0","A17FYMZVQ56MGG","img_art/22.jpg","1","","","","","","","","","","","","","","","","","","","","","","","","",""
"null","","html-keyboard-response","180","4035367","0.0-179.0","A17FYMZVQ56MGG","<p style=""font-size: 48px;"">+</p>","","","","","null","allTrialResponses","1000","1","19","img_art/22.jpg","-49","too blotchy","Margaret,Kelly,Cassidy,Chloe,Kaitlin,Morgan","i feel like this is a a basic art piece that a school would have on the wall,-24,100,20","I really enjoy the blended colors.,20,220,20","I don't really know why, I just like looking at it,10,140,20","Still like the colors but not the most interesting composition,17,220,20","This represents the hopes in my life.,21,60,20","Glowing city of many emotions.,10,380,20","Chloe","Still like the colors but not the most interesting composition,17,220,20","Margaret","i feel like this is a a basic art piece that a school would have on the wall,-24,100,20","Kelly","I really enjoy the blended colors.,20,220,20","2"
"17031","","survey-text","181","4052433","0.0-180.0-0.0","A17FYMZVQ56MGG","","","","{""Q0"":""abstract in winter""}","","","","","","","","","","","","","","","","","","","","","","",""
"19209.5","","image-slider-response","182","4071651","0.0-181.0","A17FYMZVQ56MGG","","","","","2","","","","","","","","","","","","","","","","","","","","","",""
"null","","image-button-response","183","4076707","0.0-182.0","A17FYMZVQ56MGG","img_art/18.jpg","null","","","","","","","","","","","","","","","","","","","","","","","","",""
"2945","","image-button-response","184","4079662","0.0-183.0","A17FYMZVQ56MGG","img_art/18.jpg","1","","","","","","","","","","","","","","","","","","","","","","","","",""
"12068","","image-button-response","185","4091744","0.0-184.0-0.0","A17FYMZVQ56MGG","img_art/18.jpg","4","","","","","","","","","","","","","","","","","","","","","","","","",""
"972","","image-button-response","186","4092732","0.0-185.0-0.0","A17FYMZVQ56MGG","img_art/18.jpg","3","","","","","","","","","","","","","","","","","","","","","","","","",""
"null","","html-keyboard-response","187","4093244","0.0-186.0","A17FYMZVQ56MGG","<p style=""font-size: 48px;"">+</p>","","","","","null","allTrialResponses","500","1","20","img_art/18.jpg","2","abstract in winter","Margaret,Kelly,Alexandria,Chloe,Allison,Mikayla","reminds me of dying at sea in the 1700s,-8,100,20","It's interesting. I'm not sure how I feel about it, but i enjoy the ghostly apparitions.,10,220,20","the harsh lines with the smooth lines makes me think of wild animals,20,80,20","Evocative but cheesy.,-20,220,20","Colors are okay. Reminds me of cavalry.,10,140,20","Kinda boring. Not my favorite,-34,300,20","Kelly","It's interesting. I'm not sure how I feel about it, but i enjoy the ghostly apparitions.,10,220,20","Allison","Colors are okay. Reminds me of cavalry.,10,140,20","Chloe","Evocative but cheesy.,-20,220,20","2"
"4988","","survey-text","188","4098289","0.0-187.0-0.0","A17FYMZVQ56MGG","","","","{""Q0"":""we""}","","","","","","","","","","","","","","","","","","","","","","",""
"17543","","survey-text","189","4115839","0.0-188.0-0.0","A17FYMZVQ56MGG","","","","{""Q0"":""debris in outer space""}","","","","","","","","","","","","","","","","","","","","","","",""
"6686.900000095367","","image-slider-response","190","4122534","0.0-189.0","A17FYMZVQ56MGG","","","","","25","","","","","","","","","","","","","","","","","","","","","",""
"null","","image-button-response","191","4127558","0.0-190.0","A17FYMZVQ56MGG","img_art/13.jpg","null","","","","","","","","","","","","","","","","","","","","","","","","",""
"87018","","image-button-response","192","4214582","0.0-191.0","A17FYMZVQ56MGG","img_art/13.jpg","1","","","","","","","","","","","","","","","","","","","","","","","","",""
"8958","","image-button-response","193","4223553","0.0-192.0-0.0","A17FYMZVQ56MGG","img_art/13.jpg","2","","","","","","","","","","","","","","","","","","","","","","","","",""
"1573","","image-button-response","194","4225143","0.0-193.0-0.0","A17FYMZVQ56MGG","img_art/13.jpg","5","","","","","","","","","","","","","","","","","","","","","","","","",""
"null","","html-keyboard-response","195","4226652","0.0-194.0","A17FYMZVQ56MGG","<p style=""font-size: 48px;"">+</p>","","","","","null","allTrialResponses","1500","1","21","img_art/13.jpg","25","debris in outer space","Mary,Kelly,Katelyn,Chloe,Allison,Cassandra","I do not care for the colors in this art. it doesnt go well at all.,-15,180,20","I would hang this photo in my room.,21,220,20","Really like this. Its like looking out a window into a beautiful storm,39,100,20","Industrial Jackson Pollock knock-off,-20,220,20","Generic mix of colors. Cool and messy.,10,140,20","I love the colors and the texture,37,120,20","Kelly","I would hang this photo in my room.,21,220,20","Katelyn","Really like this. Its like looking out a window into a beautiful storm,39,100,20","Cassandra","I love the colors and the texture,37,120,20","2"
"32555","","survey-text","196","4259235","0.0-195.0-0.0","A17FYMZVQ56MGG","","","","{""Q0"":""trees and clouds""}","","","","","","","","","","","","","","","","","","","","","","",""
"4474.899999856949","","image-slider-response","197","4263720","0.0-196.0","A17FYMZVQ56MGG","","","","","-49","","","","","","","","","","","","","","","","","","","","","",""
"null","","image-button-response","198","4268745","0.0-197.0","A17FYMZVQ56MGG","img_art/27.jpg","null","","","","","","","","","","","","","","","","","","","","","","","","",""
"5343","","image-button-response","199","4274100","0.0-198.0","A17FYMZVQ56MGG","img_art/27.jpg","1","","","","","","","","","","","","","","","","","","","","","","","","",""
"29392","","image-button-response","200","4303506","0.0-199.0-0.0","A17FYMZVQ56MGG","img_art/27.jpg","2","","","","","","","","","","","","","","","","","","","","","","","","",""
"2138","","image-button-response","201","4305658","0.0-200.0-0.0","A17FYMZVQ56MGG","img_art/27.jpg","5","","","","","","","","","","","","","","","","","","","","","","","","",""
"null","","html-keyboard-response","202","4306182","0.0-201.0","A17FYMZVQ56MGG","<p style=""font-size: 48px;"">+</p>","","","","","null","allTrialResponses","500","1","22","img_art/27.jpg","-49","trees and clouds","Dominique,Kelly,Katelyn,Kathryn,Natalie,Cassandra","A beautiful day full of Hope and Inspiritation. The warmth of hot cocoa with the family gathering around,33,400,20","The green stick drawings or whatever they are ruin it for me.,-23,220,20","Doesnt look like anything to me. Doesnt capture my attention.,-25,100,20","Makes me think of Japanese food. I perceive it as comfortable and healthy.,20,140,20","also gives me anxiety,-21,400,20","I don't like any of it...just scibbles.,-37,120,20","Kelly","The green stick drawings or whatever they are ruin it for me.,-23,220,20","Katelyn","Doesnt look like anything to me. Doesnt capture my attention.,-25,100,20","Cassandra","I don't like any of it...just scibbles.,-37,120,20","2"
"25934","","survey-text","203","4332152","0.0-202.0-0.0","A17FYMZVQ56MGG","","","","{""Q0"":""storm is brewing""}","","","","","","","","","","","","","","","","","","","","","","",""
"4988.300000190735","","image-slider-response","204","4337148","0.0-203.0","A17FYMZVQ56MGG","","","","","-50","","","","","","","","","","","","","","","","","","","","","",""
"null","","image-button-response","205","4342170","0.0-204.0","A17FYMZVQ56MGG","img_art/21.jpg","null","","","","","","","","","","","","","","","","","","","","","","","","",""
"7942","","image-button-response","206","4350120","0.0-205.0","A17FYMZVQ56MGG","img_art/21.jpg","2","","","","","","","","","","","","","","","","","","","","","","","","",""
"11794","","image-button-response","207","4361931","0.0-206.0-0.0","A17FYMZVQ56MGG","img_art/21.jpg","5","","","","","","","","","","","","","","","","","","","","","","","","",""
"2920","","image-button-response","208","4364865","0.0-207.0-0.0","A17FYMZVQ56MGG","img_art/21.jpg","3","","","","","","","","","","","","","","","","","","","","","","","","",""
"null","","html-keyboard-response","209","4365385","0.0-208.0","A17FYMZVQ56MGG","<p style=""font-size: 48px;"">+</p>","","","","","null","allTrialResponses","500","1","23","img_art/21.jpg","-50","storm is brewing","Katherine,Kelly,Katelyn,Catherine,Mackenzie,Cassandra","I can't explain why this struck me as absolutely gorgeous. Like the clashing between 2 different worlds,43,120,20","It actually reminded me of a place I've been to. So I had a positive reaction to it.,22,220,20","I dont like how nothing is defined and the colors dont work for me,-5,100,20","Nature, water, ever changing. Cold then warm. Reaction is mostly positive and some negative,30,160,20","The shapes and colors are very interesting to look at.,41,20,20","I liked it...it looked like a storm raging.,12,120,20","Katelyn","I dont like how nothing is defined and the colors dont work for me,-5,100,20","Cassandra","I liked it...it looked like a storm raging.,12,120,20","Catherine","Nature, water, ever changing. Cold then warm. Reaction is mostly positive and some negative,30,160,20","2"
"19115","","survey-text","210","4384534","0.0-209.0-0.0","A17FYMZVQ56MGG","","","","{""Q0"":""i dont understand it""}","","","","","","","","","","","","","","","","","","","","","","",""
"6784.600000143051","","image-slider-response","211","4391326","0.0-210.0","A17FYMZVQ56MGG","","","","","-50","","","","","","","","","","","","","","","","","","","","","",""
"null","","image-button-response","212","4396355","0.0-211.0","A17FYMZVQ56MGG","img_art/15.jpg","null","","","","","","","","","","","","","","","","","","","","","","","","",""
"249","","image-button-response","213","4396612","0.0-212.0","A17FYMZVQ56MGG","img_art/15.jpg","1","","","","","","","","","","","","","","","","","","","","","","","","",""
"11753","","image-button-response","214","4408375","0.0-213.0-0.0","A17FYMZVQ56MGG","img_art/15.jpg","2","","","","","","","","","","","","","","","","","","","","","","","","",""
"1376","","image-button-response","215","4409764","0.0-214.0-0.0","A17FYMZVQ56MGG","img_art/15.jpg","5","","","","","","","","","","","","","","","","","","","","","","","","",""
"null","","html-keyboard-response","216","4411289","0.0-215.0","A17FYMZVQ56MGG","<p style=""font-size: 48px;"">+</p>","","","","","null","allTrialResponses","1500","1","24","img_art/15.jpg","-50","i dont understand it","Sarah,Samantha,Katelyn,Catherine,Marissa,Cassandra","this is really pretty! i like the pops of blue in all the black,26,180,20","Not interesting enough. Boring,-37,140,20","Doesnt trigger much of a reaction overall,-2,100,20","ants on the ground playing with bubble gum. They may be thinking of how they can use it to build something,-30,160,20","I am reminded of spring flowers swaying in the dark night's breeze,9,160,20","Hate it...black dots.,-47,120,20","Samantha","Not interesting enough. Boring,-37,140,20","Katelyn","Doesnt trigger much of a reaction overall,-2,100,20","Cassandra","Hate it...black dots.,-47,120,20","2"
"25801","","survey-text","217","4437121","0.0-216.0-0.0","A17FYMZVQ56MGG","","","","{""Q0"":""too blah and hate the color""}","","","","","","","","","","","","","","","","","","","","","","",""
"6388.300000190735","","image-slider-response","218","4443518","0.0-217.0","A17FYMZVQ56MGG","","","","","-50","","","","","","","","","","","","","","","","","","","","","",""
"null","","image-button-response","219","4448539","0.0-218.0","A17FYMZVQ56MGG","img_art/3.jpg","null","","","","","","","","","","","","","","","","","","","","","","","","",""
"6091","","image-button-response","220","4454637","0.0-219.0","A17FYMZVQ56MGG","img_art/3.jpg","5","","","","","","","","","","","","","","","","","","","","","","","","",""
"4613","","image-button-response","221","4459261","0.0-220.0-0.0","A17FYMZVQ56MGG","img_art/3.jpg","1","","","","","","","","","","","","","","","","","","","","","","","","",""
"4565","","image-button-response","222","4463842","0.0-221.0-0.0","A17FYMZVQ56MGG","img_art/3.jpg","0","","","","","","","","","","","","","","","","","","","","","","","","",""
"null","","html-keyboard-response","223","4464349","0.0-222.0","A17FYMZVQ56MGG","<p style=""font-size: 48px;"">+</p>","","","","","null","allTrialResponses","500","1","25","img_art/3.jpg","-50","too blah and hate the color","Abigail,Samantha,Katelyn,Caitlin,Jacqueline,Cassandra","Reminded me of blood or something bad,-21,20,20","Too angry and scribbly,-43,140,20","No substance or feeling to it,-20,100,20","Why kids with color crayons is called art is beyond me. People pay for this???,-40,80,20","Looks like a bloody head with teeth.,-16,300,20","I hate this...just a scribble of red.,-50,120,20","Cassandra","I hate this...just a scribble of red.,-50,120,20","Samantha","Too angry and scribbly,-43,140,20","Abigail","Reminded me of blood or something bad,-21,20,20","2"
"7253","","survey-text","224","4471673","0.0-223.0-0.0","A17FYMZVQ56MGG","","","","{""Q0"":""table""}","","","","","","","","","","","","","","","","","","","","","","",""
"11088","","survey-text","225","4482768","0.0-224.0-0.0","A17FYMZVQ56MGG","","","","{""Q0"":""too messy""}","","","","","","","","","","","","","","","","","","","","","","",""
"5731.600000143051","","image-slider-response","226","4488508","0.0-225.0","A17FYMZVQ56MGG","","","","","-50","","","","","","","","","","","","","","","","","","","","","",""
"null","","image-button-response","227","4493545","0.0-226.0","A17FYMZVQ56MGG","img_art/29.jpg","null","","","","","","","","","","","","","","","","","","","","","","","","",""
"912","","image-button-response","228","4494476","0.0-227.0","A17FYMZVQ56MGG","img_art/29.jpg","0","","","","","","","","","","","","","","","","","","","","","","","","",""
"9926","","image-button-response","229","4504414","0.0-228.0-0.0","A17FYMZVQ56MGG","img_art/29.jpg","3","","","","","","","","","","","","","","","","","","","","","","","","",""
"1683","","image-button-response","230","4506117","0.0-229.0-0.0","A17FYMZVQ56MGG","img_art/29.jpg","4","","","","","","","","","","","","","","","","","","","","","","","","",""
"null","","html-keyboard-response","231","4507642","0.0-230.0","A17FYMZVQ56MGG","<p style=""font-size: 48px;"">+</p>","","","","","null","allTrialResponses","1500","1","26","img_art/29.jpg","-50","too messy","Abigail,Samantha,Anna,Savannah,Haley,Cassandra","Messy and disorganized, to odark,-31,20,20","I love this things almost hidden in it like paint brush and other details,50,140,20","I like the texture and colors and how it makes me feel. I like how it's different from other abstract art.,45,300,20","Looks wrong. Like a real painting was vandalized.,-50,200,20","Looks messy, but not in appealing way,-20,220,20","Neural...just a blackboard jungle.,3,120,20","Abigail","Messy and disorganized, to odark,-31,20,20","Savannah","Looks wrong. Like a real painting was vandalized.,-50,200,20","Haley","Looks messy, but not in appealing way,-20,220,20","2"
"16405","","survey-text","232","4524071","0.0-231.0-0.0","A17FYMZVQ56MGG","","","","{""Q0"":""too distorted""}","","","","","","","","","","","","","","","","","","","","","","",""
"7419.699999809265","","image-slider-response","233","4531498","0.0-232.0","A17FYMZVQ56MGG","","","","","-50","","","","","","","","","","","","","","","","","","","","","",""
"null","","image-button-response","234","4536521","0.0-233.0","A17FYMZVQ56MGG","img_art/14.jpg","null","","","","","","","","","","","","","","","","","","","","","","","","",""
"10299","","image-button-response","235","4546830","0.0-234.0","A17FYMZVQ56MGG","img_art/14.jpg","4","","","","","","","","","","","","","","","","","","","","","","","","",""
"838","","image-button-response","236","4547681","0.0-235.0-0.0","A17FYMZVQ56MGG","img_art/14.jpg","3","","","","","","","","","","","","","","","","","","","","","","","","",""
"1377","","image-button-response","237","4549072","0.0-236.0-0.0","A17FYMZVQ56MGG","img_art/14.jpg","0","","","","","","","","","","","","","","","","","","","","","","","","",""
"null","","html-keyboard-response","238","4549596","0.0-237.0","A17FYMZVQ56MGG","<p style=""font-size: 48px;"">+</p>","","","","","null","allTrialResponses","500","1","27","img_art/14.jpg","-50","too distorted","Abigail,Cheyenne,Molly,Savannah,Haley,Jessica","Reminds me of art class,22,20,20","I'm a fan of the background.,13,200,20","In my opinion it's spectacular.,35,340,20","Again. This is pretty neutral, leaning dislike.,-18,200,20","I like the colors in the background, but not the bottom/center. It almost looks sloppy.,-20,220,20","I kind of like it!,6,400,20","Haley","I like the colors in the background, but not the bottom/center. It almost looks sloppy.,-20,220,20","Savannah","Again. This is pretty neutral, leaning dislike.,-18,200,20","Abigail","Reminds me of art class,22,20,20","2"
"23401","","survey-text","239","4573028","0.0-238.0-0.0","A17FYMZVQ56MGG","","","","{""Q0"":""like the face in it but nothing else""}","","","","","","","","","","","","","","","","","","","","","","",""
"6373.299999952316","","image-slider-response","240","4579415","0.0-239.0","A17FYMZVQ56MGG","","","","","3","","","","","","","","","","","","","","","","","","","","","",""
"null","","image-button-response","241","4584459","0.0-240.0","A17FYMZVQ56MGG","img_art/8.jpg","null","","","","","","","","","","","","","","","","","","","","","","","","",""
"5722","","image-button-response","242","4590191","0.0-241.0","A17FYMZVQ56MGG","img_art/8.jpg","3","","","","","","","","","","","","","","","","","","","","","","","","",""
"3694","","image-button-response","243","4593893","0.0-242.0-0.0","A17FYMZVQ56MGG","img_art/8.jpg","5","","","","","","","","","","","","","","","","","","","","","","","","",""
"10823","","image-button-response","244","4604728","0.0-243.0-0.0","A17FYMZVQ56MGG","img_art/8.jpg","0","","","","","","","","","","","","","","","","","","","","","","","","",""
"null","","html-keyboard-response","245","4605241","0.0-244.0","A17FYMZVQ56MGG","<p style=""font-size: 48px;"">+</p>","","","","","null","allTrialResponses","500","1","28","img_art/8.jpg","3","like the face in it but nothing else","Abigail,Amber,Alexa,Savannah,Haley,Angelica","I did not like the face,-10,20,20","Very colorful. Looks like the hustle and bustle of a city.,11,200,20","It's simply gorgeous. This artist is very talented,50,40,20","Despite the detail, this picture is very abstract!,31,200,20","Gorgeous! I love the colors and the details.,50,220,20","It's a poor rendition of an MC Escher inspired piece.,-25,280,20","Savannah","Despite the detail, this picture is very abstract!,31,200,20","Angelica","It's a poor rendition of an MC Escher inspired piece.,-25,280,20","Abigail","I did not like the face,-10,20,20","2"
"29075","","survey-text","246","4634385","0.0-245.0-0.0","A17FYMZVQ56MGG","","","","{""Q0"":""looks like a distorted messy car wreck""}","","","","","","","","","","","","","","","","","","","","","","",""
"7658.599999904633","","image-slider-response","247","4642054","0.0-246.0","A17FYMZVQ56MGG","","","","","-50","","","","","","","","","","","","","","","","","","","","","",""
"null","","image-button-response","248","4647067","0.0-247.0","A17FYMZVQ56MGG","img_art/20.jpg","null","","","","","","","","","","","","","","","","","","","","","","","","",""
"7414","","image-button-response","249","4654490","0.0-248.0","A17FYMZVQ56MGG","img_art/20.jpg","1","","","","","","","","","","","","","","","","","","","","","","","","",""
"2473","","image-button-response","250","4656977","0.0-249.0-0.0","A17FYMZVQ56MGG","img_art/20.jpg","5","","","","","","","","","","","","","","","","","","","","","","","","",""
"1043","","image-button-response","251","4658034","0.0-250.0-0.0","A17FYMZVQ56MGG","img_art/20.jpg","4","","","","","","","","","","","","","","","","","","","","","","","","",""
"null","","html-keyboard-response","252","4659054","0.0-251.0","A17FYMZVQ56MGG","<p style=""font-size: 48px;"">+</p>","","","","","null","allTrialResponses","1000","1","29","img_art/20.jpg","-50","looks like a distorted messy car wreck","Abigail,Melissa,Breanna,Savannah,Mariah,Angelica","A mountain vacation,46,20,20","feels underdeveloped,-11,240,20","Makes me feel impressed,9,380,20","Lovely composition, colors, and message.,35,200,20","It feels like it ""almost"" several things.,-10,140,20","It's too brash and loud and ugly.,-21,280,20","Melissa","feels underdeveloped,-11,240,20","Angelica","It's too brash and loud and ugly.,-21,280,20","Mariah","It feels like it ""almost"" several things.,-10,140,20","2"
"15998","","survey-text","253","4675088","0.0-252.0-0.0","A17FYMZVQ56MGG","","","","{""Q0"":""abstract city view""}","","","","","","","","","","","","","","","","","","","","","","",""
"6063.200000047684","","image-slider-response","254","4681159","0.0-253.0","A17FYMZVQ56MGG","","","","","-49","","","","","","","","","","","","","","","","","","","","","",""
"null","","image-button-response","255","4686177","0.0-254.0","A17FYMZVQ56MGG","img_art/11.jpg","null","","","","","","","","","","","","","","","","","","","","","","","","",""
"999","","image-button-response","256","4687183","0.0-255.0","A17FYMZVQ56MGG","img_art/11.jpg","3","","","","","","","","","","","","","","","","","","","","","","","","",""
"4223","","image-button-response","257","4691418","0.0-256.0-0.0","A17FYMZVQ56MGG","img_art/11.jpg","5","","","","","","","","","","","","","","","","","","","","","","","","",""
"2019","","image-button-response","258","4693451","0.0-257.0-0.0","A17FYMZVQ56MGG","img_art/11.jpg","2","","","","","","","","","","","","","","","","","","","","","","","","",""
"null","","html-keyboard-response","259","4694966","0.0-258.0","A17FYMZVQ56MGG","<p style=""font-size: 48px;"">+</p>","","","","","null","allTrialResponses","1500","1","30","img_art/11.jpg","-49","abstract city view","Kaitlyn,Melissa,Brianna,Michelle,Mariah,Angelica","Interesting use of color,9,80,20","reminds me of home,5,240,20","I like dark colors.,31,20,20","I think this is a city but I'm not sure, very abstract,18,280,20","The colors are lovely. February getting ready to yield to March.,41,140,20","This is very unappealing.,-11,280,20","Michelle","I think this is a city but I'm not sure, very abstract,18,280,20","Angelica","This is very unappealing.,-11,280,20","Brianna","I like dark colors.,31,20,20","2"
"6394","","image-button-response_instructions","260","4701385","0.0-259.0","A17FYMZVQ56MGG","","0","instructions","","","","","","","","","","","","","","","","","","","","","","","",""
"8504","","image-button-response","261","4709919","0.0-260.0","A17FYMZVQ56MGG","","0","","","","","","","","","","","","","","","","","","","","","","","","",""
