"rt","url","trial_type","trial_index","time_elapsed","internal_node_id","participant_id","stimulus","button_pressed","Name","responses","response","key_press","variableName","fixationTime","condition","trial","photo","subjectRating","subjectResponse","agentsNames","agent_1_Response","agent_2_Response","agent_3_Response","agent_4_Response","agent_5_Response","agent_6_Response","kept_1_name","kept_1_response","kept_2_name","kept_2_response","kept_3_name","kept_3_response","errorCounter"
"208039","external_page_harvard.html","external-html","0","208152","0.0-0.0","A18E16UFE351U6","","","","","","","","","","","","","","","","","","","","","","","","","","",""
"2359","","image-button-response","1","210514","0.0-1.0","A18E16UFE351U6","","1","","","","","","","","","","","","","","","","","","","","","","","","",""
"2476","","image-button-response","2","213001","0.0-2.0-0.0","A18E16UFE351U6","","1","phone","","","","","","","","","","","","","","","","","","","","","","","",""
"4590","","survey-text","3","217595","0.0-3.0-0.0","A18E16UFE351U6","","","","{""Q0"":""A18E16UFE351U6""}","","","","","","","","","","","","","","","","","","","","","","",""
"5770","","image-button-response_instructions","4","223369","0.0-4.0","A18E16UFE351U6","","0","instructions","","","","","","","","","","","","","","","","","","","","","","","",""
"22840","","image-button-response_instructions","5","246210","0.0-5.0","A18E16UFE351U6","img_art/ins/popularity/ins1.png","0","instructions","","","","","","","","","","","","","","","","","","","","","","","",""
"7720","","image-button-response_instructions","6","253933","0.0-6.0","A18E16UFE351U6","img_art/ins/popularity/ins2.png","0","instructions","","","","","","","","","","","","","","","","","","","","","","","",""
"4962","","image-button-response_instructions","7","258897","0.0-7.0","A18E16UFE351U6","img_art/ins/popularity/ins2Extreme.png","0","instructions","","","","","","","","","","","","","","","","","","","","","","","",""
"22897","","image-button-response_instructions","8","281797","0.0-8.0","A18E16UFE351U6","img_art/ins/popularity/ins3KEEPpop.PNG","0","instructions","","","","","","","","","","","","","","","","","","","","","","","",""
"7156","","image-button-response_instructions","9","288956","0.0-9.0","A18E16UFE351U6","img_art/ins/popularity/ins3ANamepop.PNG","0","instructions","","","","","","","","","","","","","","","","","","","","","","","",""
"5128","","image-button-response_instructions","10","294087","0.0-10.0","A18E16UFE351U6","img_art/ins/popularity/ins3ARatingpop.png","0","instructions","","","","","","","","","","","","","","","","","","","","","","","",""
"2443","","image-button-response_instructions","11","296532","0.0-11.0","A18E16UFE351U6","img_art/ins/popularity/ins3ATextpop.png","0","instructions","","","","","","","","","","","","","","","","","","","","","","","",""
"9370","","image-button-response_instructions","12","305903","0.0-12.0","A18E16UFE351U6","img_art/ins/popularity/ins3ALikespop.png","0","instructions","","","","","","","","","","","","","","","","","","","","","","","",""
"23769","","image-button-response_instructions","13","329675","0.0-13.0","A18E16UFE351U6","img_art/ins/popularity/ins3KEEPpop.PNG","0","instructions","","","","","","","","","","","","","","","","","","","","","","","",""
"8711","","image-button-response_instructions","14","338388","0.0-14.0","A18E16UFE351U6","img_art/ins/popularity/ins3_5RED.png","0","instructions","","","","","","","","","","","","","","","","","","","","","","","",""
"6450","","image-button-response_instructions","15","344841","0.0-15.0","A18E16UFE351U6","img_art/ins/popularity/ins3KEEPpop.PNG","0","instructions","","","","","","","","","","","","","","","","","","","","","","","",""
"10003","","image-button-response_instructions","16","354845","0.0-16.0","A18E16UFE351U6","img_art/ins/popularity/ins4KEEPpop.PNG","0","instructions","","","","","","","","","","","","","","","","","","","","","","","",""
"3986","","image-button-response_instructions","17","358834","0.0-17.0","A18E16UFE351U6","img_art/ins/popularity/ins5KEEPpop.PNG","0","instructions","","","","","","","","","","","","","","","","","","","","","","","",""
"1978","","image-button-response_instructions","18","360815","0.0-18.0","A18E16UFE351U6","","0","instructions","","","","","","","","","","","","","","","","","","","","","","","",""
"5744","","survey-text","19","366621","0.0-19.0-0.0","A18E16UFE351U6","","","","{""Q0"":""but""}","","","","","","","","","","","","","","","","","","","","","","",""
"26719","","survey-text","20","393344","0.0-20.0-0.0","A18E16UFE351U6","","","","{""Q0"":""It looks like water flowing over something.""}","","","","","","","","","","","","","","","","","","","","","","",""
"10176.100000143051","","image-slider-response","21","403525","0.0-21.0","A18E16UFE351U6","","","","","-3","","","","","","","","","","","","","","","","","","","","","",""
"null","","image-button-response","22","408548","0.0-22.0","A18E16UFE351U6","img_art/ins/1.jpg","null","","","","","","","","","","","","","","","","","","","","","","","","",""
"4328","","image-button-response","23","412880","0.0-23.0","A18E16UFE351U6","img_art/ins/1.jpg","2","","","","","","","","","","","","","","","","","","","","","","","","",""
"6234","","image-button-response","24","419119","0.0-24.0-0.0","A18E16UFE351U6","img_art/ins/1.jpg","3","","","","","","","","","","","","","","","","","","","","","","","","",""
"8119","","image-button-response","25","427245","0.0-25.0-0.0","A18E16UFE351U6","img_art/ins/1.jpg","0","","","","","","","","","","","","","","","","","","","","","","","","",""
"null","","html-keyboard-response","26","427751","0.0-26.0","A18E16UFE351U6","<p style=""font-size: 48px;"">+</p>","","","","","null","allTrialResponses","500","1","-2","img_art/ins/1.jpg","-3","It looks like water flowing over something.","Allison,Ashley,Beth,Dora,Erika,Jen","looks like a lot of things going on in the mist,20,20,20","I just don't get why these type of art would be popular,-32,40,20","This color reminds me of poo,-46,60,20","looks like what my niece in 3rd grade did this afternoon,-50,80,20","I like the sophisticated brushwork,40,100,20","It reminds me of a candy land dream I had,36,120,20","Beth","This color reminds me of poo,-46,60,20","Dora","looks like what my niece in 3rd grade did this afternoon,-50,80,20","Allison","looks like a lot of things going on in the mist,20,20,20","0"
"24985","","survey-text","27","452742","0.0-27.0-0.0","A18E16UFE351U6","","","","{""Q0"":""It reminds me of a broken brick wall.""}","","","","","","","","","","","","","","","","","","","","","","",""
"8887.100000143051","","image-slider-response","28","461633","0.0-28.0","A18E16UFE351U6","","","","","10","","","","","","","","","","","","","","","","","","","","","",""
"null","","image-button-response","29","466640","0.0-29.0","A18E16UFE351U6","img_art/ins/2.jpg","null","","","","","","","","","","","","","","","","","","","","","","","","",""
"5207","","image-button-response","30","471850","0.0-30.0","A18E16UFE351U6","img_art/ins/2.jpg","4","","","","","","","","","","","","","","","","","","","","","","","","",""
"5145","","image-button-response","31","476999","0.0-31.0-0.0","A18E16UFE351U6","img_art/ins/2.jpg","0","","","","","","","","","","","","","","","","","","","","","","","","",""
"18209","","image-button-response","32","495213","0.0-32.0-0.0","A18E16UFE351U6","img_art/ins/2.jpg","2","","","","","","","","","","","","","","","","","","","","","","","","",""
"null","","html-keyboard-response","33","496223","0.0-33.0","A18E16UFE351U6","<p style=""font-size: 48px;"">+</p>","","","","","null","allTrialResponses","1000","1","-1","img_art/ins/2.jpg","10","It reminds me of a broken brick wall.","Allison,Jenna,Beth,Dora,Kara,Katie","I don't have strong feelings about this,10,20,20","One of my pet peevs,-48,140,20","meaningless painting,-45,60,20","looks too angry,-50,80,20","I like the blocks of color arrangements,30,160,20","too much color!,-28,180,20","Kara","I like the blocks of color arrangements,30,160,20","Allison","I don't have strong feelings about this,10,20,20","Beth","meaningless painting,-45,60,20","0"
"30829","","survey-text","34","527060","0.0-34.0-0.0","A18E16UFE351U6","","","","{""Q0"":""It reminds me of the movie \""The Birds.\""""}","","","","","","","","","","","","","","","","","","","","","","",""
"9437.099999904633","","image-slider-response","35","536499","0.0-35.0","A18E16UFE351U6","","","","","14","","","","","","","","","","","","","","","","","","","","","",""
"2546","","image-button-response","36","541506","0.0-36.0","A18E16UFE351U6","img_art/ins/3.jpg","0","","","","","","","","","","","","","","","","","","","","","","","","",""
"3758","","image-button-response","37","545268","0.0-37.0","A18E16UFE351U6","img_art/ins/3.jpg","0","","","","","","","","","","","","","","","","","","","","","","","","",""
"2721","","image-button-response","38","547994","0.0-38.0-0.0","A18E16UFE351U6","img_art/ins/3.jpg","4","","","","","","","","","","","","","","","","","","","","","","","","",""
"2081","","image-button-response","39","550078","0.0-39.0-0.0","A18E16UFE351U6","img_art/ins/3.jpg","1","","","","","","","","","","","","","","","","","","","","","","","","",""
"null","","html-keyboard-response","40","550585","0.0-40.0","A18E16UFE351U6","<p style=""font-size: 48px;"">+</p>","","","","","null","allTrialResponses","500","1","0","img_art/ins/3.jpg","14","It reminds me of the movie ""The Birds.""","Allison,Mary,Beth,Leslie,Kara,Rose","enjoy the different shades of blue,22,20,20","I like the overlapping of brushes,41,220,20","This thing gives me anxiety,-41,60,20","It's an alright work,15,200,20","calming blue is very nice,36,160,20","My daily routine, it's depressing,-20,240,20","Allison","enjoy the different shades of blue,22,20,20","Kara","calming blue is very nice,36,160,20","Mary","I like the overlapping of brushes,41,220,20","0"
"7022","","image-button-response_instructions","41","557616","0.0-41.0","A18E16UFE351U6","","0","instructions","","","","","","","","","","","","","","","","","","","","","","","",""
"15564","","survey-likert","42","573184","0.0-42.0-0.0","A18E16UFE351U6","","","","{""Q0"":"""",""Q1"":0,""Q2"":1}","","","","","","","","","","","","","","","","","","","","","","",""
"4257","","survey-text","43","577450","0.0-43.0-0.0","A18E16UFE351U6","","","","{""Q0"":""rock""}","","","","","","","","","","","","","","","","","","","","","","",""
"50941","","survey-text","44","628395","0.0-44.0-0.0","A18E16UFE351U6","","","","{""Q0"":""It makes me think of fossils on a mountain.""}","","","","","","","","","","","","","","","","","","","","","","",""
"5770.299999952316","","image-slider-response","45","634168","0.0-45.0","A18E16UFE351U6","","","","","-16","","","","","","","","","","","","","","","","","","","","","",""
"4242","","image-button-response","46","639221","0.0-46.0","A18E16UFE351U6","img_art/7.jpg","1","","","","","","","","","","","","","","","","","","","","","","","","",""
"1576","","image-button-response","47","640802","0.0-47.0","A18E16UFE351U6","img_art/7.jpg","1","","","","","","","","","","","","","","","","","","","","","","","","",""
"2479","","image-button-response","48","643285","0.0-48.0-0.0","A18E16UFE351U6","img_art/7.jpg","5","","","","","","","","","","","","","","","","","","","","","","","","",""
"6043","","image-button-response","49","649334","0.0-49.0-0.0","A18E16UFE351U6","img_art/7.jpg","3","","","","","","","","","","","","","","","","","","","","","","","","",""
"null","","html-keyboard-response","50","650338","0.0-50.0","A18E16UFE351U6","<p style=""font-size: 48px;"">+</p>","","","","","null","allTrialResponses","1000","1","1","img_art/7.jpg","-16","It makes me think of fossils on a mountain.","Allison,Catherine,Maria,Courtney,Tiffany,Jenna","I like the earth tones here,5,140,20","Looking through a microscope at the ground at a beach.,20,160,20","elicits no real response,0,120,20","That a desert floor,16,280,20","I feel relaxed and a little nostalgic, like I'm exploring the wall of a very old building.,18,360,20","reminds me of a desert from far above,23,360,20","Catherine","Looking through a microscope at the ground at a beach.,20,160,20","Jenna","reminds me of a desert from far above,23,360,20","Courtney","That a desert floor,16,280,20","0"
"56791","","survey-text","51","707147","0.0-51.0-0.0","A18E16UFE351U6","","","","{""Q0"":""While the color is drab the content reminds me of a kid playing at school.""}","","","","","","","","","","","","","","","","","","","","","","",""
"5826.799999952316","","image-slider-response","52","712978","0.0-52.0","A18E16UFE351U6","","","","","19","","","","","","","","","","","","","","","","","","","","","",""
"null","","image-button-response","53","717987","0.0-53.0","A18E16UFE351U6","img_art/28.jpg","null","","","","","","","","","","","","","","","","","","","","","","","","",""
"6985","","image-button-response","54","724976","0.0-54.0","A18E16UFE351U6","img_art/28.jpg","2","","","","","","","","","","","","","","","","","","","","","","","","",""
"5702","","image-button-response","55","730683","0.0-55.0-0.0","A18E16UFE351U6","img_art/28.jpg","5","","","","","","","","","","","","","","","","","","","","","","","","",""
"15991","","image-button-response","56","746679","0.0-56.0-0.0","A18E16UFE351U6","img_art/28.jpg","3","","","","","","","","","","","","","","","","","","","","","","","","",""
"null","","html-keyboard-response","57","747693","0.0-57.0","A18E16UFE351U6","<p style=""font-size: 48px;"">+</p>","","","","","null","allTrialResponses","1000","1","2","img_art/28.jpg","19","While the color is drab the content reminds me of a kid playing at school.","Sara,Catherine,Victoria,Courtney,Makayla,Jenna","This swirly drawing i snot my type I get confused and dizzy,-20,160,20","A mom protecting her child because something scary, (perhaps imaginary) wants to take the child.,-10,160,20","drab and dreary,-21,400,20","Looks like some guys in s band playing at a busy park.,18,280,20","The earthy colors smeared around looks like prison food tray,-17,80,20","looks like humanoid figures in distress. I like it, but makes me slightly uncomfortable,35,360,20","Victoria","drab and dreary,-21,400,20","Jenna","looks like humanoid figures in distress. I like it, but makes me slightly uncomfortable,35,360,20","Courtney","Looks like some guys in s band playing at a busy park.,18,280,20","0"
"65188","","survey-text","58","812887","0.0-58.0-0.0","A18E16UFE351U6","","","","{""Q0"":""It looks like a child's painting you're forced to put on the fridge.""}","","","","","","","","","","","","","","","","","","","","","","",""
"5500.5","","image-slider-response","59","818391","0.0-59.0","A18E16UFE351U6","","","","","-30","","","","","","","","","","","","","","","","","","","","","",""
"null","","image-button-response","60","823405","0.0-60.0","A18E16UFE351U6","img_art/2.jpg","null","","","","","","","","","","","","","","","","","","","","","","","","",""
"2256","","image-button-response","61","825664","0.0-61.0","A18E16UFE351U6","img_art/2.jpg","5","","","","","","","","","","","","","","","","","","","","","","","","",""
"3499","","image-button-response","62","829167","0.0-62.0-0.0","A18E16UFE351U6","img_art/2.jpg","3","","","","","","","","","","","","","","","","","","","","","","","","",""
"15664","","image-button-response","63","844835","0.0-63.0-0.0","A18E16UFE351U6","img_art/2.jpg","1","","","","","","","","","","","","","","","","","","","","","","","","",""
"null","","html-keyboard-response","64","845351","0.0-64.0","A18E16UFE351U6","<p style=""font-size: 48px;"">+</p>","","","","","null","allTrialResponses","500","1","3","img_art/2.jpg","-30","It looks like a child's painting you're forced to put on the fridge.","Julia,Molly,Victoria,Courtney,Mikayla,Jenna","I like how it looks like a cute smiling face,43,40,20","Colorful, curious.,20,340,20","I like the colors,22,400,20","That looks look a cartoon character of some kind.,11,280,20","I love the colors in this.,29,300,20","the colors are a bit odd, and the squiggly line at the top is distracting,0,360,20","Jenna","the colors are a bit odd, and the squiggly line at the top is distracting,0,360,20","Courtney","That looks look a cartoon character of some kind.,11,280,20","Molly","Colorful, curious.,20,340,20","0"
"75692","","survey-text","65","921052","0.0-65.0-0.0","A18E16UFE351U6","","","","{""Q0"":""That's a different approach to art with just an unusual mismatch of things drawn or pasted.""}","","","","","","","","","","","","","","","","","","","","","","",""
"6231.299999952316","","image-slider-response","66","927284","0.0-66.0","A18E16UFE351U6","","","","","-40","","","","","","","","","","","","","","","","","","","","","",""
"4406","","image-button-response","67","932293","0.0-67.0","A18E16UFE351U6","img_art/16.jpg","2","","","","","","","","","","","","","","","","","","","","","","","","",""
"1337","","image-button-response","68","933633","0.0-68.0","A18E16UFE351U6","img_art/16.jpg","2","","","","","","","","","","","","","","","","","","","","","","","","",""
"7432","","image-button-response","69","941070","0.0-69.0-0.0","A18E16UFE351U6","img_art/16.jpg","4","","","","","","","","","","","","","","","","","","","","","","","","",""
"3993","","image-button-response","70","945067","0.0-70.0-0.0","A18E16UFE351U6","img_art/16.jpg","5","","","","","","","","","","","","","","","","","","","","","","","","",""
"null","","html-keyboard-response","71","945578","0.0-71.0","A18E16UFE351U6","<p style=""font-size: 48px;"">+</p>","","","","","null","allTrialResponses","500","1","4","img_art/16.jpg","-40","That's a different approach to art with just an unusual mismatch of things drawn or pasted.","Sabrina,Molly,Jennifer,Courtney,Angela,Jenna","Kind of an edgy teenager vibe,32,120,20","It's frightening.,30,340,20","Very creepy, it makes me feel uneasy,-31,380,20","Hmm i don't know what going on here.,1,280,20","Hate this, especially the jarring contrast of the super realistic teddybear face.,-50,260,20","very bizarre and confusing, but that feels purposeful, so i don't completely hate it.,-25,360,20","Jennifer","Very creepy, it makes me feel uneasy,-31,380,20","Angela","Hate this, especially the jarring contrast of the super realistic teddybear face.,-50,260,20","Jenna","very bizarre and confusing, but that feels purposeful, so i don't completely hate it.,-25,360,20","0"
"31196","","survey-text","72","976779","0.0-72.0-0.0","A18E16UFE351U6","","","","{""Q0"":""It looks creepy, like a cult performing a ritual in the middle of the woods.""}","","","","","","","","","","","","","","","","","","","","","","",""
"8985.200000047684","","image-slider-response","73","985768","0.0-73.0","A18E16UFE351U6","","","","","-24","","","","","","","","","","","","","","","","","","","","","",""
"null","","image-button-response","74","990781","0.0-74.0","A18E16UFE351U6","img_art/23.jpg","null","","","","","","","","","","","","","","","","","","","","","","","","",""
"5440","","image-button-response","75","996224","0.0-75.0","A18E16UFE351U6","img_art/23.jpg","2","","","","","","","","","","","","","","","","","","","","","","","","",""
"6799","","image-button-response","76","1003027","0.0-76.0-0.0","A18E16UFE351U6","img_art/23.jpg","4","","","","","","","","","","","","","","","","","","","","","","","","",""
"6477","","image-button-response","77","1009508","0.0-77.0-0.0","A18E16UFE351U6","img_art/23.jpg","0","","","","","","","","","","","","","","","","","","","","","","","","",""
"null","","html-keyboard-response","78","1011025","0.0-78.0","A18E16UFE351U6","<p style=""font-size: 48px;"">+</p>","","","","","null","allTrialResponses","1500","1","5","img_art/23.jpg","-24","It looks creepy, like a cult performing a ritual in the middle of the woods.","Gabrielle,Rebecca,Jennifer,Monica,Angela,Jenna","it's OK, but just OK, kind of interesting but I wouldn't spend money on it,4,160,20","love the contrast (was this painted by a left-handed artist?),7,100,20","The cluster of white silhouettes against the colorful background makes me feel uneasy for some reason,-36,380,20","I like the sharp contrast of the white on the colorful background,27,360,20","Like the background colors and the energy, but the white bits ruin it for me,-7,260,20","awesome colors. love the white drawing the eye to the center. oddly comforting.,50,360,20","Jennifer","The cluster of white silhouettes against the colorful background makes me feel uneasy for some reason,-36,380,20","Angela","Like the background colors and the energy, but the white bits ruin it for me,-7,260,20","Gabrielle","it's OK, but just OK, kind of interesting but I wouldn't spend money on it,4,160,20","0"
"5302","","survey-text","79","1016352","0.0-79.0-0.0","A18E16UFE351U6","","","","{""Q0"":""sky""}","","","","","","","","","","","","","","","","","","","","","","",""
"79650","","survey-text","80","1096004","0.0-80.0-0.0","A18E16UFE351U6","","","","{""Q0"":""This looks dark, almost like a ship on fire after it's been attacked.""}","","","","","","","","","","","","","","","","","","","","","","",""
"5240.099999904633","","image-slider-response","81","1101247","0.0-81.0","A18E16UFE351U6","","","","","-6","","","","","","","","","","","","","","","","","","","","","",""
"null","","image-button-response","82","1106261","0.0-82.0","A18E16UFE351U6","img_art/21.jpg","null","","","","","","","","","","","","","","","","","","","","","","","","",""
"8999","","image-button-response","83","1115263","0.0-83.0","A18E16UFE351U6","img_art/21.jpg","2","","","","","","","","","","","","","","","","","","","","","","","","",""
"8512","","image-button-response","84","1123780","0.0-84.0-0.0","A18E16UFE351U6","img_art/21.jpg","4","","","","","","","","","","","","","","","","","","","","","","","","",""
"12214","","image-button-response","85","1136000","0.0-85.0-0.0","A18E16UFE351U6","img_art/21.jpg","0","","","","","","","","","","","","","","","","","","","","","","","","",""
"null","","html-keyboard-response","86","1137014","0.0-86.0","A18E16UFE351U6","<p style=""font-size: 48px;"">+</p>","","","","","null","allTrialResponses","1000","1","6","img_art/21.jpg","-6","This looks dark, almost like a ship on fire after it's been attacked.","Gabrielle,Mary,Jennifer,Amanda,Angela,Alicia","setting sun sky? nice colors and blending,14,160,20","This is lovely. I like the mix of colors, the warn and cool slowly combining.,39,180,20","Bland, this painting is my least favorite,-20,380,20","Very calming and nice to look at,30,180,20","I feel like I'm looking at two different paintings mashed together in the middle.,20,260,20","Don't know why I like it, cant describe, maybe many landscapes?,47,120,20","Jennifer","Bland, this painting is my least favorite,-20,380,20","Angela","I feel like I'm looking at two different paintings mashed together in the middle.,20,260,20","Gabrielle","setting sun sky? nice colors and blending,14,160,20","0"
"45343","","survey-text","87","1182364","0.0-87.0-0.0","A18E16UFE351U6","","","","{""Q0"":""It's calming, like looking out the window in the city during fall.""}","","","","","","","","","","","","","","","","","","","","","","",""
"5796.600000143051","","image-slider-response","88","1188164","0.0-88.0","A18E16UFE351U6","","","","","35","","","","","","","","","","","","","","","","","","","","","",""
"3430","","image-button-response","89","1193170","0.0-89.0","A18E16UFE351U6","img_art/26.jpg","0","","","","","","","","","","","","","","","","","","","","","","","","",""
"1224","","image-button-response","90","1194397","0.0-90.0","A18E16UFE351U6","img_art/26.jpg","0","","","","","","","","","","","","","","","","","","","","","","","","",""
"9662","","image-button-response","91","1204063","0.0-91.0-0.0","A18E16UFE351U6","img_art/26.jpg","5","","","","","","","","","","","","","","","","","","","","","","","","",""
"4210","","image-button-response","92","1208277","0.0-92.0-0.0","A18E16UFE351U6","img_art/26.jpg","4","","","","","","","","","","","","","","","","","","","","","","","","",""
"null","","html-keyboard-response","93","1209792","0.0-93.0","A18E16UFE351U6","<p style=""font-size: 48px;"">+</p>","","","","","null","allTrialResponses","1500","1","7","img_art/26.jpg","35","It's calming, like looking out the window in the city during fall.","Gabrielle,Olivia,Jennifer,Destiny,Angela,Sydney","subtle use of colors, city street view?,8,160,20","reminds me of a hometown,7,40,20","This picture doesn't really stand out.,0,380,20","I really love pastels and they're just being dimmed down too much here,-3,360,20","Nice, but not very interesting. I do like the blue tree though.,6,260,20","I wish there was more detail, but I really like this simple piece.,35,320,20","Gabrielle","subtle use of colors, city street view?,8,160,20","Sydney","I wish there was more detail, but I really like this simple piece.,35,320,20","Angela","Nice, but not very interesting. I do like the blue tree though.,6,260,20","0"
"61252","","survey-text","94","1271051","0.0-94.0-0.0","A18E16UFE351U6","","","","{""Q0"":""I like that there's a lot going on here and a lot to look at.""}","","","","","","","","","","","","","","","","","","","","","","",""
"4594.900000095367","","image-slider-response","95","1275649","0.0-95.0","A18E16UFE351U6","","","","","44","","","","","","","","","","","","","","","","","","","","","",""
"null","","image-button-response","96","1280656","0.0-96.0","A18E16UFE351U6","img_art/14.jpg","null","","","","","","","","","","","","","","","","","","","","","","","","",""
"1176","","image-button-response","97","1281836","0.0-97.0","A18E16UFE351U6","img_art/14.jpg","2","","","","","","","","","","","","","","","","","","","","","","","","",""
"3784","","image-button-response","98","1285623","0.0-98.0-0.0","A18E16UFE351U6","img_art/14.jpg","1","","","","","","","","","","","","","","","","","","","","","","","","",""
"7621","","image-button-response","99","1293250","0.0-99.0-0.0","A18E16UFE351U6","img_art/14.jpg","5","","","","","","","","","","","","","","","","","","","","","","","","",""
"null","","html-keyboard-response","100","1294258","0.0-100.0","A18E16UFE351U6","<p style=""font-size: 48px;"">+</p>","","","","","null","allTrialResponses","1000","1","8","img_art/14.jpg","44","I like that there's a lot going on here and a lot to look at.","Gabrielle,Kelsey,Claire,Katelyn,Angela,Sydney","the colors are peaceful and nature colors, soft,37,160,20","i like this one!,23,240,20","mythical and nature like,37,260,20","Its cute. Not striking but i would keep it in my home.,10,100,20","I like the colors and the shapes are interesting,11,260,20","I'm imagining a flower bouquet with pretty colors which I like.,35,320,20","Claire","mythical and nature like,37,260,20","Kelsey","i like this one!,23,240,20","Sydney","I'm imagining a flower bouquet with pretty colors which I like.,35,320,20","0"
"52896","","survey-text","101","1347161","0.0-101.0-0.0","A18E16UFE351U6","","","","{""Q0"":""It looks like people going outside or fleeing during a fire, scary.""}","","","","","","","","","","","","","","","","","","","","","","",""
"4764.400000095367","","image-slider-response","102","1351928","0.0-102.0","A18E16UFE351U6","","","","","-37","","","","","","","","","","","","","","","","","","","","","",""
"null","","image-button-response","103","1356939","0.0-103.0","A18E16UFE351U6","img_art/27.jpg","null","","","","","","","","","","","","","","","","","","","","","","","","",""
"7318","","image-button-response","104","1364260","0.0-104.0","A18E16UFE351U6","img_art/27.jpg","3","","","","","","","","","","","","","","","","","","","","","","","","",""
"1233","","image-button-response","105","1365497","0.0-105.0-0.0","A18E16UFE351U6","img_art/27.jpg","1","","","","","","","","","","","","","","","","","","","","","","","","",""
"666","","image-button-response","106","1366168","0.0-106.0-0.0","A18E16UFE351U6","img_art/27.jpg","2","","","","","","","","","","","","","","","","","","","","","","","","",""
"null","","html-keyboard-response","107","1367672","0.0-107.0","A18E16UFE351U6","<p style=""font-size: 48px;"">+</p>","","","","","null","allTrialResponses","1500","1","9","img_art/27.jpg","-37","It looks like people going outside or fleeing during a fire, scary.","Jamie,Kelsey,Claire,Stephanie,Dominique,Sydney","Don't like the mix of green with the warmer colors,-15,320,20","too messy dont like the color choices either,-17,240,20","looks like a little kid did it,-30,260,20","The black sketchy over the colors doesn't fit.,-4,300,20","A beautiful day full of Hope and Inspiritation. The warmth of hot cocoa with the family gathering around,33,400,20","This piece reminds me of a summer day.,30,320,20","Stephanie","The black sketchy over the colors doesn't fit.,-4,300,20","Kelsey","too messy dont like the color choices either,-17,240,20","Claire","looks like a little kid did it,-30,260,20","0"
"51460","","survey-text","108","1419140","0.0-108.0-0.0","A18E16UFE351U6","","","","{""Q0"":""Water flowing from a garden hose on a hot fall day.""}","","","","","","","","","","","","","","","","","","","","","","",""
"4626.700000047684","","image-slider-response","109","1423769","0.0-109.0","A18E16UFE351U6","","","","","40","","","","","","","","","","","","","","","","","","","","","",""
"null","","image-button-response","110","1428782","0.0-110.0","A18E16UFE351U6","img_art/24.jpg","null","","","","","","","","","","","","","","","","","","","","","","","","",""
"710","","image-button-response","111","1429496","0.0-111.0","A18E16UFE351U6","img_art/24.jpg","0","","","","","","","","","","","","","","","","","","","","","","","","",""
"1225","","image-button-response","112","1430725","0.0-112.0-0.0","A18E16UFE351U6","img_art/24.jpg","2","","","","","","","","","","","","","","","","","","","","","","","","",""
"6985","","image-button-response","113","1437713","0.0-113.0-0.0","A18E16UFE351U6","img_art/24.jpg","5","","","","","","","","","","","","","","","","","","","","","","","","",""
"null","","html-keyboard-response","114","1439218","0.0-114.0","A18E16UFE351U6","<p style=""font-size: 48px;"">+</p>","","","","","null","allTrialResponses","1500","1","10","img_art/24.jpg","40","Water flowing from a garden hose on a hot fall day.","Kristen,Kelsey,Claire,Stephanie,Natalie,Bailey","calm, nature, safe, happy place,,50,280,20","this one is just a bit too harsh,-13,240,20","reminds me of a beautiful waterfall,50,260,20","A beautiful waterfall in the springtime.,40,300,20","I like the waterfall,22,400,20","Feels surreal, in a way, and vibrant,37,360,20","Kristen","calm, nature, safe, happy place,,50,280,20","Claire","reminds me of a beautiful waterfall,50,260,20","Bailey","Feels surreal, in a way, and vibrant,37,360,20","0"
"7094","","survey-text","115","1446330","0.0-115.0-0.0","A18E16UFE351U6","","","","{""Q0"":""our""}","","","","","","","","","","","","","","","","","","","","","","",""
"24340","","survey-text","116","1470673","0.0-116.0-0.0","A18E16UFE351U6","","","","{""Q0"":""Reminds me of a predatory bird hunting for prey.""}","","","","","","","","","","","","","","","","","","","","","","",""
"12074.799999952316","","image-slider-response","117","1482750","0.0-117.0","A18E16UFE351U6","","","","","1","","","","","","","","","","","","","","","","","","","","","",""
"4963","","image-button-response","118","1487755","0.0-118.0","A18E16UFE351U6","img_art/6.jpg","2","","","","","","","","","","","","","","","","","","","","","","","","",""
"855","","image-button-response","119","1488613","0.0-119.0","A18E16UFE351U6","img_art/6.jpg","1","","","","","","","","","","","","","","","","","","","","","","","","",""
"866","","image-button-response","120","1489484","0.0-120.0-0.0","A18E16UFE351U6","img_art/6.jpg","2","","","","","","","","","","","","","","","","","","","","","","","","",""
"8977","","image-button-response","121","1498466","0.0-121.0-0.0","A18E16UFE351U6","img_art/6.jpg","4","","","","","","","","","","","","","","","","","","","","","","","","",""
"null","","html-keyboard-response","122","1499972","0.0-122.0","A18E16UFE351U6","<p style=""font-size: 48px;"">+</p>","","","","","null","allTrialResponses","1500","1","11","img_art/6.jpg","1","Reminds me of a predatory bird hunting for prey.","Kristen,Emma,Claire,Elizabeth,Kayla,Bailey","loneliness, fragile, forever alone, a girl who's been there for eternity, only think tracking time is the length of her hair,9,280,20","Birds are cool but I don't love it,10,60,20","very minimalistic,22,260,20","Love the simplicity of it,41,20,20","Little birdie in a desert. Seeking better frontiers.,13,180,20","Not my favorite, but I like the empty vibe and the imagination it invokes. A skinny girl with long legs, perhaps, looking over a cliff,9,360,20","Emma","Birds are cool but I don't love it,10,60,20","Claire","very minimalistic,22,260,20","Kayla","Little birdie in a desert. Seeking better frontiers.,13,180,20","0"
"42254","","survey-text","123","1542236","0.0-123.0-0.0","A18E16UFE351U6","","","","{""Q0"":""It makes me think of a siren summoning a boat.""}","","","","","","","","","","","","","","","","","","","","","","",""
"7104.700000047684","","image-slider-response","124","1549345","0.0-124.0","A18E16UFE351U6","","","","","43","","","","","","","","","","","","","","","","","","","","","",""
"null","","image-button-response","125","1554354","0.0-125.0","A18E16UFE351U6","img_art/18.jpg","null","","","","","","","","","","","","","","","","","","","","","","","","",""
"2335","","image-button-response","126","1556691","0.0-126.0","A18E16UFE351U6","img_art/18.jpg","2","","","","","","","","","","","","","","","","","","","","","","","","",""
"6056","","image-button-response","127","1562751","0.0-127.0-0.0","A18E16UFE351U6","img_art/18.jpg","5","","","","","","","","","","","","","","","","","","","","","","","","",""
"3959","","image-button-response","128","1566719","0.0-128.0-0.0","A18E16UFE351U6","img_art/18.jpg","0","","","","","","","","","","","","","","","","","","","","","","","","",""
"null","","html-keyboard-response","129","1567221","0.0-129.0","A18E16UFE351U6","<p style=""font-size: 48px;"">+</p>","","","","","null","allTrialResponses","500","1","12","img_art/18.jpg","43","It makes me think of a siren summoning a boat.","Heather,Emma,Claire,Amy,Kayla,Erika","i like the colors in the picture and can make out my own images,42,260,20","Vaguely creepy ........,-20,60,20","reminds me of greek mythology,22,260,20","So much going on. Frightening and tumultous, brave and inspiring. I'd like to spend the rest of my life interpreting it.,30,220,20","It's like a ship, but a freaky ship.,-11,180,20","Gently chaotic and beautiful,40,100,20","Claire","reminds me of greek mythology,22,260,20","Erika","Gently chaotic and beautiful,40,100,20","Heather","i like the colors in the picture and can make out my own images,42,260,20","0"
"27306","","survey-text","130","1594536","0.0-130.0-0.0","A18E16UFE351U6","","","","{""Q0"":""Reminds me of rainfall on a window. Very calming and great colors.""}","","","","","","","","","","","","","","","","","","","","","","",""
"6923.200000047684","","image-slider-response","131","1601463","0.0-131.0","A18E16UFE351U6","","","","","50","","","","","","","","","","","","","","","","","","","","","",""
"null","","image-button-response","132","1606475","0.0-132.0","A18E16UFE351U6","img_art/13.jpg","null","","","","","","","","","","","","","","","","","","","","","","","","",""
"10302","","image-button-response","133","1616781","0.0-133.0","A18E16UFE351U6","img_art/13.jpg","2","","","","","","","","","","","","","","","","","","","","","","","","",""
"3436","","image-button-response","134","1620222","0.0-134.0-0.0","A18E16UFE351U6","img_art/13.jpg","5","","","","","","","","","","","","","","","","","","","","","","","","",""
"1719","","image-button-response","135","1621949","0.0-135.0-0.0","A18E16UFE351U6","img_art/13.jpg","3","","","","","","","","","","","","","","","","","","","","","","","","",""
"null","","html-keyboard-response","136","1623454","0.0-136.0","A18E16UFE351U6","<p style=""font-size: 48px;"">+</p>","","","","","null","allTrialResponses","1500","1","13","img_art/13.jpg","50","Reminds me of rainfall on a window. Very calming and great colors.","Heather,Vanessa,Claire,Andrea,Jasmine,Erika","rain in blue black and white,1,260,20","I love the colors and the contrast between the different blues.,21,380,20","love the colors and splatters,44,260,20","Raindrops on a window. Makes me feel like traveling.,31,240,20","I like the colors together,17,340,20","Gorgeous contrast and color choice, very pleasing,50,100,20","Claire","love the colors and splatters,44,260,20","Erika","Gorgeous contrast and color choice, very pleasing,50,100,20","Andrea","Raindrops on a window. Makes me feel like traveling.,31,240,20","0"
"55112","","survey-text","137","1678577","0.0-137.0-0.0","A18E16UFE351U6","","","","{""Q0"":""Looks like a smoggy city with lots of telephone lines. I like it though for some reason.""}","","","","","","","","","","","","","","","","","","","","","","",""
"4320.399999856949","","image-slider-response","138","1682901","0.0-138.0","A18E16UFE351U6","","","","","18","","","","","","","","","","","","","","","","","","","","","",""
"null","","image-button-response","139","1687919","0.0-139.0","A18E16UFE351U6","img_art/11.jpg","null","","","","","","","","","","","","","","","","","","","","","","","","",""
"7764","","image-button-response","140","1695687","0.0-140.0","A18E16UFE351U6","img_art/11.jpg","5","","","","","","","","","","","","","","","","","","","","","","","","",""
"3496","","image-button-response","141","1699187","0.0-141.0-0.0","A18E16UFE351U6","img_art/11.jpg","4","","","","","","","","","","","","","","","","","","","","","","","","",""
"4822","","image-button-response","142","1704013","0.0-142.0-0.0","A18E16UFE351U6","img_art/11.jpg","0","","","","","","","","","","","","","","","","","","","","","","","","",""
"null","","html-keyboard-response","143","1705018","0.0-143.0","A18E16UFE351U6","<p style=""font-size: 48px;"">+</p>","","","","","null","allTrialResponses","1000","1","14","img_art/11.jpg","18","Looks like a smoggy city with lots of telephone lines. I like it though for some reason.","Emily,Kaitlin,Claire,Andrea,Mackenzie,Erika","It's kind of cool and I see it looks clean.,22,40,20","a beautiful piece of art,33,60,20","the wavy lines are nice and pleasing,13,260,20","My initial thought was roller coasters but I see ship masts on a cloudy day too.,35,240,20","The different textures and colors make this pleasing to look at.,30,20,20","I want to know which skyline the artist is depicting,26,100,20","Erika","I want to know which skyline the artist is depicting,26,100,20","Mackenzie","The different textures and colors make this pleasing to look at.,30,20,20","Emily","It's kind of cool and I see it looks clean.,22,40,20","0"
"58166","","survey-text","144","1763192","0.0-144.0-0.0","A18E16UFE351U6","","","","{""Q0"":""It looks like a straw figure that would be burned at some ritual, creepy. I like the colors though.""}","","","","","","","","","","","","","","","","","","","","","","",""
"4553.100000143051","","image-slider-response","145","1767749","0.0-145.0","A18E16UFE351U6","","","","","7","","","","","","","","","","","","","","","","","","","","","",""
"null","","image-button-response","146","1772765","0.0-146.0","A18E16UFE351U6","img_art/25.jpg","null","","","","","","","","","","","","","","","","","","","","","","","","",""
"1043","","image-button-response","147","1773811","0.0-147.0","A18E16UFE351U6","img_art/25.jpg","1","","","","","","","","","","","","","","","","","","","","","","","","",""
"4346","","image-button-response","148","1778162","0.0-148.0-0.0","A18E16UFE351U6","img_art/25.jpg","4","","","","","","","","","","","","","","","","","","","","","","","","",""
"1120","","image-button-response","149","1779287","0.0-149.0-0.0","A18E16UFE351U6","img_art/25.jpg","5","","","","","","","","","","","","","","","","","","","","","","","","",""
"null","","html-keyboard-response","150","1780303","0.0-150.0","A18E16UFE351U6","<p style=""font-size: 48px;"">+</p>","","","","","null","allTrialResponses","1000","1","15","img_art/25.jpg","7","It looks like a straw figure that would be burned at some ritual, creepy. I like the colors though.","Emily,Grace,Hailey,Madison,Mackenzie,Erika","Low skill not impressed.,-14,40,20","Scary. Something out of a Stephen King book/movie.,-31,180,20","ugly color and very sad old lady,-45,200,20","Meh. Hardly abstract, though.,-40,60,20","Very nice color contrast and design.,40,20,20","Very cryptic and ancient,36,100,20","Grace","Scary. Something out of a Stephen King book/movie.,-31,180,20","Mackenzie","Very nice color contrast and design.,40,20,20","Erika","Very cryptic and ancient,36,100,20","0"
"4160","","survey-text","151","1784489","0.0-151.0-0.0","A18E16UFE351U6","","","","{""Q0"":""course""}","","","","","","","","","","","","","","","","","","","","","","",""
"44408","","survey-text","152","1828899","0.0-152.0-0.0","A18E16UFE351U6","","","","{""Q0"":""Reminds me of Lady of The Lake.""}","","","","","","","","","","","","","","","","","","","","","","",""
"6757.900000095367","","image-slider-response","153","1835660","0.0-153.0","A18E16UFE351U6","","","","","-2","","","","","","","","","","","","","","","","","","","","","",""
"null","","image-button-response","154","1840678","0.0-154.0","A18E16UFE351U6","img_art/9.jpg","null","","","","","","","","","","","","","","","","","","","","","","","","",""
"824","","image-button-response","155","1841505","0.0-155.0","A18E16UFE351U6","img_art/9.jpg","2","","","","","","","","","","","","","","","","","","","","","","","","",""
"3879","","image-button-response","156","1845388","0.0-156.0-0.0","A18E16UFE351U6","img_art/9.jpg","3","","","","","","","","","","","","","","","","","","","","","","","","",""
"7996","","image-button-response","157","1853387","0.0-157.0-0.0","A18E16UFE351U6","img_art/9.jpg","1","","","","","","","","","","","","","","","","","","","","","","","","",""
"null","","html-keyboard-response","158","1854394","0.0-158.0","A18E16UFE351U6","<p style=""font-size: 48px;"">+</p>","","","","","null","allTrialResponses","1000","1","16","img_art/9.jpg","-2","Reminds me of Lady of The Lake.","Lindsey,Grace,Meghan,Alexis,Mackenzie,Erika","Looks like my niece's doodles.,-50,400,20","Huh?  Doesn't invoke much.,-37,180,20","looks like someone resting,12,220,20","I like the sense of forboding, the green creates a claustrophobic feeling,10,100,20","I enjoy the design, but the colors look waxy,-7,20,20","Colorful and expressive,15,100,20","Meghan","looks like someone resting,12,220,20","Alexis","I like the sense of forboding, the green creates a claustrophobic feeling,10,100,20","Grace","Huh?  Doesn't invoke much.,-37,180,20","0"
"46865","","survey-text","159","1901280","0.0-159.0-0.0","A18E16UFE351U6","","","","{""Q0"":""This doesn't elicit much of a response. Looks like a bell on a store counter.""}","","","","","","","","","","","","","","","","","","","","","","",""
"9600.799999952316","","image-slider-response","160","1910885","0.0-160.0","A18E16UFE351U6","","","","","0","","","","","","","","","","","","","","","","","","","","","",""
"null","","image-button-response","161","1915904","0.0-161.0","A18E16UFE351U6","img_art/5.jpg","null","","","","","","","","","","","","","","","","","","","","","","","","",""
"13055","","image-button-response","162","1928964","0.0-162.0","A18E16UFE351U6","img_art/5.jpg","1","","","","","","","","","","","","","","","","","","","","","","","","",""
"2091","","image-button-response","163","1931059","0.0-163.0-0.0","A18E16UFE351U6","img_art/5.jpg","0","","","","","","","","","","","","","","","","","","","","","","","","",""
"11999","","image-button-response","164","1943064","0.0-164.0-0.0","A18E16UFE351U6","img_art/5.jpg","3","","","","","","","","","","","","","","","","","","","","","","","","",""
"null","","html-keyboard-response","165","1944075","0.0-165.0","A18E16UFE351U6","<p style=""font-size: 48px;"">+</p>","","","","","null","allTrialResponses","1000","1","17","img_art/5.jpg","0","This doesn't elicit much of a response. Looks like a bell on a store counter.","Megan,Grace,Meghan,Alexis,Ashley,Kaitlyn","Cop out, easy money for artist for a 4 min piece,-29,200,20","Looks like a yellow plastic trash bag.,-42,180,20","I like it but I don't know why,15,220,20","Kindergarten art. I really don't like this style.,-50,100,20","I like the simple shapes and colors.,23,320,20","Wish the background had been kept clean; distracts from main object,11,80,20","Grace","Looks like a yellow plastic trash bag.,-42,180,20","Megan","Cop out, easy money for artist for a 4 min piece,-29,200,20","Alexis","Kindergarten art. I really don't like this style.,-50,100,20","0"
"35690","","survey-text","166","1979773","0.0-166.0-0.0","A18E16UFE351U6","","","","{""Q0"":""reminds me of a hedge row at night.""}","","","","","","","","","","","","","","","","","","","","","","",""
"5910.399999856949","","image-slider-response","167","1985691","0.0-167.0","A18E16UFE351U6","","","","","8","","","","","","","","","","","","","","","","","","","","","",""
"null","","image-button-response","168","1990698","0.0-168.0","A18E16UFE351U6","img_art/15.jpg","null","","","","","","","","","","","","","","","","","","","","","","","","",""
"5449","","image-button-response","169","1996150","0.0-169.0","A18E16UFE351U6","img_art/15.jpg","5","","","","","","","","","","","","","","","","","","","","","","","","",""
"4507","","image-button-response","170","2000662","0.0-170.0-0.0","A18E16UFE351U6","img_art/15.jpg","3","","","","","","","","","","","","","","","","","","","","","","","","",""
"2244","","image-button-response","171","2002911","0.0-171.0-0.0","A18E16UFE351U6","img_art/15.jpg","1","","","","","","","","","","","","","","","","","","","","","","","","",""
"null","","html-keyboard-response","172","2004416","0.0-172.0","A18E16UFE351U6","<p style=""font-size: 48px;"">+</p>","","","","","null","allTrialResponses","1500","1","18","img_art/15.jpg","8","reminds me of a hedge row at night.","Megan,Grace,Madeline,Alexis,Brittany,Melissa","Dark, drab asymmetrical floral piece,-26,200,20","Interesting. Reminds me of a biopsy slide.,21,180,20","Simple but needs some more detail somehow,-3,40,20","Not a fan of abstract, but the black is very striking,10,100,20","Color scheme and design are rather boring.,-10,40,20","reminds me of birds in trees,14,240,20","Melissa","reminds me of birds in trees,14,240,20","Alexis","Not a fan of abstract, but the black is very striking,10,100,20","Grace","Interesting. Reminds me of a biopsy slide.,21,180,20","0"
"19085","","survey-text","173","2023510","0.0-173.0-0.0","A18E16UFE351U6","","","","{""Q0"":""I love the warm tones mixed with the blue.""}","","","","","","","","","","","","","","","","","","","","","","",""
"4126","","image-slider-response","174","2027643","0.0-174.0","A18E16UFE351U6","","","","","41","","","","","","","","","","","","","","","","","","","","","",""
"null","","image-button-response","175","2032665","0.0-175.0","A18E16UFE351U6","img_art/22.jpg","null","","","","","","","","","","","","","","","","","","","","","","","","",""
"1740","","image-button-response","176","2034408","0.0-176.0","A18E16UFE351U6","img_art/22.jpg","1","","","","","","","","","","","","","","","","","","","","","","","","",""
"7205","","image-button-response","177","2041619","0.0-177.0-0.0","A18E16UFE351U6","img_art/22.jpg","2","","","","","","","","","","","","","","","","","","","","","","","","",""
"1024","","image-button-response","178","2042648","0.0-178.0-0.0","A18E16UFE351U6","img_art/22.jpg","5","","","","","","","","","","","","","","","","","","","","","","","","",""
"null","","html-keyboard-response","179","2043160","0.0-179.0","A18E16UFE351U6","<p style=""font-size: 48px;"">+</p>","","","","","null","allTrialResponses","500","1","19","img_art/22.jpg","41","I love the warm tones mixed with the blue.","Taylor,Grace,Christina,Alexis,Chelsea,Melissa","Doesn't make me feel anything,-4,340,20","Love vibrant colors & the abstractness.,43,180,20","i like the colors but it looks too 80s for me,7,240,20","Don't like this type of abstract work,-39,100,20","The colors clash, and I don't know what is happening.,-23,180,20","strong blending skills,7,240,20","Grace","Love vibrant colors & the abstractness.,43,180,20","Christina","i like the colors but it looks too 80s for me,7,240,20","Melissa","strong blending skills,7,240,20","0"
"62216","","survey-text","180","2105384","0.0-180.0-0.0","A18E16UFE351U6","","","","{""Q0"":""It makes me think of a small child finger painting. I kind of like it, but not sure why.""}","","","","","","","","","","","","","","","","","","","","","","",""
"4254.599999904633","","image-slider-response","181","2109643","0.0-181.0","A18E16UFE351U6","","","","","23","","","","","","","","","","","","","","","","","","","","","",""
"null","","image-button-response","182","2114660","0.0-182.0","A18E16UFE351U6","img_art/29.jpg","null","","","","","","","","","","","","","","","","","","","","","","","","",""
"7043","","image-button-response","183","2121706","0.0-183.0","A18E16UFE351U6","img_art/29.jpg","0","","","","","","","","","","","","","","","","","","","","","","","","",""
"5852","","image-button-response","184","2127561","0.0-184.0-0.0","A18E16UFE351U6","img_art/29.jpg","2","","","","","","","","","","","","","","","","","","","","","","","","",""
"3477","","image-button-response","185","2131043","0.0-185.0-0.0","A18E16UFE351U6","img_art/29.jpg","3","","","","","","","","","","","","","","","","","","","","","","","","",""
"null","","html-keyboard-response","186","2132557","0.0-186.0","A18E16UFE351U6","<p style=""font-size: 48px;"">+</p>","","","","","null","allTrialResponses","1500","1","20","img_art/29.jpg","23","It makes me think of a small child finger painting. I kind of like it, but not sure why.","Amber,Grace,Christina,Brooke,Danielle,Melissa","Don't like the red X across the painting.,-15,200,20","Doesn't do much for me. I like some of the colors but not much else.,-10,180,20","It's too on trend with the gray and doesn't look like a lasting piece,-4,240,20","Lines and light are clean but subject doesn't interest me,0,60,20","Quite ugly in my opinion,-30,340,20","abrasive and grotesque textures,-36,240,20","Amber","Don't like the red X across the painting.,-15,200,20","Christina","It's too on trend with the gray and doesn't look like a lasting piece,-4,240,20","Brooke","Lines and light are clean but subject doesn't interest me,0,60,20","0"
"5790","","survey-text","187","2138364","0.0-187.0-0.0","A18E16UFE351U6","","","","{""Q0"":""we""}","","","","","","","","","","","","","","","","","","","","","","",""
"29586","","survey-text","188","2167954","0.0-188.0-0.0","A18E16UFE351U6","","","","{""Q0"":""Looks like a traffic accident with a turned over semi truck.""}","","","","","","","","","","","","","","","","","","","","","","",""
"7622","","image-slider-response","189","2175581","0.0-189.0","A18E16UFE351U6","","","","","-39","","","","","","","","","","","","","","","","","","","","","",""
"null","","image-button-response","190","2180584","0.0-190.0","A18E16UFE351U6","img_art/20.jpg","null","","","","","","","","","","","","","","","","","","","","","","","","",""
"1328","","image-button-response","191","2181915","0.0-191.0","A18E16UFE351U6","img_art/20.jpg","2","","","","","","","","","","","","","","","","","","","","","","","","",""
"3636","","image-button-response","192","2185554","0.0-192.0-0.0","A18E16UFE351U6","img_art/20.jpg","4","","","","","","","","","","","","","","","","","","","","","","","","",""
"8795","","image-button-response","193","2194354","0.0-193.0-0.0","A18E16UFE351U6","img_art/20.jpg","3","","","","","","","","","","","","","","","","","","","","","","","","",""
"null","","html-keyboard-response","194","2195366","0.0-194.0","A18E16UFE351U6","<p style=""font-size: 48px;"">+</p>","","","","","null","allTrialResponses","1000","1","21","img_art/20.jpg","-39","Looks like a traffic accident with a turned over semi truck.","Amber,Crystal,Christina,Brooke,Katie,Hannah","Bold strokes and colors.,6,200,20","The pulling and sagging nature is very beautiful.,30,300,20","it looks like a piccasso knock off,-23,240,20","Dinosaur skill and some dark shadow above,-30,60,20","I don't like it. Dark sky and black figures. White objects remind me of bones.,-30,160,20","Reminds me of the Southwest; i.e. New Mexico or Arizona. It's interesting.,12,240,20","Christina","it looks like a piccasso knock off,-23,240,20","Katie","I don't like it. Dark sky and black figures. White objects remind me of bones.,-30,160,20","Brooke","Dinosaur skill and some dark shadow above,-30,60,20","0"
"20097","","survey-text","195","2215472","0.0-195.0-0.0","A18E16UFE351U6","","","","{""Q0"":""I like the blending over colors and the pops of blue.""}","","","","","","","","","","","","","","","","","","","","","","",""
"4280.399999856949","","image-slider-response","196","2219755","0.0-196.0","A18E16UFE351U6","","","","","36","","","","","","","","","","","","","","","","","","","","","",""
"null","","image-button-response","197","2224767","0.0-197.0","A18E16UFE351U6","img_art/1.jpg","null","","","","","","","","","","","","","","","","","","","","","","","","",""
"1064","","image-button-response","198","2225834","0.0-198.0","A18E16UFE351U6","img_art/1.jpg","0","","","","","","","","","","","","","","","","","","","","","","","","",""
"3508","","image-button-response","199","2229348","0.0-199.0-0.0","A18E16UFE351U6","img_art/1.jpg","5","","","","","","","","","","","","","","","","","","","","","","","","",""
"1204","","image-button-response","200","2230557","0.0-200.0-0.0","A18E16UFE351U6","img_art/1.jpg","3","","","","","","","","","","","","","","","","","","","","","","","","",""
"null","","html-keyboard-response","201","2231067","0.0-201.0","A18E16UFE351U6","<p style=""font-size: 48px;"">+</p>","","","","","null","allTrialResponses","500","1","22","img_art/1.jpg","36","I like the blending over colors and the pops of blue.","Erica,Caroline,Christina,Brooke,Katie,Abigail","Makes me warm and relaxed,38,80,20","Felt nothing in response to this painting,3,100,20","nice colors but kinds of blah,1,240,20","It's okay, colors remind me of autumn.,10,60,20","Too messy. Just looks like a mess of dark colors.,-20,160,20","I like the warmth of the picture,21,20,20","Erica","Makes me warm and relaxed,38,80,20","Abigail","I like the warmth of the picture,21,20,20","Brooke","It's okay, colors remind me of autumn.,10,60,20","0"
"15946","","survey-text","202","2247023","0.0-202.0-0.0","A18E16UFE351U6","","","","{""Q0"":""Too chaotic, it makes me anxious.""}","","","","","","","","","","","","","","","","","","","","","","",""
"4118.699999809265","","image-slider-response","203","2251145","0.0-203.0","A18E16UFE351U6","","","","","-39","","","","","","","","","","","","","","","","","","","","","",""
"null","","image-button-response","204","2256153","0.0-204.0","A18E16UFE351U6","img_art/3.jpg","null","","","","","","","","","","","","","","","","","","","","","","","","",""
"6081","","image-button-response","205","2262238","0.0-205.0","A18E16UFE351U6","img_art/3.jpg","3","","","","","","","","","","","","","","","","","","","","","","","","",""
"4515","","image-button-response","206","2266756","0.0-206.0-0.0","A18E16UFE351U6","img_art/3.jpg","5","","","","","","","","","","","","","","","","","","","","","","","","",""
"2779","","image-button-response","207","2269539","0.0-207.0-0.0","A18E16UFE351U6","img_art/3.jpg","1","","","","","","","","","","","","","","","","","","","","","","","","",""
"null","","html-keyboard-response","208","2270547","0.0-208.0","A18E16UFE351U6","<p style=""font-size: 48px;"">+</p>","","","","","null","allTrialResponses","1000","1","23","img_art/3.jpg","-39","Too chaotic, it makes me anxious.","Erica,Alexa,Cassandra,Brooke,Leah,Abigail","Associates with blood and crime scene,-12,80,20","Looks messy and too much for my eyes,-35,40,20","I hate this...just a scribble of red.,-50,120,20","kid scribbled on the wall again,-35,60,20","Scratchy scrawly all one color, looks like a mistake,-28,360,20","Reminded me of blood or something bad,-21,20,20","Brooke","kid scribbled on the wall again,-35,60,20","Abigail","Reminded me of blood or something bad,-21,20,20","Alexa","Looks messy and too much for my eyes,-35,40,20","0"
"37465","","survey-text","209","2308030","0.0-209.0-0.0","A18E16UFE351U6","","","","{""Q0"":""I like the brush marks but overall pretty boring and drab.""}","","","","","","","","","","","","","","","","","","","","","","",""
"4457.5","","image-slider-response","210","2312491","0.0-210.0","A18E16UFE351U6","","","","","-12","","","","","","","","","","","","","","","","","","","","","",""
"null","","image-button-response","211","2317509","0.0-211.0","A18E16UFE351U6","img_art/30.jpg","null","","","","","","","","","","","","","","","","","","","","","","","","",""
"11002","","image-button-response","212","2328514","0.0-212.0","A18E16UFE351U6","img_art/30.jpg","5","","","","","","","","","","","","","","","","","","","","","","","","",""
"1270","","image-button-response","213","2329788","0.0-213.0-0.0","A18E16UFE351U6","img_art/30.jpg","4","","","","","","","","","","","","","","","","","","","","","","","","",""
"4027","","image-button-response","214","2333819","0.0-214.0-0.0","A18E16UFE351U6","img_art/30.jpg","0","","","","","","","","","","","","","","","","","","","","","","","","",""
"null","","html-keyboard-response","215","2334836","0.0-215.0","A18E16UFE351U6","<p style=""font-size: 48px;"">+</p>","","","","","null","allTrialResponses","1000","1","24","img_art/30.jpg","-12","I like the brush marks but overall pretty boring and drab.","Isabella,Alexa,Paige,Brooke,Alyssa,Abigail","I like the back but the red lines in the front distress me,-7,280,20","Looks quite basic but the colors are nice and there is a wildness about it that I love,0,40,20","Happy. Makes me think of childhood finger painting,49,60,20","Like the color and style,31,60,20","ugly nasty colors,-10,160,20","Combination of colors arent good,-6,20,20","Abigail","Combination of colors arent good,-6,20,20","Alyssa","ugly nasty colors,-10,160,20","Isabella","I like the back but the red lines in the front distress me,-7,280,20","0"
"22557","","survey-text","216","2357404","0.0-216.0-0.0","A18E16UFE351U6","","","","{""Q0"":""It's so busy looking but I kind of like it.""}","","","","","","","","","","","","","","","","","","","","","","",""
"4219.600000143051","","image-slider-response","217","2361625","0.0-217.0","A18E16UFE351U6","","","","","11","","","","","","","","","","","","","","","","","","","","","",""
"null","","image-button-response","218","2366633","0.0-218.0","A18E16UFE351U6","img_art/12.jpg","null","","","","","","","","","","","","","","","","","","","","","","","","",""
"4841","","image-button-response","219","2371476","0.0-219.0","A18E16UFE351U6","img_art/12.jpg","0","","","","","","","","","","","","","","","","","","","","","","","","",""
"9826","","image-button-response","220","2381306","0.0-220.0-0.0","A18E16UFE351U6","img_art/12.jpg","5","","","","","","","","","","","","","","","","","","","","","","","","",""
"7133","","image-button-response","221","2388443","0.0-221.0-0.0","A18E16UFE351U6","img_art/12.jpg","4","","","","","","","","","","","","","","","","","","","","","","","","",""
"null","","html-keyboard-response","222","2388949","0.0-222.0","A18E16UFE351U6","<p style=""font-size: 48px;"">+</p>","","","","","null","allTrialResponses","500","1","25","img_art/12.jpg","11","It's so busy looking but I kind of like it.","Isabella,Shelby,Sarah,Rachel,Alyssa,Abigail","Something you would see in a government building hallway,3,280,20","The shapes make me feel a bit uncomfortable,-10,240,20","i think it's a good piece but it doesn't appeal to me,-18,180,20","I like how it's split into tiny squares, but otherwise, not very intriguing.,-18,80,20","Its cool,reminiscent of Andy Warhol type of style,10,160,20","Made me uncomfortable, reminded me of the 90s,-9,20,20","Isabella","Something you would see in a government building hallway,3,280,20","Abigail","Made me uncomfortable, reminded me of the 90s,-9,20,20","Alyssa","Its cool,reminiscent of Andy Warhol type of style,10,160,20","0"
"3934","","survey-text","223","2392900","0.0-223.0-0.0","A18E16UFE351U6","","","","{""Q0"":""table""}","","","","","","","","","","","","","","","","","","","","","","",""
"37339","","survey-text","224","2430242","0.0-224.0-0.0","A18E16UFE351U6","","","","{""Q0"":""Makes me think of Amsterdam or walking along a waterway.""}","","","","","","","","","","","","","","","","","","","","","","",""
"4579","","image-slider-response","225","2434824","0.0-225.0","A18E16UFE351U6","","","","","18","","","","","","","","","","","","","","","","","","","","","",""
"null","","image-button-response","226","2439831","0.0-226.0","A18E16UFE351U6","img_art/19.jpg","null","","","","","","","","","","","","","","","","","","","","","","","","",""
"2841","","image-button-response","227","2442676","0.0-227.0","A18E16UFE351U6","img_art/19.jpg","2","","","","","","","","","","","","","","","","","","","","","","","","",""
"5611","","image-button-response","228","2448290","0.0-228.0-0.0","A18E16UFE351U6","img_art/19.jpg","1","","","","","","","","","","","","","","","","","","","","","","","","",""
"1774","","image-button-response","229","2450068","0.0-229.0-0.0","A18E16UFE351U6","img_art/19.jpg","0","","","","","","","","","","","","","","","","","","","","","","","","",""
"null","","html-keyboard-response","230","2450583","0.0-230.0","A18E16UFE351U6","<p style=""font-size: 48px;"">+</p>","","","","","null","allTrialResponses","500","1","26","img_art/19.jpg","18","Makes me think of Amsterdam or walking along a waterway.","Isabella,Kylie,Breanna,Autumn,Alyssa,Abigail","A day in a small city,45,280,20","Reminds me of a quaint little town I once visited in Italy,50,300,20","The details are amazing,36,380,20","Messy and kid like.,-36,340,20","There's alot of elements to it bordering on clutter and chaotic,-20,160,20","I dont like the gray shadows, ruins it,-7,20,20","Breanna","The details are amazing,36,380,20","Kylie","Reminds me of a quaint little town I once visited in Italy,50,300,20","Isabella","A day in a small city,45,280,20","0"
"38504","","survey-text","231","2489104","0.0-231.0-0.0","A18E16UFE351U6","","","","{""Q0"":""It looks like an overhead shot of a racetrack but after an accident.""}","","","","","","","","","","","","","","","","","","","","","","",""
"3778.0999999046326","","image-slider-response","232","2492886","0.0-232.0","A18E16UFE351U6","","","","","-28","","","","","","","","","","","","","","","","","","","","","",""
"null","","image-button-response","233","2497894","0.0-233.0","A18E16UFE351U6","img_art/10.jpg","null","","","","","","","","","","","","","","","","","","","","","","","","",""
"6221","","image-button-response","234","2504119","0.0-234.0","A18E16UFE351U6","img_art/10.jpg","2","","","","","","","","","","","","","","","","","","","","","","","","",""
"1007","","image-button-response","235","2505131","0.0-235.0-0.0","A18E16UFE351U6","img_art/10.jpg","1","","","","","","","","","","","","","","","","","","","","","","","","",""
"7289","","image-button-response","236","2512426","0.0-236.0-0.0","A18E16UFE351U6","img_art/10.jpg","5","","","","","","","","","","","","","","","","","","","","","","","","",""
"null","","html-keyboard-response","237","2512934","0.0-237.0","A18E16UFE351U6","<p style=""font-size: 48px;"">+</p>","","","","","null","allTrialResponses","500","1","27","img_art/10.jpg","-28","It looks like an overhead shot of a racetrack but after an accident.","Isabella,Kylie,Breanna,Cynthia,Kaylee,Cheyenne","Like a decision making process,46,280,20","Musical guitar whimsy,45,300,20","Makes me feel amazed,23,380,20","cultural with a symphony,40,320,20","a blue whale on the sea,12,200,20","Very nice painting, would like it more with different color choice.,6,200,20","Breanna","Makes me feel amazed,23,380,20","Kylie","Musical guitar whimsy,45,300,20","Cheyenne","Very nice painting, would like it more with different color choice.,6,200,20","0"
"33343","","survey-text","238","2546301","0.0-238.0-0.0","A18E16UFE351U6","","","","{""Q0"":""I like this a lot. Makes me think of mythology.""}","","","","","","","","","","","","","","","","","","","","","","",""
"4106.200000047684","","image-slider-response","239","2550410","0.0-239.0","A18E16UFE351U6","","","","","46","","","","","","","","","","","","","","","","","","","","","",""
"null","","image-button-response","240","2555423","0.0-240.0","A18E16UFE351U6","img_art/8.jpg","null","","","","","","","","","","","","","","","","","","","","","","","","",""
"6785","","image-button-response","241","2562211","0.0-241.0","A18E16UFE351U6","img_art/8.jpg","1","","","","","","","","","","","","","","","","","","","","","","","","",""
"1520","","image-button-response","242","2563736","0.0-242.0-0.0","A18E16UFE351U6","img_art/8.jpg","2","","","","","","","","","","","","","","","","","","","","","","","","",""
"1391","","image-button-response","243","2565133","0.0-243.0-0.0","A18E16UFE351U6","img_art/8.jpg","5","","","","","","","","","","","","","","","","","","","","","","","","",""
"null","","html-keyboard-response","244","2566146","0.0-244.0","A18E16UFE351U6","<p style=""font-size: 48px;"">+</p>","","","","","null","allTrialResponses","1000","1","28","img_art/8.jpg","46","I like this a lot. Makes me think of mythology.","Gabriela,Kylie,Breanna,Kelly,Michelle,Cheyenne","I like that it sort of looks like a cityscape,9,140,20","Very abstract and seems symbolic,45,300,20","Makes me feel nice,23,380,20","Interesting, i really like the face and the moon. Realy detailed and you see something new with each look.,11,220,20","I appreciate the complexity of this piece but it's too cubist for me,3,280,20","Has nice depth to it.,12,200,20","Kylie","Very abstract and seems symbolic,45,300,20","Breanna","Makes me feel nice,23,380,20","Cheyenne","Has nice depth to it.,12,200,20","0"
"26825","","survey-text","245","2592984","0.0-245.0-0.0","A18E16UFE351U6","","","","{""Q0"":""Looks like an overexposed tree or a negative of a photo.""}","","","","","","","","","","","","","","","","","","","","","","",""
"4087.7000000476837","","image-slider-response","246","2597075","0.0-246.0","A18E16UFE351U6","","","","","16","","","","","","","","","","","","","","","","","","","","","",""
"null","","image-button-response","247","2602082","0.0-247.0","A18E16UFE351U6","img_art/17.jpg","null","","","","","","","","","","","","","","","","","","","","","","","","",""
"1122","","image-button-response","248","2603207","0.0-248.0","A18E16UFE351U6","img_art/17.jpg","1","","","","","","","","","","","","","","","","","","","","","","","","",""
"4030","","image-button-response","249","2607240","0.0-249.0-0.0","A18E16UFE351U6","img_art/17.jpg","4","","","","","","","","","","","","","","","","","","","","","","","","",""
"5145","","image-button-response","250","2612389","0.0-250.0-0.0","A18E16UFE351U6","img_art/17.jpg","5","","","","","","","","","","","","","","","","","","","","","","","","",""
"null","","html-keyboard-response","251","2613896","0.0-251.0","A18E16UFE351U6","<p style=""font-size: 48px;"">+</p>","","","","","null","allTrialResponses","1500","1","29","img_art/17.jpg","16","Looks like an overexposed tree or a negative of a photo.","Katherine,Kylie,Breanna,Sierra,Diana,Cheyenne","Looks like a weird blurry heaven again! I dig,32,120,20","Looks like an explosion of pretty artwork,45,300,20","Very cool, makes me feel calm,43,380,20","the colors, the arch and the wall,15,260,20","I really enjoyed this piece, it's a play on bringing the outside indoors.,32,380,20","I like the colorfulness.,17,200,20","Kylie","Looks like an explosion of pretty artwork,45,300,20","Diana","I really enjoyed this piece, it's a play on bringing the outside indoors.,32,380,20","Cheyenne","I like the colorfulness.,17,200,20","0"
"32413","","survey-text","252","2646319","0.0-252.0-0.0","A18E16UFE351U6","","","","{""Q0"":""Awful. I hate the large brown smears.""}","","","","","","","","","","","","","","","","","","","","","","",""
"4492.600000143051","","image-slider-response","253","2650816","0.0-253.0","A18E16UFE351U6","","","","","-50","","","","","","","","","","","","","","","","","","","","","",""
"null","","image-button-response","254","2655831","0.0-254.0","A18E16UFE351U6","img_art/4.jpg","null","","","","","","","","","","","","","","","","","","","","","","","","",""
"2954","","image-button-response","255","2658789","0.0-255.0","A18E16UFE351U6","img_art/4.jpg","5","","","","","","","","","","","","","","","","","","","","","","","","",""
"1700","","image-button-response","256","2660493","0.0-256.0-0.0","A18E16UFE351U6","img_art/4.jpg","0","","","","","","","","","","","","","","","","","","","","","","","","",""
"1473","","image-button-response","257","2661970","0.0-257.0-0.0","A18E16UFE351U6","img_art/4.jpg","2","","","","","","","","","","","","","","","","","","","","","","","","",""
"null","","html-keyboard-response","258","2662475","0.0-258.0","A18E16UFE351U6","<p style=""font-size: 48px;"">+</p>","","","","","null","allTrialResponses","500","1","30","img_art/4.jpg","-50","Awful. I hate the large brown smears.","Samantha,Kylie,Briana,Lauren,Diana,Cheyenne","I domt like the yellow black blended smear,-50,140,20","I just have no clue,26,300,20","Fingerpaint of a hand?,-30,400,20","I like the design. It can be interpreted in various ways, such as a hand of horror or still piece.,15,340,20","Odd but intriguing. I feel emotion from this. Like a woman bent over carrying these emotions on her back.,33,380,20","Just doesn't look nice.,-40,200,20","Cheyenne","Just doesn't look nice.,-40,200,20","Samantha","I domt like the yellow black blended smear,-50,140,20","Briana","Fingerpaint of a hand?,-30,400,20","0"
"2574","","image-button-response_instructions","259","2665061","0.0-259.0","A18E16UFE351U6","","0","instructions","","","","","","","","","","","","","","","","","","","","","","","",""
"1563","","image-button-response","260","2666637","0.0-260.0","A18E16UFE351U6","","0","","","","","","","","","","","","","","","","","","","","","","","","",""
