"rt","url","trial_type","trial_index","time_elapsed","internal_node_id","participant_id","stimulus","button_pressed","Name","responses","response","key_press","variableName","fixationTime","condition","trial","photo","subjectRating","subjectResponse","agentsNames","agent_1_Response","agent_2_Response","agent_3_Response","agent_4_Response","agent_5_Response","agent_6_Response","kept_1_name","kept_1_response","kept_2_name","kept_2_response","kept_3_name","kept_3_response","errorCounter"
"5425","external_page_harvard.html","external-html","0","6255","0.0-0.0","A197FECF831H95","","","","","","","","","","","","","","","","","","","","","","","","","","",""
"1725","","image-button-response","1","7984","0.0-1.0","A197FECF831H95","","1","","","","","","","","","","","","","","","","","","","","","","","","",""
"1861","","image-button-response","2","9854","0.0-2.0-0.0","A197FECF831H95","","1","phone","","","","","","","","","","","","","","","","","","","","","","","",""
"6933","","survey-text","3","16789","0.0-3.0-0.0","A197FECF831H95","","","","{""Q0"":""A197FECF831H95""}","","","","","","","","","","","","","","","","","","","","","","",""
"3033","","image-button-response_instructions","4","19826","0.0-4.0","A197FECF831H95","","0","instructions","","","","","","","","","","","","","","","","","","","","","","","",""
"8128","","image-button-response_instructions","5","27955","0.0-5.0","A197FECF831H95","img_art/ins/popularity/ins1.png","0","instructions","","","","","","","","","","","","","","","","","","","","","","","",""
"4100","","image-button-response_instructions","6","32057","0.0-6.0","A197FECF831H95","img_art/ins/popularity/ins2.png","0","instructions","","","","","","","","","","","","","","","","","","","","","","","",""
"9782","","image-button-response_instructions","7","41841","0.0-7.0","A197FECF831H95","img_art/ins/popularity/ins2Extreme.png","0","instructions","","","","","","","","","","","","","","","","","","","","","","","",""
"3064","","image-button-response_instructions","8","44907","0.0-8.0","A197FECF831H95","img_art/ins/popularity/ins3KEEPpop.PNG","0","instructions","","","","","","","","","","","","","","","","","","","","","","","",""
"3621","","image-button-response_instructions","9","48529","0.0-9.0","A197FECF831H95","img_art/ins/popularity/ins3ANamepop.PNG","0","instructions","","","","","","","","","","","","","","","","","","","","","","","",""
"3475","","image-button-response_instructions","10","52005","0.0-10.0","A197FECF831H95","img_art/ins/popularity/ins3ARatingpop.png","0","instructions","","","","","","","","","","","","","","","","","","","","","","","",""
"3016","","image-button-response_instructions","11","55023","0.0-11.0","A197FECF831H95","img_art/ins/popularity/ins3ATextpop.png","0","instructions","","","","","","","","","","","","","","","","","","","","","","","",""
"7261","","image-button-response_instructions","12","62285","0.0-12.0","A197FECF831H95","img_art/ins/popularity/ins3ALikespop.png","0","instructions","","","","","","","","","","","","","","","","","","","","","","","",""
"7150","","image-button-response_instructions","13","69438","0.0-13.0","A197FECF831H95","img_art/ins/popularity/ins3KEEPpop.PNG","0","instructions","","","","","","","","","","","","","","","","","","","","","","","",""
"8476","","image-button-response_instructions","14","77917","0.0-14.0","A197FECF831H95","img_art/ins/popularity/ins3_5RED.png","0","instructions","","","","","","","","","","","","","","","","","","","","","","","",""
"4856","","image-button-response_instructions","15","82775","0.0-15.0","A197FECF831H95","img_art/ins/popularity/ins3KEEPpop.PNG","0","instructions","","","","","","","","","","","","","","","","","","","","","","","",""
"15196","","image-button-response_instructions","16","97973","0.0-16.0","A197FECF831H95","img_art/ins/popularity/ins4KEEPpop.PNG","0","instructions","","","","","","","","","","","","","","","","","","","","","","","",""
"2869","","image-button-response_instructions","17","100844","0.0-17.0","A197FECF831H95","img_art/ins/popularity/ins5KEEPpop.PNG","0","instructions","","","","","","","","","","","","","","","","","","","","","","","",""
"1576","","image-button-response_instructions","18","102421","0.0-18.0","A197FECF831H95","","0","instructions","","","","","","","","","","","","","","","","","","","","","","","",""
"5684","","survey-text","19","108142","0.0-19.0-0.0","A197FECF831H95","","","","{""Q0"":""but""}","","","","","","","","","","","","","","","","","","","","","","",""
"11295","","survey-text","20","119439","0.0-20.0-0.0","A197FECF831H95","","","","{""Q0"":""it looks like something a child painted""}","","","","","","","","","","","","","","","","","","","","","","",""
"5191","","image-slider-response","21","124635","0.0-21.0","A197FECF831H95","","","","","3","","","","","","","","","","","","","","","","","","","","","",""
"null","","image-button-response","22","129651","0.0-22.0","A197FECF831H95","img_art/ins/1.jpg","null","","","","","","","","","","","","","","","","","","","","","","","","",""
"1663","","image-button-response","23","131316","0.0-23.0","A197FECF831H95","img_art/ins/1.jpg","0","","","","","","","","","","","","","","","","","","","","","","","","",""
"2785","","image-button-response","24","134101","0.0-24.0-0.0","A197FECF831H95","img_art/ins/1.jpg","3","","","","","","","","","","","","","","","","","","","","","","","","",""
"3856","","image-button-response","25","137961","0.0-25.0-0.0","A197FECF831H95","img_art/ins/1.jpg","5","","","","","","","","","","","","","","","","","","","","","","","","",""
"null","","html-keyboard-response","26","138466","0.0-26.0","A197FECF831H95","<p style=""font-size: 48px;"">+</p>","","","","","null","allTrialResponses","500","1","-2","img_art/ins/1.jpg","3","it looks like something a child painted","Allison,Ashley,Beth,Dora,Erika,Jen","looks like a lot of things going on in the mist,20,20,20","I just don't get why these type of art would be popular,-32,40,20","This color reminds me of poo,-46,60,20","looks like what my niece in 3rd grade did this afternoon,-50,80,20","I like the sophisticated brushwork,40,100,20","It reminds me of a candy land dream I had,36,120,20","Allison","looks like a lot of things going on in the mist,20,20,20","Dora","looks like what my niece in 3rd grade did this afternoon,-50,80,20","Jen","It reminds me of a candy land dream I had,36,120,20","0"
"11547","","survey-text","27","150025","0.0-27.0-0.0","A197FECF831H95","","","","{""Q0"":"" the colors are very bold""}","","","","","","","","","","","","","","","","","","","","","","",""
"3856","","image-slider-response","28","153885","0.0-28.0","A197FECF831H95","","","","","11","","","","","","","","","","","","","","","","","","","","","",""
"null","","image-button-response","29","158895","0.0-29.0","A197FECF831H95","img_art/ins/2.jpg","null","","","","","","","","","","","","","","","","","","","","","","","","",""
"268","","image-button-response","30","159165","0.0-30.0","A197FECF831H95","img_art/ins/2.jpg","4","","","","","","","","","","","","","","","","","","","","","","","","",""
"1425","","image-button-response","31","160593","0.0-31.0-0.0","A197FECF831H95","img_art/ins/2.jpg","5","","","","","","","","","","","","","","","","","","","","","","","","",""
"1617","","image-button-response","32","162212","0.0-32.0-0.0","A197FECF831H95","img_art/ins/2.jpg","0","","","","","","","","","","","","","","","","","","","","","","","","",""
"null","","html-keyboard-response","33","163726","0.0-33.0","A197FECF831H95","<p style=""font-size: 48px;"">+</p>","","","","","null","allTrialResponses","1500","1","-1","img_art/ins/2.jpg","11"," the colors are very bold","Allison,Jenna,Katie,Dora,Kara,Jen","I don't have strong feelings about this,10,20,20","One of my pet peevs,-48,140,20","too much color!,-28,180,20","looks too angry,-50,80,20","I like the blocks of color arrangements,30,160,20","It reminds me of a fireplace,36,120,20","Kara","I like the blocks of color arrangements,30,160,20","Jen","It reminds me of a fireplace,36,120,20","Allison","I don't have strong feelings about this,10,20,20","0"
"9219","","survey-text","34","172955","0.0-34.0-0.0","A197FECF831H95","","","","{""Q0"":""it reminds me of the sea""}","","","","","","","","","","","","","","","","","","","","","","",""
"2893","","image-slider-response","35","175850","0.0-35.0","A197FECF831H95","","","","","29","","","","","","","","","","","","","","","","","","","","","",""
"1611","","image-button-response","36","180856","0.0-36.0","A197FECF831H95","img_art/ins/3.jpg","0","","","","","","","","","","","","","","","","","","","","","","","","",""
"982","","image-button-response","37","181839","0.0-37.0","A197FECF831H95","img_art/ins/3.jpg","4","","","","","","","","","","","","","","","","","","","","","","","","",""
"2144","","image-button-response","38","183985","0.0-38.0-0.0","A197FECF831H95","img_art/ins/3.jpg","0","","","","","","","","","","","","","","","","","","","","","","","","",""
"978","","image-button-response","39","184965","0.0-39.0-0.0","A197FECF831H95","img_art/ins/3.jpg","2","","","","","","","","","","","","","","","","","","","","","","","","",""
"null","","html-keyboard-response","40","185469","0.0-40.0","A197FECF831H95","<p style=""font-size: 48px;"">+</p>","","","","","null","allTrialResponses","500","1","0","img_art/ins/3.jpg","29","it reminds me of the sea","Allison,Rose,Mary,Leslie,Kara,Jen","enjoy the different shades of blue,22,20,20","My daily routine, it's depressing,-20,240,20","I like the overlapping of brushes,41,220,20","It's an alright work,15,200,20","calming blue is very nice,36,160,20","I can feel a rainy day from this painting,18,120,20","Kara","calming blue is very nice,36,160,20","Allison","enjoy the different shades of blue,22,20,20","Mary","I like the overlapping of brushes,41,220,20","0"
"4272","","image-button-response_instructions","41","189750","0.0-41.0","A197FECF831H95","","0","instructions","","","","","","","","","","","","","","","","","","","","","","","",""
"9697","","survey-likert","42","199450","0.0-42.0-0.0","A197FECF831H95","","","","{""Q0"":"""",""Q1"":0,""Q2"":1}","","","","","","","","","","","","","","","","","","","","","","",""
"4146","","survey-text","43","203600","0.0-43.0-0.0","A197FECF831H95","","","","{""Q0"":""rock""}","","","","","","","","","","","","","","","","","","","","","","",""
"11259","","survey-text","44","214861","0.0-44.0-0.0","A197FECF831H95","","","","{""Q0"":""it looks like a bunch of people celebrating""}","","","","","","","","","","","","","","","","","","","","","","",""
"3222","","image-slider-response","45","218087","0.0-45.0","A197FECF831H95","","","","","9","","","","","","","","","","","","","","","","","","","","","",""
"3136","","image-button-response","46","223110","0.0-46.0","A197FECF831H95","img_art/23.jpg","1","","","","","","","","","","","","","","","","","","","","","","","","",""
"172","","image-button-response","47","223285","0.0-47.0","A197FECF831H95","img_art/23.jpg","2","","","","","","","","","","","","","","","","","","","","","","","","",""
"792","","image-button-response","48","224079","0.0-48.0-0.0","A197FECF831H95","img_art/23.jpg","1","","","","","","","","","","","","","","","","","","","","","","","","",""
"4660","","image-button-response","49","228742","0.0-49.0-0.0","A197FECF831H95","img_art/23.jpg","5","","","","","","","","","","","","","","","","","","","","","","","","",""
"null","","html-keyboard-response","50","230259","0.0-50.0","A197FECF831H95","<p style=""font-size: 48px;"">+</p>","","","","","null","allTrialResponses","1500","1","1","img_art/23.jpg","9","it looks like a bunch of people celebrating","Laura,Rachel,Olivia,Caitlin,Emily,Grace","teeth! dancing people, celebrations,-39,320,20","Vivid colors and the white in the middle looks like people dancing.,31,80,20","happiness in the universe,28,40,20","SOME thought was put into this one.,5,80,20","I don't get it.,-40,40,20","Looks like fireworks.,21,180,20","Olivia","happiness in the universe,28,40,20","Rachel","Vivid colors and the white in the middle looks like people dancing.,31,80,20","Grace","Looks like fireworks.,21,180,20","0"
"13676","","survey-text","51","243953","0.0-51.0-0.0","A197FECF831H95","","","","{""Q0"":""looks like a broom collecting dust""}","","","","","","","","","","","","","","","","","","","","","","",""
"6592","","image-slider-response","52","250546","0.0-52.0","A197FECF831H95","","","","","-4","","","","","","","","","","","","","","","","","","","","","",""
"4953","","image-button-response","53","255551","0.0-53.0","A197FECF831H95","img_art/5.jpg","2","","","","","","","","","","","","","","","","","","","","","","","","",""
"814","","image-button-response","54","256368","0.0-54.0","A197FECF831H95","img_art/5.jpg","2","","","","","","","","","","","","","","","","","","","","","","","","",""
"1589","","image-button-response","55","257959","0.0-55.0-0.0","A197FECF831H95","img_art/5.jpg","3","","","","","","","","","","","","","","","","","","","","","","","","",""
"3502","","image-button-response","56","261462","0.0-56.0-0.0","A197FECF831H95","img_art/5.jpg","5","","","","","","","","","","","","","","","","","","","","","","","","",""
"null","","html-keyboard-response","57","262967","0.0-57.0","A197FECF831H95","<p style=""font-size: 48px;"">+</p>","","","","","null","allTrialResponses","1500","1","2","img_art/5.jpg","-4","looks like a broom collecting dust","Tiffany,Rachel,Olivia,Sara,Lauren,Grace","I feel nothing looking at this.,-5,360,20","Not sure what to make of this one.,-1,80,20","a brush in time,-14,40,20","It looks random,-10,160,20","I like the simplicity of the design, but I can't tell what the image is trying to depict.,10,340,20","Looks like a yellow plastic trash bag.,-42,180,20","Olivia","a brush in time,-14,40,20","Sara","It looks random,-10,160,20","Grace","Looks like a yellow plastic trash bag.,-42,180,20","0"
"20174","","survey-text","58","283154","0.0-58.0-0.0","A197FECF831H95","","","","{""Q0"":""the colors are nice the town is fun""}","","","","","","","","","","","","","","","","","","","","","","",""
"3638","","image-slider-response","59","286796","0.0-59.0","A197FECF831H95","","","","","9","","","","","","","","","","","","","","","","","","","","","",""
"null","","image-button-response","60","291803","0.0-60.0","A197FECF831H95","img_art/8.jpg","null","","","","","","","","","","","","","","","","","","","","","","","","",""
"1207","","image-button-response","61","293012","0.0-61.0","A197FECF831H95","img_art/8.jpg","1","","","","","","","","","","","","","","","","","","","","","","","","",""
"1428","","image-button-response","62","294442","0.0-62.0-0.0","A197FECF831H95","img_art/8.jpg","2","","","","","","","","","","","","","","","","","","","","","","","","",""
"3857","","image-button-response","63","298303","0.0-63.0-0.0","A197FECF831H95","img_art/8.jpg","4","","","","","","","","","","","","","","","","","","","","","","","","",""
"null","","html-keyboard-response","64","299309","0.0-64.0","A197FECF831H95","<p style=""font-size: 48px;"">+</p>","","","","","null","allTrialResponses","1000","1","3","img_art/8.jpg","9","the colors are nice the town is fun","Katherine,Morgan,Olivia,Sara,Angela,Grace","This is really cool, I love the fragments of faces,38,120,20","Falling into a city's heart.,10,380,20","being watched over,17,40,20","Very interesting use of blocks,21,160,20","Like the colors and the energy, but the face feels jarring to me,13,260,20","Like the colors & the imagery - old city, native peoples maybe.,20,180,20","Morgan","Falling into a city's heart.,10,380,20","Olivia","being watched over,17,40,20","Angela","Like the colors and the energy, but the face feels jarring to me,13,260,20","0"
"13455","","survey-text","65","312784","0.0-65.0-0.0","A197FECF831H95","","","","{""Q0"":""don't really care for this one""}","","","","","","","","","","","","","","","","","","","","","","",""
"3017","","image-slider-response","66","315805","0.0-66.0","A197FECF831H95","","","","","-15","","","","","","","","","","","","","","","","","","","","","",""
"null","","image-button-response","67","320815","0.0-67.0","A197FECF831H95","img_art/28.jpg","null","","","","","","","","","","","","","","","","","","","","","","","","",""
"3023","","image-button-response","68","323841","0.0-68.0","A197FECF831H95","img_art/28.jpg","3","","","","","","","","","","","","","","","","","","","","","","","","",""
"1010","","image-button-response","69","324852","0.0-69.0-0.0","A197FECF831H95","img_art/28.jpg","5","","","","","","","","","","","","","","","","","","","","","","","","",""
"3124","","image-button-response","70","327979","0.0-70.0-0.0","A197FECF831H95","img_art/28.jpg","2","","","","","","","","","","","","","","","","","","","","","","","","",""
"null","","html-keyboard-response","71","328984","0.0-71.0","A197FECF831H95","<p style=""font-size: 48px;"">+</p>","","","","","null","allTrialResponses","1000","1","4","img_art/28.jpg","-15","don't really care for this one","Mikayla,Morgan,Olivia,Jessica,Angela,Marissa","It gives me weird vibes.,-25,300,20","Apartment throw up.,-5,380,20","conversating means hope,15,40,20","I can't tell what's going on but it looks a little bit more lively at least,7,400,20","This reminds me of internal organs.,-10,260,20","It feels very blah,-10,160,20","Jessica","I can't tell what's going on but it looks a little bit more lively at least,7,400,20","Marissa","It feels very blah,-10,160,20","Olivia","conversating means hope,15,40,20","0"
"15276","","survey-text","72","344273","0.0-72.0-0.0","A197FECF831H95","","","","{""Q0"":""water flowing through the field.  love it""}","","","","","","","","","","","","","","","","","","","","","","",""
"2357","","image-slider-response","73","346635","0.0-73.0","A197FECF831H95","","","","","36","","","","","","","","","","","","","","","","","","","","","",""
"null","","image-button-response","74","351645","0.0-74.0","A197FECF831H95","img_art/24.jpg","null","","","","","","","","","","","","","","","","","","","","","","","","",""
"424","","image-button-response","75","352071","0.0-75.0","A197FECF831H95","img_art/24.jpg","2","","","","","","","","","","","","","","","","","","","","","","","","",""
"1473","","image-button-response","76","353547","0.0-76.0-0.0","A197FECF831H95","img_art/24.jpg","3","","","","","","","","","","","","","","","","","","","","","","","","",""
"1131","","image-button-response","77","354680","0.0-77.0-0.0","A197FECF831H95","img_art/24.jpg","4","","","","","","","","","","","","","","","","","","","","","","","","",""
"null","","html-keyboard-response","78","356194","0.0-78.0","A197FECF831H95","<p style=""font-size: 48px;"">+</p>","","","","","null","allTrialResponses","1500","1","5","img_art/24.jpg","36","water flowing through the field.  love it","Leslie,Amy,Olivia,Jessica,Shelby,Marissa","The colors look nice, but the painting bores me.,-20,380,20","The contorted angles of the flowing water upset the harmony,-20,220,20","tranquility in the stream,34,40,20","Vibrant, beautiful depiction.,50,400,20","Earthy wonderful, love everything about it,50,240,20","It feels very serene,19,160,20","Olivia","tranquility in the stream,34,40,20","Jessica","Vibrant, beautiful depiction.,50,400,20","Shelby","Earthy wonderful, love everything about it,50,240,20","0"
"4018","","survey-text","79","360233","0.0-79.0-0.0","A197FECF831H95","","","","{""Q0"":""sky""}","","","","","","","","","","","","","","","","","","","","","","",""
"15114","","survey-text","80","375348","0.0-80.0-0.0","A197FECF831H95","","","","{""Q0"":""it's a little casual""}","","","","","","","","","","","","","","","","","","","","","","",""
"4521","","image-slider-response","81","379872","0.0-81.0","A197FECF831H95","","","","","-1","","","","","","","","","","","","","","","","","","","","","",""
"null","","image-button-response","82","384887","0.0-82.0","A197FECF831H95","img_art/30.jpg","null","","","","","","","","","","","","","","","","","","","","","","","","",""
"954","","image-button-response","83","385842","0.0-83.0","A197FECF831H95","img_art/30.jpg","3","","","","","","","","","","","","","","","","","","","","","","","","",""
"1612","","image-button-response","84","387457","0.0-84.0-0.0","A197FECF831H95","img_art/30.jpg","4","","","","","","","","","","","","","","","","","","","","","","","","",""
"1919","","image-button-response","85","389378","0.0-85.0-0.0","A197FECF831H95","img_art/30.jpg","1","","","","","","","","","","","","","","","","","","","","","","","","",""
"null","","html-keyboard-response","86","390883","0.0-86.0","A197FECF831H95","<p style=""font-size: 48px;"">+</p>","","","","","null","allTrialResponses","1500","1","6","img_art/30.jpg","-1","it's a little casual","Kristen,Stephanie,Olivia,Jessica,Shelby,Shannon","makes me think of a tunnel filled with graffiti,19,280,20","My kindergarten class could do this,-50,300,20","perceiving greatness,20,40,20","Looks cool , but no meaning,1,400,20","It's pleasent but otherwise unprovoking,8,240,20","I feel like the colors are too repetitive and not very eyecatching.,-20,220,20","Jessica","Looks cool , but no meaning,1,400,20","Shelby","It's pleasent but otherwise unprovoking,8,240,20","Stephanie","My kindergarten class could do this,-50,300,20","0"
"16370","","survey-text","87","407267","0.0-87.0-0.0","A197FECF831H95","","","","{""Q0"":""trees outside of a building looks calming""}","","","","","","","","","","","","","","","","","","","","","","",""
"4019","","image-slider-response","88","411291","0.0-88.0","A197FECF831H95","","","","","9","","","","","","","","","","","","","","","","","","","","","",""
"null","","image-button-response","89","416295","0.0-89.0","A197FECF831H95","img_art/26.jpg","null","","","","","","","","","","","","","","","","","","","","","","","","",""
"507","","image-button-response","90","416804","0.0-90.0","A197FECF831H95","img_art/26.jpg","1","","","","","","","","","","","","","","","","","","","","","","","","",""
"1479","","image-button-response","91","418287","0.0-91.0-0.0","A197FECF831H95","img_art/26.jpg","4","","","","","","","","","","","","","","","","","","","","","","","","",""
"3664","","image-button-response","92","421955","0.0-92.0-0.0","A197FECF831H95","img_art/26.jpg","2","","","","","","","","","","","","","","","","","","","","","","","","",""
"null","","html-keyboard-response","93","422960","0.0-93.0","A197FECF831H95","<p style=""font-size: 48px;"">+</p>","","","","","null","allTrialResponses","1000","1","7","img_art/26.jpg","9","trees outside of a building looks calming","Crystal,Stephanie,Meghan,Jessica,Shelby,Autumn","Do not like water colors at all,-50,300,20","Day just begun in the city and the stores are opening their doors.,41,300,20","nothing really special, quite bland,1,220,20","It doesn't look so vibrant, I'm not sure what feelings they were trying to capture,-41,400,20","Very pleasent little scene,40,240,20","Murky, messy, kid like.,-45,340,20","Stephanie","Day just begun in the city and the stores are opening their doors.,41,300,20","Shelby","Very pleasent little scene,40,240,20","Meghan","nothing really special, quite bland,1,220,20","0"
"9703","","survey-text","94","432685","0.0-94.0-0.0","A197FECF831H95","","","","{""Q0"":""reflections in the water""}","","","","","","","","","","","","","","","","","","","","","","",""
"3224","","image-slider-response","95","435910","0.0-95.0","A197FECF831H95","","","","","5","","","","","","","","","","","","","","","","","","","","","",""
"null","","image-button-response","96","440921","0.0-96.0","A197FECF831H95","img_art/1.jpg","null","","","","","","","","","","","","","","","","","","","","","","","","",""
"586","","image-button-response","97","441508","0.0-97.0","A197FECF831H95","img_art/1.jpg","1","","","","","","","","","","","","","","","","","","","","","","","","",""
"694","","image-button-response","98","442204","0.0-98.0-0.0","A197FECF831H95","img_art/1.jpg","2","","","","","","","","","","","","","","","","","","","","","","","","",""
"961","","image-button-response","99","443168","0.0-99.0-0.0","A197FECF831H95","img_art/1.jpg","3","","","","","","","","","","","","","","","","","","","","","","","","",""
"null","","html-keyboard-response","100","444187","0.0-100.0","A197FECF831H95","<p style=""font-size: 48px;"">+</p>","","","","","null","allTrialResponses","1000","1","8","img_art/1.jpg","5","reflections in the water","Taylor,Stephanie,Meghan,Kelly,Shelby,Alicia","Makes me think of a bad thunderstorm,11,340,20","Pretty colors. Fall day in the East Coast of USA.,42,300,20","good colors and contrast,31,220,20","I love colorful photos and I like this one a lot.,25,220,20","This one has a pleasent energy,15,240,20","just colors mixed together. not interesting.,5,120,20","Stephanie","Pretty colors. Fall day in the East Coast of USA.,42,300,20","Meghan","good colors and contrast,31,220,20","Kelly","I love colorful photos and I like this one a lot.,25,220,20","0"
"17083","","survey-text","101","461283","0.0-101.0-0.0","A197FECF831H95","","","","{""Q0"":""paint spills, looks messy""}","","","","","","","","","","","","","","","","","","","","","","",""
"3499","","image-slider-response","102","464787","0.0-102.0","A197FECF831H95","","","","","-3","","","","","","","","","","","","","","","","","","","","","",""
"null","","image-button-response","103","469798","0.0-103.0","A197FECF831H95","img_art/29.jpg","null","","","","","","","","","","","","","","","","","","","","","","","","",""
"558","","image-button-response","104","470360","0.0-104.0","A197FECF831H95","img_art/29.jpg","3","","","","","","","","","","","","","","","","","","","","","","","","",""
"1156","","image-button-response","105","471519","0.0-105.0-0.0","A197FECF831H95","img_art/29.jpg","4","","","","","","","","","","","","","","","","","","","","","","","","",""
"644","","image-button-response","106","472167","0.0-106.0-0.0","A197FECF831H95","img_art/29.jpg","5","","","","","","","","","","","","","","","","","","","","","","","","",""
"null","","html-keyboard-response","107","473679","0.0-107.0","A197FECF831H95","<p style=""font-size: 48px;"">+</p>","","","","","null","allTrialResponses","1500","1","9","img_art/29.jpg","-3","paint spills, looks messy","Courtney,Stephanie,Meghan,Kelly,Erin,Katelyn","Thats a pretty wierd picture.,6,280,20","Looks like a murder,-50,300,20","feels random and not thoughtout,-37,220,20","Too much going on, and I don't like the colors. It looks like a crime scene.,-50,220,20","Red X is scary, like the bricks,7,120,20","Grabs interest but then confuses me,6,100,20","Kelly","Too much going on, and I don't like the colors. It looks like a crime scene.,-50,220,20","Erin","Red X is scary, like the bricks,7,120,20","Katelyn","Grabs interest but then confuses me,6,100,20","0"
"12208","","survey-text","108","485910","0.0-108.0-0.0","A197FECF831H95","","","","{""Q0"":""water by the town, nice""}","","","","","","","","","","","","","","","","","","","","","","",""
"2922","","image-slider-response","109","488835","0.0-109.0","A197FECF831H95","","","","","8","","","","","","","","","","","","","","","","","","","","","",""
"null","","image-button-response","110","493840","0.0-110.0","A197FECF831H95","img_art/20.jpg","null","","","","","","","","","","","","","","","","","","","","","","","","",""
"538","","image-button-response","111","494380","0.0-111.0","A197FECF831H95","img_art/20.jpg","2","","","","","","","","","","","","","","","","","","","","","","","","",""
"801","","image-button-response","112","495184","0.0-112.0-0.0","A197FECF831H95","img_art/20.jpg","3","","","","","","","","","","","","","","","","","","","","","","","","",""
"1735","","image-button-response","113","496920","0.0-113.0-0.0","A197FECF831H95","img_art/20.jpg","5","","","","","","","","","","","","","","","","","","","","","","","","",""
"null","","html-keyboard-response","114","498423","0.0-114.0","A197FECF831H95","<p style=""font-size: 48px;"">+</p>","","","","","null","allTrialResponses","1500","1","10","img_art/20.jpg","8","water by the town, nice","Alexandria,Kaitlin,Kylie,Kelly,Erin,Katelyn","it looks like a car crash which is depressing,-19,80,20","i can feel the intensity in this,11,60,20","City life vs shore life,40,300,20","I want to like this more, but i wish it was more detailed. It's hard for me to see what it is.,5,220,20","Dark frame overpowers the image,-6,120,20","I do at least like the dark colors blending,6,100,20","Kylie","City life vs shore life,40,300,20","Kelly","I want to like this more, but i wish it was more detailed. It's hard for me to see what it is.,5,220,20","Katelyn","I do at least like the dark colors blending,6,100,20","0"
"3726","","survey-text","115","502164","0.0-115.0-0.0","A197FECF831H95","","","","{""Q0"":""our""}","","","","","","","","","","","","","","","","","","","","","","",""
"17388","","survey-text","116","519554","0.0-116.0-0.0","A197FECF831H95","","","","{""Q0"":""the colors are fine but not exciting""}","","","","","","","","","","","","","","","","","","","","","","",""
"3787","","image-slider-response","117","523344","0.0-117.0","A197FECF831H95","","","","","-1","","","","","","","","","","","","","","","","","","","","","",""
"null","","image-button-response","118","528351","0.0-118.0","A197FECF831H95","img_art/14.jpg","null","","","","","","","","","","","","","","","","","","","","","","","","",""
"388","","image-button-response","119","528743","0.0-119.0","A197FECF831H95","img_art/14.jpg","0","","","","","","","","","","","","","","","","","","","","","","","","",""
"1031","","image-button-response","120","529777","0.0-120.0-0.0","A197FECF831H95","img_art/14.jpg","3","","","","","","","","","","","","","","","","","","","","","","","","",""
"876","","image-button-response","121","530656","0.0-121.0-0.0","A197FECF831H95","img_art/14.jpg","0","","","","","","","","","","","","","","","","","","","","","","","","",""
"3744","","image-button-response","122","541629","0.0-121.1-0.1","A197FECF831H95","img_art/14.jpg","5","","","","","","","","","","","","","","","","","","","","","","","","",""
"null","","html-keyboard-response","123","543141","0.0-122.0","A197FECF831H95","<p style=""font-size: 48px;"">+</p>","","","","","null","allTrialResponses","1500","1","11","img_art/14.jpg","-1","the colors are fine but not exciting","Angelica,Anna,Kylie,Kelly,Michelle,Katelyn","This is poorly done and not aesthetically appealing.,-2,280,20","It reminds me of a tree in the desert.,15,300,20","Confusion or an explosion,40,300,20","Its cute, but not my favorite.,8,220,20","Too abstract with annoying little details. Just draw a regular tree already,-6,280,20","Its cute. Not striking but i would keep it in my home.,10,100,20","Angelica","This is poorly done and not aesthetically appealing.,-2,280,20","Kelly","Its cute, but not my favorite.,8,220,20","Katelyn","Its cute. Not striking but i would keep it in my home.,10,100,20","2"
"10502","","survey-text","124","553668","0.0-123.0-0.0","A197FECF831H95","","","","{""Q0"":""looks like a dried up ground""}","","","","","","","","","","","","","","","","","","","","","","",""
"5880","","image-slider-response","125","559550","0.0-124.0","A197FECF831H95","","","","","-13","","","","","","","","","","","","","","","","","","","","","",""
"null","","image-button-response","126","564557","0.0-125.0","A197FECF831H95","img_art/7.jpg","null","","","","","","","","","","","","","","","","","","","","","","","","",""
"2188","","image-button-response","127","566746","0.0-126.0","A197FECF831H95","img_art/7.jpg","1","","","","","","","","","","","","","","","","","","","","","","","","",""
"2810","","image-button-response","128","569559","0.0-127.0-0.0","A197FECF831H95","img_art/7.jpg","2","","","","","","","","","","","","","","","","","","","","","","","","",""
"637","","image-button-response","129","570198","0.0-128.0-0.0","A197FECF831H95","img_art/7.jpg","0","","","","","","","","","","","","","","","","","","","","","","","","",""
"null","","html-keyboard-response","130","570705","0.0-129.0","A197FECF831H95","<p style=""font-size: 48px;"">+</p>","","","","","null","allTrialResponses","500","1","12","img_art/7.jpg","-13","looks like a dried up ground","Angelica,Kathryn,Brianna,Kelly,Samantha,Katelyn","This is vague and ugly.,-3,280,20","It's off-putting because it reminds me of walking over rough sand/rocks or having scabs on my skin.,-10,140,20","Looks plain and dull, sorry.,-31,20,20","My firs thought was ""gross""...not sure what this is and I dont think i want to know.,-19,220,20","Makes me want to feel it,19,140,20","Makes me think of the beach which makes me happy,14,100,20","Kathryn","It's off-putting because it reminds me of walking over rough sand/rocks or having scabs on my skin.,-10,140,20","Brianna","Looks plain and dull, sorry.,-31,20,20","Angelica","This is vague and ugly.,-3,280,20","2"
"12296","","survey-text","131","583015","0.0-130.0-0.0","A197FECF831H95","","","","{""Q0"":""raindrops on a spider web. cool""}","","","","","","","","","","","","","","","","","","","","","","",""
"3424","","image-slider-response","132","586442","0.0-131.0","A197FECF831H95","","","","","23","","","","","","","","","","","","","","","","","","","","","",""
"null","","image-button-response","133","591450","0.0-132.0","A197FECF831H95","img_art/13.jpg","null","","","","","","","","","","","","","","","","","","","","","","","","",""
"1233","","image-button-response","134","592689","0.0-133.0","A197FECF831H95","img_art/13.jpg","2","","","","","","","","","","","","","","","","","","","","","","","","",""
"1555","","image-button-response","135","594248","0.0-134.0-0.0","A197FECF831H95","img_art/13.jpg","3","","","","","","","","","","","","","","","","","","","","","","","","",""
"783","","image-button-response","136","595034","0.0-135.0-0.0","A197FECF831H95","img_art/13.jpg","5","","","","","","","","","","","","","","","","","","","","","","","","",""
"null","","html-keyboard-response","137","595548","0.0-136.0","A197FECF831H95","<p style=""font-size: 48px;"">+</p>","","","","","null","allTrialResponses","500","1","13","img_art/13.jpg","23","raindrops on a spider web. cool","Angelica,Kathryn,Brianna,Paige,Megan,Dominique","It's too violent looking and there's too much contrast between the white/black.,-21,280,20","Reminds me of depression anxiety, but negativity is dampened by motion. It's trying to release itself through expression.,-10,140,20","This is a very cool painting, something an art teacher or professor would own.,22,20,20","Pleased. I like to combination of colors,17,60,20","Average overly symmetrical safe,-26,200,20","I love the colors reminds me of a rainy day..it's calm and relaxing,32,400,20","Brianna","This is a very cool painting, something an art teacher or professor would own.,22,20,20","Paige","Pleased. I like to combination of colors,17,60,20","Dominique","I love the colors reminds me of a rainy day..it's calm and relaxing,32,400,20","2"
"6352","","survey-text","138","601920","0.0-137.0-0.0","A197FECF831H95","","","","{""Q0"":""too busy""}","","","","","","","","","","","","","","","","","","","","","","",""
"2983","","image-slider-response","139","604906","0.0-138.0","A197FECF831H95","","","","","-23","","","","","","","","","","","","","","","","","","","","","",""
"null","","image-button-response","140","609912","0.0-139.0","A197FECF831H95","img_art/18.jpg","null","","","","","","","","","","","","","","","","","","","","","","","","",""
"448","","image-button-response","141","610362","0.0-140.0","A197FECF831H95","img_art/18.jpg","1","","","","","","","","","","","","","","","","","","","","","","","","",""
"2770","","image-button-response","142","613134","0.0-141.0-0.0","A197FECF831H95","img_art/18.jpg","4","","","","","","","","","","","","","","","","","","","","","","","","",""
"2298","","image-button-response","143","615434","0.0-142.0-0.0","A197FECF831H95","img_art/18.jpg","0","","","","","","","","","","","","","","","","","","","","","","","","",""
"null","","html-keyboard-response","144","616942","0.0-143.0","A197FECF831H95","<p style=""font-size: 48px;"">+</p>","","","","","null","allTrialResponses","1500","1","14","img_art/18.jpg","-23","too busy","Sophia,Amber,Brianna,Paige,Hannah,Dominique","This one is very dark and apocalyptic indeed!,-30,280,20","ugly and lots of movement,-6,200,20","Very eerie and it's spooky,11,20,20","Unhappy. Makes me thing of evil,-10,60,20","Looks like ghost figures on a boat. It's okay.,7,240,20","Very conversational and can see many different looks and feels from this .,34,400,20","Amber","ugly and lots of movement,-6,200,20","Hannah","Looks like ghost figures on a boat. It's okay.,7,240,20","Sophia","This one is very dark and apocalyptic indeed!,-30,280,20","2"
"12151","","survey-text","145","629110","0.0-144.0-0.0","A197FECF831H95","","","","{""Q0"":""water by a hills with sun shining through""}","","","","","","","","","","","","","","","","","","","","","","",""
"2673","","image-slider-response","146","631785","0.0-145.0","A197FECF831H95","","","","","21","","","","","","","","","","","","","","","","","","","","","",""
"null","","image-button-response","147","636804","0.0-146.0","A197FECF831H95","img_art/21.jpg","null","","","","","","","","","","","","","","","","","","","","","","","","",""
"708","","image-button-response","148","637514","0.0-147.0","A197FECF831H95","img_art/21.jpg","1","","","","","","","","","","","","","","","","","","","","","","","","",""
"733","","image-button-response","149","638249","0.0-148.0-0.0","A197FECF831H95","img_art/21.jpg","2","","","","","","","","","","","","","","","","","","","","","","","","",""
"2381","","image-button-response","150","640632","0.0-149.0-0.0","A197FECF831H95","img_art/21.jpg","3","","","","","","","","","","","","","","","","","","","","","","","","",""
"null","","html-keyboard-response","151","642136","0.0-150.0","A197FECF831H95","<p style=""font-size: 48px;"">+</p>","","","","","null","allTrialResponses","1500","1","15","img_art/21.jpg","21","water by a hills with sun shining through","Sophia,Amber,Kimberly,Katie,Hannah,Briana","Indifferent toward this one.,6,280,20","sunset after the rain,49,200,20","Another swathe of ocean,31,260,20","Immediately a positive response! I like the muted colors. the blurriness calms me. It's serene,40,160,20","Boring colors and look. Too much 1980s.,-20,240,20","Unfinished. Confusing to look at,-12,400,20","Amber","sunset after the rain,49,200,20","Kimberly","Another swathe of ocean,31,260,20","Katie","Immediately a positive response! I like the muted colors. the blurriness calms me. It's serene,40,160,20","2"
"3870","","survey-text","152","646034","0.0-151.0-0.0","A197FECF831H95","","","","{""Q0"":""course""}","","","","","","","","","","","","","","","","","","","","","","",""
"8609","","survey-text","153","654645","0.0-152.0-0.0","A197FECF831H95","","","","{""Q0"":""makes me feel busy""}","","","","","","","","","","","","","","","","","","","","","","",""
"3066","","image-slider-response","154","657717","0.0-153.0","A197FECF831H95","","","","","-11","","","","","","","","","","","","","","","","","","","","","",""
"null","","image-button-response","155","662732","0.0-154.0","A197FECF831H95","img_art/11.jpg","null","","","","","","","","","","","","","","","","","","","","","","","","",""
"433","","image-button-response","156","663168","0.0-155.0","A197FECF831H95","img_art/11.jpg","1","","","","","","","","","","","","","","","","","","","","","","","","",""
"899","","image-button-response","157","664070","0.0-156.0-0.0","A197FECF831H95","img_art/11.jpg","4","","","","","","","","","","","","","","","","","","","","","","","","",""
"529","","image-button-response","158","664603","0.0-157.0-0.0","A197FECF831H95","img_art/11.jpg","5","","","","","","","","","","","","","","","","","","","","","","","","",""
"null","","html-keyboard-response","159","665111","0.0-158.0","A197FECF831H95","<p style=""font-size: 48px;"">+</p>","","","","","null","allTrialResponses","500","1","16","img_art/11.jpg","-11","makes me feel busy","Jacqueline,Amber,Kimberly,Katie,Kelsey,Michaela","It's too dark and dingy.,-30,300,20","Look like it's in constant movement.,10,200,20","It's cables in a city,21,260,20","Dark and dreary. Makes me think of rain/water. I see grey clouds and high waves. Looks unsettling.,-20,160,20","its like telephone wires, or mountains,-17,240,20","Reminds me of a city and how chaotic it can be,22,260,20","Amber","Look like it's in constant movement.,10,200,20","Kelsey","its like telephone wires, or mountains,-17,240,20","Michaela","Reminds me of a city and how chaotic it can be,22,260,20","2"
"9384","","survey-text","160","674522","0.0-159.0-0.0","A197FECF831H95","","","","{""Q0"":""the colors make me anxious""}","","","","","","","","","","","","","","","","","","","","","","",""
"2898","","image-slider-response","161","677423","0.0-160.0","A197FECF831H95","","","","","-34","","","","","","","","","","","","","","","","","","","","","",""
"null","","image-button-response","162","682443","0.0-161.0","A197FECF831H95","img_art/27.jpg","null","","","","","","","","","","","","","","","","","","","","","","","","",""
"630","","image-button-response","163","683074","0.0-162.0","A197FECF831H95","img_art/27.jpg","3","","","","","","","","","","","","","","","","","","","","","","","","",""
"969","","image-button-response","164","684046","0.0-163.0-0.0","A197FECF831H95","img_art/27.jpg","4","","","","","","","","","","","","","","","","","","","","","","","","",""
"801","","image-button-response","165","684850","0.0-164.0-0.0","A197FECF831H95","img_art/27.jpg","5","","","","","","","","","","","","","","","","","","","","","","","","",""
"null","","html-keyboard-response","166","686358","0.0-165.0","A197FECF831H95","<p style=""font-size: 48px;"">+</p>","","","","","null","allTrialResponses","1500","1","17","img_art/27.jpg","-34","the colors make me anxious","Nicole,Amber,Christina,Jordan,Kelsey,Michaela","Very cool colors and I like the contrast of lights and darks,30,20,20","I like the colors.,6,200,20","I like the orange but it's a little blah,1,240,20","two warring cities, separated by a small desert,50,20,20","too messy dont like the color choices either,-17,240,20","It looks like a kid colored a picture and an adult added to it,19,260,20","Jordan","two warring cities, separated by a small desert,50,20,20","Kelsey","too messy dont like the color choices either,-17,240,20","Michaela","It looks like a kid colored a picture and an adult added to it,19,260,20","2"
"10655","","survey-text","167","697032","0.0-166.0-0.0","A197FECF831H95","","","","{""Q0"":""it's bland, not appealing""}","","","","","","","","","","","","","","","","","","","","","","",""
"2776","","image-slider-response","168","699810","0.0-167.0","A197FECF831H95","","","","","-16","","","","","","","","","","","","","","","","","","","","","",""
"null","","image-button-response","169","704821","0.0-168.0","A197FECF831H95","img_art/10.jpg","null","","","","","","","","","","","","","","","","","","","","","","","","",""
"577","","image-button-response","170","705400","0.0-169.0","A197FECF831H95","img_art/10.jpg","3","","","","","","","","","","","","","","","","","","","","","","","","",""
"1851","","image-button-response","171","707253","0.0-170.0-0.0","A197FECF831H95","img_art/10.jpg","5","","","","","","","","","","","","","","","","","","","","","","","","",""
"806","","image-button-response","172","708062","0.0-171.0-0.0","A197FECF831H95","img_art/10.jpg","2","","","","","","","","","","","","","","","","","","","","","","","","",""
"null","","html-keyboard-response","173","708570","0.0-172.0","A197FECF831H95","<p style=""font-size: 48px;"">+</p>","","","","","null","allTrialResponses","500","1","18","img_art/10.jpg","-16","it's bland, not appealing","Vanessa,Erika,Kaitlyn,Jordan,Kelsey,Michaela","It's interesting and my eyes keep being drawn to different parts of the picture.,11,380,20","Good texture, expressive,18,100,20","Picture looks smudged,-7,80,20","I dont like it, there is too much going on,-19,20,20","reminds me of a violin,9,240,20","It looks like it's sinking but it could also be a view from above,40,260,20","Jordan","I dont like it, there is too much going on,-19,20,20","Michaela","It looks like it's sinking but it could also be a view from above,40,260,20","Kaitlyn","Picture looks smudged,-7,80,20","2"
"10818","","survey-text","174","719405","0.0-173.0-0.0","A197FECF831H95","","","","{""Q0"":""the colors are too exciting""}","","","","","","","","","","","","","","","","","","","","","","",""
"2929","","image-slider-response","175","722339","0.0-174.0","A197FECF831H95","","","","","-27","","","","","","","","","","","","","","","","","","","","","",""
"null","","image-button-response","176","727349","0.0-175.0","A197FECF831H95","img_art/3.jpg","null","","","","","","","","","","","","","","","","","","","","","","","","",""
"1183","","image-button-response","177","728536","0.0-176.0","A197FECF831H95","img_art/3.jpg","2","","","","","","","","","","","","","","","","","","","","","","","","",""
"847","","image-button-response","178","729385","0.0-177.0-0.0","A197FECF831H95","img_art/3.jpg","3","","","","","","","","","","","","","","","","","","","","","","","","",""
"2422","","image-button-response","179","731810","0.0-178.0-0.0","A197FECF831H95","img_art/3.jpg","5","","","","","","","","","","","","","","","","","","","","","","","","",""
"null","","html-keyboard-response","180","733330","0.0-179.0","A197FECF831H95","<p style=""font-size: 48px;"">+</p>","","","","","null","allTrialResponses","1500","1","19","img_art/3.jpg","-27","the colors are too exciting","Andrea,Emma,Kaitlyn,Jordan,Cassidy,Michaela","I don't feel anything, it seems childish.,-25,240,20","Feels upset .......,-10,60,20","Too much red; very bland,-26,80,20","i don't like this, just looks like scribbles,-50,20,20","Again, looks like a child's work. I don't get these types of pieces. Too simple,-47,140,20","It looks like someone took a red sharpie and just scribbled angrily,-20,260,20","Kaitlyn","Too much red; very bland,-26,80,20","Jordan","i don't like this, just looks like scribbles,-50,20,20","Michaela","It looks like someone took a red sharpie and just scribbled angrily,-20,260,20","2"
"13101","","survey-text","181","746455","0.0-180.0-0.0","A197FECF831H95","","","","{""Q0"":""calming scene from a rooftop""}","","","","","","","","","","","","","","","","","","","","","","",""
"2529","","image-slider-response","182","748988","0.0-181.0","A197FECF831H95","","","","","24","","","","","","","","","","","","","","","","","","","","","",""
"null","","image-button-response","183","753991","0.0-182.0","A197FECF831H95","img_art/17.jpg","null","","","","","","","","","","","","","","","","","","","","","","","","",""
"569","","image-button-response","184","754562","0.0-183.0","A197FECF831H95","img_art/17.jpg","3","","","","","","","","","","","","","","","","","","","","","","","","",""
"962","","image-button-response","185","755526","0.0-184.0-0.0","A197FECF831H95","img_art/17.jpg","2","","","","","","","","","","","","","","","","","","","","","","","","",""
"692","","image-button-response","186","756221","0.0-185.0-0.0","A197FECF831H95","img_art/17.jpg","4","","","","","","","","","","","","","","","","","","","","","","","","",""
"null","","html-keyboard-response","187","757740","0.0-186.0","A197FECF831H95","<p style=""font-size: 48px;"">+</p>","","","","","null","allTrialResponses","1500","1","20","img_art/17.jpg","24","calming scene from a rooftop","Madeline,Makayla,Kaitlyn,Jordan,Victoria,Michaela","So expressive and wonderful wow!,17,40,20","I feel okay , it's like a tree,28,80,20","Very beautiful,19,80,20","absolutely gorgeous, I feel solitude again, but the beauty is there also,50,20,20","love the wispyness of it,34,400,20","I love how soft it is,35,260,20","Jordan","absolutely gorgeous, I feel solitude again, but the beauty is there also,50,20,20","Kaitlyn","Very beautiful,19,80,20","Victoria","love the wispyness of it,34,400,20","2"
"2155","","survey-text","188","759934","0.0-187.0-0.0","A197FECF831H95","","","","{""Q0"":""we""}","","","","","","","","","","","","","","","","","","","","","","",""
"10439","","survey-text","189","770374","0.0-188.0-0.0","A197FECF831H95","","","","{""Q0"":""not interesting""}","","","","","","","","","","","","","","","","","","","","","","",""
"2537","","image-slider-response","190","772914","0.0-189.0","A197FECF831H95","","","","","-18","","","","","","","","","","","","","","","","","","","","","",""
"null","","image-button-response","191","777919","0.0-190.0","A197FECF831H95","img_art/15.jpg","null","","","","","","","","","","","","","","","","","","","","","","","","",""
"435","","image-button-response","192","778356","0.0-191.0","A197FECF831H95","img_art/15.jpg","3","","","","","","","","","","","","","","","","","","","","","","","","",""
"2057","","image-button-response","193","780416","0.0-192.0-0.0","A197FECF831H95","img_art/15.jpg","5","","","","","","","","","","","","","","","","","","","","","","","","",""
"802","","image-button-response","194","781220","0.0-193.0-0.0","A197FECF831H95","img_art/15.jpg","0","","","","","","","","","","","","","","","","","","","","","","","","",""
"null","","html-keyboard-response","195","782232","0.0-194.0","A197FECF831H95","<p style=""font-size: 48px;"">+</p>","","","","","null","allTrialResponses","1000","1","21","img_art/15.jpg","-18","not interesting","Alexandra,Alexis,Kaitlyn,Jordan,Victoria,Brittany","This is sort of ugly, but I do like the design.,10,60,20","Not a fan of abstract, but the black is very striking,10,100,20","Simplicity of colors is nice,11,80,20","I'm just not into it,-5,20,20","makes me feel calm,40,400,20","Color scheme and design are rather boring.,-10,40,20","Jordan","I'm just not into it,-5,20,20","Brittany","Color scheme and design are rather boring.,-10,40,20","Alexandra","This is sort of ugly, but I do like the design.,10,60,20","2"
"11384","","survey-text","196","793651","0.0-195.0-0.0","A197FECF831H95","","","","{""Q0"":""makes me feel lonely but serene""}","","","","","","","","","","","","","","","","","","","","","","",""
"2549","","image-slider-response","197","796204","0.0-196.0","A197FECF831H95","","","","","12","","","","","","","","","","","","","","","","","","","","","",""
"null","","image-button-response","198","801212","0.0-197.0","A197FECF831H95","img_art/19.jpg","null","","","","","","","","","","","","","","","","","","","","","","","","",""
"1560","","image-button-response","199","802776","0.0-198.0","A197FECF831H95","img_art/19.jpg","1","","","","","","","","","","","","","","","","","","","","","","","","",""
"3031","","image-button-response","200","805810","0.0-199.0-0.0","A197FECF831H95","img_art/19.jpg","3","","","","","","","","","","","","","","","","","","","","","","","","",""
"1231","","image-button-response","201","807044","0.0-200.0-0.0","A197FECF831H95","img_art/19.jpg","2","","","","","","","","","","","","","","","","","","","","","","","","",""
"null","","html-keyboard-response","202","808055","0.0-201.0","A197FECF831H95","<p style=""font-size: 48px;"">+</p>","","","","","null","allTrialResponses","1000","1","22","img_art/19.jpg","12","makes me feel lonely but serene","Alexandra,Heather,Jamie,Jordan,Savannah,Brittany","This photo has too much going on.,-19,60,20","love the images I can pick out of this art,1,260,20","Looks like a busy port,10,320,20","I like it, I see someone walking his dog in the early morning time,23,20,20","Watercolor abstract? Strange.,1,200,20","It looks too much of a rough sketch. Don't really enjoy looking at it.,-9,40,20","Heather","love the images I can pick out of this art,1,260,20","Jordan","I like it, I see someone walking his dog in the early morning time,23,20,20","Jamie","Looks like a busy port,10,320,20","2"
"131286","","survey-text","203","939370","0.0-202.0-0.0","A197FECF831H95","","","","{""Q0"":""makes me sleepy""}","","","","","","","","","","","","","","","","","","","","","","",""
"2697","","image-slider-response","204","942072","0.0-203.0","A197FECF831H95","","","","","30","","","","","","","","","","","","","","","","","","","","","",""
"null","","image-button-response","205","947092","0.0-204.0","A197FECF831H95","img_art/9.jpg","null","","","","","","","","","","","","","","","","","","","","","","","","",""
"457","","image-button-response","206","947552","0.0-205.0","A197FECF831H95","img_art/9.jpg","1","","","","","","","","","","","","","","","","","","","","","","","","",""
"1231","","image-button-response","207","948786","0.0-206.0-0.0","A197FECF831H95","img_art/9.jpg","4","","","","","","","","","","","","","","","","","","","","","","","","",""
"1263","","image-button-response","208","950052","0.0-207.0-0.0","A197FECF831H95","img_art/9.jpg","5","","","","","","","","","","","","","","","","","","","","","","","","",""
"null","","html-keyboard-response","209","951056","0.0-208.0","A197FECF831H95","<p style=""font-size: 48px;"">+</p>","","","","","null","allTrialResponses","1000","1","23","img_art/9.jpg","30","makes me sleepy","Cheyenne,Heather,Jamie,Jordan,Mackenzie,Mary","Too much going on, don't know what the focus is,-11,200,20","a mother in bed surrounded by emotions,1,260,20","Mash up of colors and designs don't really go together,-5,320,20","I just dont like it, no reaction from me at all,-50,20,20","I enjoy the design, but the colors look waxy,-7,20,20","How neat is this piece?  I love the angry expressive lines. Emotion is captured in it.,26,180,20","Heather","a mother in bed surrounded by emotions,1,260,20","Mackenzie","I enjoy the design, but the colors look waxy,-7,20,20","Mary","How neat is this piece?  I love the angry expressive lines. Emotion is captured in it.,26,180,20","2"
"13341","","survey-text","210","964413","0.0-209.0-0.0","A197FECF831H95","","","","{""Q0"":"" a little bird, cute""}","","","","","","","","","","","","","","","","","","","","","","",""
"3091","","image-slider-response","211","967508","0.0-210.0","A197FECF831H95","","","","","15","","","","","","","","","","","","","","","","","","","","","",""
"null","","image-button-response","212","972517","0.0-211.0","A197FECF831H95","img_art/6.jpg","null","","","","","","","","","","","","","","","","","","","","","","","","",""
"369","","image-button-response","213","972888","0.0-212.0","A197FECF831H95","img_art/6.jpg","0","","","","","","","","","","","","","","","","","","","","","","","","",""
"1480","","image-button-response","214","974370","0.0-213.0-0.0","A197FECF831H95","img_art/6.jpg","3","","","","","","","","","","","","","","","","","","","","","","","","",""
"2011","","image-button-response","215","976383","0.0-214.0-0.0","A197FECF831H95","img_art/6.jpg","5","","","","","","","","","","","","","","","","","","","","","","","","",""
"null","","html-keyboard-response","216","977400","0.0-215.0","A197FECF831H95","<p style=""font-size: 48px;"">+</p>","","","","","null","allTrialResponses","1000","1","24","img_art/6.jpg","15"," a little bird, cute","Kayla,Heather,Jenna,Sierra,Mackenzie,Mary","Little birdie in a desert. Seeking better frontiers.,13,180,20","it looks like a stick holding a wig on a cliff,21,260,20","I like the bottom half, but not the top,-7,360,20","simplistic. i love orange and green and i love the subject,50,260,20","I enjoy the color contrast.,20,20,20","This piece has some emotion of isolation. I like it.,6,180,20","Kayla","Little birdie in a desert. Seeking better frontiers.,13,180,20","Sierra","simplistic. i love orange and green and i love the subject,50,260,20","Mary","This piece has some emotion of isolation. I like it.,6,180,20","2"
"8336","","survey-text","217","985753","0.0-216.0-0.0","A197FECF831H95","","","","{""Q0"":""too busy""}","","","","","","","","","","","","","","","","","","","","","","",""
"3424","","image-slider-response","218","989180","0.0-217.0","A197FECF831H95","","","","","-16","","","","","","","","","","","","","","","","","","","","","",""
"null","","image-button-response","219","994196","0.0-218.0","A197FECF831H95","img_art/12.jpg","null","","","","","","","","","","","","","","","","","","","","","","","","",""
"896","","image-button-response","220","995093","0.0-219.0","A197FECF831H95","img_art/12.jpg","1","","","","","","","","","","","","","","","","","","","","","","","","",""
"1610","","image-button-response","221","996705","0.0-220.0-0.0","A197FECF831H95","img_art/12.jpg","3","","","","","","","","","","","","","","","","","","","","","","","","",""
"2160","","image-button-response","222","998867","0.0-221.0-0.0","A197FECF831H95","img_art/12.jpg","5","","","","","","","","","","","","","","","","","","","","","","","","",""
"null","","html-keyboard-response","223","999878","0.0-222.0","A197FECF831H95","<p style=""font-size: 48px;"">+</p>","","","","","null","allTrialResponses","1000","1","25","img_art/12.jpg","-16","too busy","Kayla,Brooke,Leah,Sierra,Danielle,Mary","Yay! Lots of people, lots of lives.,25,180,20","Dislike the style, the sharp rectangular pattern very jarring.,-20,60,20","Looks like a puzzle I want to put together, but not hang in my den,2,360,20","i dont see the point.,-19,260,20","Kind of interesting, seems almost nostalgic in a way to me.,10,340,20","The colors are ok. The piece reminds me of the 90s era, so I kinda like it!,-4,180,20","Brooke","Dislike the style, the sharp rectangular pattern very jarring.,-20,60,20","Sierra","i dont see the point.,-19,260,20","Mary","The colors are ok. The piece reminds me of the 90s era, so I kinda like it!,-4,180,20","2"
"3955","","survey-text","224","1003860","0.0-223.0-0.0","A197FECF831H95","","","","{""Q0"":""table""}","","","","","","","","","","","","","","","","","","","","","","",""
"12408","","survey-text","225","1016269","0.0-224.0-0.0","A197FECF831H95","","","","{""Q0"":""don't care for the colors""}","","","","","","","","","","","","","","","","","","","","","","",""
"3191","","image-slider-response","226","1019463","0.0-225.0","A197FECF831H95","","","","","-27","","","","","","","","","","","","","","","","","","","","","",""
"null","","image-button-response","227","1024472","0.0-226.0","A197FECF831H95","img_art/22.jpg","null","","","","","","","","","","","","","","","","","","","","","","","","",""
"369","","image-button-response","228","1024843","0.0-227.0","A197FECF831H95","img_art/22.jpg","0","","","","","","","","","","","","","","","","","","","","","","","","",""
"1219","","image-button-response","229","1026064","0.0-228.0-0.0","A197FECF831H95","img_art/22.jpg","2","","","","","","","","","","","","","","","","","","","","","","","","",""
"1015","","image-button-response","230","1027081","0.0-229.0-0.0","A197FECF831H95","img_art/22.jpg","3","","","","","","","","","","","","","","","","","","","","","","","","",""
"null","","html-keyboard-response","231","1028587","0.0-230.0","A197FECF831H95","<p style=""font-size: 48px;"">+</p>","","","","","null","allTrialResponses","1500","1","26","img_art/22.jpg","-27","don't care for the colors","Amanda,Brooke,Bailey,Sierra,Abigail,Mary","Very generic, seen many times before,-43,180,20","Like this one, like a sunset,30,60,20","Looks like a giant blob,-45,360,20","colorful. but not much happening,1,260,20","The colors are too dark, too much red,2,20,20","I do not like the color combo. This piece is too much the same throughout.,-1,180,20","Amanda","Very generic, seen many times before,-43,180,20","Bailey","Looks like a giant blob,-45,360,20","Sierra","colorful. but not much happening,1,260,20","2"
"8824","","survey-text","232","1037425","0.0-231.0-0.0","A197FECF831H95","","","","{""Q0"":""makes me happy""}","","","","","","","","","","","","","","","","","","","","","","",""
"2798","","image-slider-response","233","1040225","0.0-232.0","A197FECF831H95","","","","","20","","","","","","","","","","","","","","","","","","","","","",""
"null","","image-button-response","234","1045234","0.0-233.0","A197FECF831H95","img_art/2.jpg","null","","","","","","","","","","","","","","","","","","","","","","","","",""
"1104","","image-button-response","235","1046339","0.0-234.0","A197FECF831H95","img_art/2.jpg","3","","","","","","","","","","","","","","","","","","","","","","","","",""
"568","","image-button-response","236","1046909","0.0-235.0-0.0","A197FECF831H95","img_art/2.jpg","4","","","","","","","","","","","","","","","","","","","","","","","","",""
"840","","image-button-response","237","1047752","0.0-236.0-0.0","A197FECF831H95","img_art/2.jpg","2","","","","","","","","","","","","","","","","","","","","","","","","",""
"null","","html-keyboard-response","238","1048264","0.0-237.0","A197FECF831H95","<p style=""font-size: 48px;"">+</p>","","","","","null","allTrialResponses","500","1","27","img_art/2.jpg","20","makes me happy","Amanda,Chloe,Bailey,Sierra,Julia,Margaret","Very simple and childish,40,180,20","The color choices and lines seem a bit sloppy?,-10,220,20","Too gloopy and unfocused,-38,360,20","looks like a happy child,15,260,20","I like how it looks like a cute smiling face,43,40,20","doesn't do anything for me,-7,100,20","Sierra","looks like a happy child,15,260,20","Julia","I like how it looks like a cute smiling face,43,40,20","Bailey","Too gloopy and unfocused,-38,360,20","2"
"13208","","survey-text","239","1061485","0.0-238.0-0.0","A197FECF831H95","","","","{""Q0"":""it's cute, childlike""}","","","","","","","","","","","","","","","","","","","","","","",""
"2940","","image-slider-response","240","1064427","0.0-239.0","A197FECF831H95","","","","","6","","","","","","","","","","","","","","","","","","","","","",""
"null","","image-button-response","241","1069439","0.0-240.0","A197FECF831H95","img_art/16.jpg","null","","","","","","","","","","","","","","","","","","","","","","","","",""
"2759","","image-button-response","242","1072200","0.0-241.0","A197FECF831H95","img_art/16.jpg","4","","","","","","","","","","","","","","","","","","","","","","","","",""
"1580","","image-button-response","243","1073782","0.0-242.0-0.0","A197FECF831H95","img_art/16.jpg","5","","","","","","","","","","","","","","","","","","","","","","","","",""
"1980","","image-button-response","244","1075765","0.0-243.0-0.0","A197FECF831H95","img_art/16.jpg","1","","","","","","","","","","","","","","","","","","","","","","","","",""
"null","","html-keyboard-response","245","1076273","0.0-244.0","A197FECF831H95","<p style=""font-size: 48px;"">+</p>","","","","","null","allTrialResponses","500","1","28","img_art/16.jpg","6","it's cute, childlike","Miranda,Haley,Bailey,Sierra,Julia,Melissa","This looks like it was made by an art student filled with angst,-30,320,20","Makes me want to know more,5,220,20","Creeps me out. Like..really creeps me out.,-48,360,20","it looks psychotic,-31,260,20","I love the teddy bear,50,40,20","so close to feeling intentional,-4,240,20","Julia","I love the teddy bear,50,40,20","Melissa","so close to feeling intentional,-4,240,20","Haley","Makes me want to know more,5,220,20","2"
"18274","","survey-text","246","1094555","0.0-245.0-0.0","A197FECF831H95","","","","{""Q0"":""interesting.  looks like hands reaching out to each other""}","","","","","","","","","","","","","","","","","","","","","","",""
"3556","","image-slider-response","247","1098113","0.0-246.0","A197FECF831H95","","","","","13","","","","","","","","","","","","","","","","","","","","","",""
"null","","image-button-response","248","1103118","0.0-247.0","A197FECF831H95","img_art/4.jpg","null","","","","","","","","","","","","","","","","","","","","","","","","",""
"443","","image-button-response","249","1103562","0.0-248.0","A197FECF831H95","img_art/4.jpg","3","","","","","","","","","","","","","","","","","","","","","","","","",""
"1541","","image-button-response","250","1105106","0.0-249.0-0.0","A197FECF831H95","img_art/4.jpg","5","","","","","","","","","","","","","","","","","","","","","","","","",""
"1255","","image-button-response","251","1106363","0.0-250.0-0.0","A197FECF831H95","img_art/4.jpg","2","","","","","","","","","","","","","","","","","","","","","","","","",""
"null","","html-keyboard-response","252","1106866","0.0-251.0","A197FECF831H95","<p style=""font-size: 48px;"">+</p>","","","","","null","allTrialResponses","500","1","29","img_art/4.jpg","13","interesting.  looks like hands reaching out to each other","Claire,Haley,Chelsea,Gabriela,Julia,Melissa","I really don't like the colors,-26,260,20","This image doesn't invoke anything in me,-9,220,20","The colors remind me of McDonalds.,-41,180,20","The bold colors are exciting. It looks like a statue on someone's mantle.,18,140,20","it reminds me of McDonalds, and not in a good way.,-34,40,20","appealing warm palette,6,240,20","Gabriela","The bold colors are exciting. It looks like a statue on someone's mantle.,18,140,20","Melissa","appealing warm palette,6,240,20","Chelsea","The colors remind me of McDonalds.,-41,180,20","2"
"9245","","survey-text","253","1116127","0.0-252.0-0.0","A197FECF831H95","","","","{""Q0"":""it's interesting to me""}","","","","","","","","","","","","","","","","","","","","","","",""
"2721","","image-slider-response","254","1118851","0.0-253.0","A197FECF831H95","","","","","17","","","","","","","","","","","","","","","","","","","","","",""
"null","","image-button-response","255","1123862","0.0-254.0","A197FECF831H95","img_art/25.jpg","null","","","","","","","","","","","","","","","","","","","","","","","","",""
"467","","image-button-response","256","1124331","0.0-255.0","A197FECF831H95","img_art/25.jpg","0","","","","","","","","","","","","","","","","","","","","","","","","",""
"2152","","image-button-response","257","1126485","0.0-256.0-0.0","A197FECF831H95","img_art/25.jpg","3","","","","","","","","","","","","","","","","","","","","","","","","",""
"4275","","image-button-response","258","1130761","0.0-257.0-0.0","A197FECF831H95","img_art/25.jpg","2","","","","","","","","","","","","","","","","","","","","","","","","",""
"null","","html-keyboard-response","259","1131270","0.0-258.0","A197FECF831H95","<p style=""font-size: 48px;"">+</p>","","","","","null","allTrialResponses","500","1","30","img_art/25.jpg","17","it's interesting to me","Lindsey,Hailey,Chelsea,Gabriela,Rebecca,Melissa","This piece makes me think of oppression and fighting it. Makes me feel calm, sad and strong.,11,400,20","ugly color and very sad old lady,-45,200,20","The color and image are unsettling.,-29,180,20","It looks like a person at a graveyard,18,140,20","I'm sorry but I don't uderstand this,-20,100,20","do not like that color of green,-11,240,20","Lindsey","This piece makes me think of oppression and fighting it. Makes me feel calm, sad and strong.,11,400,20","Gabriela","It looks like a person at a graveyard,18,140,20","Chelsea","The color and image are unsettling.,-29,180,20","2"
"2572","","image-button-response_instructions","260","1133857","0.0-259.0","A197FECF831H95","","0","instructions","","","","","","","","","","","","","","","","","","","","","","","",""
