"rt","url","trial_type","trial_index","time_elapsed","internal_node_id","participant_id","stimulus","button_pressed","Name","responses","response","key_press","variableName","fixationTime","condition","trial","photo","subjectRating","subjectResponse","agentsNames","agent_1_Response","agent_2_Response","agent_3_Response","agent_4_Response","agent_5_Response","agent_6_Response","kept_1_name","kept_1_response","kept_2_name","kept_2_response","kept_3_name","kept_3_response","errorCounter"
"7972","external_page_harvard.html","external-html","0","8541","0.0-0.0","A1AF25FCVKC87X","","","","","","","","","","","","","","","","","","","","","","","","","","",""
"1644","","image-button-response","1","10189","0.0-1.0","A1AF25FCVKC87X","","0","","","","","","","","","","","","","","","","","","","","","","","","",""
"1813","","image-button-response","2","12031","0.0-2.0-0.0","A1AF25FCVKC87X","","1","phone","","","","","","","","","","","","","","","","","","","","","","","",""
"3002","","survey-text","3","15038","0.0-3.0-0.0","A1AF25FCVKC87X","","","","{""Q0"":""A1AF25FCVKC87X""}","","","","","","","","","","","","","","","","","","","","","","",""
"2662","","image-button-response_instructions","4","17704","0.0-4.0","A1AF25FCVKC87X","","0","instructions","","","","","","","","","","","","","","","","","","","","","","","",""
"9643","","image-button-response_instructions","5","27349","0.0-5.0","A1AF25FCVKC87X","img_art/ins/popularity/ins1.png","0","instructions","","","","","","","","","","","","","","","","","","","","","","","",""
"2994","","image-button-response_instructions","6","30346","0.0-6.0","A1AF25FCVKC87X","img_art/ins/popularity/ins2.png","0","instructions","","","","","","","","","","","","","","","","","","","","","","","",""
"3251","","image-button-response_instructions","7","33601","0.0-7.0","A1AF25FCVKC87X","img_art/ins/popularity/ins2Extreme.png","0","instructions","","","","","","","","","","","","","","","","","","","","","","","",""
"4132","","image-button-response_instructions","8","37735","0.0-8.0","A1AF25FCVKC87X","img_art/ins/popularity/ins3KEEPpop.PNG","0","instructions","","","","","","","","","","","","","","","","","","","","","","","",""
"1787","","image-button-response_instructions","9","39526","0.0-9.0","A1AF25FCVKC87X","img_art/ins/popularity/ins3ANamepop.PNG","0","instructions","","","","","","","","","","","","","","","","","","","","","","","",""
"2127","","image-button-response_instructions","10","41655","0.0-10.0","A1AF25FCVKC87X","img_art/ins/popularity/ins3ARatingpop.png","0","instructions","","","","","","","","","","","","","","","","","","","","","","","",""
"2097","","image-button-response_instructions","11","43754","0.0-11.0","A1AF25FCVKC87X","img_art/ins/popularity/ins3ATextpop.png","0","instructions","","","","","","","","","","","","","","","","","","","","","","","",""
"3136","","image-button-response_instructions","12","46892","0.0-12.0","A1AF25FCVKC87X","img_art/ins/popularity/ins3ALikespop.png","0","instructions","","","","","","","","","","","","","","","","","","","","","","","",""
"4551","","image-button-response_instructions","13","51445","0.0-13.0","A1AF25FCVKC87X","img_art/ins/popularity/ins3KEEPpop.PNG","0","instructions","","","","","","","","","","","","","","","","","","","","","","","",""
"4794","","image-button-response_instructions","14","56242","0.0-14.0","A1AF25FCVKC87X","img_art/ins/popularity/ins3_5RED.png","0","instructions","","","","","","","","","","","","","","","","","","","","","","","",""
"2054","","image-button-response_instructions","15","58298","0.0-15.0","A1AF25FCVKC87X","img_art/ins/popularity/ins3KEEPpop.PNG","0","instructions","","","","","","","","","","","","","","","","","","","","","","","",""
"3673","","image-button-response_instructions","16","61973","0.0-16.0","A1AF25FCVKC87X","img_art/ins/popularity/ins4KEEPpop.PNG","0","instructions","","","","","","","","","","","","","","","","","","","","","","","",""
"2170","","image-button-response_instructions","17","64145","0.0-17.0","A1AF25FCVKC87X","img_art/ins/popularity/ins5KEEPpop.PNG","0","instructions","","","","","","","","","","","","","","","","","","","","","","","",""
"1631","","image-button-response_instructions","18","65779","0.0-18.0","A1AF25FCVKC87X","","0","instructions","","","","","","","","","","","","","","","","","","","","","","","",""
"8265","","survey-text","19","74089","0.0-19.0-0.0","A1AF25FCVKC87X","","","","{""Q0"":""but""}","","","","","","","","","","","","","","","","","","","","","","",""
"10399","","survey-text","20","84491","0.0-20.0-0.0","A1AF25FCVKC87X","","","","{""Q0"":""This piece is very confusing""}","","","","","","","","","","","","","","","","","","","","","","",""
"3807.7000000476837","","image-slider-response","21","88304","0.0-21.0","A1AF25FCVKC87X","","","","","9","","","","","","","","","","","","","","","","","","","","","",""
"4805","","image-button-response","22","93311","0.0-22.0","A1AF25FCVKC87X","img_art/ins/1.jpg","4","","","","","","","","","","","","","","","","","","","","","","","","",""
"1783","","image-button-response","23","95100","0.0-23.0","A1AF25FCVKC87X","img_art/ins/1.jpg","4","","","","","","","","","","","","","","","","","","","","","","","","",""
"3955","","image-button-response","24","99059","0.0-24.0-0.0","A1AF25FCVKC87X","img_art/ins/1.jpg","0","","","","","","","","","","","","","","","","","","","","","","","","",""
"1749","","image-button-response","25","100813","0.0-25.0-0.0","A1AF25FCVKC87X","img_art/ins/1.jpg","3","","","","","","","","","","","","","","","","","","","","","","","","",""
"null","","html-keyboard-response","26","101817","0.0-26.0","A1AF25FCVKC87X","<p style=""font-size: 48px;"">+</p>","","","","","null","allTrialResponses","1000","1","-2","img_art/ins/1.jpg","9","This piece is very confusing","Adam,Alex,Ben,Carl,Daniel,Jack","Seems like doodles,-20,20,20","very creative work.,36,40,20","This color reminds me of poo,-46,60,20","very calming artwork,42,80,20","It looks like a murder scene.,-48,100,20","I like the sophisticated brushwork,40,120,20","Daniel","It looks like a murder scene.,-48,100,20","Adam","Seems like doodles,-20,20,20","Carl","very calming artwork,42,80,20","0"
"12195","","survey-text","27","114018","0.0-27.0-0.0","A1AF25FCVKC87X","","","","{""Q0"":""Looks like a table in a room""}","","","","","","","","","","","","","","","","","","","","","","",""
"2150.600000143051","","image-slider-response","28","116176","0.0-28.0","A1AF25FCVKC87X","","","","","19","","","","","","","","","","","","","","","","","","","","","",""
"null","","image-button-response","29","121203","0.0-29.0","A1AF25FCVKC87X","img_art/ins/2.jpg","null","","","","","","","","","","","","","","","","","","","","","","","","",""
"2634","","image-button-response","30","123842","0.0-30.0","A1AF25FCVKC87X","img_art/ins/2.jpg","2","","","","","","","","","","","","","","","","","","","","","","","","",""
"4787","","image-button-response","31","128635","0.0-31.0-0.0","A1AF25FCVKC87X","img_art/ins/2.jpg","3","","","","","","","","","","","","","","","","","","","","","","","","",""
"2687","","image-button-response","32","131327","0.0-32.0-0.0","A1AF25FCVKC87X","img_art/ins/2.jpg","0","","","","","","","","","","","","","","","","","","","","","","","","",""
"null","","html-keyboard-response","33","131831","0.0-33.0","A1AF25FCVKC87X","<p style=""font-size: 48px;"">+</p>","","","","","null","allTrialResponses","500","1","-1","img_art/ins/2.jpg","19","Looks like a table in a room","Adam,James,John,Carl,Daniel,Kyle","too much color,-18,20,20","looks too angry,-50,140,20","love the texture of paint,48,160,20","I can feel the artist's passion in it,45,80,20","One of my pet peevs,-48,100,20","Idk, it is just annoying,-32,180,20","John","love the texture of paint,48,160,20","Carl","I can feel the artist's passion in it,45,80,20","Adam","too much color,-18,20,20","0"
"13069","","survey-text","34","144909","0.0-34.0-0.0","A1AF25FCVKC87X","","","","{""Q0"":""Feels like ice""}","","","","","","","","","","","","","","","","","","","","","","",""
"2374.5999999046326","","image-slider-response","35","147289","0.0-35.0","A1AF25FCVKC87X","","","","","-9","","","","","","","","","","","","","","","","","","","","","",""
"3931","","image-button-response","36","152293","0.0-36.0","A1AF25FCVKC87X","img_art/ins/3.jpg","1","","","","","","","","","","","","","","","","","","","","","","","","",""
"588","","image-button-response","37","152887","0.0-37.0","A1AF25FCVKC87X","img_art/ins/3.jpg","1","","","","","","","","","","","","","","","","","","","","","","","","",""
"2104","","image-button-response","38","154997","0.0-38.0-0.0","A1AF25FCVKC87X","img_art/ins/3.jpg","5","","","","","","","","","","","","","","","","","","","","","","","","",""
"1285","","image-button-response","39","156288","0.0-39.0-0.0","A1AF25FCVKC87X","img_art/ins/3.jpg","3","","","","","","","","","","","","","","","","","","","","","","","","",""
"null","","html-keyboard-response","40","156792","0.0-40.0","A1AF25FCVKC87X","<p style=""font-size: 48px;"">+</p>","","","","","null","allTrialResponses","500","1","0","img_art/ins/3.jpg","-9","Feels like ice","Adam,Mike,John,Carl,Ron,Sam","My daily routine, it's depressing,-20,20,20","enjoy the different shades of blue,22,200,20","I like the overlapping of brushes,41,160,20","It's an alright work,15,80,20","It looks depressing,-26,220,20","I can feel a rainy day from this painting,18,240,20","Mike","enjoy the different shades of blue,22,200,20","Sam","I can feel a rainy day from this painting,18,240,20","Carl","It's an alright work,15,80,20","0"
"21513","","image-button-response_instructions","41","178312","0.0-41.0","A1AF25FCVKC87X","","0","instructions","","","","","","","","","","","","","","","","","","","","","","","",""
"7830","","survey-likert","42","186146","0.0-42.0-0.0","A1AF25FCVKC87X","","","","{""Q0"":"""",""Q1"":0,""Q2"":1}","","","","","","","","","","","","","","","","","","","","","","",""
"5002","","survey-text","43","191171","0.0-43.0-0.0","A1AF25FCVKC87X","","","","{""Q0"":""rock""}","","","","","","","","","","","","","","","","","","","","","","",""
"18389","","survey-text","44","209564","0.0-44.0-0.0","A1AF25FCVKC87X","","","","{""Q0"":""Looks like someone just sprayed paint on it""}","","","","","","","","","","","","","","","","","","","","","","",""
"2068.7000000476837","","image-slider-response","45","211636","0.0-45.0","A1AF25FCVKC87X","","","","","-15","","","","","","","","","","","","","","","","","","","","","",""
"4440","","image-button-response","46","216685","0.0-46.0","A1AF25FCVKC87X","img_art/23.jpg","0","","","","","","","","","","","","","","","","","","","","","","","","",""
"686","","image-button-response","47","217375","0.0-47.0","A1AF25FCVKC87X","img_art/23.jpg","0","","","","","","","","","","","","","","","","","","","","","","","","",""
"2035","","image-button-response","48","219415","0.0-48.0-0.0","A1AF25FCVKC87X","img_art/23.jpg","3","","","","","","","","","","","","","","","","","","","","","","","","",""
"2120","","image-button-response","49","221539","0.0-49.0-0.0","A1AF25FCVKC87X","img_art/23.jpg","0","","","","","","","","","","","","","","","","","","","","","","","","",""
"981","","image-button-response","50","229373","0.0-49.1-0.1","A1AF25FCVKC87X","img_art/23.jpg","2","","","","","","","","","","","","","","","","","","","","","","","","",""
"null","","html-keyboard-response","51","230378","0.0-50.0","A1AF25FCVKC87X","<p style=""font-size: 48px;"">+</p>","","","","","null","allTrialResponses","1000","1","1","img_art/23.jpg","-15","Looks like someone just sprayed paint on it","Steven,Mason,Elijah,Devon,Kenneth,Vincent","NO, I don't get it,-50,160,20","No reactions, childish.,-19,100,20","Makes me worried,10,80,20","i cannot breath in this,-10,400,20","Love this. I love the white, really pops with the colors surrounding it.,44,300,20","Very happy , busy , free, and full of Hope,28,360,20","Steven","NO, I don't get it,-50,160,20","Devon","i cannot breath in this,-10,400,20","Elijah","Makes me worried,10,80,20","2"
"14180","","survey-text","52","244567","0.0-51.0-0.0","A1AF25FCVKC87X","","","","{""Q0"":""Feels like a helllish nature""}","","","","","","","","","","","","","","","","","","","","","","",""
"2529.5","","image-slider-response","53","247101","0.0-52.0","A1AF25FCVKC87X","","","","","-18","","","","","","","","","","","","","","","","","","","","","",""
"null","","image-button-response","54","252165","0.0-53.0","A1AF25FCVKC87X","img_art/1.jpg","null","","","","","","","","","","","","","","","","","","","","","","","","",""
"6664","","image-button-response","55","258835","0.0-54.0","A1AF25FCVKC87X","img_art/1.jpg","4","","","","","","","","","","","","","","","","","","","","","","","","",""
"3981","","image-button-response","56","262821","0.0-55.0-0.0","A1AF25FCVKC87X","img_art/1.jpg","0","","","","","","","","","","","","","","","","","","","","","","","","",""
"4754","","image-button-response","57","267579","0.0-56.0-0.0","A1AF25FCVKC87X","img_art/1.jpg","2","","","","","","","","","","","","","","","","","","","","","","","","",""
"null","","html-keyboard-response","58","269086","0.0-57.0","A1AF25FCVKC87X","<p style=""font-size: 48px;"">+</p>","","","","","null","allTrialResponses","1500","1","2","img_art/1.jpg","-18","Feels like a helllish nature","Steven,Logan,Elijah,Devon,Justin,Timothy","It's fine, but its like something you'd see in the restroom of a cheap restaurant,10,160,20","looks like an earlier painting. I wish I gave it -20 but oh well,21,360,20","Makes me feel confused,-6,80,20","I see happiness from different aspects of life,31,400,20","It reminds me of a sunset I once saw.,16,280,20","This one has a pleasent energy,15,240,20","Justin","It reminds me of a sunset I once saw.,16,280,20","Steven","It's fine, but its like something you'd see in the restroom of a cheap restaurant,10,160,20","Elijah","Makes me feel confused,-6,80,20","2"
"12806","","survey-text","59","281900","0.0-58.0-0.0","A1AF25FCVKC87X","","","","{""Q0"":""I like the use of white""}","","","","","","","","","","","","","","","","","","","","","","",""
"2140","","image-slider-response","60","284044","0.0-59.0","A1AF25FCVKC87X","","","","","19","","","","","","","","","","","","","","","","","","","","","",""
"null","","image-button-response","61","289057","0.0-60.0","A1AF25FCVKC87X","img_art/17.jpg","null","","","","","","","","","","","","","","","","","","","","","","","","",""
"617","","image-button-response","62","289680","0.0-61.0","A1AF25FCVKC87X","img_art/17.jpg","2","","","","","","","","","","","","","","","","","","","","","","","","",""
"891","","image-button-response","63","290577","0.0-62.0-0.0","A1AF25FCVKC87X","img_art/17.jpg","4","","","","","","","","","","","","","","","","","","","","","","","","",""
"1021","","image-button-response","64","291603","0.0-63.0-0.0","A1AF25FCVKC87X","img_art/17.jpg","5","","","","","","","","","","","","","","","","","","","","","","","","",""
"null","","html-keyboard-response","65","292622","0.0-64.0","A1AF25FCVKC87X","<p style=""font-size: 48px;"">+</p>","","","","","null","allTrialResponses","1000","1","3","img_art/17.jpg","19","I like the use of white","Steven,Chase,Elijah,Bryan,Justin,Austin","absolutely gorgeous, I feel solitude again, but the beauty is there also,50,160,20","It's okay, I just don't see much too it.,7,120,20","Very cool, makes me feel calm,43,80,20","Reminds me of winters in Minnesota.,48,400,20","I like the colors and the design.,20,280,20","Has a unique vibe to it,50,240,20","Elijah","Very cool, makes me feel calm,43,80,20","Justin","I like the colors and the design.,20,280,20","Austin","Has a unique vibe to it,50,240,20","2"
"20884","","survey-text","66","313513","0.0-65.0-0.0","A1AF25FCVKC87X","","","","{""Q0"":""Very futuristic appeal""}","","","","","","","","","","","","","","","","","","","","","","",""
"2463.7999999523163","","image-slider-response","67","315981","0.0-66.0","A1AF25FCVKC87X","","","","","19","","","","","","","","","","","","","","","","","","","","","",""
"null","","image-button-response","68","321124","0.0-67.0","A1AF25FCVKC87X","img_art/20.jpg","null","","","","","","","","","","","","","","","","","","","","","","","","",""
"1090","","image-button-response","69","322220","0.0-68.0","A1AF25FCVKC87X","img_art/20.jpg","0","","","","","","","","","","","","","","","","","","","","","","","","",""
"5997","","image-button-response","70","328222","0.0-69.0-0.0","A1AF25FCVKC87X","img_art/20.jpg","4","","","","","","","","","","","","","","","","","","","","","","","","",""
"1008","","image-button-response","71","329235","0.0-70.0-0.0","A1AF25FCVKC87X","img_art/20.jpg","3","","","","","","","","","","","","","","","","","","","","","","","","",""
"null","","html-keyboard-response","72","329740","0.0-71.0","A1AF25FCVKC87X","<p style=""font-size: 48px;"">+</p>","","","","","null","allTrialResponses","500","1","4","img_art/20.jpg","19","Very futuristic appeal","Gregory,Samuel,Elijah,Victor,Justin,Austin","Looks like some type of future dystopian civilization,35,220,20","crash after traffic causing grief,-11,400,20","Makes me feel impressed,9,80,20","sort of pleasant to look at, but can't tell if it's supposed to be something,13,340,20","The colors and the scene depicted is interesting.,13,280,20","This painting would make a great display art,50,240,20","Gregory","Looks like some type of future dystopian civilization,35,220,20","Justin","The colors and the scene depicted is interesting.,13,280,20","Victor","sort of pleasant to look at, but can't tell if it's supposed to be something,13,340,20","2"
"22012","","survey-text","73","351765","0.0-72.0-0.0","A1AF25FCVKC87X","","","","{""Q0"":""Paint slowly falls near a pole""}","","","","","","","","","","","","","","","","","","","","","","",""
"2616.2000000476837","","image-slider-response","74","354386","0.0-73.0","A1AF25FCVKC87X","","","","","10","","","","","","","","","","","","","","","","","","","","","",""
"null","","image-button-response","75","359394","0.0-74.0","A1AF25FCVKC87X","img_art/13.jpg","null","","","","","","","","","","","","","","","","","","","","","","","","",""
"616","","image-button-response","76","360013","0.0-75.0","A1AF25FCVKC87X","img_art/13.jpg","0","","","","","","","","","","","","","","","","","","","","","","","","",""
"1450","","image-button-response","77","361467","0.0-76.0-0.0","A1AF25FCVKC87X","img_art/13.jpg","1","","","","","","","","","","","","","","","","","","","","","","","","",""
"3174","","image-button-response","78","364648","0.0-77.0-0.0","A1AF25FCVKC87X","img_art/13.jpg","5","","","","","","","","","","","","","","","","","","","","","","","","",""
"null","","html-keyboard-response","79","365660","0.0-78.0","A1AF25FCVKC87X","<p style=""font-size: 48px;"">+</p>","","","","","null","allTrialResponses","1000","1","5","img_art/13.jpg","10","Paint slowly falls near a pole","Gregory,Eric,Trevor,Victor,Justin,James","Cool colors and looks like rain on a window,45,220,20","I love the style of this piece, but the color choice could've been more eye catching or calming.,40,100,20","i like the colors but it looks like something that would hang in a hotel,18,280,20","Great color balance. I like the splatter, and how the vertical lines go from sharper to more blended.,31,340,20","Not really a fan of ""splash"" art.,-20,280,20","This is a very cool painting, something an art teacher or professor would own.,22,380,20","Gregory","Cool colors and looks like rain on a window,45,220,20","Eric","I love the style of this piece, but the color choice could've been more eye catching or calming.,40,100,20","James","This is a very cool painting, something an art teacher or professor would own.,22,380,20","2"
"5123","","survey-text","80","370799","0.0-79.0-0.0","A1AF25FCVKC87X","","","","{""Q0"":""sky""}","","","","","","","","","","","","","","","","","","","","","","",""
"17432","","survey-text","81","388234","0.0-80.0-0.0","A1AF25FCVKC87X","","","","{""Q0"":""Makes me feel like its Christmas""}","","","","","","","","","","","","","","","","","","","","","","",""
"2500.600000143051","","image-slider-response","82","390738","0.0-81.0","A1AF25FCVKC87X","","","","","28","","","","","","","","","","","","","","","","","","","","","",""
"null","","image-button-response","83","396614","0.0-82.0","A1AF25FCVKC87X","img_art/11.jpg","null","","","","","","","","","","","","","","","","","","","","","","","","",""
"3757","","image-button-response","84","400375","0.0-83.0","A1AF25FCVKC87X","img_art/11.jpg","0","","","","","","","","","","","","","","","","","","","","","","","","",""
"4351","","image-button-response","85","404731","0.0-84.0-0.0","A1AF25FCVKC87X","img_art/11.jpg","3","","","","","","","","","","","","","","","","","","","","","","","","",""
"1223","","image-button-response","86","405959","0.0-85.0-0.0","A1AF25FCVKC87X","img_art/11.jpg","5","","","","","","","","","","","","","","","","","","","","","","","","",""
"null","","html-keyboard-response","87","407478","0.0-86.0","A1AF25FCVKC87X","<p style=""font-size: 48px;"">+</p>","","","","","null","allTrialResponses","1500","1","6","img_art/11.jpg","28","Makes me feel like its Christmas","Gregory,Eric,Devin,Malik,Bryce,James","Looks like a cityscape,25,220,20","I don't like the gloomy color, but it reminds me of a city which I like.,35,100,20","I like the vibe of the painting,-3,380,20","I want to know which skyline the artist is depicting,26,40,20","Scary again. Not a fan.,-23,20,20","I like dark colors.,31,380,20","Gregory","Looks like a cityscape,25,220,20","Malik","I want to know which skyline the artist is depicting,26,40,20","James","I like dark colors.,31,380,20","2"
"23628","","survey-text","88","431114","0.0-87.0-0.0","A1AF25FCVKC87X","","","","{""Q0"":""Seems like they just gathered paint in one location""}","","","","","","","","","","","","","","","","","","","","","","",""
"2971.399999856949","","image-slider-response","89","434088","0.0-88.0","A1AF25FCVKC87X","","","","","-6","","","","","","","","","","","","","","","","","","","","","",""
"null","","image-button-response","90","439169","0.0-89.0","A1AF25FCVKC87X","img_art/15.jpg","null","","","","","","","","","","","","","","","","","","","","","","","","",""
"3700","","image-button-response","91","442872","0.0-90.0","A1AF25FCVKC87X","img_art/15.jpg","2","","","","","","","","","","","","","","","","","","","","","","","","",""
"3820","","image-button-response","92","446697","0.0-91.0-0.0","A1AF25FCVKC87X","img_art/15.jpg","4","","","","","","","","","","","","","","","","","","","","","","","","",""
"870","","image-button-response","93","447571","0.0-92.0-0.0","A1AF25FCVKC87X","img_art/15.jpg","5","","","","","","","","","","","","","","","","","","","","","","","","",""
"null","","html-keyboard-response","94","448075","0.0-93.0","A1AF25FCVKC87X","<p style=""font-size: 48px;"">+</p>","","","","","null","allTrialResponses","500","1","7","img_art/15.jpg","-6","Seems like they just gathered paint in one location","Gregory,Shawn,Gabriel,Malik,Jesse,James","Black and blue is my favorite color combination,35,220,20","Like the composition and lines,26,100,20","i kinda like this one but wouldnt buy it for myself,17,160,20","I like the dense patterns and the splashes  of blue,38,40,20","Doesnt trigger much of a reaction overall,-2,80,20","No opinion truthfully,1,380,20","Gabriel","i kinda like this one but wouldnt buy it for myself,17,160,20","Jesse","Doesnt trigger much of a reaction overall,-2,80,20","James","No opinion truthfully,1,380,20","2"
"18761","","survey-text","95","466844","0.0-94.0-0.0","A1AF25FCVKC87X","","","","{""Q0"":""Looks like red scribbles to me""}","","","","","","","","","","","","","","","","","","","","","","",""
"2846.2999999523163","","image-slider-response","96","469693","0.0-95.0","A1AF25FCVKC87X","","","","","-22","","","","","","","","","","","","","","","","","","","","","",""
"null","","image-button-response","97","475210","0.0-96.0","A1AF25FCVKC87X","img_art/3.jpg","null","","","","","","","","","","","","","","","","","","","","","","","","",""
"3396","","image-button-response","98","478611","0.0-97.0","A1AF25FCVKC87X","img_art/3.jpg","2","","","","","","","","","","","","","","","","","","","","","","","","",""
"4478","","image-button-response","99","483093","0.0-98.0-0.0","A1AF25FCVKC87X","img_art/3.jpg","3","","","","","","","","","","","","","","","","","","","","","","","","",""
"922","","image-button-response","100","484019","0.0-99.0-0.0","A1AF25FCVKC87X","img_art/3.jpg","4","","","","","","","","","","","","","","","","","","","","","","","","",""
"null","","html-keyboard-response","101","485538","0.0-100.0","A1AF25FCVKC87X","<p style=""font-size: 48px;"">+</p>","","","","","null","allTrialResponses","1500","1","8","img_art/3.jpg","-22","Looks like red scribbles to me","Ethan,Brian,Gabriel,Paul,Jesse,James","I usually don't like red. Red in this angry piece is very fitting.,19,120,20","this is a very nice emotion,27,380,20","just scribbles, not pleasing,-30,160,20","It looks like random scribbles by a child and not appealing,-38,300,20","No substance or feeling to it,-20,80,20","It's very plain,-20,380,20","Gabriel","just scribbles, not pleasing,-30,160,20","Paul","It looks like random scribbles by a child and not appealing,-38,300,20","Jesse","No substance or feeling to it,-20,80,20","2"
"27290","","survey-text","102","512833","0.0-101.0-0.0","A1AF25FCVKC87X","","","","{""Q0"":""Sends a message about what they're feeling about their work""}","","","","","","","","","","","","","","","","","","","","","","",""
"2359.2999999523163","","image-slider-response","103","515197","0.0-102.0","A1AF25FCVKC87X","","","","","18","","","","","","","","","","","","","","","","","","","","","",""
"null","","image-button-response","104","520212","0.0-103.0","A1AF25FCVKC87X","img_art/29.jpg","null","","","","","","","","","","","","","","","","","","","","","","","","",""
"2597","","image-button-response","105","522812","0.0-104.0","A1AF25FCVKC87X","img_art/29.jpg","1","","","","","","","","","","","","","","","","","","","","","","","","",""
"2056","","image-button-response","106","524870","0.0-105.0-0.0","A1AF25FCVKC87X","img_art/29.jpg","0","","","","","","","","","","","","","","","","","","","","","","","","",""
"5152","","image-button-response","107","530027","0.0-106.0-0.0","A1AF25FCVKC87X","img_art/29.jpg","4","","","","","","","","","","","","","","","","","","","","","","","","",""
"null","","html-keyboard-response","108","531541","0.0-107.0","A1AF25FCVKC87X","<p style=""font-size: 48px;"">+</p>","","","","","null","allTrialResponses","1500","1","9","img_art/29.jpg","18","Sends a message about what they're feeling about their work","Luke,Caleb,Gabriel,Paul,Jesse,Mark","it is difficult to look at but you can't look away,-25,20,20","Looks wrong. Like a real painting was vandalized.,-50,40,20","dont like this one,-20,160,20","There's too much black and it looks sloppy,-35,300,20","Grabs interest but then confuses me,6,80,20","Bottomless pit and prison. Feels like its saying time is precious.,11,80,20","Caleb","Looks wrong. Like a real painting was vandalized.,-50,40,20","Luke","it is difficult to look at but you can't look away,-25,20,20","Jesse","Grabs interest but then confuses me,6,80,20","2"
"14655","","survey-text","109","546206","0.0-108.0-0.0","A1AF25FCVKC87X","","","","{""Q0"":""Feels old school and child like""}","","","","","","","","","","","","","","","","","","","","","","",""
"3703","","image-slider-response","110","549913","0.0-109.0","A1AF25FCVKC87X","","","","","23","","","","","","","","","","","","","","","","","","","","","",""
"null","","image-button-response","111","554919","0.0-110.0","A1AF25FCVKC87X","img_art/16.jpg","null","","","","","","","","","","","","","","","","","","","","","","","","",""
"1676","","image-button-response","112","556599","0.0-111.0","A1AF25FCVKC87X","img_art/16.jpg","0","","","","","","","","","","","","","","","","","","","","","","","","",""
"6090","","image-button-response","113","562692","0.0-112.0-0.0","A1AF25FCVKC87X","img_art/16.jpg","2","","","","","","","","","","","","","","","","","","","","","","","","",""
"6549","","image-button-response","114","569246","0.0-113.0-0.0","A1AF25FCVKC87X","img_art/16.jpg","5","","","","","","","","","","","","","","","","","","","","","","","","",""
"null","","html-keyboard-response","115","570263","0.0-114.0","A1AF25FCVKC87X","<p style=""font-size: 48px;"">+</p>","","","","","null","allTrialResponses","1000","1","10","img_art/16.jpg","23","Feels old school and child like","Luke,Caleb,Alexander,Christopher,Jesse,Scott","while simple, it seems to have a deeper meaning on childhood,33,20,20","A strange collage made by a child. Do not like the colored face of the bear.,-29,40,20","Strange and bleak.,-20,120,20","i don't like the collage aspect,-25,160,20","I dont feel any real response,5,80,20","feels chaotic and morbid,-39,20,20","Luke","while simple, it seems to have a deeper meaning on childhood,33,20,20","Alexander","Strange and bleak.,-20,120,20","Scott","feels chaotic and morbid,-39,20,20","2"
"5009","","survey-text","116","575327","0.0-115.0-0.0","A1AF25FCVKC87X","","","","{""Q0"":""our""}","","","","","","","","","","","","","","","","","","","","","","",""
"19263","","survey-text","117","594594","0.0-116.0-0.0","A1AF25FCVKC87X","","","","{""Q0"":""A castle in a strange land""}","","","","","","","","","","","","","","","","","","","","","","",""
"2526.4000000953674","","image-slider-response","118","597126","0.0-117.0","A1AF25FCVKC87X","","","","","18","","","","","","","","","","","","","","","","","","","","","",""
"null","","image-button-response","119","602172","0.0-118.0","A1AF25FCVKC87X","img_art/8.jpg","null","","","","","","","","","","","","","","","","","","","","","","","","",""
"7048","","image-button-response","120","609224","0.0-119.0","A1AF25FCVKC87X","img_art/8.jpg","3","","","","","","","","","","","","","","","","","","","","","","","","",""
"1152","","image-button-response","121","610379","0.0-120.0-0.0","A1AF25FCVKC87X","img_art/8.jpg","0","","","","","","","","","","","","","","","","","","","","","","","","",""
"2843","","image-button-response","122","613226","0.0-121.0-0.0","A1AF25FCVKC87X","img_art/8.jpg","2","","","","","","","","","","","","","","","","","","","","","","","","",""
"null","","html-keyboard-response","123","613729","0.0-122.0","A1AF25FCVKC87X","<p style=""font-size: 48px;"">+</p>","","","","","null","allTrialResponses","500","1","11","img_art/8.jpg","18","A castle in a strange land","Luke,Jeremy,Alexander,Ryan,Cody,Scott","It is very colorful with a deeper meaning,25,20,20","Nervous like being up high,10,60,20","Falling into a city's heart.,10,120,20","I love architectural paintings,46,380,20","Love the colors & block-style,50,180,20","the face is creepy,-49,20,20","Ryan","I love architectural paintings,46,380,20","Luke","It is very colorful with a deeper meaning,25,20,20","Alexander","Falling into a city's heart.,10,120,20","2"
"16959","","survey-text","124","630698","0.0-123.0-0.0","A1AF25FCVKC87X","","","","{""Q0"":""Feels more like a puzzle than a painting""}","","","","","","","","","","","","","","","","","","","","","","",""
"3428.7000000476837","","image-slider-response","125","634139","0.0-124.0","A1AF25FCVKC87X","","","","","4","","","","","","","","","","","","","","","","","","","","","",""
"null","","image-button-response","126","639166","0.0-125.0","A1AF25FCVKC87X","img_art/12.jpg","null","","","","","","","","","","","","","","","","","","","","","","","","",""
"14371","","image-button-response","127","653541","0.0-126.0","A1AF25FCVKC87X","img_art/12.jpg","4","","","","","","","","","","","","","","","","","","","","","","","","",""
"5907","","image-button-response","128","659453","0.0-127.0-0.0","A1AF25FCVKC87X","img_art/12.jpg","1","","","","","","","","","","","","","","","","","","","","","","","","",""
"1024","","image-button-response","129","660481","0.0-128.0-0.0","A1AF25FCVKC87X","img_art/12.jpg","2","","","","","","","","","","","","","","","","","","","","","","","","",""
"null","","html-keyboard-response","130","661499","0.0-129.0","A1AF25FCVKC87X","<p style=""font-size: 48px;"">+</p>","","","","","null","allTrialResponses","1000","1","12","img_art/12.jpg","4","Feels more like a puzzle than a painting","Luke,Juan,Alexander,Ryan,Shane,Travis","don't feel a lot but it seems very simple,-6,20,20","This is too abstract and the colors are too worn out.,-23,260,20","Ugly color combinations, no focus.,-25,120,20","The colors are beautiful and it has great composition,50,380,20","Something you would see in a government building hallway,3,80,20","Neutral...just blocks.,3,260,20","Shane","Something you would see in a government building hallway,3,80,20","Juan","This is too abstract and the colors are too worn out.,-23,260,20","Alexander","Ugly color combinations, no focus.,-25,120,20","2"
"16494","","survey-text","131","678005","0.0-130.0-0.0","A1AF25FCVKC87X","","","","{""Q0"":""The outdoors on a fall day""}","","","","","","","","","","","","","","","","","","","","","","",""
"2511.7000000476837","","image-slider-response","132","680520","0.0-131.0","A1AF25FCVKC87X","","","","","19","","","","","","","","","","","","","","","","","","","","","",""
"null","","image-button-response","133","685542","0.0-132.0","A1AF25FCVKC87X","img_art/27.jpg","null","","","","","","","","","","","","","","","","","","","","","","","","",""
"1959","","image-button-response","134","687505","0.0-133.0","A1AF25FCVKC87X","img_art/27.jpg","4","","","","","","","","","","","","","","","","","","","","","","","","",""
"1724","","image-button-response","135","689233","0.0-134.0-0.0","A1AF25FCVKC87X","img_art/27.jpg","1","","","","","","","","","","","","","","","","","","","","","","","","",""
"2059","","image-button-response","136","691297","0.0-135.0-0.0","A1AF25FCVKC87X","img_art/27.jpg","5","","","","","","","","","","","","","","","","","","","","","","","","",""
"null","","html-keyboard-response","137","691800","0.0-136.0","A1AF25FCVKC87X","<p style=""font-size: 48px;"">+</p>","","","","","null","allTrialResponses","500","1","13","img_art/27.jpg","19","The outdoors on a fall day","Alexis,Juan,Alexander,Isaac,Shane,Adam","I like hoe it looks like a fall day in a city,45,140,20","Colors make me think of fall, but I don't like how the picture was done or the weird lines across the background,6,260,20","Messy field of various plants.,-5,120,20","The green lines look like a child drew over a painting.,-36,280,20","Makes me feel warm inside,21,80,20","Warn colors are pretty, but too blotchy for me.,3,40,20","Shane","Makes me feel warm inside,21,80,20","Juan","Colors make me think of fall, but I don't like how the picture was done or the weird lines across the background,6,260,20","Adam","Warn colors are pretty, but too blotchy for me.,3,40,20","2"
"16615","","survey-text","138","708424","0.0-137.0-0.0","A1AF25FCVKC87X","","","","{""Q0"":""An aurora signed by someone""}","","","","","","","","","","","","","","","","","","","","","","",""
"4365.099999904633","","image-slider-response","139","712792","0.0-138.0","A1AF25FCVKC87X","","","","","-14","","","","","","","","","","","","","","","","","","","","","",""
"null","","image-button-response","140","717796","0.0-139.0","A1AF25FCVKC87X","img_art/30.jpg","null","","","","","","","","","","","","","","","","","","","","","","","","",""
"5649","","image-button-response","141","723447","0.0-140.0","A1AF25FCVKC87X","img_art/30.jpg","1","","","","","","","","","","","","","","","","","","","","","","","","",""
"3086","","image-button-response","142","726539","0.0-141.0-0.0","A1AF25FCVKC87X","img_art/30.jpg","4","","","","","","","","","","","","","","","","","","","","","","","","",""
"1713","","image-button-response","143","728258","0.0-142.0-0.0","A1AF25FCVKC87X","img_art/30.jpg","5","","","","","","","","","","","","","","","","","","","","","","","","",""
"null","","html-keyboard-response","144","729261","0.0-143.0","A1AF25FCVKC87X","<p style=""font-size: 48px;"">+</p>","","","","","null","allTrialResponses","1000","1","14","img_art/30.jpg","-14","An aurora signed by someone","Joseph,Juan,Edward,Luis,Shane,Adam","It's soothing- the page is full, but there aren't too many things happening.,23,220,20","I like the red against the blue, but otherwise, it's not really my taste,4,260,20","My son made me a painting that looked like this,26,60,20","Flowing freely of the rest of the world,42,400,20","I like the back but the red lines in the front distress me,-7,80,20","Dislike the contrast here.,-5,40,20","Juan","I like the red against the blue, but otherwise, it's not really my taste,4,260,20","Shane","I like the back but the red lines in the front distress me,-7,80,20","Adam","Dislike the contrast here.,-5,40,20","2"
"20473","","survey-text","145","749744","0.0-144.0-0.0","A1AF25FCVKC87X","","","","{""Q0"":""Looks like a giant guitar""}","","","","","","","","","","","","","","","","","","","","","","",""
"3485","","image-slider-response","146","753235","0.0-145.0","A1AF25FCVKC87X","","","","","17","","","","","","","","","","","","","","","","","","","","","",""
"null","","image-button-response","147","759168","0.0-146.0","A1AF25FCVKC87X","img_art/10.jpg","null","","","","","","","","","","","","","","","","","","","","","","","","",""
"18826","","image-button-response","148","778001","0.0-147.0","A1AF25FCVKC87X","img_art/10.jpg","3","","","","","","","","","","","","","","","","","","","","","","","","",""
"1318","","image-button-response","149","779323","0.0-148.0-0.0","A1AF25FCVKC87X","img_art/10.jpg","5","","","","","","","","","","","","","","","","","","","","","","","","",""
"1703","","image-button-response","150","781031","0.0-149.0-0.0","A1AF25FCVKC87X","img_art/10.jpg","2","","","","","","","","","","","","","","","","","","","","","","","","",""
"null","","html-keyboard-response","151","782035","0.0-150.0","A1AF25FCVKC87X","<p style=""font-size: 48px;"">+</p>","","","","","null","allTrialResponses","1000","1","15","img_art/10.jpg","17","Looks like a giant guitar","Jacob,Juan,Jack,Antonio,Shane,Adam","I feel like this has a cool concept behind it.,11,340,20","It's interesting and my eyes keep being drawn to different parts of the picture.,11,260,20","this piece is okay. I wish it was more colorful, but it is certainly intriguing.,23,320,20","This painting made me think of a guitar which made me think of music which envoked happy feelings.,28,220,20","Like a decision making process,46,80,20","I like the contrast,10,40,20","Antonio","This painting made me think of a guitar which made me think of music which envoked happy feelings.,28,220,20","Adam","I like the contrast,10,40,20","Jack","this piece is okay. I wish it was more colorful, but it is certainly intriguing.,23,320,20","2"
"4919","","survey-text","152","786975","0.0-151.0-0.0","A1AF25FCVKC87X","","","","{""Q0"":""course""}","","","","","","","","","","","","","","","","","","","","","","",""
"14499","","survey-text","153","801477","0.0-152.0-0.0","A1AF25FCVKC87X","","","","{""Q0"":""I like how the water flows""}","","","","","","","","","","","","","","","","","","","","","","",""
"2394.4000000953674","","image-slider-response","154","803875","0.0-153.0","A1AF25FCVKC87X","","","","","33","","","","","","","","","","","","","","","","","","","","","",""
"null","","image-button-response","155","809161","0.0-154.0","A1AF25FCVKC87X","img_art/24.jpg","null","","","","","","","","","","","","","","","","","","","","","","","","",""
"13770","","image-button-response","156","822934","0.0-155.0","A1AF25FCVKC87X","img_art/24.jpg","2","","","","","","","","","","","","","","","","","","","","","","","","",""
"1627","","image-button-response","157","824566","0.0-156.0-0.0","A1AF25FCVKC87X","img_art/24.jpg","5","","","","","","","","","","","","","","","","","","","","","","","","",""
"1549","","image-button-response","158","826120","0.0-157.0-0.0","A1AF25FCVKC87X","img_art/24.jpg","4","","","","","","","","","","","","","","","","","","","","","","","","",""
"null","","html-keyboard-response","159","827124","0.0-158.0","A1AF25FCVKC87X","<p style=""font-size: 48px;"">+</p>","","","","","null","allTrialResponses","1000","1","16","img_art/24.jpg","33","I like how the water flows","Tristan,Alejandro,Jack,Antonio,Dalton,Adam","The contorted angles of the flowing water upset the harmony,-20,300,20","I don't like this painting because of its blottedness. It lacks conviction, direction and purpose.,-31,80,20","colors are a bit cramped together. really unique take on a waterfall though.,32,320,20","Waterfalls and spring and gives me a sense of renewal,34,220,20","i feel peace and wanting. i love waterfalls,50,300,20","I appreciate the earth tones. Soothing.,5,40,20","Jack","colors are a bit cramped together. really unique take on a waterfall though.,32,320,20","Adam","I appreciate the earth tones. Soothing.,5,40,20","Dalton","i feel peace and wanting. i love waterfalls,50,300,20","2"
"16704","","survey-text","160","843840","0.0-159.0-0.0","A1AF25FCVKC87X","","","","{""Q0"":""I'm not even sure what this is supposed to be""}","","","","","","","","","","","","","","","","","","","","","","",""
"2196.300000190735","","image-slider-response","161","846039","0.0-160.0","A1AF25FCVKC87X","","","","","-26","","","","","","","","","","","","","","","","","","","","","",""
"null","","image-button-response","162","851057","0.0-161.0","A1AF25FCVKC87X","img_art/18.jpg","null","","","","","","","","","","","","","","","","","","","","","","","","",""
"3807","","image-button-response","163","854870","0.0-162.0","A1AF25FCVKC87X","img_art/18.jpg","5","","","","","","","","","","","","","","","","","","","","","","","","",""
"3369","","image-button-response","164","858245","0.0-163.0-0.0","A1AF25FCVKC87X","img_art/18.jpg","1","","","","","","","","","","","","","","","","","","","","","","","","",""
"1667","","image-button-response","165","859917","0.0-164.0-0.0","A1AF25FCVKC87X","img_art/18.jpg","0","","","","","","","","","","","","","","","","","","","","","","","","",""
"null","","html-keyboard-response","166","861429","0.0-165.0","A1AF25FCVKC87X","<p style=""font-size: 48px;"">+</p>","","","","","null","allTrialResponses","1500","1","17","img_art/18.jpg","-26","I'm not even sure what this is supposed to be","William,Aaron,Jack,Lucas,Dalton,Adam","Makes me think of stormy oceans,20,380,20","I could spend a long time looking at it and see different things in the shapes.,21,20,20","hauntingly beautiful. more things revealed the longer you look. love the spirit-like figure in the top left.,47,320,20","White and yellow look awesome and the picture's dynamics are wonderful.,30,380,20","i like the colors in the picture and can make out my own images,42,300,20","Colors are okay. Reminds me of cavalry.,10,40,20","Adam","Colors are okay. Reminds me of cavalry.,10,40,20","Aaron","I could spend a long time looking at it and see different things in the shapes.,21,20,20","William","Makes me think of stormy oceans,20,380,20","2"
"18763","","survey-text","167","880202","0.0-166.0-0.0","A1AF25FCVKC87X","","","","{""Q0"":""The ocean meets the forest""}","","","","","","","","","","","","","","","","","","","","","","",""
"1834.7000000476837","","image-slider-response","168","882041","0.0-167.0","A1AF25FCVKC87X","","","","","24","","","","","","","","","","","","","","","","","","","","","",""
"null","","image-button-response","169","887158","0.0-168.0","A1AF25FCVKC87X","img_art/21.jpg","null","","","","","","","","","","","","","","","","","","","","","","","","",""
"7124","","image-button-response","170","894287","0.0-169.0","A1AF25FCVKC87X","img_art/21.jpg","2","","","","","","","","","","","","","","","","","","","","","","","","",""
"1121","","image-button-response","171","895412","0.0-170.0-0.0","A1AF25FCVKC87X","img_art/21.jpg","0","","","","","","","","","","","","","","","","","","","","","","","","",""
"1382","","image-button-response","172","896798","0.0-171.0-0.0","A1AF25FCVKC87X","img_art/21.jpg","3","","","","","","","","","","","","","","","","","","","","","","","","",""
"null","","html-keyboard-response","173","897302","0.0-172.0","A1AF25FCVKC87X","<p style=""font-size: 48px;"">+</p>","","","","","null","allTrialResponses","500","1","18","img_art/21.jpg","24","The ocean meets the forest","William,Aaron,Colton,Nicholas,Cameron,Adam","like the colors,30,380,20","I love the colors and the differences between the left and right sides.,22,20,20","i enjoy the clash of colors, reminds me of a storm at sea,32,220,20","Love the colors and the relationship between the light and storm,50,240,20","Like the colors. Don't like the white dots on the right side of the painting though.,15,60,20","I like color mix here,15,40,20","Colton","i enjoy the clash of colors, reminds me of a storm at sea,32,220,20","William","like the colors,30,380,20","Nicholas","Love the colors and the relationship between the light and storm,50,240,20","2"
"10925","","survey-text","174","908237","0.0-173.0-0.0","A1AF25FCVKC87X","","","","{""Q0"":""Feels like I'm at home""}","","","","","","","","","","","","","","","","","","","","","","",""
"2670.7999999523163","","image-slider-response","175","910911","0.0-174.0","A1AF25FCVKC87X","","","","","21","","","","","","","","","","","","","","","","","","","","","",""
"null","","image-button-response","176","916177","0.0-175.0","A1AF25FCVKC87X","img_art/26.jpg","null","","","","","","","","","","","","","","","","","","","","","","","","",""
"4871","","image-button-response","177","921063","0.0-176.0","A1AF25FCVKC87X","img_art/26.jpg","2","","","","","","","","","","","","","","","","","","","","","","","","",""
"1948","","image-button-response","178","923018","0.0-177.0-0.0","A1AF25FCVKC87X","img_art/26.jpg","3","","","","","","","","","","","","","","","","","","","","","","","","",""
"1371","","image-button-response","179","924393","0.0-178.0-0.0","A1AF25FCVKC87X","img_art/26.jpg","0","","","","","","","","","","","","","","","","","","","","","","","","",""
"null","","html-keyboard-response","180","924895","0.0-179.0","A1AF25FCVKC87X","<p style=""font-size: 48px;"">+</p>","","","","","null","allTrialResponses","500","1","19","img_art/26.jpg","21","Feels like I'm at home","William,Noah,Colton,Nicholas,Miguel,Nathan","feels a tad old,30,380,20","fairly neutral, really,8,260,20","very impressionistic,11,220,20","I like the colors and trees. Seems cheap vintage retail store art but i love it anyways,50,240,20","Murky, messy, kid like.,-45,160,20","It's a little too yellow-y for me, I'm not a huge fan of the color schemes or setting it portrays.,-20,200,20","Colton","very impressionistic,11,220,20","Nicholas","I like the colors and trees. Seems cheap vintage retail store art but i love it anyways,50,240,20","William","feels a tad old,30,380,20","2"
"23094","","survey-text","181","947999","0.0-180.0-0.0","A1AF25FCVKC87X","","","","{""Q0"":""I don't know what the artist is saying with this""}","","","","","","","","","","","","","","","","","","","","","","",""
"2517.100000143051","","image-slider-response","182","950520","0.0-181.0","A1AF25FCVKC87X","","","","","-26","","","","","","","","","","","","","","","","","","","","","",""
"null","","image-button-response","183","956167","0.0-182.0","A1AF25FCVKC87X","img_art/2.jpg","null","","","","","","","","","","","","","","","","","","","","","","","","",""
"7745","","image-button-response","184","963915","0.0-183.0","A1AF25FCVKC87X","img_art/2.jpg","0","","","","","","","","","","","","","","","","","","","","","","","","",""
"3549","","image-button-response","185","967467","0.0-184.0-0.0","A1AF25FCVKC87X","img_art/2.jpg","1","","","","","","","","","","","","","","","","","","","","","","","","",""
"479","","image-button-response","186","967952","0.0-185.0-0.0","A1AF25FCVKC87X","img_art/2.jpg","2","","","","","","","","","","","","","","","","","","","","","","","","",""
"null","","html-keyboard-response","187","968455","0.0-186.0","A1AF25FCVKC87X","<p style=""font-size: 48px;"">+</p>","","","","","null","allTrialResponses","500","1","20","img_art/2.jpg","-26","I don't know what the artist is saying with this","William,Stephen,Colton,Nicholas,Jake,Brendan","I like the colors,22,380,20","Colors mix nicely.,5,140,20","too blocky and don't like color combination,-32,220,20","Cute and happy,22,240,20","These colors are ugly.,-40,360,20","its ugly af to be honest,-50,340,20","William","I like the colors,22,380,20","Stephen","Colors mix nicely.,5,140,20","Colton","too blocky and don't like color combination,-32,220,20","2"
"4043","","survey-text","188","972520","0.0-187.0-0.0","A1AF25FCVKC87X","","","","{""Q0"":""we""}","","","","","","","","","","","","","","","","","","","","","","",""
"17121","","survey-text","189","989644","0.0-188.0-0.0","A1AF25FCVKC87X","","","","{""Q0"":""Looks like a weird cactus""}","","","","","","","","","","","","","","","","","","","","","","",""
"3421.7000000476837","","image-slider-response","190","993069","0.0-189.0","A1AF25FCVKC87X","","","","","9","","","","","","","","","","","","","","","","","","","","","",""
"null","","image-button-response","191","998081","0.0-190.0","A1AF25FCVKC87X","img_art/4.jpg","null","","","","","","","","","","","","","","","","","","","","","","","","",""
"2633","","image-button-response","192","1000717","0.0-191.0","A1AF25FCVKC87X","img_art/4.jpg","0","","","","","","","","","","","","","","","","","","","","","","","","",""
"1829","","image-button-response","193","1002551","0.0-192.0-0.0","A1AF25FCVKC87X","img_art/4.jpg","2","","","","","","","","","","","","","","","","","","","","","","","","",""
"563","","image-button-response","194","1003118","0.0-193.0-0.0","A1AF25FCVKC87X","img_art/4.jpg","1","","","","","","","","","","","","","","","","","","","","","","","","",""
"null","","html-keyboard-response","195","1003622","0.0-194.0","A1AF25FCVKC87X","<p style=""font-size: 48px;"">+</p>","","","","","null","allTrialResponses","500","1","21","img_art/4.jpg","9","Looks like a weird cactus","William,Stephen,Colton,Dustin,Jason,Christian","dont like the colors,-31,380,20","Just doesn't look nice.,-40,140,20","I really don't like the colors,-26,220,20","Warm colors, but too random. I feel like I'm seeing something mangled. It is unpleasant.,-30,20,20","I don't understand this at all,3,20,20","no sorry i can't really understand,-18,140,20","William","dont like the colors,-31,380,20","Colton","I really don't like the colors,-26,220,20","Stephen","Just doesn't look nice.,-40,140,20","2"
"11680","","survey-text","196","1015313","0.0-195.0-0.0","A1AF25FCVKC87X","","","","{""Q0"":""An alien making first contact""}","","","","","","","","","","","","","","","","","","","","","","",""
"2811","","image-slider-response","197","1018127","0.0-196.0","A1AF25FCVKC87X","","","","","15","","","","","","","","","","","","","","","","","","","","","",""
"null","","image-button-response","198","1023146","0.0-197.0","A1AF25FCVKC87X","img_art/25.jpg","null","","","","","","","","","","","","","","","","","","","","","","","","",""
"708","","image-button-response","199","1023857","0.0-198.0","A1AF25FCVKC87X","img_art/25.jpg","2","","","","","","","","","","","","","","","","","","","","","","","","",""
"1411","","image-button-response","200","1025271","0.0-199.0-0.0","A1AF25FCVKC87X","img_art/25.jpg","4","","","","","","","","","","","","","","","","","","","","","","","","",""
"951","","image-button-response","201","1026227","0.0-200.0-0.0","A1AF25FCVKC87X","img_art/25.jpg","3","","","","","","","","","","","","","","","","","","","","","","","","",""
"null","","html-keyboard-response","202","1027732","0.0-201.0","A1AF25FCVKC87X","<p style=""font-size: 48px;"">+</p>","","","","","null","allTrialResponses","1500","1","22","img_art/25.jpg","15","An alien making first contact","William,Stephen,Colton,Nathaniel,Ian,Anthony","makes me think of a scary movie,-20,380,20","It's nice but nothing special.,7,140,20","the colors are pretty,11,220,20","I love the background color and it's creepy...but cool.,30,220,20","This looks cool but I don't really care for it. Some sort or religious figure?,16,260,20","Spooky, but in a good way. I like the green and black color palette.,42,200,20","Colton","the colors are pretty,11,220,20","Ian","This looks cool but I don't really care for it. Some sort or religious figure?,16,260,20","Nathaniel","I love the background color and it's creepy...but cool.,30,220,20","2"
"29038","","survey-text","203","1056781","0.0-202.0-0.0","A1AF25FCVKC87X","","","","{""Q0"":""Looks like someone about to attack?""}","","","","","","","","","","","","","","","","","","","","","","",""
"2844.4000000953674","","image-slider-response","204","1059630","0.0-203.0","A1AF25FCVKC87X","","","","","-10","","","","","","","","","","","","","","","","","","","","","",""
"null","","image-button-response","205","1065171","0.0-204.0","A1AF25FCVKC87X","img_art/28.jpg","null","","","","","","","","","","","","","","","","","","","","","","","","",""
"10478","","image-button-response","206","1075654","0.0-205.0","A1AF25FCVKC87X","img_art/28.jpg","0","","","","","","","","","","","","","","","","","","","","","","","","",""
"2239","","image-button-response","207","1077899","0.0-206.0-0.0","A1AF25FCVKC87X","img_art/28.jpg","5","","","","","","","","","","","","","","","","","","","","","","","","",""
"1001","","image-button-response","208","1078904","0.0-207.0-0.0","A1AF25FCVKC87X","img_art/28.jpg","2","","","","","","","","","","","","","","","","","","","","","","","","",""
"null","","html-keyboard-response","209","1079923","0.0-208.0","A1AF25FCVKC87X","<p style=""font-size: 48px;"">+</p>","","","","","null","allTrialResponses","1000","1","23","img_art/28.jpg","-10","Looks like someone about to attack?","Matthew,Grant,Colton,Nathaniel,Ian,Dakota","Normally don't react well to abstract art, but it looks almost like something's there.,28,120,20","The darker colors make this unnerving.,40,200,20","not a fan of the colors or strokes used,-27,220,20","Has an air of darkness to it, but no real substance besides the mouse-like thing.,-38,220,20","This one looks very dark and seems like it has a lot of depth to it.,31,260,20","musical, animated and happy with somber undertones,7,280,20","Matthew","Normally don't react well to abstract art, but it looks almost like something's there.,28,120,20","Dakota","musical, animated and happy with somber undertones,7,280,20","Colton","not a fan of the colors or strokes used,-27,220,20","2"
"13586","","survey-text","210","1093522","0.0-209.0-0.0","A1AF25FCVKC87X","","","","{""Q0"":""Looks like a bunch of random colors""}","","","","","","","","","","","","","","","","","","","","","","",""
"3119.7000000476837","","image-slider-response","211","1096645","0.0-210.0","A1AF25FCVKC87X","","","","","2","","","","","","","","","","","","","","","","","","","","","",""
"null","","image-button-response","212","1101664","0.0-211.0","A1AF25FCVKC87X","img_art/22.jpg","null","","","","","","","","","","","","","","","","","","","","","","","","",""
"1040","","image-button-response","213","1102708","0.0-212.0","A1AF25FCVKC87X","img_art/22.jpg","0","","","","","","","","","","","","","","","","","","","","","","","","",""
"1730","","image-button-response","214","1104443","0.0-213.0-0.0","A1AF25FCVKC87X","img_art/22.jpg","2","","","","","","","","","","","","","","","","","","","","","","","","",""
"1626","","image-button-response","215","1106074","0.0-214.0-0.0","A1AF25FCVKC87X","img_art/22.jpg","4","","","","","","","","","","","","","","","","","","","","","","","","",""
"null","","html-keyboard-response","216","1107081","0.0-215.0","A1AF25FCVKC87X","<p style=""font-size: 48px;"">+</p>","","","","","null","allTrialResponses","1000","1","24","img_art/22.jpg","2","Looks like a bunch of random colors","Matthew,Jose,Colton,Bradley,Evan,Dakota","Another servicable piece of abstract art?,20,120,20","Cool squares but what's the circle?,38,200,20","I enjoy the colors used,24,220,20","I like this one. There is a lot to see if you keep looking for it.,27,300,20","I enjoy the vibrant colors,23,140,20","muddy and rough,14,280,20","Matthew","Another servicable piece of abstract art?,20,120,20","Colton","I enjoy the colors used,24,220,20","Evan","I enjoy the vibrant colors,23,140,20","2"
"18840","","survey-text","217","1125932","0.0-216.0-0.0","A1AF25FCVKC87X","","","","{""Q0"":""Simple yet efficient""}","","","","","","","","","","","","","","","","","","","","","","",""
"2914.5999999046326","","image-slider-response","218","1128850","0.0-217.0","A1AF25FCVKC87X","","","","","17","","","","","","","","","","","","","","","","","","","","","",""
"null","","image-button-response","219","1134168","0.0-218.0","A1AF25FCVKC87X","img_art/5.jpg","null","","","","","","","","","","","","","","","","","","","","","","","","",""
"2886","","image-button-response","220","1137059","0.0-219.0","A1AF25FCVKC87X","img_art/5.jpg","2","","","","","","","","","","","","","","","","","","","","","","","","",""
"585","","image-button-response","221","1137647","0.0-220.0-0.0","A1AF25FCVKC87X","img_art/5.jpg","0","","","","","","","","","","","","","","","","","","","","","","","","",""
"2032","","image-button-response","222","1139684","0.0-221.0-0.0","A1AF25FCVKC87X","img_art/5.jpg","3","","","","","","","","","","","","","","","","","","","","","","","","",""
"null","","html-keyboard-response","223","1140689","0.0-222.0","A1AF25FCVKC87X","<p style=""font-size: 48px;"">+</p>","","","","","null","allTrialResponses","1000","1","25","img_art/5.jpg","17","Simple yet efficient","Matthew,Benjamin,Colton,Kyle,Evan,Adrian","I like the simple shapes and colors.,23,120,20","Missing something,-5,260,20","I like the strokes and colors used,20,220,20","Not sure what to say about this piece honestly. It's okay I guess.,0,340,20","I am confused as to what I am seeing is it a handbag, duck foot, bell?,-18,140,20","Black bit reminds me of a giant splinter. Yellow bit reminds me of urine. I hate it.,-50,60,20","Colton","I like the strokes and colors used,20,220,20","Matthew","I like the simple shapes and colors.,23,120,20","Kyle","Not sure what to say about this piece honestly. It's okay I guess.,0,340,20","2"
"4502","","survey-text","224","1145206","0.0-223.0-0.0","A1AF25FCVKC87X","","","","{""Q0"":""table""}","","","","","","","","","","","","","","","","","","","","","","",""
"13942","","survey-text","225","1159151","0.0-224.0-0.0","A1AF25FCVKC87X","","","","{""Q0"":""I like the shapes used""}","","","","","","","","","","","","","","","","","","","","","","",""
"2408.9000000953674","","image-slider-response","226","1161565","0.0-225.0","A1AF25FCVKC87X","","","","","10","","","","","","","","","","","","","","","","","","","","","",""
"null","","image-button-response","227","1166571","0.0-226.0","A1AF25FCVKC87X","img_art/19.jpg","null","","","","","","","","","","","","","","","","","","","","","","","","",""
"845","","image-button-response","228","1167420","0.0-227.0","A1AF25FCVKC87X","img_art/19.jpg","0","","","","","","","","","","","","","","","","","","","","","","","","",""
"4004","","image-button-response","229","1171427","0.0-228.0-0.0","A1AF25FCVKC87X","img_art/19.jpg","3","","","","","","","","","","","","","","","","","","","","","","","","",""
"544","","image-button-response","230","1171976","0.0-229.0-0.0","A1AF25FCVKC87X","img_art/19.jpg","4","","","","","","","","","","","","","","","","","","","","","","","","",""
"null","","html-keyboard-response","231","1172983","0.0-230.0","A1AF25FCVKC87X","<p style=""font-size: 48px;"">+</p>","","","","","null","allTrialResponses","1000","1","26","img_art/19.jpg","10","I like the shapes used","Matthew,Jordan,Colton,Kyle,Tyler,Jeffrey","someone at the beach maybe?,27,120,20","I dont like the gray shadows, ruins it,-7,160,20","way too much going on,-33,220,20","Just stirred a negative reaction. Don't really like it perhaps because of the structure?,-8,340,20","Seems unfinished and sloppy,-11,320,20","very lively and colourful,21,40,20","Matthew","someone at the beach maybe?,27,120,20","Kyle","Just stirred a negative reaction. Don't really like it perhaps because of the structure?,-8,340,20","Tyler","Seems unfinished and sloppy,-11,320,20","2"
"12851","","survey-text","232","1185864","0.0-231.0-0.0","A1AF25FCVKC87X","","","","{""Q0"":""First contact on Mars""}","","","","","","","","","","","","","","","","","","","","","","",""
"2743.2000000476837","","image-slider-response","233","1188611","0.0-232.0","A1AF25FCVKC87X","","","","","22","","","","","","","","","","","","","","","","","","","","","",""
"null","","image-button-response","234","1193616","0.0-233.0","A1AF25FCVKC87X","img_art/7.jpg","null","","","","","","","","","","","","","","","","","","","","","","","","",""
"6461","","image-button-response","235","1200082","0.0-234.0","A1AF25FCVKC87X","img_art/7.jpg","4","","","","","","","","","","","","","","","","","","","","","","","","",""
"429","","image-button-response","236","1200515","0.0-235.0-0.0","A1AF25FCVKC87X","img_art/7.jpg","5","","","","","","","","","","","","","","","","","","","","","","","","",""
"700","","image-button-response","237","1201219","0.0-236.0-0.0","A1AF25FCVKC87X","img_art/7.jpg","2","","","","","","","","","","","","","","","","","","","","","","","","",""
"null","","html-keyboard-response","238","1201721","0.0-237.0","A1AF25FCVKC87X","<p style=""font-size: 48px;"">+</p>","","","","","null","allTrialResponses","500","1","27","img_art/7.jpg","22","First contact on Mars","Matthew,Garrett,Jonathan,Kyle,Tyler,Kevin","landscape of amrs, yawn.,-25,120,20","I don't like the repetitiveness of the colors, and I think there should be more colors.,-50,180,20","Looks like the surface of mars,29,140,20","It just reminds me of dirt,-10,340,20","Is this a painting, really? Very compelling if so, the texture work is incredible.,15,320,20","That a desert floor,16,320,20","Tyler","Is this a painting, really? Very compelling if so, the texture work is incredible.,15,320,20","Kevin","That a desert floor,16,320,20","Jonathan","Looks like the surface of mars,29,140,20","2"
"25912","","survey-text","239","1227649","0.0-238.0-0.0","A1AF25FCVKC87X","","","","{""Q0"":""Something growing out of the ground""}","","","","","","","","","","","","","","","","","","","","","","",""
"4763.299999952316","","image-slider-response","240","1232417","0.0-239.0","A1AF25FCVKC87X","","","","","-4","","","","","","","","","","","","","","","","","","","","","",""
"null","","image-button-response","241","1238166","0.0-240.0","A1AF25FCVKC87X","img_art/14.jpg","null","","","","","","","","","","","","","","","","","","","","","","","","",""
"2529","","image-button-response","242","1240698","0.0-241.0","A1AF25FCVKC87X","img_art/14.jpg","4","","","","","","","","","","","","","","","","","","","","","","","","",""
"2136","","image-button-response","243","1242838","0.0-242.0-0.0","A1AF25FCVKC87X","img_art/14.jpg","5","","","","","","","","","","","","","","","","","","","","","","","","",""
"2012","","image-button-response","244","1244853","0.0-243.0-0.0","A1AF25FCVKC87X","img_art/14.jpg","1","","","","","","","","","","","","","","","","","","","","","","","","",""
"null","","html-keyboard-response","245","1245365","0.0-244.0","A1AF25FCVKC87X","<p style=""font-size: 48px;"">+</p>","","","","","null","allTrialResponses","500","1","28","img_art/14.jpg","-4","Something growing out of the ground","Mitchell,Dylan,Jonathan,Robert,Tyler,Kevin","Tornado, nature. trees falling and displaced creatures. Love the colors though.,1,180,20","Pretty, dainty, unique,22,40,20","This reminds me of the Lion King somehow! Feels inspiring,30,140,20","Late Winter when things are just starting to bloom.,21,360,20","No strong feelings either direction.,-4,320,20","The pirates ship is sinking.,27,320,20","Tyler","No strong feelings either direction.,-4,320,20","Kevin","The pirates ship is sinking.,27,320,20","Dylan","Pretty, dainty, unique,22,40,20","2"
"17963","","survey-text","246","1263341","0.0-245.0-0.0","A1AF25FCVKC87X","","","","{""Q0"":""Feels like A monster eating a city""}","","","","","","","","","","","","","","","","","","","","","","",""
"2415.7999999523163","","image-slider-response","247","1265761","0.0-246.0","A1AF25FCVKC87X","","","","","7","","","","","","","","","","","","","","","","","","","","","",""
"null","","image-button-response","248","1270785","0.0-247.0","A1AF25FCVKC87X","img_art/9.jpg","null","","","","","","","","","","","","","","","","","","","","","","","","",""
"2655","","image-button-response","249","1273446","0.0-248.0","A1AF25FCVKC87X","img_art/9.jpg","3","","","","","","","","","","","","","","","","","","","","","","","","",""
"1587","","image-button-response","250","1275039","0.0-249.0-0.0","A1AF25FCVKC87X","img_art/9.jpg","5","","","","","","","","","","","","","","","","","","","","","","","","",""
"1901","","image-button-response","251","1276946","0.0-250.0-0.0","A1AF25FCVKC87X","img_art/9.jpg","1","","","","","","","","","","","","","","","","","","","","","","","","",""
"null","","html-keyboard-response","252","1277449","0.0-251.0","A1AF25FCVKC87X","<p style=""font-size: 48px;"">+</p>","","","","","null","allTrialResponses","500","1","29","img_art/9.jpg","7","Feels like A monster eating a city","Seth,Dylan,Joshua,Peter,Tyler,Kevin","I think it's sleeping beauty but I'm not sure. I didn't care for this piece.,-30,60,20","This picture is too busy and ugly,-20,40,20","Someone lying in bed?  Don't care for it.,-14,240,20","Looks like a monster's teeth , unsettling,-18,320,20","No cohesive form whatsoever. Hard pass.,-31,320,20","This is a picture of a scary mans head sideways.,-24,320,20","Peter","Looks like a monster's teeth , unsettling,-18,320,20","Kevin","This is a picture of a scary mans head sideways.,-24,320,20","Dylan","This picture is too busy and ugly,-20,40,20","2"
"17939","","survey-text","253","1295401","0.0-252.0-0.0","A1AF25FCVKC87X","","","","{""Q0"":""I like the bird and the simple background""}","","","","","","","","","","","","","","","","","","","","","","",""
"2235.5","","image-slider-response","254","1297639","0.0-253.0","A1AF25FCVKC87X","","","","","24","","","","","","","","","","","","","","","","","","","","","",""
"null","","image-button-response","255","1303158","0.0-254.0","A1AF25FCVKC87X","img_art/6.jpg","null","","","","","","","","","","","","","","","","","","","","","","","","",""
"2632","","image-button-response","256","1305794","0.0-255.0","A1AF25FCVKC87X","img_art/6.jpg","1","","","","","","","","","","","","","","","","","","","","","","","","",""
"3967","","image-button-response","257","1309765","0.0-256.0-0.0","A1AF25FCVKC87X","img_art/6.jpg","5","","","","","","","","","","","","","","","","","","","","","","","","",""
"1017","","image-button-response","258","1310786","0.0-257.0-0.0","A1AF25FCVKC87X","img_art/6.jpg","0","","","","","","","","","","","","","","","","","","","","","","","","",""
"null","","html-keyboard-response","259","1312298","0.0-258.0","A1AF25FCVKC87X","<p style=""font-size: 48px;"">+</p>","","","","","null","allTrialResponses","1500","1","30","img_art/6.jpg","24","I like the bird and the simple background","Corey,Dylan,Michael,Peter,Alex,Kevin","reminds me of a happy edgar allen poe poem,8,260,20","this is interesting and unique,11,40,20","Looks like a kid created it.,-50,140,20","Don't like the black space,2,320,20","Definitely belongs at a doctor's office, I think it's a crow or a tree?,-3,100,20","Its the headless bird. But why?,21,320,20","Dylan","this is interesting and unique,11,40,20","Kevin","Its the headless bird. But why?,21,320,20","Corey","reminds me of a happy edgar allen poe poem,8,260,20","2"
"2482","","image-button-response_instructions","260","1314795","0.0-259.0","A1AF25FCVKC87X","","0","instructions","","","","","","","","","","","","","","","","","","","","","","","",""
"1046","","image-button-response","261","1315850","0.0-260.0","A1AF25FCVKC87X","","0","","","","","","","","","","","","","","","","","","","","","","","","",""
