"rt","url","trial_type","trial_index","time_elapsed","internal_node_id","participant_id","stimulus","button_pressed","Name","responses","response","key_press","variableName","fixationTime","condition","trial","photo","subjectRating","subjectResponse","agentsNames","agent_1_Response","agent_2_Response","agent_3_Response","agent_4_Response","agent_5_Response","agent_6_Response","kept_1_name","kept_1_response","kept_2_name","kept_2_response","kept_3_name","kept_3_response","errorCounter"
"5080","external_page_harvard.html","external-html","0","5126","0.0-0.0","A1AMGHYG5PT0L2","","","","","","","","","","","","","","","","","","","","","","","","","","",""
"1086","","image-button-response","1","6213","0.0-1.0","A1AMGHYG5PT0L2","","1","","","","","","","","","","","","","","","","","","","","","","","","",""
"1198","","image-button-response","2","7413","0.0-2.0-0.0","A1AMGHYG5PT0L2","","1","phone","","","","","","","","","","","","","","","","","","","","","","","",""
"6263","","survey-text","3","13677","0.0-3.0-0.0","A1AMGHYG5PT0L2","","","","{""Q0"":""A1AMGHYG5PT0L2""}","","","","","","","","","","","","","","","","","","","","","","",""
"51598","","image-button-response_instructions","4","65277","0.0-4.0","A1AMGHYG5PT0L2","","0","instructions","","","","","","","","","","","","","","","","","","","","","","","",""
"6879","","image-button-response_instructions","5","72156","0.0-5.0","A1AMGHYG5PT0L2","img_art/ins/popularity/ins1.png","0","instructions","","","","","","","","","","","","","","","","","","","","","","","",""
"5535","","image-button-response_instructions","6","77693","0.0-6.0","A1AMGHYG5PT0L2","img_art/ins/popularity/ins2.png","0","instructions","","","","","","","","","","","","","","","","","","","","","","","",""
"1463","","image-button-response_instructions","7","79157","0.0-7.0","A1AMGHYG5PT0L2","img_art/ins/popularity/ins2Extreme.png","0","instructions","","","","","","","","","","","","","","","","","","","","","","","",""
"2255","","image-button-response_instructions","8","81413","0.0-8.0","A1AMGHYG5PT0L2","img_art/ins/popularity/ins3KEEPpop.PNG","0","instructions","","","","","","","","","","","","","","","","","","","","","","","",""
"2287","","image-button-response_instructions","9","83701","0.0-9.0","A1AMGHYG5PT0L2","img_art/ins/popularity/ins3ANamepop.PNG","0","instructions","","","","","","","","","","","","","","","","","","","","","","","",""
"1303","","image-button-response_instructions","10","85005","0.0-10.0","A1AMGHYG5PT0L2","img_art/ins/popularity/ins3ARatingpop.png","0","instructions","","","","","","","","","","","","","","","","","","","","","","","",""
"1624","","image-button-response_instructions","11","86629","0.0-11.0","A1AMGHYG5PT0L2","img_art/ins/popularity/ins3ATextpop.png","0","instructions","","","","","","","","","","","","","","","","","","","","","","","",""
"535","","image-button-response_instructions","12","87165","0.0-12.0","A1AMGHYG5PT0L2","img_art/ins/popularity/ins3ALikespop.png","0","instructions","","","","","","","","","","","","","","","","","","","","","","","",""
"863","","image-button-response_instructions","13","88029","0.0-13.0","A1AMGHYG5PT0L2","img_art/ins/popularity/ins3KEEPpop.PNG","0","instructions","","","","","","","","","","","","","","","","","","","","","","","",""
"4559","","image-button-response_instructions","14","92589","0.0-14.0","A1AMGHYG5PT0L2","img_art/ins/popularity/ins3_5RED.png","0","instructions","","","","","","","","","","","","","","","","","","","","","","","",""
"1487","","image-button-response_instructions","15","94077","0.0-15.0","A1AMGHYG5PT0L2","img_art/ins/popularity/ins3KEEPpop.PNG","0","instructions","","","","","","","","","","","","","","","","","","","","","","","",""
"3335","","image-button-response_instructions","16","97413","0.0-16.0","A1AMGHYG5PT0L2","img_art/ins/popularity/ins4KEEPpop.PNG","0","instructions","","","","","","","","","","","","","","","","","","","","","","","",""
"24319","","image-button-response_instructions","17","121733","0.0-17.0","A1AMGHYG5PT0L2","img_art/ins/popularity/ins5KEEPpop.PNG","0","instructions","","","","","","","","","","","","","","","","","","","","","","","",""
"1487","","image-button-response_instructions","18","123221","0.0-18.0","A1AMGHYG5PT0L2","","0","instructions","","","","","","","","","","","","","","","","","","","","","","","",""
"5418","","survey-text","19","128653","0.0-19.0-0.0","A1AMGHYG5PT0L2","","","","{""Q0"":""but""}","","","","","","","","","","","","","","","","","","","","","","",""
"28247","","survey-text","20","156901","0.0-20.0-0.0","A1AMGHYG5PT0L2","","","","{""Q0"":""This is very hectic to me. It looks like war. I like it enough, but it's too stressful to want to own.""}","","","","","","","","","","","","","","","","","","","","","","",""
"2302.2000000476837","","image-slider-response","21","159205","0.0-21.0","A1AMGHYG5PT0L2","","","","","19","","","","","","","","","","","","","","","","","","","","","",""
"null","","image-button-response","22","164207","0.0-22.0","A1AMGHYG5PT0L2","img_art/ins/1.jpg","null","","","","","","","","","","","","","","","","","","","","","","","","",""
"1157","","image-button-response","23","165365","0.0-23.0","A1AMGHYG5PT0L2","img_art/ins/1.jpg","4","","","","","","","","","","","","","","","","","","","","","","","","",""
"3767","","image-button-response","24","169133","0.0-24.0-0.0","A1AMGHYG5PT0L2","img_art/ins/1.jpg","0","","","","","","","","","","","","","","","","","","","","","","","","",""
"2262","","image-button-response","25","171397","0.0-25.0-0.0","A1AMGHYG5PT0L2","img_art/ins/1.jpg","5","","","","","","","","","","","","","","","","","","","","","","","","",""
"null","","html-keyboard-response","26","171899","0.0-26.0","A1AMGHYG5PT0L2","<p style=""font-size: 48px;"">+</p>","","","","","null","allTrialResponses","500","1","-2","img_art/ins/1.jpg","19","This is very hectic to me. It looks like war. I like it enough, but it's too stressful to want to own.","Allison,Ashley,Beth,Dora,Erika,Jen","looks like a lot of things going on in the mist,20,20,20","I just don't get why these type of art would be popular,-32,40,20","This color reminds me of poo,-46,60,20","looks like what my niece in 3rd grade did this afternoon,-50,80,20","I like the sophisticated brushwork,40,100,20","It reminds me of a candy land dream I had,36,120,20","Erika","I like the sophisticated brushwork,40,100,20","Allison","looks like a lot of things going on in the mist,20,20,20","Jen","It reminds me of a candy land dream I had,36,120,20","0"
"13672","","survey-text","27","185573","0.0-27.0-0.0","A1AMGHYG5PT0L2","","","","{""Q0"":""This looks cold and lonely.""}","","","","","","","","","","","","","","","","","","","","","","",""
"2270","","image-slider-response","28","187844","0.0-28.0","A1AMGHYG5PT0L2","","","","","-8","","","","","","","","","","","","","","","","","","","","","",""
"null","","image-button-response","29","192846","0.0-29.0","A1AMGHYG5PT0L2","img_art/ins/2.jpg","null","","","","","","","","","","","","","","","","","","","","","","","","",""
"2254","","image-button-response","30","195101","0.0-30.0","A1AMGHYG5PT0L2","img_art/ins/2.jpg","4","","","","","","","","","","","","","","","","","","","","","","","","",""
"1399","","image-button-response","31","196501","0.0-31.0-0.0","A1AMGHYG5PT0L2","img_art/ins/2.jpg","5","","","","","","","","","","","","","","","","","","","","","","","","",""
"1712","","image-button-response","32","198214","0.0-32.0-0.0","A1AMGHYG5PT0L2","img_art/ins/2.jpg","0","","","","","","","","","","","","","","","","","","","","","","","","",""
"null","","html-keyboard-response","33","198716","0.0-33.0","A1AMGHYG5PT0L2","<p style=""font-size: 48px;"">+</p>","","","","","null","allTrialResponses","500","1","-1","img_art/ins/2.jpg","-8","This looks cold and lonely.","Allison,Kara,Katie,Jenna,Erika,Jen","I don't have strong feelings about this,10,20,20","I like the blocks of color arrangements,30,160,20","too much color!,-28,180,20","One of my pet peevs,-48,140,20","I would never be able to compose a sophisticated pallete like this,48,100,20","It reminds me of a fireplace,36,120,20","Erika","I would never be able to compose a sophisticated pallete like this,48,100,20","Jen","It reminds me of a fireplace,36,120,20","Allison","I don't have strong feelings about this,10,20,20","0"
"24654","","survey-text","34","223372","0.0-34.0-0.0","A1AMGHYG5PT0L2","","","","{""Q0"":""This is cool and calming, but maybe a little too cool for me. I wouldn't want to look at this in the dead of winter.""}","","","","","","","","","","","","","","","","","","","","","","",""
"3759.2000000476837","","image-slider-response","35","227133","0.0-35.0","A1AMGHYG5PT0L2","","","","","-5","","","","","","","","","","","","","","","","","","","","","",""
"null","","image-button-response","36","232135","0.0-36.0","A1AMGHYG5PT0L2","img_art/ins/3.jpg","null","","","","","","","","","","","","","","","","","","","","","","","","",""
"2092","","image-button-response","37","234229","0.0-37.0","A1AMGHYG5PT0L2","img_art/ins/3.jpg","5","","","","","","","","","","","","","","","","","","","","","","","","",""
"791","","image-button-response","38","235021","0.0-38.0-0.0","A1AMGHYG5PT0L2","img_art/ins/3.jpg","4","","","","","","","","","","","","","","","","","","","","","","","","",""
"2351","","image-button-response","39","237373","0.0-39.0-0.0","A1AMGHYG5PT0L2","img_art/ins/3.jpg","3","","","","","","","","","","","","","","","","","","","","","","","","",""
"null","","html-keyboard-response","40","238374","0.0-40.0","A1AMGHYG5PT0L2","<p style=""font-size: 48px;"">+</p>","","","","","null","allTrialResponses","1000","1","0","img_art/ins/3.jpg","-5","This is cool and calming, but maybe a little too cool for me. I wouldn't want to look at this in the dead of winter.","Allison,Mary,Rose,Leslie,Erika,Jen","enjoy the different shades of blue,22,20,20","I like the overlapping of brushes,41,220,20","My daily routine, it's depressing,-20,240,20","It's an alright work,15,200,20","I feel connected to the artist,40,100,20","I can feel a rainy day from this painting,18,120,20","Jen","I can feel a rainy day from this painting,18,120,20","Erika","I feel connected to the artist,40,100,20","Leslie","It's an alright work,15,200,20","0"
"2916","","image-button-response_instructions","41","241292","0.0-41.0","A1AMGHYG5PT0L2","","0","instructions","","","","","","","","","","","","","","","","","","","","","","","",""
"10159","","survey-likert","42","251453","0.0-42.0-0.0","A1AMGHYG5PT0L2","","","","{""Q0"":"""",""Q1"":0,""Q2"":1}","","","","","","","","","","","","","","","","","","","","","","",""
"4101","","survey-text","43","255556","0.0-43.0-0.0","A1AMGHYG5PT0L2","","","","{""Q0"":""rock""}","","","","","","","","","","","","","","","","","","","","","","",""
"29639","","survey-text","44","285197","0.0-44.0-0.0","A1AMGHYG5PT0L2","","","","{""Q0"":""I love this. it represents industrialism. There seems to be an overlord and it's scary and large.""}","","","","","","","","","","","","","","","","","","","","","","",""
"3446.399999856949","","image-slider-response","45","288644","0.0-45.0","A1AMGHYG5PT0L2","","","","","31","","","","","","","","","","","","","","","","","","","","","",""
"3353","","image-button-response","46","293661","0.0-46.0","A1AMGHYG5PT0L2","img_art/8.jpg","3","","","","","","","","","","","","","","","","","","","","","","","","",""
"166","","image-button-response","47","293828","0.0-47.0","A1AMGHYG5PT0L2","img_art/8.jpg","5","","","","","","","","","","","","","","","","","","","","","","","","",""
"4736","","image-button-response","48","298565","0.0-48.0-0.0","A1AMGHYG5PT0L2","img_art/8.jpg","0","","","","","","","","","","","","","","","","","","","","","","","","",""
"1766","","image-button-response","49","300333","0.0-49.0-0.0","A1AMGHYG5PT0L2","img_art/8.jpg","3","","","","","","","","","","","","","","","","","","","","","","","","",""
"null","","html-keyboard-response","50","300834","0.0-50.0","A1AMGHYG5PT0L2","<p style=""font-size: 48px;"">+</p>","","","","","null","allTrialResponses","500","1","1","img_art/8.jpg","31","I love this. it represents industrialism. There seems to be an overlord and it's scary and large.","Megan,Sara,Katie,Brittany,Alexa,Erica","Cortez's influence with fair color choices,10,200,20","Very interesting use of blocks,21,160,20","I like the colors. But I don't like the faces, they look distraught. Faces and sharp shapes make me anxious,1,160,20","Interesting to look at, there are many things happening in the painting.,32,40,20","It's simply gorgeous. This artist is very talented,50,40,20","Very busy, I want to look at it and investigate,23,80,20","Erica","Very busy, I want to look at it and investigate,23,80,20","Megan","Cortez's influence with fair color choices,10,200,20","Brittany","Interesting to look at, there are many things happening in the painting.,32,40,20","0"
"13840","","survey-text","51","314676","0.0-51.0-0.0","A1AMGHYG5PT0L2","","","","{""Q0"":""this is musical.. I don't love it, but it's a fun piece.""}","","","","","","","","","","","","","","","","","","","","","","",""
"8942.799999952316","","image-slider-response","52","323620","0.0-52.0","A1AMGHYG5PT0L2","","","","","13","","","","","","","","","","","","","","","","","","","","","",""
"null","","image-button-response","53","328621","0.0-53.0","A1AMGHYG5PT0L2","img_art/28.jpg","null","","","","","","","","","","","","","","","","","","","","","","","","",""
"2566","","image-button-response","54","331188","0.0-54.0","A1AMGHYG5PT0L2","img_art/28.jpg","4","","","","","","","","","","","","","","","","","","","","","","","","",""
"5135","","image-button-response","55","336324","0.0-55.0-0.0","A1AMGHYG5PT0L2","img_art/28.jpg","0","","","","","","","","","","","","","","","","","","","","","","","","",""
"1255","","image-button-response","56","337580","0.0-56.0-0.0","A1AMGHYG5PT0L2","img_art/28.jpg","2","","","","","","","","","","","","","","","","","","","","","","","","",""
"null","","html-keyboard-response","57","339082","0.0-57.0","A1AMGHYG5PT0L2","<p style=""font-size: 48px;"">+</p>","","","","","null","allTrialResponses","1500","1","2","img_art/28.jpg","13","this is musical.. I don't love it, but it's a fun piece.","Megan,Meghan,Sydney,Brittany,Sabrina,Erica","Compact grey mess lack negative space,-10,200,20","I don't like the color choice,-30,220,20","I enjoy the colors.,25,320,20","I don't like the colors or the design.,-20,40,20","Self-hate and abuse at home, unsafe and torturing,-30,120,20","Nothing calls my attention,15,80,20","Sabrina","Self-hate and abuse at home, unsafe and torturing,-30,120,20","Megan","Compact grey mess lack negative space,-10,200,20","Sydney","I enjoy the colors.,25,320,20","0"
"15992","","survey-text","58","355076","0.0-58.0-0.0","A1AMGHYG5PT0L2","","","","{""Q0"":""this is too messy for me to enjoy""}","","","","","","","","","","","","","","","","","","","","","","",""
"2038.5999999046326","","image-slider-response","59","357116","0.0-59.0","A1AMGHYG5PT0L2","","","","","-37","","","","","","","","","","","","","","","","","","","","","",""
"null","","image-button-response","60","362118","0.0-60.0","A1AMGHYG5PT0L2","img_art/22.jpg","null","","","","","","","","","","","","","","","","","","","","","","","","",""
"237","","image-button-response","61","362357","0.0-61.0","A1AMGHYG5PT0L2","img_art/22.jpg","1","","","","","","","","","","","","","","","","","","","","","","","","",""
"1975","","image-button-response","62","364332","0.0-62.0-0.0","A1AMGHYG5PT0L2","img_art/22.jpg","2","","","","","","","","","","","","","","","","","","","","","","","","",""
"3279","","image-button-response","63","367613","0.0-63.0-0.0","A1AMGHYG5PT0L2","img_art/22.jpg","4","","","","","","","","","","","","","","","","","","","","","","","","",""
"null","","html-keyboard-response","64","369114","0.0-64.0","A1AMGHYG5PT0L2","<p style=""font-size: 48px;"">+</p>","","","","","null","allTrialResponses","1500","1","3","img_art/22.jpg","-37","this is too messy for me to enjoy","Megan,Margaret,Sydney,Autumn,Sabrina,Sophia","Organic sun spot on a flexible grid,18,200,20","i feel like this is a a basic art piece that a school would have on the wall,-24,100,20","I don't normally like bright colors, but I like them in this. Don't like the random black paint.,30,320,20","Same az the last one?,-49,340,20","Just not feeling it,-19,120,20","I like this one. There is a lot to see if you keep looking for it.,27,280,20","Margaret","i feel like this is a a basic art piece that a school would have on the wall,-24,100,20","Sydney","I don't normally like bright colors, but I like them in this. Don't like the random black paint.,30,320,20","Sabrina","Just not feeling it,-19,120,20","0"
"13536","","survey-text","65","382652","0.0-65.0-0.0","A1AMGHYG5PT0L2","","","","{""Q0"":""This is creepy and strange and I like it.""}","","","","","","","","","","","","","","","","","","","","","","",""
"2591.5","","image-slider-response","66","385245","0.0-66.0","A1AMGHYG5PT0L2","","","","","40","","","","","","","","","","","","","","","","","","","","","",""
"null","","image-button-response","67","390247","0.0-67.0","A1AMGHYG5PT0L2","img_art/10.jpg","null","","","","","","","","","","","","","","","","","","","","","","","","",""
"340","","image-button-response","68","390588","0.0-68.0","A1AMGHYG5PT0L2","img_art/10.jpg","2","","","","","","","","","","","","","","","","","","","","","","","","",""
"6982","","image-button-response","69","397572","0.0-69.0-0.0","A1AMGHYG5PT0L2","img_art/10.jpg","4","","","","","","","","","","","","","","","","","","","","","","","","",""
"1599","","image-button-response","70","399172","0.0-70.0-0.0","A1AMGHYG5PT0L2","img_art/10.jpg","0","","","","","","","","","","","","","","","","","","","","","","","","",""
"null","","html-keyboard-response","71","400674","0.0-71.0","A1AMGHYG5PT0L2","<p style=""font-size: 48px;"">+</p>","","","","","null","allTrialResponses","1500","1","4","img_art/10.jpg","40","This is creepy and strange and I like it.","Angelica,Margaret,Sydney,Miranda,Sabrina,Lauren","This is odd and ugly.,-9,280,20","I think this was going to be a guitar but then the artist got mad and gave up,-4,100,20","This piece is unusual in a way that makes me uncomfortable.,-5,320,20","It reminds me of how my dog has to run all over the place just to poop in one specific location.,-20,320,20","I love the dark and edgy nature of this,50,120,20","I can't really tell what this is suppose to represent, but overall I don't like the design.,-20,340,20","Sydney","This piece is unusual in a way that makes me uncomfortable.,-5,320,20","Sabrina","I love the dark and edgy nature of this,50,120,20","Angelica","This is odd and ugly.,-9,280,20","0"
"63447","","survey-text","72","464124","0.0-72.0-0.0","A1AMGHYG5PT0L2","","","","{""Q0"":""This looks angry. i see pain and hatred,""}","","","","","","","","","","","","","","","","","","","","","","",""
"3494.7000000476837","","image-slider-response","73","467620","0.0-73.0","A1AMGHYG5PT0L2","","","","","26","","","","","","","","","","","","","","","","","","","","","",""
"3127","","image-button-response","74","472622","0.0-74.0","A1AMGHYG5PT0L2","img_art/3.jpg","0","","","","","","","","","","","","","","","","","","","","","","","","",""
"238","","image-button-response","75","472860","0.0-75.0","A1AMGHYG5PT0L2","img_art/3.jpg","2","","","","","","","","","","","","","","","","","","","","","","","","",""
"3823","","image-button-response","76","476684","0.0-76.0-0.0","A1AMGHYG5PT0L2","img_art/3.jpg","0","","","","","","","","","","","","","","","","","","","","","","","","",""
"1951","","image-button-response","77","478636","0.0-77.0-0.0","A1AMGHYG5PT0L2","img_art/3.jpg","3","","","","","","","","","","","","","","","","","","","","","","","","",""
"null","","html-keyboard-response","78","480140","0.0-78.0","A1AMGHYG5PT0L2","<p style=""font-size: 48px;"">+</p>","","","","","null","allTrialResponses","1500","1","5","img_art/3.jpg","26","This looks angry. i see pain and hatred,","Angelica,Cheyenne,Sydney,Isabella,Sabrina,Erin","This is angry and childish looking.,-49,280,20","Don't see what the purpose is.,-31,200,20","This piece makes me think it has a backstory or a reason which I like.,5,320,20","Too much red or blood,-28,280,20","I dont really feel anything from this, i cant see or understand any of it,-20,120,20","Shapes are interesting but color is overwhelming,5,120,20","Sydney","This piece makes me think it has a backstory or a reason which I like.,5,320,20","Angelica","This is angry and childish looking.,-49,280,20","Isabella","Too much red or blood,-28,280,20","0"
"72052","","survey-text","79","552196","0.0-79.0-0.0","A1AMGHYG5PT0L2","","","","{""Q0"":""sky""}","","","","","","","","","","","","","","","","","","","","","","",""
"21119","","survey-text","80","573316","0.0-80.0-0.0","A1AMGHYG5PT0L2","","","","{""Q0"":""This is death riding through the land. it is cruel and sad and ugly.""}","","","","","","","","","","","","","","","","","","","","","","",""
"1838.8999998569489","","image-slider-response","81","575156","0.0-81.0","A1AMGHYG5PT0L2","","","","","47","","","","","","","","","","","","","","","","","","","","","",""
"4583","","image-button-response","82","580158","0.0-82.0","A1AMGHYG5PT0L2","img_art/18.jpg","3","","","","","","","","","","","","","","","","","","","","","","","","",""
"605","","image-button-response","83","580764","0.0-83.0","A1AMGHYG5PT0L2","img_art/18.jpg","3","","","","","","","","","","","","","","","","","","","","","","","","",""
"3191","","image-button-response","84","583957","0.0-84.0-0.0","A1AMGHYG5PT0L2","img_art/18.jpg","0","","","","","","","","","","","","","","","","","","","","","","","","",""
"1438","","image-button-response","85","585396","0.0-85.0-0.0","A1AMGHYG5PT0L2","img_art/18.jpg","1","","","","","","","","","","","","","","","","","","","","","","","","",""
"null","","html-keyboard-response","86","585898","0.0-86.0","A1AMGHYG5PT0L2","<p style=""font-size: 48px;"">+</p>","","","","","null","allTrialResponses","500","1","6","img_art/18.jpg","47","This is death riding through the land. it is cruel and sad and ugly.","Angelica,Rachel,Sydney,Isabella,Cassidy,Morgan","It looks grotesque and violent.,-50,280,20","This one seems rather ghoulish to me.,-41,80,20","I like the colors being used, but I don't like the chaos in the middle of it.,20,320,20","Feels like a story of ancient war of the gods,26,280,20","nice balance of color. The different sizes and types of strokes give a lot to look at,18,140,20","Ghostly sea adventure.,20,380,20","Isabella","Feels like a story of ancient war of the gods,26,280,20","Angelica","It looks grotesque and violent.,-50,280,20","Rachel","This one seems rather ghoulish to me.,-41,80,20","0"
"54911","","survey-text","87","640812","0.0-87.0-0.0","A1AMGHYG5PT0L2","","","","{""Q0"":""this looks like a ghost in a room.""}","","","","","","","","","","","","","","","","","","","","","","",""
"2662.7999999523163","","image-slider-response","88","643476","0.0-88.0","A1AMGHYG5PT0L2","","","","","25","","","","","","","","","","","","","","","","","","","","","",""
"null","","image-button-response","89","648478","0.0-89.0","A1AMGHYG5PT0L2","img_art/17.jpg","null","","","","","","","","","","","","","","","","","","","","","","","","",""
"5116","","image-button-response","90","653596","0.0-90.0","A1AMGHYG5PT0L2","img_art/17.jpg","1","","","","","","","","","","","","","","","","","","","","","","","","",""
"1406","","image-button-response","91","655004","0.0-91.0-0.0","A1AMGHYG5PT0L2","img_art/17.jpg","2","","","","","","","","","","","","","","","","","","","","","","","","",""
"1710","","image-button-response","92","656716","0.0-92.0-0.0","A1AMGHYG5PT0L2","img_art/17.jpg","3","","","","","","","","","","","","","","","","","","","","","","","","",""
"null","","html-keyboard-response","93","658218","0.0-93.0","A1AMGHYG5PT0L2","<p style=""font-size: 48px;"">+</p>","","","","","null","allTrialResponses","1500","1","7","img_art/17.jpg","25","this looks like a ghost in a room.","Angelica,Rachel,Kimberly,Isabella,Olivia,Amber","This could have been good but was poorly done.,-5,280,20","Reminds me of a beautiful tree growing in a courtyard. I like the light and airy technique used.,34,80,20","I like the trees, but the doors less so,19,260,20","Pleasant fall to winter day,22,280,20","muted tones brings me down,-13,40,20","Don't really like pastels.,-10,200,20","Rachel","Reminds me of a beautiful tree growing in a courtyard. I like the light and airy technique used.,34,80,20","Kimberly","I like the trees, but the doors less so,19,260,20","Isabella","Pleasant fall to winter day,22,280,20","0"
"19872","","survey-text","94","678091","0.0-94.0-0.0","A1AMGHYG5PT0L2","","","","{""Q0"":""this look like a plant after the last frost.""}","","","","","","","","","","","","","","","","","","","","","","",""
"1919.2999999523163","","image-slider-response","95","680012","0.0-95.0","A1AMGHYG5PT0L2","","","","","-20","","","","","","","","","","","","","","","","","","","","","",""
"null","","image-button-response","96","685014","0.0-96.0","A1AMGHYG5PT0L2","img_art/14.jpg","null","","","","","","","","","","","","","","","","","","","","","","","","",""
"1980","","image-button-response","97","686996","0.0-97.0","A1AMGHYG5PT0L2","img_art/14.jpg","2","","","","","","","","","","","","","","","","","","","","","","","","",""
"1263","","image-button-response","98","688260","0.0-98.0-0.0","A1AMGHYG5PT0L2","img_art/14.jpg","3","","","","","","","","","","","","","","","","","","","","","","","","",""
"2662","","image-button-response","99","690924","0.0-99.0-0.0","A1AMGHYG5PT0L2","img_art/14.jpg","0","","","","","","","","","","","","","","","","","","","","","","","","",""
"null","","html-keyboard-response","100","691926","0.0-100.0","A1AMGHYG5PT0L2","<p style=""font-size: 48px;"">+</p>","","","","","null","allTrialResponses","1000","1","8","img_art/14.jpg","-20","this look like a plant after the last frost.","Mary,Rachel,Kimberly,Isabella,Savannah,Kylie","I like the layers of color in this piece. The circles and lines are interesting.,29,180,20","Did not evoke much feeling except confusion. I am not sure what to make of this one.,-20,80,20","In some ways it looks natural, but I'm just not feeling it,0,260,20","Feels like a camp fire among friends,22,280,20","Again. This is pretty neutral, leaning dislike.,-18,200,20","Confusion or an explosion,40,300,20","Kimberly","In some ways it looks natural, but I'm just not feeling it,0,260,20","Isabella","Feels like a camp fire among friends,22,280,20","Mary","I like the layers of color in this piece. The circles and lines are interesting.,29,180,20","0"
"74931","","survey-text","101","766859","0.0-101.0-0.0","A1AMGHYG5PT0L2","","","","{""Q0"":""this is chaotic and angry, someone who is sick of the art world but cannot leave it.""}","","","","","","","","","","","","","","","","","","","","","","",""
"2270.9000000953674","","image-slider-response","102","769131","0.0-102.0","A1AMGHYG5PT0L2","","","","","21","","","","","","","","","","","","","","","","","","","","","",""
"4431","","image-button-response","103","774132","0.0-103.0","A1AMGHYG5PT0L2","img_art/29.jpg","0","","","","","","","","","","","","","","","","","","","","","","","","",""
"703","","image-button-response","104","774836","0.0-104.0","A1AMGHYG5PT0L2","img_art/29.jpg","0","","","","","","","","","","","","","","","","","","","","","","","","",""
"1214","","image-button-response","105","776052","0.0-105.0-0.0","A1AMGHYG5PT0L2","img_art/29.jpg","3","","","","","","","","","","","","","","","","","","","","","","","","",""
"4079","","image-button-response","106","780131","0.0-106.0-0.0","A1AMGHYG5PT0L2","img_art/29.jpg","2","","","","","","","","","","","","","","","","","","","","","","","","",""
"null","","html-keyboard-response","107","780632","0.0-107.0","A1AMGHYG5PT0L2","<p style=""font-size: 48px;"">+</p>","","","","","null","allTrialResponses","500","1","9","img_art/29.jpg","21","this is chaotic and angry, someone who is sick of the art world but cannot leave it.","Mary,Marissa,Kimberly,Isabella,Brooke,Hailey","I love the angry emotion to this art. I feel very drawn to it.,18,180,20","It makes me feel as though the artist put in a lot of time and effort and then gave up,10,160,20","I like the usage of a physical object,33,260,20","Darkness and torment,-50,280,20","Lines and light are clean but subject doesn't interest me,0,60,20","a hot fireplace with things to burn. warm,12,200,20","Mary","I love the angry emotion to this art. I feel very drawn to it.,18,180,20","Isabella","Darkness and torment,-50,280,20","Kimberly","I like the usage of a physical object,33,260,20","0"
"18237","","survey-text","108","798875","0.0-108.0-0.0","A1AMGHYG5PT0L2","","","","{""Q0"":""water flowing makes me feel relaxed but i don't know what i am looking at.""}","","","","","","","","","","","","","","","","","","","","","","",""
"2639.2999999523163","","image-slider-response","109","801516","0.0-109.0","A1AMGHYG5PT0L2","","","","","-28","","","","","","","","","","","","","","","","","","","","","",""
"3383","","image-button-response","110","806519","0.0-110.0","A1AMGHYG5PT0L2","img_art/24.jpg","2","","","","","","","","","","","","","","","","","","","","","","","","",""
"4844","","image-button-response","111","811363","0.0-111.0","A1AMGHYG5PT0L2","img_art/24.jpg","4","","","","","","","","","","","","","","","","","","","","","","","","",""
"3543","","image-button-response","112","814908","0.0-112.0-0.0","A1AMGHYG5PT0L2","img_art/24.jpg","3","","","","","","","","","","","","","","","","","","","","","","","","",""
"2064","","image-button-response","113","816974","0.0-113.0-0.0","A1AMGHYG5PT0L2","img_art/24.jpg","2","","","","","","","","","","","","","","","","","","","","","","","","",""
"null","","html-keyboard-response","114","817975","0.0-114.0","A1AMGHYG5PT0L2","<p style=""font-size: 48px;"">+</p>","","","","","null","allTrialResponses","1000","1","10","img_art/24.jpg","-28","water flowing makes me feel relaxed but i don't know what i am looking at.","Mary,Emily,Kimberly,Isabella,Jacqueline,Alicia","This is sort of interesting. I think it's a bit busy. Less is more.,3,180,20","It's not super high uality  but there is some skill and talent in it I see.,15,40,20","It just feels a little bland for me,-23,260,20","A peaceful day by the river,42,280,20","This one isn't that abstract. It clearly looks like a waterfall.,31,300,20","Nature, abstract, I'd hang this in my house.,37,120,20","Jacqueline","This one isn't that abstract. It clearly looks like a waterfall.,31,300,20","Isabella","A peaceful day by the river,42,280,20","Kimberly","It just feels a little bland for me,-23,260,20","0"
"557261","","survey-text","115","1375242","0.0-115.0-0.0","A1AMGHYG5PT0L2","","","","{""Q0"":""our""}","","","","","","","","","","","","","","","","","","","","","","",""
"12831","","survey-text","116","1388074","0.0-116.0-0.0","A1AMGHYG5PT0L2","","","","{""Q0"":""Looks kind of like alice in wonderland to me.""}","","","","","","","","","","","","","","","","","","","","","","",""
"3166.7000000476837","","image-slider-response","117","1391242","0.0-117.0","A1AMGHYG5PT0L2","","","","","27","","","","","","","","","","","","","","","","","","","","","",""
"2015","","image-button-response","118","1396245","0.0-118.0","A1AMGHYG5PT0L2","img_art/2.jpg","0","","","","","","","","","","","","","","","","","","","","","","","","",""
"812","","image-button-response","119","1397058","0.0-119.0","A1AMGHYG5PT0L2","img_art/2.jpg","4","","","","","","","","","","","","","","","","","","","","","","","","",""
"1143","","image-button-response","120","1398202","0.0-120.0-0.0","A1AMGHYG5PT0L2","img_art/2.jpg","5","","","","","","","","","","","","","","","","","","","","","","","","",""
"1567","","image-button-response","121","1399770","0.0-121.0-0.0","A1AMGHYG5PT0L2","img_art/2.jpg","5","","","","","","","","","","","","","","","","","","","","","","","","",""
"479","","image-button-response","122","1403362","0.0-121.1-0.1","A1AMGHYG5PT0L2","img_art/2.jpg","3","","","","","","","","","","","","","","","","","","","","","","","","",""
"null","","html-keyboard-response","123","1404864","0.0-122.0","A1AMGHYG5PT0L2","<p style=""font-size: 48px;"">+</p>","","","","","null","allTrialResponses","1500","1","11","img_art/2.jpg","27","Looks kind of like alice in wonderland to me.","Michaela,Elizabeth,Kimberly,Isabella,Jacqueline,Cassandra","My immediate reaction was it looked like a class but then I saw a smile in the middle,11,260,20","Good color pallette,12,20,20","I like the green,13,260,20","Feels like a playground or park vibe,27,280,20","A bit ugly with the greens.,-20,300,20","I didn't like this it looked like a kindergardner painted it and the green was out of place.,-46,120,20","Jacqueline","A bit ugly with the greens.,-20,300,20","Cassandra","I didn't like this it looked like a kindergardner painted it and the green was out of place.,-46,120,20","Isabella","Feels like a playground or park vibe,27,280,20","2"
"15894","","survey-text","124","1420762","0.0-123.0-0.0","A1AMGHYG5PT0L2","","","","{""Q0"":""this is dark and kind of unsettling. Reminds me of bugs.""}","","","","","","","","","","","","","","","","","","","","","","",""
"2655.2000000476837","","image-slider-response","125","1423418","0.0-124.0","A1AMGHYG5PT0L2","","","","","-10","","","","","","","","","","","","","","","","","","","","","",""
"null","","image-button-response","126","1428420","0.0-125.0","A1AMGHYG5PT0L2","img_art/15.jpg","null","","","","","","","","","","","","","","","","","","","","","","","","",""
"573","","image-button-response","127","1428994","0.0-126.0","A1AMGHYG5PT0L2","img_art/15.jpg","4","","","","","","","","","","","","","","","","","","","","","","","","",""
"1102","","image-button-response","128","1430098","0.0-127.0-0.0","A1AMGHYG5PT0L2","img_art/15.jpg","5","","","","","","","","","","","","","","","","","","","","","","","","",""
"847","","image-button-response","129","1430947","0.0-128.0-0.0","A1AMGHYG5PT0L2","img_art/15.jpg","3","","","","","","","","","","","","","","","","","","","","","","","","",""
"null","","html-keyboard-response","130","1431949","0.0-129.0","A1AMGHYG5PT0L2","<p style=""font-size: 48px;"">+</p>","","","","","null","allTrialResponses","1000","1","12","img_art/15.jpg","-10","this is dark and kind of unsettling. Reminds me of bugs.","Monica,Julia,Destiny,Isabella,Jacqueline,Cassandra","I don't feel much of anything when looking at this, it's just a random pattern,1,360,20","This is simply too ""old-school"",-27,40,20","I couldn't tell you why but I'm really into this,39,360,20","Too intense with the black dotting,-22,280,20","I don't like how the black dots are aligned.,-20,300,20","Hate it...black dots.,-47,120,20","Jacqueline","I don't like how the black dots are aligned.,-20,300,20","Cassandra","Hate it...black dots.,-47,120,20","Isabella","Too intense with the black dotting,-22,280,20","2"
"22690","","survey-text","131","1454642","0.0-130.0-0.0","A1AMGHYG5PT0L2","","","","{""Q0"":""This reminds me of the Wicker Man. Creepy and ritualistic""}","","","","","","","","","","","","","","","","","","","","","","",""
"2679","","image-slider-response","132","1457322","0.0-131.0","A1AMGHYG5PT0L2","","","","","44","","","","","","","","","","","","","","","","","","","","","",""
"4079","","image-button-response","133","1462324","0.0-132.0","A1AMGHYG5PT0L2","img_art/25.jpg","2","","","","","","","","","","","","","","","","","","","","","","","","",""
"2804","","image-button-response","134","1465130","0.0-133.0","A1AMGHYG5PT0L2","img_art/25.jpg","4","","","","","","","","","","","","","","","","","","","","","","","","",""
"830","","image-button-response","135","1465962","0.0-134.0-0.0","A1AMGHYG5PT0L2","img_art/25.jpg","5","","","","","","","","","","","","","","","","","","","","","","","","",""
"607","","image-button-response","136","1466570","0.0-135.0-0.0","A1AMGHYG5PT0L2","img_art/25.jpg","2","","","","","","","","","","","","","","","","","","","","","","","","",""
"null","","html-keyboard-response","137","1467572","0.0-136.0","A1AMGHYG5PT0L2","<p style=""font-size: 48px;"">+</p>","","","","","null","allTrialResponses","1000","1","13","img_art/25.jpg","44","This reminds me of the Wicker Man. Creepy and ritualistic","Chloe,Alyssa,Abigail,Isabella,Jacqueline,Cassandra","Cheesy and unprofessional,-30,220,20","Dark silhouette against the murky background Illicites an ominous feeling. Don't really like it.,-20,160,20","This is creepy and I dont like it,-28,20,20","I love the green and the figure is black but the green makes it pop,29,280,20","Not particularly interesting for me. The green color is strange mixed with this.,-11,300,20","I hate the colors and the scene,-46,120,20","Jacqueline","Not particularly interesting for me. The green color is strange mixed with this.,-11,300,20","Cassandra","I hate the colors and the scene,-46,120,20","Abigail","This is creepy and I dont like it,-28,20,20","2"
"211259","","survey-text","138","1678833","0.0-137.0-0.0","A1AMGHYG5PT0L2","","","","{""Q0"":""this looks like a battle at sea.""}","","","","","","","","","","","","","","","","","","","","","","",""
"2230.7000000476837","","image-slider-response","139","1681065","0.0-138.0","A1AMGHYG5PT0L2","","","","","-16","","","","","","","","","","","","","","","","","","","","","",""
"4831","","image-button-response","140","1686068","0.0-139.0","A1AMGHYG5PT0L2","img_art/21.jpg","3","","","","","","","","","","","","","","","","","","","","","","","","",""
"748","","image-button-response","141","1686817","0.0-140.0","A1AMGHYG5PT0L2","img_art/21.jpg","3","","","","","","","","","","","","","","","","","","","","","","","","",""
"1727","","image-button-response","142","1688546","0.0-141.0-0.0","A1AMGHYG5PT0L2","img_art/21.jpg","4","","","","","","","","","","","","","","","","","","","","","","","","",""
"662","","image-button-response","143","1689210","0.0-142.0-0.0","A1AMGHYG5PT0L2","img_art/21.jpg","5","","","","","","","","","","","","","","","","","","","","","","","","",""
"null","","html-keyboard-response","144","1689711","0.0-143.0","A1AMGHYG5PT0L2","<p style=""font-size: 48px;"">+</p>","","","","","null","allTrialResponses","500","1","14","img_art/21.jpg","-16","this looks like a battle at sea.","Rebecca,Kayla,Abigail,Molly,Jacqueline,Cassandra","stormy with gold lining,0,100,20","I like that it reminds me of an abstract version of a Bob Ross painting.,36,180,20","Beautiful colors, remind me of my yoga studio,50,20,20","Looks like a war. Many things happening on the painting, really enjoy it.,30,340,20","Kind of looks like a sky with a storm or tornado.,10,300,20","I liked it...it looked like a storm raging.,12,120,20","Molly","Looks like a war. Many things happening on the painting, really enjoy it.,30,340,20","Jacqueline","Kind of looks like a sky with a storm or tornado.,10,300,20","Cassandra","I liked it...it looked like a storm raging.,12,120,20","2"
"30491","","survey-text","145","1720209","0.0-144.0-0.0","A1AMGHYG5PT0L2","","","","{""Q0"":""Bright and light, looks like a bottle of yellown nail polish""}","","","","","","","","","","","","","","","","","","","","","","",""
"4302.900000095367","","image-slider-response","146","1724513","0.0-145.0","A1AMGHYG5PT0L2","","","","","47","","","","","","","","","","","","","","","","","","","","","",""
"null","","image-button-response","147","1729515","0.0-146.0","A1AMGHYG5PT0L2","img_art/5.jpg","null","","","","","","","","","","","","","","","","","","","","","","","","",""
"325","","image-button-response","148","1729841","0.0-147.0","A1AMGHYG5PT0L2","img_art/5.jpg","3","","","","","","","","","","","","","","","","","","","","","","","","",""
"1423","","image-button-response","149","1731266","0.0-148.0-0.0","A1AMGHYG5PT0L2","img_art/5.jpg","4","","","","","","","","","","","","","","","","","","","","","","","","",""
"2230","","image-button-response","150","1733498","0.0-149.0-0.0","A1AMGHYG5PT0L2","img_art/5.jpg","0","","","","","","","","","","","","","","","","","","","","","","","","",""
"null","","html-keyboard-response","151","1734999","0.0-150.0","A1AMGHYG5PT0L2","<p style=""font-size: 48px;"">+</p>","","","","","null","allTrialResponses","1500","1","15","img_art/5.jpg","47","Bright and light, looks like a bottle of yellown nail polish","Maria,Leah,Alexandria,Molly,Jacqueline,Cassandra","this feels like something I should like, but I'm not feeling the execution,-10,120,20","Boring, no flow except the pink feathery band,-42,360,20","no clear emotion,-16,80,20","Very non-dynamic painting, dislike it.,-10,340,20","Seems very basic and uninteresting.,-15,300,20","This was awful and it looked like someone took minimul effort with it... no time at all.,-49,120,20","Molly","Very non-dynamic painting, dislike it.,-10,340,20","Jacqueline","Seems very basic and uninteresting.,-15,300,20","Maria","this feels like something I should like, but I'm not feeling the execution,-10,120,20","2"
"5069","","survey-text","152","1740073","0.0-151.0-0.0","A1AMGHYG5PT0L2","","","","{""Q0"":""course""}","","","","","","","","","","","","","","","","","","","","","","",""
"12431","","survey-text","153","1752506","0.0-152.0-0.0","A1AMGHYG5PT0L2","","","","{""Q0"":""reminds me of eels in the sea ""}","","","","","","","","","","","","","","","","","","","","","","",""
"18070.5","","image-slider-response","154","1770577","0.0-153.0","A1AMGHYG5PT0L2","","","","","14","","","","","","","","","","","","","","","","","","","","","",""
"3343","","image-button-response","155","1775579","0.0-154.0","A1AMGHYG5PT0L2","img_art/30.jpg","1","","","","","","","","","","","","","","","","","","","","","","","","",""
"17141","","image-button-response","156","1792721","0.0-155.0","A1AMGHYG5PT0L2","img_art/30.jpg","1","","","","","","","","","","","","","","","","","","","","","","","","",""
"975","","image-button-response","157","1793697","0.0-156.0-0.0","A1AMGHYG5PT0L2","img_art/30.jpg","0","","","","","","","","","","","","","","","","","","","","","","","","",""
"1055","","image-button-response","158","1794754","0.0-157.0-0.0","A1AMGHYG5PT0L2","img_art/30.jpg","3","","","","","","","","","","","","","","","","","","","","","","","","",""
"null","","html-keyboard-response","159","1795255","0.0-158.0","A1AMGHYG5PT0L2","<p style=""font-size: 48px;"">+</p>","","","","","null","allTrialResponses","500","1","16","img_art/30.jpg","14","reminds me of eels in the sea ","Maria,Lindsey,Danielle,Molly,Jacqueline,Mariah","uplifted and yet calmed,15,120,20","Interesting. Not sure what I'm seeing but it makes me want to figure it out.,5,400,20","It's okay. It should either have stuck to the grey-blue, or added more red. Seems unorganized (maybe that's the point?),-9,340,20","I like the way the artist has painted his work.,40,340,20","Too dark and ugly with all the black smears,-20,300,20","It just feels hasty and not well composed. Has an angsty teen feel,-31,140,20","Lindsey","Interesting. Not sure what I'm seeing but it makes me want to figure it out.,5,400,20","Maria","uplifted and yet calmed,15,120,20","Molly","I like the way the artist has painted his work.,40,340,20","2"
"35456","","survey-text","160","1830713","0.0-159.0-0.0","A1AMGHYG5PT0L2","","","","{""Q0"":""This is sary and kind of messy, but if you look closely it is just a landscape scene""}","","","","","","","","","","","","","","","","","","","","","","",""
"105167.09999990463","","image-slider-response","161","1935881","0.0-160.0","A1AMGHYG5PT0L2","","","","","4","","","","","","","","","","","","","","","","","","","","","",""
"3198","","image-button-response","162","1940883","0.0-161.0","A1AMGHYG5PT0L2","img_art/19.jpg","0","","","","","","","","","","","","","","","","","","","","","","","","",""
"10069","","image-button-response","163","1950954","0.0-162.0","A1AMGHYG5PT0L2","img_art/19.jpg","3","","","","","","","","","","","","","","","","","","","","","","","","",""
"5998","","image-button-response","164","1956953","0.0-163.0-0.0","A1AMGHYG5PT0L2","img_art/19.jpg","0","","","","","","","","","","","","","","","","","","","","","","","","",""
"350","","image-button-response","165","1957305","0.0-164.0-0.0","A1AMGHYG5PT0L2","img_art/19.jpg","1","","","","","","","","","","","","","","","","","","","","","","","","",""
"null","","html-keyboard-response","166","1957807","0.0-165.0","A1AMGHYG5PT0L2","<p style=""font-size: 48px;"">+</p>","","","","","null","allTrialResponses","500","1","17","img_art/19.jpg","4","This is sary and kind of messy, but if you look closely it is just a landscape scene","Maria,Lindsey,Victoria,Molly,Kaylee,Mikayla","the way the landscape is portrayed captivates me - I enjoy studying the structure,32,120,20","Pleasant colors with just enough detail to be recognizable. I can see a scene in it that tells a story.,7,400,20","to much going on,-22,400,20","I can see kind of beach and sea full of people and buildings.,25,340,20","beautiful old town,37,200,20","Very pretty and colorful.,23,300,20","Molly","I can see kind of beach and sea full of people and buildings.,25,340,20","Maria","the way the landscape is portrayed captivates me - I enjoy studying the structure,32,120,20","Lindsey","Pleasant colors with just enough detail to be recognizable. I can see a scene in it that tells a story.,7,400,20","2"
"2663","","survey-text","167","1960473","0.0-166.0-0.0","A1AMGHYG5PT0L2","","","","{""Q0"":""""}","","","","","","","","","","","","","","","","","","","","","","",""
"16080","","survey-text","168","1978673","0.0-166.1-0.1","A1AMGHYG5PT0L2","","","","{""Q0"":""This is messy and weird. Looks like a big white caterpillar""}","","","","","","","","","","","","","","","","","","","","","","",""
"255663","","image-slider-response","169","2234337","0.0-167.0","A1AMGHYG5PT0L2","","","","","-16","","","","","","","","","","","","","","","","","","","","","",""
"4910","","image-button-response","170","2239340","0.0-168.0","A1AMGHYG5PT0L2","img_art/23.jpg","1","","","","","","","","","","","","","","","","","","","","","","","","",""
"1347","","image-button-response","171","2240688","0.0-169.0","A1AMGHYG5PT0L2","img_art/23.jpg","1","","","","","","","","","","","","","","","","","","","","","","","","",""
"3807","","image-button-response","172","2244497","0.0-170.0-0.0","A1AMGHYG5PT0L2","img_art/23.jpg","5","","","","","","","","","","","","","","","","","","","","","","","","",""
"2535","","image-button-response","173","2247032","0.0-171.0-0.0","A1AMGHYG5PT0L2","img_art/23.jpg","0","","","","","","","","","","","","","","","","","","","","","","","","",""
"null","","html-keyboard-response","174","2248534","0.0-172.0","A1AMGHYG5PT0L2","<p style=""font-size: 48px;"">+</p>","","","","","null","allTrialResponses","1500","1","18","img_art/23.jpg","-16","This is messy and weird. Looks like a big white caterpillar","Maria,Lindsey,Kelly,Molly,Kristen,Sarah","the pattern of colours imbues in me a sense of infinity, which I find soothing,10,120,20","Too much contrasting colors together. I hate it.,-50,400,20","Love this. I love the white, really pops with the colors surrounding it.,44,220,20","Shocked, beautiful.,20,340,20","fsiries, happy, spiritual,16,280,20","it's not uninteresting, but i'm not responding to it,-7,180,20","Lindsey","Too much contrasting colors together. I hate it.,-50,400,20","Sarah","it's not uninteresting, but i'm not responding to it,-7,180,20","Maria","the pattern of colours imbues in me a sense of infinity, which I find soothing,10,120,20","2"
"10416","","survey-text","175","2258953","0.0-173.0-0.0","A1AMGHYG5PT0L2","","","","{""Q0"":""i like this. looks like a collage.""}","","","","","","","","","","","","","","","","","","","","","","",""
"2485.7999999523163","","image-slider-response","176","2261440","0.0-174.0","A1AMGHYG5PT0L2","","","","","42","","","","","","","","","","","","","","","","","","","","","",""
"4287","","image-button-response","177","2266442","0.0-175.0","A1AMGHYG5PT0L2","img_art/12.jpg","2","","","","","","","","","","","","","","","","","","","","","","","","",""
"309","","image-button-response","178","2266753","0.0-176.0","A1AMGHYG5PT0L2","img_art/12.jpg","2","","","","","","","","","","","","","","","","","","","","","","","","",""
"3127","","image-button-response","179","2269881","0.0-177.0-0.0","A1AMGHYG5PT0L2","img_art/12.jpg","4","","","","","","","","","","","","","","","","","","","","","","","","",""
"1926","","image-button-response","180","2271808","0.0-178.0-0.0","A1AMGHYG5PT0L2","img_art/12.jpg","5","","","","","","","","","","","","","","","","","","","","","","","","",""
"null","","html-keyboard-response","181","2272310","0.0-179.0","A1AMGHYG5PT0L2","<p style=""font-size: 48px;"">+</p>","","","","","null","allTrialResponses","500","1","19","img_art/12.jpg","42","i like this. looks like a collage.","Maria,Lindsey,Amy,Natalie,Haley,Sarah","evokes the 80s, and not in a necessarily good way,-10,120,20","Ugly colors and I'm just not too much a fan of cubist abstract art.,-50,400,20","Quite lovely with depth and possibility.,21,220,20","my reaction is that the picture is wierd,-11,400,20","Very interesting. Makes me want to look at it for a long time.,16,220,20","i think it's a good piece but it doesn't appeal to me,-18,180,20","Amy","Quite lovely with depth and possibility.,21,220,20","Haley","Very interesting. Makes me want to look at it for a long time.,16,220,20","Sarah","i think it's a good piece but it doesn't appeal to me,-18,180,20","2"
"11647","","survey-text","182","2283960","0.0-180.0-0.0","A1AMGHYG5PT0L2","","","","{""Q0"":""this looks like fire. it looks angry and hot.""}","","","","","","","","","","","","","","","","","","","","","","",""
"2270.9000000953674","","image-slider-response","183","2286232","0.0-181.0","A1AMGHYG5PT0L2","","","","","-8","","","","","","","","","","","","","","","","","","","","","",""
"4687","","image-button-response","184","2291234","0.0-182.0","A1AMGHYG5PT0L2","img_art/1.jpg","2","","","","","","","","","","","","","","","","","","","","","","","","",""
"2085","","image-button-response","185","2293321","0.0-183.0","A1AMGHYG5PT0L2","img_art/1.jpg","5","","","","","","","","","","","","","","","","","","","","","","","","",""
"712","","image-button-response","186","2294033","0.0-184.0-0.0","A1AMGHYG5PT0L2","img_art/1.jpg","4","","","","","","","","","","","","","","","","","","","","","","","","",""
"1238","","image-button-response","187","2295272","0.0-185.0-0.0","A1AMGHYG5PT0L2","img_art/1.jpg","2","","","","","","","","","","","","","","","","","","","","","","","","",""
"null","","html-keyboard-response","188","2295774","0.0-186.0","A1AMGHYG5PT0L2","<p style=""font-size: 48px;"">+</p>","","","","","null","allTrialResponses","500","1","20","img_art/1.jpg","-8","this looks like fire. it looks angry and hot.","Kaitlyn,Courtney,Amy,Alexandra,Haley,Sarah","Interesting blend of colors,9,80,20","I cant make anything of this one.,-7,280,20","Unpleasing palette. I see a figure but it seems incongrous to the highly abstract background.,-20,220,20","I love the warm colors of the art,32,60,20","Pleasant, but a tad too monochromatic in some areas for my taste,7,220,20","it's boring despite all the colors,-2,180,20","Sarah","it's boring despite all the colors,-2,180,20","Haley","Pleasant, but a tad too monochromatic in some areas for my taste,7,220,20","Amy","Unpleasing palette. I see a figure but it seems incongrous to the highly abstract background.,-20,220,20","2"
"3358","","survey-text","189","2299136","0.0-187.0-0.0","A1AMGHYG5PT0L2","","","","{""Q0"":""we""}","","","","","","","","","","","","","","","","","","","","","","",""
"5207","","survey-text","190","2304344","0.0-188.0-0.0","A1AMGHYG5PT0L2","","","","{""Q0"":""busy streets""}","","","","","","","","","","","","","","","","","","","","","","",""
"2303","","image-slider-response","191","2306648","0.0-189.0","A1AMGHYG5PT0L2","","","","","42","","","","","","","","","","","","","","","","","","","","","",""
"4415","","image-button-response","192","2311650","0.0-190.0","A1AMGHYG5PT0L2","img_art/11.jpg","1","","","","","","","","","","","","","","","","","","","","","","","","",""
"205","","image-button-response","193","2311856","0.0-191.0","A1AMGHYG5PT0L2","img_art/11.jpg","1","","","","","","","","","","","","","","","","","","","","","","","","",""
"3583","","image-button-response","194","2315441","0.0-192.0-0.0","A1AMGHYG5PT0L2","img_art/11.jpg","4","","","","","","","","","","","","","","","","","","","","","","","","",""
"591","","image-button-response","195","2316032","0.0-193.0-0.0","A1AMGHYG5PT0L2","img_art/11.jpg","5","","","","","","","","","","","","","","","","","","","","","","","","",""
"null","","html-keyboard-response","196","2317533","0.0-194.0","A1AMGHYG5PT0L2","<p style=""font-size: 48px;"">+</p>","","","","","null","allTrialResponses","1500","1","21","img_art/11.jpg","42","busy streets","Diana,Shelby,Amy,Jasmine,Haley,Sarah","It makes my head feel dizzy. So I rated it lower.,-25,380,20","The movement in this one is extremely pleasent,40,240,20","Simple and complex. Hopeful yet dark. I love this,35,220,20","Reminds me of a city on a grey/rainy winter's day,25,340,20","Lovely. I could look at this for a really long time. I love the details and the composition.,40,220,20","i like the gray tones with black lines and bits of color,23,180,20","Shelby","The movement in this one is extremely pleasent,40,240,20","Haley","Lovely. I could look at this for a really long time. I love the details and the composition.,40,220,20","Sarah","i like the gray tones with black lines and bits of color,23,180,20","2"
"20904","","survey-text","197","2338440","0.0-195.0-0.0","A1AMGHYG5PT0L2","","","","{""Q0"":""this is interesting and very 70s. I love it because it makes me think of my childhood.""}","","","","","","","","","","","","","","","","","","","","","","",""
"2767","","image-slider-response","198","2341208","0.0-196.0","A1AMGHYG5PT0L2","","","","","45","","","","","","","","","","","","","","","","","","","","","",""
"1807","","image-button-response","199","2346210","0.0-197.0","A1AMGHYG5PT0L2","img_art/16.jpg","2","","","","","","","","","","","","","","","","","","","","","","","","",""
"501","","image-button-response","200","2346713","0.0-198.0","A1AMGHYG5PT0L2","img_art/16.jpg","2","","","","","","","","","","","","","","","","","","","","","","","","",""
"1911","","image-button-response","201","2348625","0.0-199.0-0.0","A1AMGHYG5PT0L2","img_art/16.jpg","4","","","","","","","","","","","","","","","","","","","","","","","","",""
"1334","","image-button-response","202","2349961","0.0-200.0-0.0","A1AMGHYG5PT0L2","img_art/16.jpg","0","","","","","","","","","","","","","","","","","","","","","","","","",""
"null","","html-keyboard-response","203","2351463","0.0-201.0","A1AMGHYG5PT0L2","<p style=""font-size: 48px;"">+</p>","","","","","null","allTrialResponses","1500","1","22","img_art/16.jpg","45","this is interesting and very 70s. I love it because it makes me think of my childhood.","Caroline,Shelby,Anna,Makayla,Haley,Sarah","Did not like at all. I think something sinister going on in the background and the bear a diversion,-50,100,20","This feels like images of a painful childhood,-50,240,20","It's edgy but cool,10,300,20","It's a little unsettling,2,80,20","Makes me want to know more,5,220,20","i don't like the collage aspect,-25,180,20","Anna","It's edgy but cool,10,300,20","Haley","Makes me want to know more,5,220,20","Caroline","Did not like at all. I think something sinister going on in the background and the bear a diversion,-50,100,20","2"
"1691222","","survey-text","204","4042690","0.0-202.0-0.0","A1AMGHYG5PT0L2","","","","{""Q0"":""this looks like gold or... even mcdonalds. now im hungry.""}","","","","","","","","","","","","","","","","","","","","","","",""
"3073.0999999046326","","image-slider-response","205","4045768","0.0-203.0","A1AMGHYG5PT0L2","","","","","-8","","","","","","","","","","","","","","","","","","","","","",""
"3332","","image-button-response","206","4050773","0.0-204.0","A1AMGHYG5PT0L2","img_art/4.jpg","1","","","","","","","","","","","","","","","","","","","","","","","","",""
"562","","image-button-response","207","4051336","0.0-205.0","A1AMGHYG5PT0L2","img_art/4.jpg","1","","","","","","","","","","","","","","","","","","","","","","","","",""
"1911","","image-button-response","208","4053248","0.0-206.0-0.0","A1AMGHYG5PT0L2","img_art/4.jpg","5","","","","","","","","","","","","","","","","","","","","","","","","",""
"1917","","image-button-response","209","4055168","0.0-207.0-0.0","A1AMGHYG5PT0L2","img_art/4.jpg","3","","","","","","","","","","","","","","","","","","","","","","","","",""
"null","","html-keyboard-response","210","4056170","0.0-208.0","A1AMGHYG5PT0L2","<p style=""font-size: 48px;"">+</p>","","","","","null","allTrialResponses","1000","1","23","img_art/4.jpg","-8","this looks like gold or... even mcdonalds. now im hungry.","Caroline,Grace,Anna,Michelle,Haley,Erika","Blah feeling, nothing,-8,100,20","McDonald's golden arches on steroids.,-20,180,20","It doesn't make me feel anything it just looks like a kid did it.,-30,300,20","Looks like more paint smearing but at least there is structure,-5,280,20","This image doesn't invoke anything in me,-9,220,20","Reminds me of late night frustrated paintings of my own made of coffee,12,100,20","Grace","McDonald's golden arches on steroids.,-20,180,20","Erika","Reminds me of late night frustrated paintings of my own made of coffee,12,100,20","Michelle","Looks like more paint smearing but at least there is structure,-5,280,20","2"
"14918","","survey-text","211","4071096","0.0-209.0-0.0","A1AMGHYG5PT0L2","","","","{""Q0"":""this looks like a terrible car accident and i don't want to look.""}","","","","","","","","","","","","","","","","","","","","","","",""
"2070.7999999523163","","image-slider-response","212","4073168","0.0-210.0","A1AMGHYG5PT0L2","","","","","-17","","","","","","","","","","","","","","","","","","","","","",""
"null","","image-button-response","213","4078206","0.0-211.0","A1AMGHYG5PT0L2","img_art/20.jpg","null","","","","","","","","","","","","","","","","","","","","","","","","",""
"8945","","image-button-response","214","4087152","0.0-212.0","A1AMGHYG5PT0L2","img_art/20.jpg","3","","","","","","","","","","","","","","","","","","","","","","","","",""
"8773","","image-button-response","215","4095928","0.0-213.0-0.0","A1AMGHYG5PT0L2","img_art/20.jpg","2","","","","","","","","","","","","","","","","","","","","","","","","",""
"1742","","image-button-response","216","4097672","0.0-214.0-0.0","A1AMGHYG5PT0L2","img_art/20.jpg","4","","","","","","","","","","","","","","","","","","","","","","","","",""
"null","","html-keyboard-response","217","4099174","0.0-215.0","A1AMGHYG5PT0L2","<p style=""font-size: 48px;"">+</p>","","","","","null","allTrialResponses","1500","1","24","img_art/20.jpg","-17","this looks like a terrible car accident and i don't want to look.","Tiffany,Grace,Paige,Michelle,Andrea,Erika","I feel powerful, like I am looking out a window at this machine, that I am in charge.,17,360,20","Reminds me of Georgia O'Keefe.,11,180,20","scared. makes me feel alone or abandoned,-11,60,20","Reminds me of Dali for some reason, whom I don't like,-7,280,20","Reminds me of persistance of time (a favorite of mine).,30,240,20","The artist had very strong feelings, bold colors,28,100,20","Michelle","Reminds me of Dali for some reason, whom I don't like,-7,280,20","Paige","scared. makes me feel alone or abandoned,-11,60,20","Andrea","Reminds me of persistance of time (a favorite of mine).,30,240,20","2"
"11382","","survey-text","218","4110560","0.0-216.0-0.0","A1AMGHYG5PT0L2","","","","{""Q0"":""this looks like a calm day at the park""}","","","","","","","","","","","","","","","","","","","","","","",""
"2230.7000000476837","","image-slider-response","219","4112792","0.0-217.0","A1AMGHYG5PT0L2","","","","","18","","","","","","","","","","","","","","","","","","","","","",""
"null","","image-button-response","220","4117802","0.0-218.0","A1AMGHYG5PT0L2","img_art/26.jpg","null","","","","","","","","","","","","","","","","","","","","","","","","",""
"4405","","image-button-response","221","4122208","0.0-219.0","A1AMGHYG5PT0L2","img_art/26.jpg","1","","","","","","","","","","","","","","","","","","","","","","","","",""
"1743","","image-button-response","222","4123953","0.0-220.0-0.0","A1AMGHYG5PT0L2","img_art/26.jpg","3","","","","","","","","","","","","","","","","","","","","","","","","",""
"967","","image-button-response","223","4124920","0.0-221.0-0.0","A1AMGHYG5PT0L2","img_art/26.jpg","4","","","","","","","","","","","","","","","","","","","","","","","","",""
"null","","html-keyboard-response","224","4125923","0.0-222.0","A1AMGHYG5PT0L2","<p style=""font-size: 48px;"">+</p>","","","","","null","allTrialResponses","1000","1","25","img_art/26.jpg","18","this looks like a calm day at the park","Chelsea,Kathryn,Paige,Michelle,Andrea,Heather","I wish it were more pastel but I think it is relaxing to look at.,30,180,20","This piece feels pretty chill like it's just a normal day in the city.,10,140,20","somewhat happy, like being outside on a nice day,30,60,20","I can make out a street view and I am a fan of watercolors but still too boring,15,280,20","I get the feeling of a small old world street.,24,240,20","neighborhood and trees. i wonder if this is water paint.,1,260,20","Kathryn","This piece feels pretty chill like it's just a normal day in the city.,10,140,20","Michelle","I can make out a street view and I am a fan of watercolors but still too boring,15,280,20","Andrea","I get the feeling of a small old world street.,24,240,20","2"
"3788","","survey-text","225","4129719","0.0-223.0-0.0","A1AMGHYG5PT0L2","","","","{""Q0"":""table""}","","","","","","","","","","","","","","","","","","","","","","",""
"11878","","survey-text","226","4141599","0.0-224.0-0.0","A1AMGHYG5PT0L2","","","","{""Q0"":""im bored with this.""}","","","","","","","","","","","","","","","","","","","","","","",""
"2614.5999999046326","","image-slider-response","227","4144215","0.0-225.0","A1AMGHYG5PT0L2","","","","","-41","","","","","","","","","","","","","","","","","","","","","",""
"4088","","image-button-response","228","4149217","0.0-226.0","A1AMGHYG5PT0L2","img_art/27.jpg","2","","","","","","","","","","","","","","","","","","","","","","","","",""
"109","","image-button-response","229","4149328","0.0-227.0","A1AMGHYG5PT0L2","img_art/27.jpg","2","","","","","","","","","","","","","","","","","","","","","","","","",""
"3199","","image-button-response","230","4152528","0.0-228.0-0.0","A1AMGHYG5PT0L2","img_art/27.jpg","3","","","","","","","","","","","","","","","","","","","","","","","","",""
"1894","","image-button-response","231","4154423","0.0-229.0-0.0","A1AMGHYG5PT0L2","img_art/27.jpg","4","","","","","","","","","","","","","","","","","","","","","","","","",""
"null","","html-keyboard-response","232","4155926","0.0-230.0","A1AMGHYG5PT0L2","<p style=""font-size: 48px;"">+</p>","","","","","null","allTrialResponses","1500","1","26","img_art/27.jpg","-41","im bored with this.","Angela,Kathryn,Vanessa,Michelle,Andrea,Kaitlin","It's okay. Not really interesting to me.,-10,260,20","Makes me think of Japanese food. I perceive it as comfortable and healthy.,20,140,20","Colors make me think of fall, but I don't like how the picture was done or the weird lines across the background,6,380,20","very abstract, I don't understand it, but I like the bright, cheerful colors,14,280,20","I see a cathedral through the woods.,12,240,20","this reminds me of simpler time,31,60,20","Vanessa","Colors make me think of fall, but I don't like how the picture was done or the weird lines across the background,6,380,20","Michelle","very abstract, I don't understand it, but I like the bright, cheerful colors,14,280,20","Andrea","I see a cathedral through the woods.,12,240,20","2"
"18790","","survey-text","233","4174719","0.0-231.0-0.0","A1AMGHYG5PT0L2","","","","{""Q0"":""This is like a woman resting in water. It's relaxing and kind of cool.""}","","","","","","","","","","","","","","","","","","","","","","",""
"2255","","image-slider-response","234","4176975","0.0-232.0","A1AMGHYG5PT0L2","","","","","27","","","","","","","","","","","","","","","","","","","","","",""
"3127","","image-button-response","235","4181978","0.0-233.0","A1AMGHYG5PT0L2","img_art/9.jpg","1","","","","","","","","","","","","","","","","","","","","","","","","",""
"884","","image-button-response","236","4182863","0.0-234.0","A1AMGHYG5PT0L2","img_art/9.jpg","1","","","","","","","","","","","","","","","","","","","","","","","","",""
"2271","","image-button-response","237","4185135","0.0-235.0-0.0","A1AMGHYG5PT0L2","img_art/9.jpg","4","","","","","","","","","","","","","","","","","","","","","","","","",""
"791","","image-button-response","238","4185927","0.0-236.0-0.0","A1AMGHYG5PT0L2","img_art/9.jpg","5","","","","","","","","","","","","","","","","","","","","","","","","",""
"null","","html-keyboard-response","239","4186928","0.0-237.0","A1AMGHYG5PT0L2","<p style=""font-size: 48px;"">+</p>","","","","","null","allTrialResponses","1000","1","27","img_art/9.jpg","27","This is like a woman resting in water. It's relaxing and kind of cool.","Cynthia,Sierra,Vanessa,Michelle,Andrea,Nicole","curious and unsure,12,320,20","it looks like a lady resting. it is soothing.,4,260,20","It's too abstract for my taste. I wish there were more definition.,-9,380,20","Alright, I can see a reclining lady, I'm just glad to be able to tell what's in the picture,5,280,20","Sleeping woman in a cave. Makes me feel safe.,20,240,20","It's peaceful and relaxing,24,20,20","Sierra","it looks like a lady resting. it is soothing.,4,260,20","Andrea","Sleeping woman in a cave. Makes me feel safe.,20,240,20","Nicole","It's peaceful and relaxing,24,20,20","2"
"13986","","survey-text","240","4200920","0.0-238.0-0.0","A1AMGHYG5PT0L2","","","","{""Q0"":""i love this. it looks like a mess, but it also strangely controlled""}","","","","","","","","","","","","","","","","","","","","","","",""
"2725.699999809265","","image-slider-response","241","4203646","0.0-239.0","A1AMGHYG5PT0L2","","","","","48","","","","","","","","","","","","","","","","","","","","","",""
"null","","image-button-response","242","4208649","0.0-240.0","A1AMGHYG5PT0L2","img_art/13.jpg","null","","","","","","","","","","","","","","","","","","","","","","","","",""
"2196","","image-button-response","243","4210846","0.0-241.0","A1AMGHYG5PT0L2","img_art/13.jpg","2","","","","","","","","","","","","","","","","","","","","","","","","",""
"1487","","image-button-response","244","4212335","0.0-242.0-0.0","A1AMGHYG5PT0L2","img_art/13.jpg","3","","","","","","","","","","","","","","","","","","","","","","","","",""
"1271","","image-button-response","245","4213607","0.0-243.0-0.0","A1AMGHYG5PT0L2","img_art/13.jpg","5","","","","","","","","","","","","","","","","","","","","","","","","",""
"null","","html-keyboard-response","246","4214108","0.0-244.0","A1AMGHYG5PT0L2","<p style=""font-size: 48px;"">+</p>","","","","","null","allTrialResponses","500","1","28","img_art/13.jpg","48","i love this. it looks like a mess, but it also strangely controlled","Amanda,Sierra,Caitlin,Katherine,Andrea,Nicole","Feels calm and could be placed in anyones house,43,180,20","the blues are soothing but the splatters are too much,-3,260,20","Simple and in my favorite color. I actually like this one.,40,80,20","Best color combo. i love this.,50,120,20","Raindrops on a window. Makes me feel like traveling.,31,240,20","It's pretty basic but it makes me feel like I'm looking at the ocean,30,20,20","Caitlin","Simple and in my favorite color. I actually like this one.,40,80,20","Katherine","Best color combo. i love this.,50,120,20","Nicole","It's pretty basic but it makes me feel like I'm looking at the ocean,30,20,20","2"
"8911","","survey-text","247","4223022","0.0-245.0-0.0","A1AMGHYG5PT0L2","","","","{""Q0"":""this looks like a dirt wall.""}","","","","","","","","","","","","","","","","","","","","","","",""
"2143.100000143051","","image-slider-response","248","4225167","0.0-246.0","A1AMGHYG5PT0L2","","","","","-18","","","","","","","","","","","","","","","","","","","","","",""
"null","","image-button-response","249","4230205","0.0-247.0","A1AMGHYG5PT0L2","img_art/7.jpg","null","","","","","","","","","","","","","","","","","","","","","","","","",""
"17193","","image-button-response","250","4247399","0.0-248.0","A1AMGHYG5PT0L2","img_art/7.jpg","5","","","","","","","","","","","","","","","","","","","","","","","","",""
"1591","","image-button-response","251","4248991","0.0-249.0-0.0","A1AMGHYG5PT0L2","img_art/7.jpg","3","","","","","","","","","","","","","","","","","","","","","","","","",""
"1102","","image-button-response","252","4250095","0.0-250.0-0.0","A1AMGHYG5PT0L2","img_art/7.jpg","1","","","","","","","","","","","","","","","","","","","","","","","","",""
"null","","html-keyboard-response","253","4250597","0.0-251.0","A1AMGHYG5PT0L2","<p style=""font-size: 48px;"">+</p>","","","","","null","allTrialResponses","500","1","29","img_art/7.jpg","-18","this looks like a dirt wall.","Kelsey,Laura,Caitlin,Katherine,Alexis,Nicole","its like oatmeal with granola,-47,240,20","I feel thirsty - reminds me of desert sand,11,320,20","Looks like a photo taken from the moon.,-6,80,20","Reminds me of bugs, I hate bugs,-7,120,20","Looks like bad wallpaper,-29,100,20","Looks like the surface of mars,29,20,20","Nicole","Looks like the surface of mars,29,20,20","Katherine","Reminds me of bugs, I hate bugs,-7,120,20","Laura","I feel thirsty - reminds me of desert sand,11,320,20","2"
"11462","","survey-text","254","4262062","0.0-252.0-0.0","A1AMGHYG5PT0L2","","","","{""Q0"":""a plant, the beginning of life.""}","","","","","","","","","","","","","","","","","","","","","","",""
"3767.2000000476837","","image-slider-response","255","4265830","0.0-253.0","A1AMGHYG5PT0L2","","","","","-19","","","","","","","","","","","","","","","","","","","","","",""
"null","","image-button-response","256","4271096","0.0-254.0","A1AMGHYG5PT0L2","img_art/6.jpg","null","","","","","","","","","","","","","","","","","","","","","","","","",""
"17982","","image-button-response","257","4289080","0.0-255.0","A1AMGHYG5PT0L2","img_art/6.jpg","3","","","","","","","","","","","","","","","","","","","","","","","","",""
"6269","","image-button-response","258","4295350","0.0-256.0-0.0","A1AMGHYG5PT0L2","img_art/6.jpg","5","","","","","","","","","","","","","","","","","","","","","","","","",""
"2807","","image-button-response","259","4298158","0.0-257.0-0.0","A1AMGHYG5PT0L2","img_art/6.jpg","0","","","","","","","","","","","","","","","","","","","","","","","","",""
"null","","html-keyboard-response","260","4299660","0.0-258.0","A1AMGHYG5PT0L2","<p style=""font-size: 48px;"">+</p>","","","","","null","allTrialResponses","1500","1","30","img_art/6.jpg","-19","a plant, the beginning of life.","Mackenzie,Laura,Jennifer,Katherine,Ashley,Nicole","I enjoy the color contrast.,20,20,20","graceful and light,35,320,20","I am neutral towards this piece.,0,380,20","This could be so many different things. I saw a bird first but then it looks like a needle going into skin,34,120,20","A lot of people will lvoe this, I do not.,1,320,20","The colors and rough brush strokes make me nervous,-10,20,20","Katherine","This could be so many different things. I saw a bird first but then it looks like a needle going into skin,34,120,20","Nicole","The colors and rough brush strokes make me nervous,-10,20,20","Mackenzie","I enjoy the color contrast.,20,20,20","2"
"44341","","image-button-response_instructions","261","4344005","0.0-259.0","A1AMGHYG5PT0L2","","0","instructions","","","","","","","","","","","","","","","","","","","","","","","",""
