"rt","url","trial_type","trial_index","time_elapsed","internal_node_id","participant_id","stimulus","button_pressed","Name","responses","response","key_press","variableName","fixationTime","condition","trial","photo","subjectRating","subjectResponse","agentsNames","agent_1_Response","agent_2_Response","agent_3_Response","agent_4_Response","agent_5_Response","agent_6_Response","kept_1_name","kept_1_response","kept_2_name","kept_2_response","kept_3_name","kept_3_response","errorCounter"
"20318","external_page_harvard.html","external-html","0","20708","0.0-0.0","A1C0H8G0YI15MN","","","","","","","","","","","","","","","","","","","","","","","","","","",""
"2170","","image-button-response","1","22883","0.0-1.0","A1C0H8G0YI15MN","","0","","","","","","","","","","","","","","","","","","","","","","","","",""
"2240","","image-button-response","2","25138","0.0-2.0-0.0","A1C0H8G0YI15MN","","1","phone","","","","","","","","","","","","","","","","","","","","","","","",""
"20705","","survey-text","3","45846","0.0-3.0-0.0","A1C0H8G0YI15MN","","","","{""Q0"":""A1C0H8G0YI15MN""}","","","","","","","","","","","","","","","","","","","","","","",""
"8887","","image-button-response_instructions","4","54738","0.0-4.0","A1C0H8G0YI15MN","","0","instructions","","","","","","","","","","","","","","","","","","","","","","","",""
"21020","","image-button-response_instructions","5","75763","0.0-5.0","A1C0H8G0YI15MN","img_art/ins/popularity/ins1.png","0","instructions","","","","","","","","","","","","","","","","","","","","","","","",""
"15305","","image-button-response_instructions","6","91071","0.0-6.0","A1C0H8G0YI15MN","img_art/ins/popularity/ins2.png","0","instructions","","","","","","","","","","","","","","","","","","","","","","","",""
"8773","","image-button-response_instructions","7","99848","0.0-7.0","A1C0H8G0YI15MN","img_art/ins/popularity/ins2Extreme.png","0","instructions","","","","","","","","","","","","","","","","","","","","","","","",""
"30816","","image-button-response_instructions","8","130667","0.0-8.0","A1C0H8G0YI15MN","img_art/ins/popularity/ins3KEEPpop.PNG","0","instructions","","","","","","","","","","","","","","","","","","","","","","","",""
"7586","","image-button-response_instructions","9","138256","0.0-9.0","A1C0H8G0YI15MN","img_art/ins/popularity/ins3ANamepop.PNG","0","instructions","","","","","","","","","","","","","","","","","","","","","","","",""
"5578","","image-button-response_instructions","10","143836","0.0-10.0","A1C0H8G0YI15MN","img_art/ins/popularity/ins3ARatingpop.png","0","instructions","","","","","","","","","","","","","","","","","","","","","","","",""
"7023","","image-button-response_instructions","11","150861","0.0-11.0","A1C0H8G0YI15MN","img_art/ins/popularity/ins3ATextpop.png","0","instructions","","","","","","","","","","","","","","","","","","","","","","","",""
"4677","","image-button-response_instructions","12","155541","0.0-12.0","A1C0H8G0YI15MN","img_art/ins/popularity/ins3ALikespop.png","0","instructions","","","","","","","","","","","","","","","","","","","","","","","",""
"16191","","image-button-response_instructions","13","171734","0.0-13.0","A1C0H8G0YI15MN","img_art/ins/popularity/ins3KEEPpop.PNG","0","instructions","","","","","","","","","","","","","","","","","","","","","","","",""
"15211","","image-button-response_instructions","14","186949","0.0-14.0","A1C0H8G0YI15MN","img_art/ins/popularity/ins3_5RED.png","0","instructions","","","","","","","","","","","","","","","","","","","","","","","",""
"6503","","image-button-response_instructions","15","193455","0.0-15.0","A1C0H8G0YI15MN","img_art/ins/popularity/ins3KEEPpop.PNG","0","instructions","","","","","","","","","","","","","","","","","","","","","","","",""
"9277","","image-button-response_instructions","16","202734","0.0-16.0","A1C0H8G0YI15MN","img_art/ins/popularity/ins4KEEPpop.PNG","0","instructions","","","","","","","","","","","","","","","","","","","","","","","",""
"9197","","image-button-response_instructions","17","211935","0.0-17.0","A1C0H8G0YI15MN","img_art/ins/popularity/ins5KEEPpop.PNG","0","instructions","","","","","","","","","","","","","","","","","","","","","","","",""
"10330","","image-button-response_instructions","18","222268","0.0-18.0","A1C0H8G0YI15MN","","0","instructions","","","","","","","","","","","","","","","","","","","","","","","",""
"13260","","survey-text","19","235581","0.0-19.0-0.0","A1C0H8G0YI15MN","","","","{""Q0"":""but""}","","","","","","","","","","","","","","","","","","","","","","",""
"39107","","survey-text","20","274692","0.0-20.0-0.0","A1C0H8G0YI15MN","","","","{""Q0"":""I see flowing and perhaps a waterfall""}","","","","","","","","","","","","","","","","","","","","","","",""
"7705","","image-slider-response","21","282402","0.0-21.0","A1C0H8G0YI15MN","","","","","11","","","","","","","","","","","","","","","","","","","","","",""
"null","","image-button-response","22","287414","0.0-22.0","A1C0H8G0YI15MN","img_art/ins/1.jpg","null","","","","","","","","","","","","","","","","","","","","","","","","",""
"8464","","image-button-response","23","295882","0.0-23.0","A1C0H8G0YI15MN","img_art/ins/1.jpg","3","","","","","","","","","","","","","","","","","","","","","","","","",""
"1391","","image-button-response","24","297281","0.0-24.0-0.0","A1C0H8G0YI15MN","img_art/ins/1.jpg","5","","","","","","","","","","","","","","","","","","","","","","","","",""
"11091","","image-button-response","25","308379","0.0-25.0-0.0","A1C0H8G0YI15MN","img_art/ins/1.jpg","4","","","","","","","","","","","","","","","","","","","","","","","","",""
"null","","html-keyboard-response","26","308885","0.0-26.0","A1C0H8G0YI15MN","<p style=""font-size: 48px;"">+</p>","","","","","null","allTrialResponses","500","1","-2","img_art/ins/1.jpg","11","I see flowing and perhaps a waterfall","Adam,Alex,Ben,Carl,Daniel,Jack","Seems like doodles,-20,20,20","very creative work.,36,40,20","This color reminds me of poo,-46,60,20","very calming artwork,42,80,20","It looks like a murder scene.,-48,100,20","I like the sophisticated brushwork,40,120,20","Carl","very calming artwork,42,80,20","Jack","I like the sophisticated brushwork,40,120,20","Daniel","It looks like a murder scene.,-48,100,20","0"
"27719","","survey-text","27","336614","0.0-27.0-0.0","A1C0H8G0YI15MN","","","","{""Q0"":""Stunningly fiery""}","","","","","","","","","","","","","","","","","","","","","","",""
"6381.5","","image-slider-response","28","343001","0.0-28.0","A1C0H8G0YI15MN","","","","","20","","","","","","","","","","","","","","","","","","","","","",""
"null","","image-button-response","29","348008","0.0-29.0","A1C0H8G0YI15MN","img_art/ins/2.jpg","null","","","","","","","","","","","","","","","","","","","","","","","","",""
"6023","","image-button-response","30","354036","0.0-30.0","A1C0H8G0YI15MN","img_art/ins/2.jpg","1","","","","","","","","","","","","","","","","","","","","","","","","",""
"9308","","image-button-response","31","363350","0.0-31.0-0.0","A1C0H8G0YI15MN","img_art/ins/2.jpg","0","","","","","","","","","","","","","","","","","","","","","","","","",""
"7826","","image-button-response","32","371181","0.0-32.0-0.0","A1C0H8G0YI15MN","img_art/ins/2.jpg","0","","","","","","","","","","","","","","","","","","","","","","","","",""
"1015","","image-button-response","33","378223","0.0-32.1-0.1","A1C0H8G0YI15MN","img_art/ins/2.jpg","3","","","","","","","","","","","","","","","","","","","","","","","","",""
"null","","html-keyboard-response","34","379227","0.0-33.0","A1C0H8G0YI15MN","<p style=""font-size: 48px;"">+</p>","","","","","null","allTrialResponses","1000","1","-1","img_art/ins/2.jpg","20","Stunningly fiery","James,John,Kyle,Carl,Daniel,Jack","looks too angry,-50,140,20","love the texture of paint,48,160,20","Idk, it is just annoying,-32,180,20","I can feel the artist's passion in it,45,80,20","One of my pet peevs,-48,100,20","I would never be able to compose a sophisticated pallete like this,48,120,20","John","love the texture of paint,48,160,20","James","looks too angry,-50,140,20","Carl","I can feel the artist's passion in it,45,80,20","2"
"16776","","survey-text","35","396012","0.0-34.0-0.0","A1C0H8G0YI15MN","","","","{""Q0"":""It makes me cold""}","","","","","","","","","","","","","","","","","","","","","","",""
"7180.300000011921","","image-slider-response","36","403198","0.0-35.0","A1C0H8G0YI15MN","","","","","23","","","","","","","","","","","","","","","","","","","","","",""
"null","","image-button-response","37","408205","0.0-36.0","A1C0H8G0YI15MN","img_art/ins/3.jpg","null","","","","","","","","","","","","","","","","","","","","","","","","",""
"5392","","image-button-response","38","413601","0.0-37.0","A1C0H8G0YI15MN","img_art/ins/3.jpg","5","","","","","","","","","","","","","","","","","","","","","","","","",""
"5221","","image-button-response","39","418827","0.0-38.0-0.0","A1C0H8G0YI15MN","img_art/ins/3.jpg","1","","","","","","","","","","","","","","","","","","","","","","","","",""
"1066","","image-button-response","40","419898","0.0-39.0-0.0","A1C0H8G0YI15MN","img_art/ins/3.jpg","2","","","","","","","","","","","","","","","","","","","","","","","","",""
"null","","html-keyboard-response","41","421401","0.0-40.0","A1C0H8G0YI15MN","<p style=""font-size: 48px;"">+</p>","","","","","null","allTrialResponses","1500","1","0","img_art/ins/3.jpg","23","It makes me cold","James,John,Mike,Carl,Ron,Sam","My worst nightmare,-42,140,20","I like the overlapping of brushes,41,160,20","enjoy the different shades of blue,22,200,20","It's an alright work,15,80,20","It looks depressing,-26,220,20","I can feel a rainy day from this painting,18,240,20","Sam","I can feel a rainy day from this painting,18,240,20","John","I like the overlapping of brushes,41,160,20","Mike","enjoy the different shades of blue,22,200,20","2"
"10438","","image-button-response_instructions","42","431853","0.0-41.0","A1C0H8G0YI15MN","","0","instructions","","","","","","","","","","","","","","","","","","","","","","","",""
"14113","","survey-likert","43","445971","0.0-42.0-0.0","A1C0H8G0YI15MN","","","","{""Q0"":"""",""Q1"":0,""Q2"":1}","","","","","","","","","","","","","","","","","","","","","","",""
"10120","","survey-text","44","456105","0.0-43.0-0.0","A1C0H8G0YI15MN","","","","{""Q0"":""rock""}","","","","","","","","","","","","","","","","","","","","","","",""
"29534","","survey-text","45","485644","0.0-44.0-0.0","A1C0H8G0YI15MN","","","","{""Q0"":""A haboob in the desert""}","","","","","","","","","","","","","","","","","","","","","","",""
"6548.600000023842","","image-slider-response","46","492196","0.0-45.0","A1C0H8G0YI15MN","","","","","6","","","","","","","","","","","","","","","","","","","","","",""
"null","","image-button-response","47","497258","0.0-46.0","A1C0H8G0YI15MN","img_art/21.jpg","null","","","","","","","","","","","","","","","","","","","","","","","","",""
"12107","","image-button-response","48","509371","0.0-47.0","A1C0H8G0YI15MN","img_art/21.jpg","5","","","","","","","","","","","","","","","","","","","","","","","","",""
"7633","","image-button-response","49","517008","0.0-48.0-0.0","A1C0H8G0YI15MN","img_art/21.jpg","0","","","","","","","","","","","","","","","","","","","","","","","","",""
"4134","","image-button-response","50","521148","0.0-49.0-0.0","A1C0H8G0YI15MN","img_art/21.jpg","1","","","","","","","","","","","","","","","","","","","","","","","","",""
"null","","html-keyboard-response","51","522655","0.0-50.0","A1C0H8G0YI15MN","<p style=""font-size: 48px;"">+</p>","","","","","null","allTrialResponses","1500","1","1","img_art/21.jpg","6","A haboob in the desert","Dalton,Alex,Steven,Michael,Trevor,Adrian","The color spectrum is just beautiful.,32,300,20","The colors are very nice. I like the dots because they remind me of pearls,5,100,20","Okay, I love the color schemes, I can't quite figure it out though,14,160,20","What's the point?,-30,140,20","it has a lot of happy colors and it's very classic looking,35,280,20","I like this piece more the more I look at. Still wouldn't want it in my home, though.,8,60,20","Adrian","I like this piece more the more I look at. Still wouldn't want it in my home, though.,8,60,20","Dalton","The color spectrum is just beautiful.,32,300,20","Alex","The colors are very nice. I like the dots because they remind me of pearls,5,100,20","2"
"20676","","survey-text","52","543342","0.0-51.0-0.0","A1C0H8G0YI15MN","","","","{""Q0"":""A busy city in the future""}","","","","","","","","","","","","","","","","","","","","","","",""
"6498.800000011921","","image-slider-response","53","549845","0.0-52.0","A1C0H8G0YI15MN","","","","","22","","","","","","","","","","","","","","","","","","","","","",""
"null","","image-button-response","54","554852","0.0-53.0","A1C0H8G0YI15MN","img_art/11.jpg","null","","","","","","","","","","","","","","","","","","","","","","","","",""
"1308","","image-button-response","55","556164","0.0-54.0","A1C0H8G0YI15MN","img_art/11.jpg","0","","","","","","","","","","","","","","","","","","","","","","","","",""
"2675","","image-button-response","56","558842","0.0-55.0-0.0","A1C0H8G0YI15MN","img_art/11.jpg","1","","","","","","","","","","","","","","","","","","","","","","","","",""
"5156","","image-button-response","57","564004","0.0-56.0-0.0","A1C0H8G0YI15MN","img_art/11.jpg","4","","","","","","","","","","","","","","","","","","","","","","","","",""
"null","","html-keyboard-response","58","565508","0.0-57.0","A1C0H8G0YI15MN","<p style=""font-size: 48px;"">+</p>","","","","","null","allTrialResponses","1500","1","2","img_art/11.jpg","22","A busy city in the future","Dalton,Alex,Jared,Blake,Luis,Adrian","looks like highways and homes and lives intertwining.,27,300,20","I think this is a city but I'm not sure, very abstract,18,100,20","i like the colors and patters and waves,5,400,20","a train going around the country,14,280,20","I love the city chaos from this,50,400,20","Not a fan of the colors but it looks interesting.,-31,60,20","Dalton","looks like highways and homes and lives intertwining.,27,300,20","Alex","I think this is a city but I'm not sure, very abstract,18,100,20","Luis","I love the city chaos from this,50,400,20","2"
"71980","","survey-text","59","637499","0.0-58.0-0.0","A1C0H8G0YI15MN","","","","{""Q0"":""A babe in a hospital bed in a gown that is not hospital issue""}","","","","","","","","","","","","","","","","","","","","","","",""
"4378.199999988079","","image-slider-response","60","641881","0.0-59.0","A1C0H8G0YI15MN","","","","","34","","","","","","","","","","","","","","","","","","","","","",""
"null","","image-button-response","61","646887","0.0-60.0","A1C0H8G0YI15MN","img_art/9.jpg","null","","","","","","","","","","","","","","","","","","","","","","","","",""
"15852","","image-button-response","62","662743","0.0-61.0","A1C0H8G0YI15MN","img_art/9.jpg","0","","","","","","","","","","","","","","","","","","","","","","","","",""
"5445","","image-button-response","63","668192","0.0-62.0-0.0","A1C0H8G0YI15MN","img_art/9.jpg","2","","","","","","","","","","","","","","","","","","","","","","","","",""
"4817","","image-button-response","64","673015","0.0-63.0-0.0","A1C0H8G0YI15MN","img_art/9.jpg","4","","","","","","","","","","","","","","","","","","","","","","","","",""
"null","","html-keyboard-response","65","673520","0.0-64.0","A1C0H8G0YI15MN","<p style=""font-size: 48px;"">+</p>","","","","","null","allTrialResponses","500","1","3","img_art/9.jpg","34","A babe in a hospital bed in a gown that is not hospital issue","Dalton,Alex,Dustin,Brian,Luis,Travis","a mother in bed surrounded by emotions,1,300,20","Alright, I can see a reclining lady, I'm just glad to be able to tell what's in the picture,5,100,20","I like the blues and pinks. The woman lying down communicates relaxation. It is a serene, calming scene,30,20,20","I don't like the framing of this one,-25,380,20","Calming and relaxing,42,400,20","Stuipid looking...dumb,-48,260,20","Dalton","a mother in bed surrounded by emotions,1,300,20","Dustin","I like the blues and pinks. The woman lying down communicates relaxation. It is a serene, calming scene,30,20,20","Luis","Calming and relaxing,42,400,20","2"
"35732","","survey-text","66","709264","0.0-65.0-0.0","A1C0H8G0YI15MN","","","","{""Q0"":""Lady liberty is on the move""}","","","","","","","","","","","","","","","","","","","","","","",""
"6626.300000011921","","image-slider-response","67","715895","0.0-66.0","A1C0H8G0YI15MN","","","","","29","","","","","","","","","","","","","","","","","","","","","",""
"null","","image-button-response","68","720900","0.0-67.0","A1C0H8G0YI15MN","img_art/25.jpg","null","","","","","","","","","","","","","","","","","","","","","","","","",""
"11261","","image-button-response","69","732167","0.0-68.0","A1C0H8G0YI15MN","img_art/25.jpg","4","","","","","","","","","","","","","","","","","","","","","","","","",""
"2037","","image-button-response","70","734209","0.0-69.0-0.0","A1C0H8G0YI15MN","img_art/25.jpg","2","","","","","","","","","","","","","","","","","","","","","","","","",""
"10851","","image-button-response","71","745065","0.0-70.0-0.0","A1C0H8G0YI15MN","img_art/25.jpg","0","","","","","","","","","","","","","","","","","","","","","","","","",""
"null","","html-keyboard-response","72","745569","0.0-71.0","A1C0H8G0YI15MN","<p style=""font-size: 48px;"">+</p>","","","","","null","allTrialResponses","500","1","4","img_art/25.jpg","29","Lady liberty is on the move","Dalton,Carlos,Dustin,Elijah,Luis,Shawn","This reminds me of royalty and servants.,32,300,20","The proportions are unpleasant.,-30,80,20","Reminds me of ancient civilization art. I like the aqua color; soothing to me.,1,20,20","Makes me feel intrigued,13,80,20","New life, rising from your personal battles,50,400,20","Cheesy and unprofessional,-30,100,20","Luis","New life, rising from your personal battles,50,400,20","Dustin","Reminds me of ancient civilization art. I like the aqua color; soothing to me.,1,20,20","Dalton","This reminds me of royalty and servants.,32,300,20","2"
"42714","","survey-text","73","788295","0.0-72.0-0.0","A1C0H8G0YI15MN","","","","{""Q0"":""The sun in its nova in the far far future""}","","","","","","","","","","","","","","","","","","","","","","",""
"10723.899999976158","","image-slider-response","74","799023","0.0-73.0","A1C0H8G0YI15MN","","","","","-17","","","","","","","","","","","","","","","","","","","","","",""
"null","","image-button-response","75","804028","0.0-74.0","A1C0H8G0YI15MN","img_art/22.jpg","null","","","","","","","","","","","","","","","","","","","","","","","","",""
"6525","","image-button-response","76","810557","0.0-75.0","A1C0H8G0YI15MN","img_art/22.jpg","2","","","","","","","","","","","","","","","","","","","","","","","","",""
"6342","","image-button-response","77","816903","0.0-76.0-0.0","A1C0H8G0YI15MN","img_art/22.jpg","5","","","","","","","","","","","","","","","","","","","","","","","","",""
"5701","","image-button-response","78","822608","0.0-77.0-0.0","A1C0H8G0YI15MN","img_art/22.jpg","1","","","","","","","","","","","","","","","","","","","","","","","","",""
"null","","html-keyboard-response","79","823612","0.0-78.0","A1C0H8G0YI15MN","<p style=""font-size: 48px;"">+</p>","","","","","null","allTrialResponses","1000","1","5","img_art/22.jpg","-17","The sun in its nova in the far far future","Dalton,Antonio,Dustin,Bryan,Luis,Daniel","i think its pretty but im not sure what i see,1,300,20","Felt blah. Bunch of nothingness,-42,220,20","Too much red. The red/yellow/orange make me think of heat/fire, which makes me anxious.,-10,20,20","Love vibrant colors & the abstractness.,43,400,20","Just not feeling it,-19,400,20","Organic sun spot on a flexible grid,18,320,20","Dustin","Too much red. The red/yellow/orange make me think of heat/fire, which makes me anxious.,-10,20,20","Daniel","Organic sun spot on a flexible grid,18,320,20","Antonio","Felt blah. Bunch of nothingness,-42,220,20","2"
"8227","","survey-text","80","831857","0.0-79.0-0.0","A1C0H8G0YI15MN","","","","{""Q0"":""sky""}","","","","","","","","","","","","","","","","","","","","","","",""
"39581","","survey-text","81","871441","0.0-80.0-0.0","A1C0H8G0YI15MN","","","","{""Q0"":""Done by a vigorous child with two crayons""}","","","","","","","","","","","","","","","","","","","","","","",""
"8341.800000011921","","image-slider-response","82","879787","0.0-81.0","A1C0H8G0YI15MN","","","","","-40","","","","","","","","","","","","","","","","","","","","","",""
"null","","image-button-response","83","884792","0.0-82.0","A1C0H8G0YI15MN","img_art/3.jpg","null","","","","","","","","","","","","","","","","","","","","","","","","",""
"2994","","image-button-response","84","887791","0.0-83.0","A1C0H8G0YI15MN","img_art/3.jpg","2","","","","","","","","","","","","","","","","","","","","","","","","",""
"8239","","image-button-response","85","896035","0.0-84.0-0.0","A1C0H8G0YI15MN","img_art/3.jpg","3","","","","","","","","","","","","","","","","","","","","","","","","",""
"1412","","image-button-response","86","897454","0.0-85.0-0.0","A1C0H8G0YI15MN","img_art/3.jpg","5","","","","","","","","","","","","","","","","","","","","","","","","",""
"null","","html-keyboard-response","87","898458","0.0-86.0","A1C0H8G0YI15MN","<p style=""font-size: 48px;"">+</p>","","","","","null","allTrialResponses","1000","1","6","img_art/3.jpg","-40","Done by a vigorous child with two crayons","Jack,Antonio,Dustin,Sean,Vincent,Daniel","unique & stylized. interesting. another one I could keep staring at.,50,320,20","The red makes me think of blood which makes me think of pain,-50,220,20","Messy. Looks like a children's drawing being passed off as expensive art. Too much red.,-50,20,20","my response to the picture is a lot of red, danger,,-21,40,20","Iike this one it's a piece that I need to spend more time with to understand how i feel about it,20,360,20","5 min scribble by a 3 year old,-46,320,20","Dustin","Messy. Looks like a children's drawing being passed off as expensive art. Too much red.,-50,20,20","Sean","my response to the picture is a lot of red, danger,,-21,40,20","Daniel","5 min scribble by a 3 year old,-46,320,20","2"
"79912","","survey-text","88","978381","0.0-87.0-0.0","A1C0H8G0YI15MN","","","","{""Q0"":""A liberal's view of handguns, very negative.""}","","","","","","","","","","","","","","","","","","","","","","",""
"5843.800000011921","","image-slider-response","89","984229","0.0-88.0","A1C0H8G0YI15MN","","","","","-50","","","","","","","","","","","","","","","","","","","","","",""
"null","","image-button-response","90","989235","0.0-89.0","A1C0H8G0YI15MN","img_art/16.jpg","null","","","","","","","","","","","","","","","","","","","","","","","","",""
"12464","","image-button-response","91","1001703","0.0-90.0","A1C0H8G0YI15MN","img_art/16.jpg","0","","","","","","","","","","","","","","","","","","","","","","","","",""
"5844","","image-button-response","92","1007551","0.0-91.0-0.0","A1C0H8G0YI15MN","img_art/16.jpg","2","","","","","","","","","","","","","","","","","","","","","","","","",""
"5333","","image-button-response","93","1012889","0.0-92.0-0.0","A1C0H8G0YI15MN","img_art/16.jpg","3","","","","","","","","","","","","","","","","","","","","","","","","",""
"null","","html-keyboard-response","94","1013393","0.0-93.0","A1C0H8G0YI15MN","<p style=""font-size: 48px;"">+</p>","","","","","null","allTrialResponses","500","1","7","img_art/16.jpg","-50","A liberal's view of handguns, very negative.","Dylan,Richard,Dustin,Sean,Brendan,Daniel","This is weird and creepy.,-40,40,20","nonsense art, not really art,-44,340,20","Upsetting and disturbing. Random bear and indistinguishable objects. None of it goes together. Too chaotic and random,-50,20,20","my reaction is that the picture is creepy,-19,40,20","cool teddy bear,50,340,20","Ugly, broken up and mismatched,-50,320,20","Dylan","This is weird and creepy.,-40,40,20","Dustin","Upsetting and disturbing. Random bear and indistinguishable objects. None of it goes together. Too chaotic and random,-50,20,20","Sean","my reaction is that the picture is creepy,-19,40,20","2"
"33158","","survey-text","95","1046562","0.0-94.0-0.0","A1C0H8G0YI15MN","","","","{""Q0"":""great color interactions""}","","","","","","","","","","","","","","","","","","","","","","",""
"4417.300000011921","","image-slider-response","96","1050983","0.0-95.0","A1C0H8G0YI15MN","","","","","35","","","","","","","","","","","","","","","","","","","","","",""
"3606","","image-button-response","97","1055989","0.0-96.0","A1C0H8G0YI15MN","img_art/30.jpg","0","","","","","","","","","","","","","","","","","","","","","","","","",""
"7285","","image-button-response","98","1063279","0.0-97.0","A1C0H8G0YI15MN","img_art/30.jpg","4","","","","","","","","","","","","","","","","","","","","","","","","",""
"2061","","image-button-response","99","1065344","0.0-98.0-0.0","A1C0H8G0YI15MN","img_art/30.jpg","5","","","","","","","","","","","","","","","","","","","","","","","","",""
"7010","","image-button-response","100","1072359","0.0-99.0-0.0","A1C0H8G0YI15MN","img_art/30.jpg","0","","","","","","","","","","","","","","","","","","","","","","","","",""
"null","","html-keyboard-response","101","1073363","0.0-100.0","A1C0H8G0YI15MN","<p style=""font-size: 48px;"">+</p>","","","","","null","allTrialResponses","1000","1","8","img_art/30.jpg","35","great color interactions","Dylan,Scott,Dustin,Sean,Kenneth,Lucas","I really love the pastel colors and the 3D design in this,43,40,20","nothing special about it,1,20,20","Soothing color palette, but doesn't look like anything. All I see are random brush strokes.,1,20,20","the colors look nice,19,40,20","The red helps it to pop.,13,300,20","I like the way the artist has painted his work.,40,380,20","Kenneth","The red helps it to pop.,13,300,20","Lucas","I like the way the artist has painted his work.,40,380,20","Dylan","I really love the pastel colors and the 3D design in this,43,40,20","2"
"34908","","survey-text","102","1108281","0.0-101.0-0.0","A1C0H8G0YI15MN","","","","{""Q0"":""Her life is a tangled mess""}","","","","","","","","","","","","","","","","","","","","","","",""
"4172","","image-slider-response","103","1112457","0.0-102.0","A1C0H8G0YI15MN","","","","","14","","","","","","","","","","","","","","","","","","","","","",""
"null","","image-button-response","104","1117462","0.0-103.0","A1C0H8G0YI15MN","img_art/18.jpg","null","","","","","","","","","","","","","","","","","","","","","","","","",""
"3738","","image-button-response","105","1121204","0.0-104.0","A1C0H8G0YI15MN","img_art/18.jpg","2","","","","","","","","","","","","","","","","","","","","","","","","",""
"10113","","image-button-response","106","1131322","0.0-105.0-0.0","A1C0H8G0YI15MN","img_art/18.jpg","4","","","","","","","","","","","","","","","","","","","","","","","","",""
"1435","","image-button-response","107","1132763","0.0-106.0-0.0","A1C0H8G0YI15MN","img_art/18.jpg","5","","","","","","","","","","","","","","","","","","","","","","","","",""
"null","","html-keyboard-response","108","1133267","0.0-107.0","A1C0H8G0YI15MN","<p style=""font-size: 48px;"">+</p>","","","","","null","allTrialResponses","500","1","9","img_art/18.jpg","14","Her life is a tangled mess","Dylan,Jeremy,Alexis,James,Kenneth,Lucas","Ugly, too much is going on,-40,40,20","Unhappy. Makes me thing of evil,-10,60,20","It's possibly of a mermaid luring in a ship,15,140,20","Very eerie and it's spooky,11,380,20","It's interesting. I'm not sure how I feel about it, but i enjoy the ghostly apparitions.,10,300,20","White and yellow look awesome and the picture's dynamics are wonderful.,30,380,20","Alexis","It's possibly of a mermaid luring in a ship,15,140,20","Kenneth","It's interesting. I'm not sure how I feel about it, but i enjoy the ghostly apparitions.,10,300,20","Lucas","White and yellow look awesome and the picture's dynamics are wonderful.,30,380,20","2"
"33178","","survey-text","109","1166455","0.0-108.0-0.0","A1C0H8G0YI15MN","","","","{""Q0"":""Tetris for those with complex minds""}","","","","","","","","","","","","","","","","","","","","","","",""
"4536","","image-slider-response","110","1170995","0.0-109.0","A1C0H8G0YI15MN","","","","","16","","","","","","","","","","","","","","","","","","","","","",""
"null","","image-button-response","111","1176001","0.0-110.0","A1C0H8G0YI15MN","img_art/12.jpg","null","","","","","","","","","","","","","","","","","","","","","","","","",""
"6465","","image-button-response","112","1182470","0.0-111.0","A1C0H8G0YI15MN","img_art/12.jpg","0","","","","","","","","","","","","","","","","","","","","","","","","",""
"2288","","image-button-response","113","1184763","0.0-112.0-0.0","A1C0H8G0YI15MN","img_art/12.jpg","3","","","","","","","","","","","","","","","","","","","","","","","","",""
"10575","","image-button-response","114","1195342","0.0-113.0-0.0","A1C0H8G0YI15MN","img_art/12.jpg","2","","","","","","","","","","","","","","","","","","","","","","","","",""
"null","","html-keyboard-response","115","1196846","0.0-114.0","A1C0H8G0YI15MN","<p style=""font-size: 48px;"">+</p>","","","","","null","allTrialResponses","1500","1","10","img_art/12.jpg","16","Tetris for those with complex minds","Spencer,Caleb,Alexis,Noah,Kenneth,Lucas","Looks like a puzzle I want to put together, but not hang in my den,2,120,20","Almost natural flowing between abstract sections.,27,40,20","In my opinion, this photo has an old school vibe,22,140,20","evokes the 80s, and not in a necessarily good way,-10,260,20","It's pretty, I find it interesting to look at.,10,300,20","Seems to be puzzles.,25,380,20","Spencer","Looks like a puzzle I want to put together, but not hang in my den,2,120,20","Noah","evokes the 80s, and not in a necessarily good way,-10,260,20","Alexis","In my opinion, this photo has an old school vibe,22,140,20","2"
"8755","","survey-text","116","1205625","0.0-115.0-0.0","A1C0H8G0YI15MN","","","","{""Q0"":""our""}","","","","","","","","","","","","","","","","","","","","","","",""
"50101","","survey-text","117","1255729","0.0-116.0-0.0","A1C0H8G0YI15MN","","","","{""Q0"":""No leaves on the trees covering the walkway""}","","","","","","","","","","","","","","","","","","","","","","",""
"5755.699999988079","","image-slider-response","118","1261489","0.0-117.0","A1C0H8G0YI15MN","","","","","36","","","","","","","","","","","","","","","","","","","","","",""
"null","","image-button-response","119","1266494","0.0-118.0","A1C0H8G0YI15MN","img_art/17.jpg","null","","","","","","","","","","","","","","","","","","","","","","","","",""
"20849","","image-button-response","120","1287347","0.0-119.0","A1C0H8G0YI15MN","img_art/17.jpg","4","","","","","","","","","","","","","","","","","","","","","","","","",""
"3384","","image-button-response","121","1290736","0.0-120.0-0.0","A1C0H8G0YI15MN","img_art/17.jpg","0","","","","","","","","","","","","","","","","","","","","","","","","",""
"5883","","image-button-response","122","1296626","0.0-121.0-0.0","A1C0H8G0YI15MN","img_art/17.jpg","2","","","","","","","","","","","","","","","","","","","","","","","","",""
"null","","html-keyboard-response","123","1298129","0.0-122.0","A1C0H8G0YI15MN","<p style=""font-size: 48px;"">+</p>","","","","","null","allTrialResponses","1500","1","11","img_art/17.jpg","36","No leaves on the trees covering the walkway","Spencer,Garrett,Alexis,Noah,Cameron,Nicholas","Love the colors, the flow, like a strange storm or tree off the balcony,50,120,20","I like the way the colors were used behind the tree. Makes the image colorful and interesting.,30,180,20","This makes me feel inspired and happy. I love everything about this portrait,45,140,20","feel close to nature,30,260,20","doorways and trees are pleasant,30,60,20","Nice colors, shapes, flow,31,240,20","Cameron","doorways and trees are pleasant,30,60,20","Spencer","Love the colors, the flow, like a strange storm or tree off the balcony,50,120,20","Alexis","This makes me feel inspired and happy. I love everything about this portrait,45,140,20","2"
"33425","","survey-text","124","1331566","0.0-123.0-0.0","A1C0H8G0YI15MN","","","","{""Q0"":""Black mold is covering everything""}","","","","","","","","","","","","","","","","","","","","","","",""
"6347.300000011921","","image-slider-response","125","1337917","0.0-124.0","A1C0H8G0YI15MN","","","","","17","","","","","","","","","","","","","","","","","","","","","",""
"null","","image-button-response","126","1342923","0.0-125.0","A1C0H8G0YI15MN","img_art/15.jpg","null","","","","","","","","","","","","","","","","","","","","","","","","",""
"21748","","image-button-response","127","1364676","0.0-126.0","A1C0H8G0YI15MN","img_art/15.jpg","4","","","","","","","","","","","","","","","","","","","","","","","","",""
"5406","","image-button-response","128","1370087","0.0-127.0-0.0","A1C0H8G0YI15MN","img_art/15.jpg","3","","","","","","","","","","","","","","","","","","","","","","","","",""
"7181","","image-button-response","129","1377273","0.0-128.0-0.0","A1C0H8G0YI15MN","img_art/15.jpg","5","","","","","","","","","","","","","","","","","","","","","","","","",""
"null","","html-keyboard-response","130","1377776","0.0-129.0","A1C0H8G0YI15MN","<p style=""font-size: 48px;"">+</p>","","","","","null","allTrialResponses","500","1","12","img_art/15.jpg","17","Black mold is covering everything","Spencer,Mitchell,Alexis,Marcus,Cameron,Gabriel","Pretty, like in a field of poppies,19,120,20","ants on the ground playing with bubble gum. They may be thinking of how they can use it to build something,-30,180,20","it is dark and gloomy,-9,140,20","Interesting, but don't really like it. Gloomy.,-10,60,20","This one reminds me of a postage stamp, but branches and leaves. Kind of fun.,15,60,20","i kinda like this one but wouldnt buy it for myself,17,160,20","Cameron","This one reminds me of a postage stamp, but branches and leaves. Kind of fun.,15,60,20","Marcus","Interesting, but don't really like it. Gloomy.,-10,60,20","Gabriel","i kinda like this one but wouldnt buy it for myself,17,160,20","2"
"35377","","survey-text","131","1413164","0.0-130.0-0.0","A1C0H8G0YI15MN","","","","{""Q0"":""Elvis has left the house and forgot to take this""}","","","","","","","","","","","","","","","","","","","","","","",""
"4934.5","","image-slider-response","132","1418103","0.0-131.0","A1C0H8G0YI15MN","","","","","45","","","","","","","","","","","","","","","","","","","","","",""
"null","","image-button-response","133","1423109","0.0-132.0","A1C0H8G0YI15MN","img_art/10.jpg","null","","","","","","","","","","","","","","","","","","","","","","","","",""
"17699","","image-button-response","134","1440813","0.0-133.0","A1C0H8G0YI15MN","img_art/10.jpg","4","","","","","","","","","","","","","","","","","","","","","","","","",""
"3908","","image-button-response","135","1444727","0.0-134.0-0.0","A1C0H8G0YI15MN","img_art/10.jpg","1","","","","","","","","","","","","","","","","","","","","","","","","",""
"1791","","image-button-response","136","1446523","0.0-135.0-0.0","A1C0H8G0YI15MN","img_art/10.jpg","2","","","","","","","","","","","","","","","","","","","","","","","","",""
"null","","html-keyboard-response","137","1447527","0.0-136.0","A1C0H8G0YI15MN","<p style=""font-size: 48px;"">+</p>","","","","","null","allTrialResponses","1000","1","13","img_art/10.jpg","45","Elvis has left the house and forgot to take this","Taylor,Andrew,Aaron,Marcus,Cameron,Gabriel","The roller coaster from hell !!!,-10,200,20","Makes me think of the exhilaration of a roller coaster,31,160,20","I like how simple but intricate it is.,30,20,20","This makes me think of a city, specifically London.,20,60,20","artistic cello piece?,30,60,20","reminds me of a violin,9,160,20","Cameron","artistic cello piece?,30,60,20","Andrew","Makes me think of the exhilaration of a roller coaster,31,160,20","Aaron","I like how simple but intricate it is.,30,20,20","2"
"44066","","survey-text","138","1491603","0.0-137.0-0.0","A1C0H8G0YI15MN","","","","{""Q0"":""A goat in a trench coat investigating a dead body""}","","","","","","","","","","","","","","","","","","","","","","",""
"6524.899999976158","","image-slider-response","139","1498132","0.0-138.0","A1C0H8G0YI15MN","","","","","-31","","","","","","","","","","","","","","","","","","","","","",""
"null","","image-button-response","140","1503139","0.0-139.0","A1C0H8G0YI15MN","img_art/28.jpg","null","","","","","","","","","","","","","","","","","","","","","","","","",""
"15624","","image-button-response","141","1518767","0.0-140.0","A1C0H8G0YI15MN","img_art/28.jpg","4","","","","","","","","","","","","","","","","","","","","","","","","",""
"8386","","image-button-response","142","1527158","0.0-141.0-0.0","A1C0H8G0YI15MN","img_art/28.jpg","0","","","","","","","","","","","","","","","","","","","","","","","","",""
"2348","","image-button-response","143","1529513","0.0-142.0-0.0","A1C0H8G0YI15MN","img_art/28.jpg","3","","","","","","","","","","","","","","","","","","","","","","","","",""
"null","","html-keyboard-response","144","1530016","0.0-143.0","A1C0H8G0YI15MN","<p style=""font-size: 48px;"">+</p>","","","","","null","allTrialResponses","500","1","14","img_art/28.jpg","-31","A goat in a trench coat investigating a dead body","Brett,Andrew,Aaron,Matthew,Cameron,Juan","Overpopulated city,35,360,20","Doesn't give me an emotional response,0,160,20","It's drab and looks like stereotypical abstract art.,-30,20,20","Normally don't react well to abstract art, but it looks almost like something's there.,28,120,20","dislike the colors. it looks like a bike, but misshapen wheels like it was wrecked.,-10,60,20","It's such a blah piece and way too abstract.,-50,260,20","Cameron","dislike the colors. it looks like a bike, but misshapen wheels like it was wrecked.,-10,60,20","Brett","Overpopulated city,35,360,20","Matthew","Normally don't react well to abstract art, but it looks almost like something's there.,28,120,20","2"
"42004","","survey-text","145","1572034","0.0-144.0-0.0","A1C0H8G0YI15MN","","","","{""Q0"":""The Mars rover snaps another photo""}","","","","","","","","","","","","","","","","","","","","","","",""
"6290.200000017881","","image-slider-response","146","1578328","0.0-145.0","A1C0H8G0YI15MN","","","","","-29","","","","","","","","","","","","","","","","","","","","","",""
"null","","image-button-response","147","1583334","0.0-146.0","A1C0H8G0YI15MN","img_art/7.jpg","null","","","","","","","","","","","","","","","","","","","","","","","","",""
"10124","","image-button-response","148","1593462","0.0-147.0","A1C0H8G0YI15MN","img_art/7.jpg","5","","","","","","","","","","","","","","","","","","","","","","","","",""
"2272","","image-button-response","149","1595738","0.0-148.0-0.0","A1C0H8G0YI15MN","img_art/7.jpg","1","","","","","","","","","","","","","","","","","","","","","","","","",""
"1948","","image-button-response","150","1597692","0.0-149.0-0.0","A1C0H8G0YI15MN","img_art/7.jpg","2","","","","","","","","","","","","","","","","","","","","","","","","",""
"null","","html-keyboard-response","151","1598695","0.0-150.0","A1C0H8G0YI15MN","<p style=""font-size: 48px;"">+</p>","","","","","null","allTrialResponses","1000","1","15","img_art/7.jpg","-29","The Mars rover snaps another photo","Brett,Jason,Peter,Matthew,Cameron,Jesus","No particular reaction to this,10,360,20","Boring  and lacks color,-11,20,20","It's just like sand from the beach,2,320,20","landscape of amrs, yawn.,-25,120,20","tracks in dirt?,-15,60,20","Is simple in color and texture,11,100,20","Jesus","Is simple in color and texture,11,100,20","Jason","Boring  and lacks color,-11,20,20","Peter","It's just like sand from the beach,2,320,20","2"
"11401","","survey-text","152","1610116","0.0-151.0-0.0","A1C0H8G0YI15MN","","","","{""Q0"":""course""}","","","","","","","","","","","","","","","","","","","","","","",""
"66041","","survey-text","153","1676160","0.0-152.0-0.0","A1C0H8G0YI15MN","","","","{""Q0"":""The horizon laying on one's side through a contaminated lens.""}","","","","","","","","","","","","","","","","","","","","","","",""
"9469.09999999404","","image-slider-response","154","1685633","0.0-153.0","A1C0H8G0YI15MN","","","","","-23","","","","","","","","","","","","","","","","","","","","","",""
"null","","image-button-response","155","1690641","0.0-154.0","A1C0H8G0YI15MN","img_art/13.jpg","null","","","","","","","","","","","","","","","","","","","","","","","","",""
"3827","","image-button-response","156","1694472","0.0-155.0","A1C0H8G0YI15MN","img_art/13.jpg","2","","","","","","","","","","","","","","","","","","","","","","","","",""
"5610","","image-button-response","157","1700086","0.0-156.0-0.0","A1C0H8G0YI15MN","img_art/13.jpg","3","","","","","","","","","","","","","","","","","","","","","","","","",""
"1995","","image-button-response","158","1702086","0.0-157.0-0.0","A1C0H8G0YI15MN","img_art/13.jpg","4","","","","","","","","","","","","","","","","","","","","","","","","",""
"null","","html-keyboard-response","159","1702590","0.0-158.0","A1C0H8G0YI15MN","<p style=""font-size: 48px;"">+</p>","","","","","null","allTrialResponses","500","1","16","img_art/13.jpg","-23","The horizon laying on one's side through a contaminated lens.","Nathan,Jason,Peter,Dakota,Isaac,Jesus","While it is a bit basic and doesn't speak to me much, I like the feeling it gives,40,200,20","Like the color choices,7,20,20","Reminds me of the aquarium,4,320,20","water on my shower curtain - I feel refreshed, renewed,9,280,20","The colors are okay but I don't like the shapes here.,-18,280,20","I enjoy the cool colors mixed together,31,100,20","Peter","Reminds me of the aquarium,4,320,20","Dakota","water on my shower curtain - I feel refreshed, renewed,9,280,20","Isaac","The colors are okay but I don't like the shapes here.,-18,280,20","2"
"51945","","survey-text","160","1754549","0.0-159.0-0.0","A1C0H8G0YI15MN","","","","{""Q0"":""The waiter is pouring my wine into a decanter""}","","","","","","","","","","","","","","","","","","","","","","",""
"4738.5999999940395","","image-slider-response","161","1759292","0.0-160.0","A1C0H8G0YI15MN","","","","","16","","","","","","","","","","","","","","","","","","","","","",""
"null","","image-button-response","162","1764297","0.0-161.0","A1C0H8G0YI15MN","img_art/2.jpg","null","","","","","","","","","","","","","","","","","","","","","","","","",""
"27160","","image-button-response","163","1791461","0.0-162.0","A1C0H8G0YI15MN","img_art/2.jpg","5","","","","","","","","","","","","","","","","","","","","","","","","",""
"4045","","image-button-response","164","1795512","0.0-163.0-0.0","A1C0H8G0YI15MN","img_art/2.jpg","3","","","","","","","","","","","","","","","","","","","","","","","","",""
"2262","","image-button-response","165","1797781","0.0-164.0-0.0","A1C0H8G0YI15MN","img_art/2.jpg","0","","","","","","","","","","","","","","","","","","","","","","","","",""
"null","","html-keyboard-response","166","1798786","0.0-165.0","A1C0H8G0YI15MN","<p style=""font-size: 48px;"">+</p>","","","","","null","allTrialResponses","1000","1","17","img_art/2.jpg","16","The waiter is pouring my wine into a decanter","Connor,William,Peter,Dakota,Isaac,Kevin","There is an odd face here that is creepy,-4,240,20","I like the colors,22,380,20","I don't feel indifferent,4,320,20","active and kinetic- simplified,14,280,20","Not sure what is happening. I'm not a big fan of the colors but they don't bother me either.,1,280,20","That looks look a cartoon character of some kind.,11,320,20","Kevin","That looks look a cartoon character of some kind.,11,320,20","Dakota","active and kinetic- simplified,14,280,20","Connor","There is an odd face here that is creepy,-4,240,20","2"
"51133","","survey-text","167","1849940","0.0-166.0-0.0","A1C0H8G0YI15MN","","","","{""Q0"":""The heat sensors have located a man with a huge belly button""}","","","","","","","","","","","","","","","","","","","","","","",""
"4854.5","","image-slider-response","168","1854798","0.0-167.0","A1C0H8G0YI15MN","","","","","-25","","","","","","","","","","","","","","","","","","","","","",""
"null","","image-button-response","169","1859804","0.0-168.0","A1C0H8G0YI15MN","img_art/1.jpg","null","","","","","","","","","","","","","","","","","","","","","","","","",""
"9215","","image-button-response","170","1869022","0.0-169.0","A1C0H8G0YI15MN","img_art/1.jpg","3","","","","","","","","","","","","","","","","","","","","","","","","",""
"14540","","image-button-response","171","1883567","0.0-170.0-0.0","A1C0H8G0YI15MN","img_art/1.jpg","1","","","","","","","","","","","","","","","","","","","","","","","","",""
"3525","","image-button-response","172","1887097","0.0-171.0-0.0","A1C0H8G0YI15MN","img_art/1.jpg","2","","","","","","","","","","","","","","","","","","","","","","","","",""
"null","","html-keyboard-response","173","1888101","0.0-172.0","A1C0H8G0YI15MN","<p style=""font-size: 48px;"">+</p>","","","","","null","allTrialResponses","1000","1","18","img_art/1.jpg","-25","The heat sensors have located a man with a huge belly button","Connor,Tyler,John,Dakota,Colton,Kevin","Love the coloration and abstract figures,18,240,20","This looks like the same artist as the first picture, but cropped? Looks incomplete.,28,320,20","Its okay,not great.,1,120,20","soft and touchable, muddled,15,280,20","the colors are nice,8,220,20","I cant make anything of this one.,-7,320,20","Dakota","soft and touchable, muddled,15,280,20","Tyler","This looks like the same artist as the first picture, but cropped? Looks incomplete.,28,320,20","John","Its okay,not great.,1,120,20","2"
"139557","","survey-text","174","2027673","0.0-173.0-0.0","A1C0H8G0YI15MN","","","","{""Q0"":""Unusual impressions of faces and buildings""}","","","","","","","","","","","","","","","","","","","","","","",""
"5196.5999999940395","","image-slider-response","175","2032873","0.0-174.0","A1C0H8G0YI15MN","","","","","15","","","","","","","","","","","","","","","","","","","","","",""
"null","","image-button-response","176","2037879","0.0-175.0","A1C0H8G0YI15MN","img_art/8.jpg","null","","","","","","","","","","","","","","","","","","","","","","","","",""
"1982","","image-button-response","177","2039865","0.0-176.0","A1C0H8G0YI15MN","img_art/8.jpg","1","","","","","","","","","","","","","","","","","","","","","","","","",""
"9597","","image-button-response","178","2049466","0.0-177.0-0.0","A1C0H8G0YI15MN","img_art/8.jpg","2","","","","","","","","","","","","","","","","","","","","","","","","",""
"7773","","image-button-response","179","2057246","0.0-178.0-0.0","A1C0H8G0YI15MN","img_art/8.jpg","5","","","","","","","","","","","","","","","","","","","","","","","","",""
"null","","html-keyboard-response","180","2057749","0.0-179.0","A1C0H8G0YI15MN","<p style=""font-size: 48px;"">+</p>","","","","","null","allTrialResponses","500","1","19","img_art/8.jpg","15","Unusual impressions of faces and buildings","Angel,Tyler,John,Dakota,Justin,Paul","The angle makes it kind of disorienting but I enjoy the fantastical colors and imagery. It's like a dream.,10,180,20","The composition is striking, and some of the images are quite dramatic,11,320,20","I like how the more you like at it there are more things to discover.Very creative.,33,120,20","chaotic and disassembled,-8,280,20","Interesting to look at, there are many things happening in the painting.,32,280,20","The faces in the upper left show agony and contrast with the geometric shapes too much,-31,300,20","Tyler","The composition is striking, and some of the images are quite dramatic,11,320,20","John","I like how the more you like at it there are more things to discover.Very creative.,33,120,20","Paul","The faces in the upper left show agony and contrast with the geometric shapes too much,-31,300,20","2"
"48344","","survey-text","181","2106106","0.0-180.0-0.0","A1C0H8G0YI15MN","","","","{""Q0"":""The spring flows freely""}","","","","","","","","","","","","","","","","","","","","","","",""
"5124.899999976158","","image-slider-response","182","2111235","0.0-181.0","A1C0H8G0YI15MN","","","","","29","","","","","","","","","","","","","","","","","","","","","",""
"null","","image-button-response","183","2116241","0.0-182.0","A1C0H8G0YI15MN","img_art/24.jpg","null","","","","","","","","","","","","","","","","","","","","","","","","",""
"244","","image-button-response","184","2116490","0.0-183.0","A1C0H8G0YI15MN","img_art/24.jpg","0","","","","","","","","","","","","","","","","","","","","","","","","",""
"12169","","image-button-response","185","2128663","0.0-184.0-0.0","A1C0H8G0YI15MN","img_art/24.jpg","5","","","","","","","","","","","","","","","","","","","","","","","","",""
"3870","","image-button-response","186","2132538","0.0-185.0-0.0","A1C0H8G0YI15MN","img_art/24.jpg","2","","","","","","","","","","","","","","","","","","","","","","","","",""
"null","","html-keyboard-response","187","2133040","0.0-186.0","A1C0H8G0YI15MN","<p style=""font-size: 48px;"">+</p>","","","","","null","allTrialResponses","500","1","20","img_art/24.jpg","29","The spring flows freely","Kyle,Tyler,John,Joseph,Jacob,Paul","This one is nice because it reminds me of nature,18,340,20","Exceedingly garish,-19,320,20","Beautiful.Nice use of colors and invokes feelings of serene and peace,40,120,20","It looks like a poor dead bunny in a field of flowers. I don't want the bunny to be dead.,-37,220,20","Vibrant, beautiful depiction.,50,340,20","It looks alive, like I can hear the water flowing,41,300,20","Kyle","This one is nice because it reminds me of nature,18,340,20","Paul","It looks alive, like I can hear the water flowing,41,300,20","John","Beautiful.Nice use of colors and invokes feelings of serene and peace,40,120,20","2"
"6955","","survey-text","188","2140022","0.0-187.0-0.0","A1C0H8G0YI15MN","","","","{""Q0"":""we""}","","","","","","","","","","","","","","","","","","","","","","",""
"32183","","survey-text","189","2172208","0.0-188.0-0.0","A1C0H8G0YI15MN","","","","{""Q0"":""Infantile and way too simple""}","","","","","","","","","","","","","","","","","","","","","","",""
"6732","","image-slider-response","190","2178943","0.0-189.0","A1C0H8G0YI15MN","","","","","-47","","","","","","","","","","","","","","","","","","","","","",""
"null","","image-button-response","191","2183948","0.0-190.0","A1C0H8G0YI15MN","img_art/4.jpg","null","","","","","","","","","","","","","","","","","","","","","","","","",""
"9038","","image-button-response","192","2192991","0.0-191.0","A1C0H8G0YI15MN","img_art/4.jpg","5","","","","","","","","","","","","","","","","","","","","","","","","",""
"1443","","image-button-response","193","2194439","0.0-192.0-0.0","A1C0H8G0YI15MN","img_art/4.jpg","2","","","","","","","","","","","","","","","","","","","","","","","","",""
"5833","","image-button-response","194","2200276","0.0-193.0-0.0","A1C0H8G0YI15MN","img_art/4.jpg","1","","","","","","","","","","","","","","","","","","","","","","","","",""
"null","","html-keyboard-response","195","2200780","0.0-194.0","A1C0H8G0YI15MN","<p style=""font-size: 48px;"">+</p>","","","","","null","allTrialResponses","500","1","21","img_art/4.jpg","-47","Infantile and way too simple","Kyle,Miguel,John,Ian,Mason,Paul","It's quite meh to me,0,340,20","I don't like murky colors.,-40,160,20","Extremely simple and like not alot of time was put into it,-20,120,20","I just don't understand this one at all, I do not like it,-43,260,20","ordinary, bland. unmoving.,-6,100,20","The dark yellow color makes me think of mustard, which I dislike,-27,300,20","Paul","The dark yellow color makes me think of mustard, which I dislike,-27,300,20","John","Extremely simple and like not alot of time was put into it,-20,120,20","Miguel","I don't like murky colors.,-40,160,20","2"
"88563","","survey-text","196","2289358","0.0-195.0-0.0","A1C0H8G0YI15MN","","","","{""Q0"":""Riverdance with a thin troop of people""}","","","","","","","","","","","","","","","","","","","","","","",""
"5257.300000011921","","image-slider-response","197","2294619","0.0-196.0","A1C0H8G0YI15MN","","","","","34","","","","","","","","","","","","","","","","","","","","","",""
"null","","image-button-response","198","2299624","0.0-197.0","A1C0H8G0YI15MN","img_art/23.jpg","null","","","","","","","","","","","","","","","","","","","","","","","","",""
"2618","","image-button-response","199","2302246","0.0-198.0","A1C0H8G0YI15MN","img_art/23.jpg","2","","","","","","","","","","","","","","","","","","","","","","","","",""
"16114","","image-button-response","200","2318367","0.0-199.0-0.0","A1C0H8G0YI15MN","img_art/23.jpg","5","","","","","","","","","","","","","","","","","","","","","","","","",""
"3470","","image-button-response","201","2321843","0.0-200.0-0.0","A1C0H8G0YI15MN","img_art/23.jpg","4","","","","","","","","","","","","","","","","","","","","","","","","",""
"null","","html-keyboard-response","202","2322847","0.0-201.0","A1C0H8G0YI15MN","<p style=""font-size: 48px;"">+</p>","","","","","null","allTrialResponses","1000","1","22","img_art/23.jpg","34","Riverdance with a thin troop of people","Jorge,Miguel,John,Malik,Jose,Paul","puzzled with curiosity,31,180,20","Awesome abstraction love it.,30,160,20","Very bright and eye catching.The White silhouettes remind me of people celebrating.,31,120,20","Very intense and unique,3,40,20","This one is awesome, kinda looks like a cake with sprinkles but in a different universe,50,200,20","I like the sharp contrast of the white on the colorful background,27,300,20","John","Very bright and eye catching.The White silhouettes remind me of people celebrating.,31,120,20","Paul","I like the sharp contrast of the white on the colorful background,27,300,20","Jose","This one is awesome, kinda looks like a cake with sprinkles but in a different universe,50,200,20","2"
"21280","","survey-text","203","2344142","0.0-202.0-0.0","A1C0H8G0YI15MN","","","","{""Q0"":""Lost in a complex world""}","","","","","","","","","","","","","","","","","","","","","","",""
"4068.5","","image-slider-response","204","2348215","0.0-203.0","A1C0H8G0YI15MN","","","","","9","","","","","","","","","","","","","","","","","","","","","",""
"null","","image-button-response","205","2353221","0.0-204.0","A1C0H8G0YI15MN","img_art/19.jpg","null","","","","","","","","","","","","","","","","","","","","","","","","",""
"4309","","image-button-response","206","2357534","0.0-205.0","A1C0H8G0YI15MN","img_art/19.jpg","2","","","","","","","","","","","","","","","","","","","","","","","","",""
"9081","","image-button-response","207","2366619","0.0-206.0-0.0","A1C0H8G0YI15MN","img_art/19.jpg","4","","","","","","","","","","","","","","","","","","","","","","","","",""
"6074","","image-button-response","208","2372699","0.0-207.0-0.0","A1C0H8G0YI15MN","img_art/19.jpg","3","","","","","","","","","","","","","","","","","","","","","","","","",""
"null","","html-keyboard-response","209","2373702","0.0-208.0","A1C0H8G0YI15MN","<p style=""font-size: 48px;"">+</p>","","","","","null","allTrialResponses","1000","1","23","img_art/19.jpg","9","Lost in a complex world","Christopher,Eric,John,Luke,Jose,Paul","too much of a mix of lines and shading,-22,160,20","I like the color and the mix of sketches along with paint.,30,100,20","There's alot of elements to it bordering on clutter and chaotic,-20,120,20","it draws my eye and my mind fills in the spaces,14,20,20","I dig the not being able to tell what anything is but knowing everything is supposed to be something,46,200,20","The shapes make me recall a city scene but it looks dirty,-22,300,20","John","There's alot of elements to it bordering on clutter and chaotic,-20,120,20","Jose","I dig the not being able to tell what anything is but knowing everything is supposed to be something,46,200,20","Luke","it draws my eye and my mind fills in the spaces,14,20,20","2"
"30285","","survey-text","210","2404002","0.0-209.0-0.0","A1C0H8G0YI15MN","","","","{""Q0"":""I raise this scalp in surrender""}","","","","","","","","","","","","","","","","","","","","","","",""
"4659.5999999940395","","image-slider-response","211","2408667","0.0-210.0","A1C0H8G0YI15MN","","","","","-32","","","","","","","","","","","","","","","","","","","","","",""
"null","","image-button-response","212","2413673","0.0-211.0","A1C0H8G0YI15MN","img_art/6.jpg","null","","","","","","","","","","","","","","","","","","","","","","","","",""
"1282","","image-button-response","213","2414958","0.0-212.0","A1C0H8G0YI15MN","img_art/6.jpg","0","","","","","","","","","","","","","","","","","","","","","","","","",""
"12592","","image-button-response","214","2427555","0.0-213.0-0.0","A1C0H8G0YI15MN","img_art/6.jpg","4","","","","","","","","","","","","","","","","","","","","","","","","",""
"5633","","image-button-response","215","2433194","0.0-214.0-0.0","A1C0H8G0YI15MN","img_art/6.jpg","1","","","","","","","","","","","","","","","","","","","","","","","","",""
"null","","html-keyboard-response","216","2433698","0.0-215.0","A1C0H8G0YI15MN","<p style=""font-size: 48px;"">+</p>","","","","","null","allTrialResponses","500","1","24","img_art/6.jpg","-32","I raise this scalp in surrender","Robert,Chase,John,Luke,Jose,Cody","Nevermore!  A black raven sitting on a pumpkin. Halloween,-35,360,20","It's a bit bland, but looks like a bird standing.,11,120,20","It makes me stop and think about what the artist is trying to say.It creates a feeling of solitude and tranqulity,30,120,20","i like it but it is very neutral,9,20,20","This could be so many different things. I saw a bird first but then it looks like a needle going into skin,34,200,20","Birds are cool but I don't love it,10,180,20","Robert","Nevermore!  A black raven sitting on a pumpkin. Halloween,-35,360,20","Jose","This could be so many different things. I saw a bird first but then it looks like a needle going into skin,34,200,20","Chase","It's a bit bland, but looks like a bird standing.,11,120,20","2"
"80471","","survey-text","217","2514185","0.0-216.0-0.0","A1C0H8G0YI15MN","","","","{""Q0"":""Drab colors and a little planning for a jet sweep in football""}","","","","","","","","","","","","","","","","","","","","","","",""
"3691.2999999821186","","image-slider-response","218","2517880","0.0-217.0","A1C0H8G0YI15MN","","","","","-41","","","","","","","","","","","","","","","","","","","","","",""
"null","","image-button-response","219","2522885","0.0-218.0","A1C0H8G0YI15MN","img_art/27.jpg","null","","","","","","","","","","","","","","","","","","","","","","","","",""
"13878","","image-button-response","220","2536767","0.0-219.0","A1C0H8G0YI15MN","img_art/27.jpg","0","","","","","","","","","","","","","","","","","","","","","","","","",""
"6057","","image-button-response","221","2542828","0.0-220.0-0.0","A1C0H8G0YI15MN","img_art/27.jpg","3","","","","","","","","","","","","","","","","","","","","","","","","",""
"4070","","image-button-response","222","2546903","0.0-221.0-0.0","A1C0H8G0YI15MN","img_art/27.jpg","4","","","","","","","","","","","","","","","","","","","","","","","","",""
"null","","html-keyboard-response","223","2547906","0.0-222.0","A1C0H8G0YI15MN","<p style=""font-size: 48px;"">+</p>","","","","","null","allTrialResponses","1000","1","25","img_art/27.jpg","-41","Drab colors and a little planning for a jet sweep in football","Robert,Chase,Cole,Ryan,Jose,Charles","The black sketchy over the colors doesn't fit.,-4,360,20","I don't really see anything to this art.,-5,120,20","Unfinished something?,-30,200,20","I love the childish aspect to it,37,380,20","it's like a weird version of heaven,16,200,20","Nothing stands out,-23,100,20","Robert","The black sketchy over the colors doesn't fit.,-4,360,20","Ryan","I love the childish aspect to it,37,380,20","Jose","it's like a weird version of heaven,16,200,20","2"
"8392","","survey-text","224","2556327","0.0-223.0-0.0","A1C0H8G0YI15MN","","","","{""Q0"":""table""}","","","","","","","","","","","","","","","","","","","","","","",""
"29633","","survey-text","225","2585963","0.0-224.0-0.0","A1C0H8G0YI15MN","","","","{""Q0"":""The head of a mutant donkey""}","","","","","","","","","","","","","","","","","","","","","","",""
"4240.699999988079","","image-slider-response","226","2590208","0.0-225.0","A1C0H8G0YI15MN","","","","","-45","","","","","","","","","","","","","","","","","","","","","",""
"null","","image-button-response","227","2595214","0.0-226.0","A1C0H8G0YI15MN","img_art/5.jpg","null","","","","","","","","","","","","","","","","","","","","","","","","",""
"7054","","image-button-response","228","2602273","0.0-227.0","A1C0H8G0YI15MN","img_art/5.jpg","1","","","","","","","","","","","","","","","","","","","","","","","","",""
"4855","","image-button-response","229","2607134","0.0-228.0-0.0","A1C0H8G0YI15MN","img_art/5.jpg","3","","","","","","","","","","","","","","","","","","","","","","","","",""
"1315","","image-button-response","230","2608457","0.0-229.0-0.0","A1C0H8G0YI15MN","img_art/5.jpg","2","","","","","","","","","","","","","","","","","","","","","","","","",""
"null","","html-keyboard-response","231","2609459","0.0-230.0","A1C0H8G0YI15MN","<p style=""font-size: 48px;"">+</p>","","","","","null","allTrialResponses","1000","1","26","img_art/5.jpg","-45","The head of a mutant donkey","Robert,Alexander,Christian,Ryan,Jose,Grant","This did not do a thing for me.,-50,360,20","Dull pyramid that says nothing.,7,120,20","sorry not my style,-37,140,20","Very good color coordination,41,380,20","Don't love don't hate,8,200,20","This elicits no reaction in me.,0,200,20","Alexander","Dull pyramid that says nothing.,7,120,20","Ryan","Very good color coordination,41,380,20","Christian","sorry not my style,-37,140,20","2"
"39771","","survey-text","232","2649247","0.0-231.0-0.0","A1C0H8G0YI15MN","","","","{""Q0"":""A flower arrangement that's shedding flakes""}","","","","","","","","","","","","","","","","","","","","","","",""
"3258.300000011921","","image-slider-response","233","2652509","0.0-232.0","A1C0H8G0YI15MN","","","","","28","","","","","","","","","","","","","","","","","","","","","",""
"null","","image-button-response","234","2657514","0.0-233.0","A1C0H8G0YI15MN","img_art/14.jpg","null","","","","","","","","","","","","","","","","","","","","","","","","",""
"5494","","image-button-response","235","2663012","0.0-234.0","A1C0H8G0YI15MN","img_art/14.jpg","2","","","","","","","","","","","","","","","","","","","","","","","","",""
"8346","","image-button-response","236","2671362","0.0-235.0-0.0","A1C0H8G0YI15MN","img_art/14.jpg","0","","","","","","","","","","","","","","","","","","","","","","","","",""
"12717","","image-button-response","237","2684085","0.0-236.0-0.0","A1C0H8G0YI15MN","img_art/14.jpg","1","","","","","","","","","","","","","","","","","","","","","","","","",""
"null","","html-keyboard-response","238","2685595","0.0-237.0","A1C0H8G0YI15MN","<p style=""font-size: 48px;"">+</p>","","","","","null","allTrialResponses","1500","1","27","img_art/14.jpg","28","A flower arrangement that's shedding flakes","Bradley,Alexander,Christian,Ryan,Joshua,David","I don't know why, but this piece makes me happy.,20,300,20","Angled, colored, boxy.,10,120,20","medium recalls back to an oriental style,16,140,20","Gorgeous use of water color,50,380,20","This doesn't speak to me on an emotional level,-6,240,20","I like how balanced the piece is with its symmetrical design.,20,340,20","Christian","medium recalls back to an oriental style,16,140,20","Bradley","I don't know why, but this piece makes me happy.,20,300,20","Alexander","Angled, colored, boxy.,10,120,20","2"
"61939","","survey-text","239","2747550","0.0-238.0-0.0","A1C0H8G0YI15MN","","","","{""Q0"":""A brick wall and a paintbrush and someone made a mess""}","","","","","","","","","","","","","","","","","","","","","","",""
"4309.5999999940395","","image-slider-response","240","2751863","0.0-239.0","A1C0H8G0YI15MN","","","","","-34","","","","","","","","","","","","","","","","","","","","","",""
"null","","image-button-response","241","2756869","0.0-240.0","A1C0H8G0YI15MN","img_art/29.jpg","null","","","","","","","","","","","","","","","","","","","","","","","","",""
"5168","","image-button-response","242","2762040","0.0-241.0","A1C0H8G0YI15MN","img_art/29.jpg","2","","","","","","","","","","","","","","","","","","","","","","","","",""
"10458","","image-button-response","243","2772502","0.0-242.0-0.0","A1C0H8G0YI15MN","img_art/29.jpg","1","","","","","","","","","","","","","","","","","","","","","","","","",""
"3442","","image-button-response","244","2775951","0.0-243.0-0.0","A1C0H8G0YI15MN","img_art/29.jpg","3","","","","","","","","","","","","","","","","","","","","","","","","",""
"null","","html-keyboard-response","245","2776955","0.0-244.0","A1C0H8G0YI15MN","<p style=""font-size: 48px;"">+</p>","","","","","null","allTrialResponses","1000","1","28","img_art/29.jpg","-34","A brick wall and a paintbrush and someone made a mess","Bradley,Alexander,Christian,Jake,Samuel,Jonathan","It's creative. It's just not my thing.,-32,300,20","Tested and failed a lot of ideas.,-20,120,20","love the texture, i don't know, i just really like it (and the paintbrush adds a nice touch),44,140,20","This is very gross and odd looking.,-8,360,20","too challenging to comprehend,-28,400,20","This one feels scary in a good way,30,140,20","Christian","love the texture, i don't know, i just really like it (and the paintbrush adds a nice touch),44,140,20","Alexander","Tested and failed a lot of ideas.,-20,120,20","Jake","This is very gross and odd looking.,-8,360,20","2"
"68078","","survey-text","246","2845054","0.0-245.0-0.0","A1C0H8G0YI15MN","","","","{""Q0"":""Muted and dull. Trees, buildings and benches or shrubs.  To small to be vehicles.""}","","","","","","","","","","","","","","","","","","","","","","",""
"6301.600000023842","","image-slider-response","247","2851359","0.0-246.0","A1C0H8G0YI15MN","","","","","-38","","","","","","","","","","","","","","","","","","","","","",""
"null","","image-button-response","248","2856366","0.0-247.0","A1C0H8G0YI15MN","img_art/26.jpg","null","","","","","","","","","","","","","","","","","","","","","","","","",""
"9953","","image-button-response","249","2866323","0.0-248.0","A1C0H8G0YI15MN","img_art/26.jpg","5","","","","","","","","","","","","","","","","","","","","","","","","",""
"4459","","image-button-response","250","2870787","0.0-249.0-0.0","A1C0H8G0YI15MN","img_art/26.jpg","2","","","","","","","","","","","","","","","","","","","","","","","","",""
"8070","","image-button-response","251","2878862","0.0-250.0-0.0","A1C0H8G0YI15MN","img_art/26.jpg","1","","","","","","","","","","","","","","","","","","","","","","","","",""
"null","","html-keyboard-response","252","2880366","0.0-251.0","A1C0H8G0YI15MN","<p style=""font-size: 48px;"">+</p>","","","","","null","allTrialResponses","1500","1","29","img_art/26.jpg","-38","Muted and dull. Trees, buildings and benches or shrubs.  To small to be vehicles.","Evan,Alexander,Christian,Jake,Thomas,Timothy","It feels simple and pretty,12,140,20","Confusing park picture.,8,120,20","love the ""lowkey"" vibrant colors that are colorful but at the same time greyscale,12,140,20","It's not ugly but not beautiful at all.,-3,360,20","It feels almost unfinished, but I like the color palette,9,220,20","Very pleasent little scene,40,240,20","Timothy","Very pleasent little scene,40,240,20","Christian","love the ""lowkey"" vibrant colors that are colorful but at the same time greyscale,12,140,20","Alexander","Confusing park picture.,8,120,20","2"
"19773","","survey-text","253","2900152","0.0-252.0-0.0","A1C0H8G0YI15MN","","","","{""Q0"":""A bombed out city""}","","","","","","","","","","","","","","","","","","","","","","",""
"5395.5999999940395","","image-slider-response","254","2905557","0.0-253.0","A1C0H8G0YI15MN","","","","","-29","","","","","","","","","","","","","","","","","","","","","",""
"null","","image-button-response","255","2910566","0.0-254.0","A1C0H8G0YI15MN","img_art/20.jpg","null","","","","","","","","","","","","","","","","","","","","","","","","",""
"2607","","image-button-response","256","2913177","0.0-255.0","A1C0H8G0YI15MN","img_art/20.jpg","0","","","","","","","","","","","","","","","","","","","","","","","","",""
"4886","","image-button-response","257","2918067","0.0-256.0-0.0","A1C0H8G0YI15MN","img_art/20.jpg","3","","","","","","","","","","","","","","","","","","","","","","","","",""
"4278","","image-button-response","258","2922350","0.0-257.0-0.0","A1C0H8G0YI15MN","img_art/20.jpg","5","","","","","","","","","","","","","","","","","","","","","","","","",""
"null","","html-keyboard-response","259","2923854","0.0-258.0","A1C0H8G0YI15MN","<p style=""font-size: 48px;"">+</p>","","","","","null","allTrialResponses","1500","1","30","img_art/20.jpg","-29","A bombed out city","Jeffrey,Alexander,Christian,Nathaniel,Jesse,Timothy","looks like an auto accident,-30,40,20","The beach and industry.,12,120,20","reminds me of georgia o'keeffe's skull,22,140,20","A bit hectic, but it does have a bit of coolness to it,6,220,20","I do at least like the dark colors blending,6,80,20","Makes me think if a car crash or some sort of disaster,-20,240,20","Jeffrey","looks like an auto accident,-30,40,20","Nathaniel","A bit hectic, but it does have a bit of coolness to it,6,220,20","Timothy","Makes me think if a car crash or some sort of disaster,-20,240,20","2"
"3730","","image-button-response_instructions","260","2927601","0.0-259.0","A1C0H8G0YI15MN","","0","instructions","","","","","","","","","","","","","","","","","","","","","","","",""
"1990","","image-button-response","261","2929608","0.0-260.0","A1C0H8G0YI15MN","","0","","","","","","","","","","","","","","","","","","","","","","","","",""
