"rt","url","trial_type","trial_index","time_elapsed","internal_node_id","participant_id","stimulus","button_pressed","Name","responses","response","key_press","variableName","fixationTime","condition","trial","photo","subjectRating","subjectResponse","agentsNames","agent_1_Response","agent_2_Response","agent_3_Response","agent_4_Response","agent_5_Response","agent_6_Response","kept_1_name","kept_1_response","kept_2_name","kept_2_response","kept_3_name","kept_3_response","errorCounter"
"63052","external_page_harvard.html","external-html","0","63414","0.0-0.0","A1CKA1IAWYKASQ","","","","","","","","","","","","","","","","","","","","","","","","","","",""
"1787","","image-button-response","1","65204","0.0-1.0","A1CKA1IAWYKASQ","","0","","","","","","","","","","","","","","","","","","","","","","","","",""
"6279","","image-button-response","2","71490","0.0-2.0-0.0","A1CKA1IAWYKASQ","","1","phone","","","","","","","","","","","","","","","","","","","","","","","",""
"8258","","survey-text","3","79752","0.0-3.0-0.0","A1CKA1IAWYKASQ","","","","{""Q0"":""A1CKA1IAWYKASQ""}","","","","","","","","","","","","","","","","","","","","","","",""
"15424","","image-button-response_instructions","4","95179","0.0-4.0","A1CKA1IAWYKASQ","","0","instructions","","","","","","","","","","","","","","","","","","","","","","","",""
"46526","","image-button-response_instructions","5","141707","0.0-5.0","A1CKA1IAWYKASQ","img_art/ins/popularity/ins1.png","0","instructions","","","","","","","","","","","","","","","","","","","","","","","",""
"9606","","image-button-response_instructions","6","151315","0.0-6.0","A1CKA1IAWYKASQ","img_art/ins/popularity/ins2.png","0","instructions","","","","","","","","","","","","","","","","","","","","","","","",""
"4743","","image-button-response_instructions","7","156060","0.0-7.0","A1CKA1IAWYKASQ","img_art/ins/popularity/ins2Extreme.png","0","instructions","","","","","","","","","","","","","","","","","","","","","","","",""
"6350","","image-button-response_instructions","8","162412","0.0-8.0","A1CKA1IAWYKASQ","img_art/ins/popularity/ins3KEEPpop.PNG","0","instructions","","","","","","","","","","","","","","","","","","","","","","","",""
"3276","","image-button-response_instructions","9","165690","0.0-9.0","A1CKA1IAWYKASQ","img_art/ins/popularity/ins3ANamepop.PNG","0","instructions","","","","","","","","","","","","","","","","","","","","","","","",""
"9281","","image-button-response_instructions","10","174973","0.0-10.0","A1CKA1IAWYKASQ","img_art/ins/popularity/ins3ARatingpop.png","0","instructions","","","","","","","","","","","","","","","","","","","","","","","",""
"9788","","image-button-response_instructions","11","184763","0.0-11.0","A1CKA1IAWYKASQ","img_art/ins/popularity/ins3ATextpop.png","0","instructions","","","","","","","","","","","","","","","","","","","","","","","",""
"8813","","image-button-response_instructions","12","193579","0.0-12.0","A1CKA1IAWYKASQ","img_art/ins/popularity/ins3ALikespop.png","0","instructions","","","","","","","","","","","","","","","","","","","","","","","",""
"21237","","image-button-response_instructions","13","214819","0.0-13.0","A1CKA1IAWYKASQ","img_art/ins/popularity/ins3KEEPpop.PNG","0","instructions","","","","","","","","","","","","","","","","","","","","","","","",""
"4102","","image-button-response_instructions","14","218923","0.0-14.0","A1CKA1IAWYKASQ","img_art/ins/popularity/ins3_5RED.png","0","instructions","","","","","","","","","","","","","","","","","","","","","","","",""
"2237","","image-button-response_instructions","15","221163","0.0-15.0","A1CKA1IAWYKASQ","img_art/ins/popularity/ins3KEEPpop.PNG","0","instructions","","","","","","","","","","","","","","","","","","","","","","","",""
"8519","","image-button-response_instructions","16","229684","0.0-16.0","A1CKA1IAWYKASQ","img_art/ins/popularity/ins4KEEPpop.PNG","0","instructions","","","","","","","","","","","","","","","","","","","","","","","",""
"8118","","image-button-response_instructions","17","237804","0.0-17.0","A1CKA1IAWYKASQ","img_art/ins/popularity/ins5KEEPpop.PNG","0","instructions","","","","","","","","","","","","","","","","","","","","","","","",""
"2422","","image-button-response_instructions","18","240227","0.0-18.0","A1CKA1IAWYKASQ","","0","instructions","","","","","","","","","","","","","","","","","","","","","","","",""
"8162","","survey-text","19","248428","0.0-19.0-0.0","A1CKA1IAWYKASQ","","","","{""Q0"":""but""}","","","","","","","","","","","","","","","","","","","","","","",""
"17621","","survey-text","20","266053","0.0-20.0-0.0","A1CKA1IAWYKASQ","","","","{""Q0"":""I love the brushwork.""}","","","","","","","","","","","","","","","","","","","","","","",""
"3554","","image-slider-response","21","269612","0.0-21.0","A1CKA1IAWYKASQ","","","","","21","","","","","","","","","","","","","","","","","","","","","",""
"null","","image-button-response","22","274617","0.0-22.0","A1CKA1IAWYKASQ","img_art/ins/1.jpg","null","","","","","","","","","","","","","","","","","","","","","","","","",""
"15856","","image-button-response","23","290478","0.0-23.0","A1CKA1IAWYKASQ","img_art/ins/1.jpg","5","","","","","","","","","","","","","","","","","","","","","","","","",""
"3050","","image-button-response","24","293536","0.0-24.0-0.0","A1CKA1IAWYKASQ","img_art/ins/1.jpg","3","","","","","","","","","","","","","","","","","","","","","","","","",""
"3847","","image-button-response","25","297390","0.0-25.0-0.0","A1CKA1IAWYKASQ","img_art/ins/1.jpg","1","","","","","","","","","","","","","","","","","","","","","","","","",""
"null","","html-keyboard-response","26","298423","0.0-26.0","A1CKA1IAWYKASQ","<p style=""font-size: 48px;"">+</p>","","","","","null","allTrialResponses","1000","1","-2","img_art/ins/1.jpg","21","I love the brushwork.","Adam,Alex,Ben,Carl,Daniel,Jack","Seems like doodles,-20,20,20","very creative work.,36,40,20","This color reminds me of poo,-46,60,20","very calming artwork,42,80,20","It looks like a murder scene.,-48,100,20","I like the sophisticated brushwork,40,120,20","Jack","I like the sophisticated brushwork,40,120,20","Carl","very calming artwork,42,80,20","Alex","very creative work.,36,40,20","0"
"11895","","survey-text","27","310325","0.0-27.0-0.0","A1CKA1IAWYKASQ","","","","{""Q0"":""This art is creative""}","","","","","","","","","","","","","","","","","","","","","","",""
"4419","","image-slider-response","28","314748","0.0-28.0","A1CKA1IAWYKASQ","","","","","13","","","","","","","","","","","","","","","","","","","","","",""
"2477","","image-button-response","29","319753","0.0-29.0","A1CKA1IAWYKASQ","img_art/ins/2.jpg","1","","","","","","","","","","","","","","","","","","","","","","","","",""
"1424","","image-button-response","30","321181","0.0-30.0","A1CKA1IAWYKASQ","img_art/ins/2.jpg","4","","","","","","","","","","","","","","","","","","","","","","","","",""
"2892","","image-button-response","31","324077","0.0-31.0-0.0","A1CKA1IAWYKASQ","img_art/ins/2.jpg","5","","","","","","","","","","","","","","","","","","","","","","","","",""
"2650","","image-button-response","32","326733","0.0-32.0-0.0","A1CKA1IAWYKASQ","img_art/ins/2.jpg","3","","","","","","","","","","","","","","","","","","","","","","","","",""
"null","","html-keyboard-response","33","328234","0.0-33.0","A1CKA1IAWYKASQ","<p style=""font-size: 48px;"">+</p>","","","","","null","allTrialResponses","1500","1","-1","img_art/ins/2.jpg","13","This art is creative","James,Alex,Kyle,Carl,John,Jack","looks too angry,-50,140,20","I like the blocks of color arrangements,30,40,20","Idk, it is just annoying,-32,180,20","I can feel the artist's passion in it,45,80,20","love the texture of paint,48,160,20","I would never be able to compose a sophisticated pallete like this,48,120,20","John","love the texture of paint,48,160,20","Jack","I would never be able to compose a sophisticated pallete like this,48,120,20","Carl","I can feel the artist's passion in it,45,80,20","0"
"13213","","survey-text","34","341455","0.0-34.0-0.0","A1CKA1IAWYKASQ","","","","{""Q0"":""sophisticated brush work.""}","","","","","","","","","","","","","","","","","","","","","","",""
"6003","","image-slider-response","35","347461","0.0-35.0","A1CKA1IAWYKASQ","","","","","37","","","","","","","","","","","","","","","","","","","","","",""
"3271","","image-button-response","36","352465","0.0-36.0","A1CKA1IAWYKASQ","img_art/ins/3.jpg","4","","","","","","","","","","","","","","","","","","","","","","","","",""
"1128","","image-button-response","37","353597","0.0-37.0","A1CKA1IAWYKASQ","img_art/ins/3.jpg","4","","","","","","","","","","","","","","","","","","","","","","","","",""
"5108","","image-button-response","38","358708","0.0-38.0-0.0","A1CKA1IAWYKASQ","img_art/ins/3.jpg","1","","","","","","","","","","","","","","","","","","","","","","","","",""
"853","","image-button-response","39","359565","0.0-39.0-0.0","A1CKA1IAWYKASQ","img_art/ins/3.jpg","0","","","","","","","","","","","","","","","","","","","","","","","","",""
"null","","html-keyboard-response","40","360566","0.0-40.0","A1CKA1IAWYKASQ","<p style=""font-size: 48px;"">+</p>","","","","","null","allTrialResponses","1000","1","0","img_art/ins/3.jpg","37","sophisticated brush work.","Mike,Sam,Ron,Carl,John,Jack","enjoy the different shades of blue,22,200,20","I can feel a rainy day from this painting,18,240,20","It looks depressing,-26,220,20","It's an alright work,15,80,20","I like the overlapping of brushes,41,160,20","I feel connected to the artist,40,120,20","John","I like the overlapping of brushes,41,160,20","Sam","I can feel a rainy day from this painting,18,240,20","Mike","enjoy the different shades of blue,22,200,20","0"
"6878","","image-button-response_instructions","41","367452","0.0-41.0","A1CKA1IAWYKASQ","","0","instructions","","","","","","","","","","","","","","","","","","","","","","","",""
"32470","","survey-likert","42","399926","0.0-42.0-0.0","A1CKA1IAWYKASQ","","","","{""Q0"":"""",""Q1"":0,""Q2"":0}","","","","","","","","","","","","","","","","","","","","","","",""
"7477","","survey-likert","43","413092","0.0-42.1-0.1","A1CKA1IAWYKASQ","","","","{""Q0"":"""",""Q1"":1,""Q2"":0}","","","","","","","","","","","","","","","","","","","","","","",""
"3102","","survey-likert","44","418701","0.0-42.2-0.2","A1CKA1IAWYKASQ","","","","{""Q0"":"""",""Q1"":0,""Q2"":1}","","","","","","","","","","","","","","","","","","","","","","",""
"4237","","survey-text","45","422948","0.0-43.0-0.0","A1CKA1IAWYKASQ","","","","{""Q0"":""rock""}","","","","","","","","","","","","","","","","","","","","","","",""
"13390","","survey-text","46","436342","0.0-44.0-0.0","A1CKA1IAWYKASQ","","","","{""Q0"":""This art is creative""}","","","","","","","","","","","","","","","","","","","","","","",""
"5270","","image-slider-response","47","441615","0.0-45.0","A1CKA1IAWYKASQ","","","","","29","","","","","","","","","","","","","","","","","","","","","",""
"4170","","image-button-response","48","446652","0.0-46.0","A1CKA1IAWYKASQ","img_art/28.jpg","3","","","","","","","","","","","","","","","","","","","","","","","","",""
"4038","","image-button-response","49","450694","0.0-47.0","A1CKA1IAWYKASQ","img_art/28.jpg","2","","","","","","","","","","","","","","","","","","","","","","","","",""
"940","","image-button-response","50","451639","0.0-48.0-0.0","A1CKA1IAWYKASQ","img_art/28.jpg","5","","","","","","","","","","","","","","","","","","","","","","","","",""
"5050","","image-button-response","51","456694","0.0-49.0-0.0","A1CKA1IAWYKASQ","img_art/28.jpg","3","","","","","","","","","","","","","","","","","","","","","","","","",""
"null","","html-keyboard-response","52","458199","0.0-50.0","A1CKA1IAWYKASQ","<p style=""font-size: 48px;"">+</p>","","","","","null","allTrialResponses","1500","1","1","img_art/28.jpg","29","This art is creative","Benjamin,Caleb,Victor,Edward,Brian,Shane","Colors are too dull.,-30,260,20","White and dark balance is way off- Seems dull.,-33,40,20","Almost looks like child's artwork, sloppy and chaotic,6,340,20","Salvador Dali called and he thinks this looks pretty good,27,60,20","the people kind of scare me in this one,-15,380,20","This is also something I would see in a serious but safe environment,14,80,20","Victor","Almost looks like child's artwork, sloppy and chaotic,6,340,20","Shane","This is also something I would see in a serious but safe environment,14,80,20","Edward","Salvador Dali called and he thinks this looks pretty good,27,60,20","2"
"17663","","survey-text","53","475872","0.0-51.0-0.0","A1CKA1IAWYKASQ","","","","{""Q0"":""This art is cultivated""}","","","","","","","","","","","","","","","","","","","","","","",""
"4419","","image-slider-response","54","480292","0.0-52.0","A1CKA1IAWYKASQ","","","","","3","","","","","","","","","","","","","","","","","","","","","",""
"2710","","image-button-response","55","485295","0.0-53.0","A1CKA1IAWYKASQ","img_art/16.jpg","4","","","","","","","","","","","","","","","","","","","","","","","","",""
"2587","","image-button-response","56","487886","0.0-54.0","A1CKA1IAWYKASQ","img_art/16.jpg","4","","","","","","","","","","","","","","","","","","","","","","","","",""
"1340","","image-button-response","57","489229","0.0-55.0-0.0","A1CKA1IAWYKASQ","img_art/16.jpg","1","","","","","","","","","","","","","","","","","","","","","","","","",""
"4636","","image-button-response","58","493869","0.0-56.0-0.0","A1CKA1IAWYKASQ","img_art/16.jpg","3","","","","","","","","","","","","","","","","","","","","","","","","",""
"null","","html-keyboard-response","59","494871","0.0-57.0","A1CKA1IAWYKASQ","<p style=""font-size: 48px;"">+</p>","","","","","null","allTrialResponses","1000","1","2","img_art/16.jpg","3","This art is cultivated","Dustin,Matthew,Victor,Edward,Brendan,Shane","Upsetting and disturbing. Random bear and indistinguishable objects. None of it goes together. Too chaotic and random,-50,20,20","A lot fo these could abstract or childrens work.,23,120,20","I don't know why, I just don't like it,-28,340,20","It feels lazily done,-9,60,20","cool teddy bear,50,340,20","This looks chaotic,-25,80,20","Brendan","cool teddy bear,50,340,20","Matthew","A lot fo these could abstract or childrens work.,23,120,20","Edward","It feels lazily done,-9,60,20","2"
"32859","","survey-text","60","527742","0.0-58.0-0.0","A1CKA1IAWYKASQ","","","","{""Q0"":""This art is looks like nature.""}","","","","","","","","","","","","","","","","","","","","","","",""
"3524","","image-slider-response","61","531269","0.0-59.0","A1CKA1IAWYKASQ","","","","","-23","","","","","","","","","","","","","","","","","","","","","",""
"2930","","image-button-response","62","536276","0.0-60.0","A1CKA1IAWYKASQ","img_art/15.jpg","3","","","","","","","","","","","","","","","","","","","","","","","","",""
"1047","","image-button-response","63","537326","0.0-61.0","A1CKA1IAWYKASQ","img_art/15.jpg","1","","","","","","","","","","","","","","","","","","","","","","","","",""
"1093","","image-button-response","64","538422","0.0-62.0-0.0","A1CKA1IAWYKASQ","img_art/15.jpg","3","","","","","","","","","","","","","","","","","","","","","","","","",""
"691","","image-button-response","65","539118","0.0-63.0-0.0","A1CKA1IAWYKASQ","img_art/15.jpg","5","","","","","","","","","","","","","","","","","","","","","","","","",""
"null","","html-keyboard-response","66","540621","0.0-64.0","A1CKA1IAWYKASQ","<p style=""font-size: 48px;"">+</p>","","","","","null","allTrialResponses","1500","1","3","img_art/15.jpg","-23","This art is looks like nature.","Luke,Matthew,Tristan,Edward,Brendan,Kyle","it looks like trees but they are up to interpretation,16,20,20","I think of birds, nature, levels of space.,18,120,20","basic colors and pleasing shapes providing a calming effect,15,300,20","Reminds me of lilacs,26,60,20","some trees in the forest,15,340,20","I like it as the colors complement each other well,21,340,20","Matthew","I think of birds, nature, levels of space.,18,120,20","Edward","Reminds me of lilacs,26,60,20","Kyle","I like it as the colors complement each other well,21,340,20","2"
"9543","","survey-text","67","550173","0.0-65.0-0.0","A1CKA1IAWYKASQ","","","","{""Q0"":""sophisticated brush work.""}","","","","","","","","","","","","","","","","","","","","","","",""
"4302","","image-slider-response","68","554478","0.0-66.0","A1CKA1IAWYKASQ","","","","","45","","","","","","","","","","","","","","","","","","","","","",""
"4011","","image-button-response","69","559482","0.0-67.0","A1CKA1IAWYKASQ","img_art/12.jpg","4","","","","","","","","","","","","","","","","","","","","","","","","",""
"1274","","image-button-response","70","560760","0.0-68.0","A1CKA1IAWYKASQ","img_art/12.jpg","1","","","","","","","","","","","","","","","","","","","","","","","","",""
"1634","","image-button-response","71","562398","0.0-69.0-0.0","A1CKA1IAWYKASQ","img_art/12.jpg","4","","","","","","","","","","","","","","","","","","","","","","","","",""
"1988","","image-button-response","72","564389","0.0-70.0-0.0","A1CKA1IAWYKASQ","img_art/12.jpg","3","","","","","","","","","","","","","","","","","","","","","","","","",""
"null","","html-keyboard-response","73","565893","0.0-71.0","A1CKA1IAWYKASQ","<p style=""font-size: 48px;"">+</p>","","","","","null","allTrialResponses","1500","1","4","img_art/12.jpg","45","sophisticated brush work.","Brandon,Matthew,Nathan,Edward,Christian,Kyle","I like the cubic feel.,11,320,20","It's boxy, cubist immpressionism? Very ncie.,32,120,20","Kind of interesting, seems almost nostalgic in a way to me.,10,200,20","It looks like old lady upholstery,12,60,20","so many different available interpretations for this, would love to closer.,24,140,20","It's just not my style,-18,340,20","Matthew","It's boxy, cubist immpressionism? Very ncie.,32,120,20","Christian","so many different available interpretations for this, would love to closer.,24,140,20","Edward","It looks like old lady upholstery,12,60,20","2"
"13169","","survey-text","74","579069","0.0-72.0-0.0","A1CKA1IAWYKASQ","","","","{""Q0"":""This art is graceful""}","","","","","","","","","","","","","","","","","","","","","","",""
"2846","","image-slider-response","75","581917","0.0-73.0","A1CKA1IAWYKASQ","","","","","50","","","","","","","","","","","","","","","","","","","","","",""
"null","","image-button-response","76","586921","0.0-74.0","A1CKA1IAWYKASQ","img_art/14.jpg","null","","","","","","","","","","","","","","","","","","","","","","","","",""
"212","","image-button-response","77","587136","0.0-75.0","A1CKA1IAWYKASQ","img_art/14.jpg","5","","","","","","","","","","","","","","","","","","","","","","","","",""
"1544","","image-button-response","78","588687","0.0-76.0-0.0","A1CKA1IAWYKASQ","img_art/14.jpg","4","","","","","","","","","","","","","","","","","","","","","","","","",""
"1588","","image-button-response","79","590277","0.0-77.0-0.0","A1CKA1IAWYKASQ","img_art/14.jpg","1","","","","","","","","","","","","","","","","","","","","","","","","",""
"null","","html-keyboard-response","80","590781","0.0-78.0","A1CKA1IAWYKASQ","<p style=""font-size: 48px;"">+</p>","","","","","null","allTrialResponses","500","1","5","img_art/14.jpg","50","This art is graceful","Devon,Matthew,Dakota,Edward,Christian,Antonio","this would make a very beautiful art project,22,400,20","I like the color tone, it's kind of disturbing.,35,120,20","feels incomplete, poorly planned/executed,-34,280,20","I just really like light and wispy things,33,60,20","medium recalls back to an oriental style,16,140,20","Makes me think of trees and spring. A good feeling,26,220,20","Antonio","Makes me think of trees and spring. A good feeling,26,220,20","Christian","medium recalls back to an oriental style,16,140,20","Matthew","I like the color tone, it's kind of disturbing.,35,120,20","2"
"5455","","survey-text","81","596286","0.0-79.0-0.0","A1CKA1IAWYKASQ","","","","{""Q0"":""sky""}","","","","","","","","","","","","","","","","","","","","","","",""
"18653","","survey-text","82","614941","0.0-80.0-0.0","A1CKA1IAWYKASQ","","","","{""Q0"":""This art is stylish""}","","","","","","","","","","","","","","","","","","","","","","",""
"2014","","image-slider-response","83","616958","0.0-81.0","A1CKA1IAWYKASQ","","","","","32","","","","","","","","","","","","","","","","","","","","","",""
"3483","","image-button-response","84","621964","0.0-82.0","A1CKA1IAWYKASQ","img_art/23.jpg","4","","","","","","","","","","","","","","","","","","","","","","","","",""
"1090","","image-button-response","85","623056","0.0-83.0","A1CKA1IAWYKASQ","img_art/23.jpg","4","","","","","","","","","","","","","","","","","","","","","","","","",""
"1427","","image-button-response","86","624487","0.0-84.0-0.0","A1CKA1IAWYKASQ","img_art/23.jpg","1","","","","","","","","","","","","","","","","","","","","","","","","",""
"1948","","image-button-response","87","626439","0.0-85.0-0.0","A1CKA1IAWYKASQ","img_art/23.jpg","5","","","","","","","","","","","","","","","","","","","","","","","","",""
"null","","html-keyboard-response","88","627941","0.0-86.0","A1CKA1IAWYKASQ","<p style=""font-size: 48px;"">+</p>","","","","","null","allTrialResponses","1500","1","6","img_art/23.jpg","32","This art is stylish","Juan,Matthew,Angel,Richard,Christian,Antonio","This is ugly and weird.,-50,260,20","A line dance, it's really strinkingly beautiful.,50,120,20","I feel positive community and comfort. Singing along at a concert, united with a bunch of strangers through shared joy.,20,180,20","it's OK, but just OK, kind of interesting but I wouldn't spend money on it,4,340,20","love the contrast (was this painted by a left-handed artist?),7,140,20","Like the colors and made me feel happy,23,220,20","Christian","love the contrast (was this painted by a left-handed artist?),7,140,20","Matthew","A line dance, it's really strinkingly beautiful.,50,120,20","Antonio","Like the colors and made me feel happy,23,220,20","2"
"8771","","survey-text","89","636718","0.0-87.0-0.0","A1CKA1IAWYKASQ","","","","{""Q0"":""This art is realistic.""}","","","","","","","","","","","","","","","","","","","","","","",""
"3972","","image-slider-response","90","640693","0.0-88.0","A1CKA1IAWYKASQ","","","","","50","","","","","","","","","","","","","","","","","","","","","",""
"null","","image-button-response","91","645695","0.0-89.0","A1CKA1IAWYKASQ","img_art/17.jpg","null","","","","","","","","","","","","","","","","","","","","","","","","",""
"1136","","image-button-response","92","646835","0.0-90.0","A1CKA1IAWYKASQ","img_art/17.jpg","4","","","","","","","","","","","","","","","","","","","","","","","","",""
"1073","","image-button-response","93","647912","0.0-91.0-0.0","A1CKA1IAWYKASQ","img_art/17.jpg","5","","","","","","","","","","","","","","","","","","","","","","","","",""
"1588","","image-button-response","94","649504","0.0-92.0-0.0","A1CKA1IAWYKASQ","img_art/17.jpg","2","","","","","","","","","","","","","","","","","","","","","","","","",""
"null","","html-keyboard-response","95","651006","0.0-93.0","A1CKA1IAWYKASQ","<p style=""font-size: 48px;"">+</p>","","","","","null","allTrialResponses","1500","1","7","img_art/17.jpg","50","This art is realistic.","Nicholas,Matthew,Mason,Peter,Christian,Antonio","Nice colors, shapes, flow,31,240,20","taste the rainbow, feel the flavor.,23,120,20","Like this one, super creative, calming.,43,100,20","I feel okay , it's like a tree,28,320,20","tree sprouting out of a box (house) the invasion of nature?,39,140,20","Beautiful colors. Made me feel soft and feminine,50,220,20","Christian","tree sprouting out of a box (house) the invasion of nature?,39,140,20","Antonio","Beautiful colors. Made me feel soft and feminine,50,220,20","Mason","Like this one, super creative, calming.,43,100,20","2"
"9802","","survey-text","96","660814","0.0-94.0-0.0","A1CKA1IAWYKASQ","","","","{""Q0"":""This art is pleasing""}","","","","","","","","","","","","","","","","","","","","","","",""
"2412","","image-slider-response","97","663230","0.0-95.0","A1CKA1IAWYKASQ","","","","","24","","","","","","","","","","","","","","","","","","","","","",""
"4310","","image-button-response","98","668233","0.0-96.0","A1CKA1IAWYKASQ","img_art/22.jpg","1","","","","","","","","","","","","","","","","","","","","","","","","",""
"946","","image-button-response","99","669183","0.0-97.0","A1CKA1IAWYKASQ","img_art/22.jpg","1","","","","","","","","","","","","","","","","","","","","","","","","",""
"1108","","image-button-response","100","670296","0.0-98.0-0.0","A1CKA1IAWYKASQ","img_art/22.jpg","4","","","","","","","","","","","","","","","","","","","","","","","","",""
"305","","image-button-response","101","670607","0.0-99.0-0.0","A1CKA1IAWYKASQ","img_art/22.jpg","5","","","","","","","","","","","","","","","","","","","","","","","","",""
"null","","html-keyboard-response","102","671607","0.0-100.0","A1CKA1IAWYKASQ","<p style=""font-size: 48px;"">+</p>","","","","","null","allTrialResponses","1000","1","8","img_art/22.jpg","24","This art is pleasing","Jared,Stephen,Mason,Colton,Christian,Antonio","colorful. but not much happening,1,400,20","Didn't illicit any reaction,1,140,20","Could be interpreted so many ways, bold. I like it.,29,100,20","I enjoy the colors used,24,220,20","colorful water (in front of castle?),17,140,20","Felt blah. Bunch of nothingness,-42,220,20","Stephen","Didn't illicit any reaction,1,140,20","Christian","colorful water (in front of castle?),17,140,20","Antonio","Felt blah. Bunch of nothingness,-42,220,20","2"
"9367","","survey-text","103","680982","0.0-101.0-0.0","A1CKA1IAWYKASQ","","","","{""Q0"":""This art is sensitive.""}","","","","","","","","","","","","","","","","","","","","","","",""
"3118","","image-slider-response","104","684103","0.0-102.0","A1CKA1IAWYKASQ","","","","","24","","","","","","","","","","","","","","","","","","","","","",""
"1613","","image-button-response","105","689107","0.0-103.0","A1CKA1IAWYKASQ","img_art/7.jpg","4","","","","","","","","","","","","","","","","","","","","","","","","",""
"810","","image-button-response","106","689919","0.0-104.0","A1CKA1IAWYKASQ","img_art/7.jpg","1","","","","","","","","","","","","","","","","","","","","","","","","",""
"549","","image-button-response","107","690472","0.0-105.0-0.0","A1CKA1IAWYKASQ","img_art/7.jpg","2","","","","","","","","","","","","","","","","","","","","","","","","",""
"563","","image-button-response","108","691039","0.0-106.0-0.0","A1CKA1IAWYKASQ","img_art/7.jpg","4","","","","","","","","","","","","","","","","","","","","","","","","",""
"null","","html-keyboard-response","109","692041","0.0-107.0","A1CKA1IAWYKASQ","<p style=""font-size: 48px;"">+</p>","","","","","null","allTrialResponses","1000","1","9","img_art/7.jpg","24","This art is sensitive.","Samuel,Stephen,Scott,Luis,Christian,Antonio","looking down on earth,19,400,20","Nice realistic feel but nothing stands out.,4,140,20","I don't like the texture,-49,20,20","Not getting the vibe i would like from this,-30,400,20","would love to take a closer look at the texture,15,140,20","Looks like dirt on the ground. Makes me feel unclean,-37,220,20","Stephen","Nice realistic feel but nothing stands out.,4,140,20","Scott","I don't like the texture,-49,20,20","Christian","would love to take a closer look at the texture,15,140,20","2"
"10359","","survey-text","110","702407","0.0-108.0-0.0","A1CKA1IAWYKASQ","","","","{""Q0"":""This art is poetic.""}","","","","","","","","","","","","","","","","","","","","","","",""
"4678","","image-slider-response","111","707088","0.0-109.0","A1CKA1IAWYKASQ","","","","","20","","","","","","","","","","","","","","","","","","","","","",""
"4541","","image-button-response","112","712092","0.0-110.0","A1CKA1IAWYKASQ","img_art/5.jpg","4","","","","","","","","","","","","","","","","","","","","","","","","",""
"1175","","image-button-response","113","713271","0.0-111.0","A1CKA1IAWYKASQ","img_art/5.jpg","4","","","","","","","","","","","","","","","","","","","","","","","","",""
"1020","","image-button-response","114","714295","0.0-112.0-0.0","A1CKA1IAWYKASQ","img_art/5.jpg","1","","","","","","","","","","","","","","","","","","","","","","","","",""
"379","","image-button-response","115","714679","0.0-113.0-0.0","A1CKA1IAWYKASQ","img_art/5.jpg","2","","","","","","","","","","","","","","","","","","","","","","","","",""
"null","","html-keyboard-response","116","715182","0.0-114.0","A1CKA1IAWYKASQ","<p style=""font-size: 48px;"">+</p>","","","","","null","allTrialResponses","500","1","10","img_art/5.jpg","20","This art is poetic.","Grant,Stephen,Scott,Paul,Christian,Corey","This elicits no reaction in me.,0,200,20","Very little going on.,-4,140,20","I like it but I don't know why,15,20,20","I like how simple it is and the pink brushstrokes are nice,27,300,20","sorry not my style,-37,140,20","simple. love the color scheme,27,260,20","Christian","sorry not my style,-37,140,20","Stephen","Very little going on.,-4,140,20","Scott","I like it but I don't know why,15,20,20","2"
"4862","","survey-text","117","720055","0.0-115.0-0.0","A1CKA1IAWYKASQ","","","","{""Q0"":""our""}","","","","","","","","","","","","","","","","","","","","","","",""
"11564","","survey-text","118","731622","0.0-116.0-0.0","A1CKA1IAWYKASQ","","","","{""Q0"":""This art is pictorial""}","","","","","","","","","","","","","","","","","","","","","","",""
"2688","","image-slider-response","119","734313","0.0-117.0","A1CKA1IAWYKASQ","","","","","42","","","","","","","","","","","","","","","","","","","","","",""
"4469","","image-button-response","120","739314","0.0-118.0","A1CKA1IAWYKASQ","img_art/11.jpg","1","","","","","","","","","","","","","","","","","","","","","","","","",""
"354","","image-button-response","121","739672","0.0-119.0","A1CKA1IAWYKASQ","img_art/11.jpg","4","","","","","","","","","","","","","","","","","","","","","","","","",""
"996","","image-button-response","122","740671","0.0-120.0-0.0","A1CKA1IAWYKASQ","img_art/11.jpg","5","","","","","","","","","","","","","","","","","","","","","","","","",""
"1333","","image-button-response","123","742007","0.0-121.0-0.0","A1CKA1IAWYKASQ","img_art/11.jpg","1","","","","","","","","","","","","","","","","","","","","","","","","",""
"null","","html-keyboard-response","124","743509","0.0-122.0","A1CKA1IAWYKASQ","<p style=""font-size: 48px;"">+</p>","","","","","null","allTrialResponses","1500","1","11","img_art/11.jpg","42","This art is pictorial","John,Stephen,Scott,Jake,Christian,Hunter","Its interesting.,20,120,20","Very good use of colors,44,140,20","makes me feel dizzy,-37,20,20","This is very unappealing.,-11,360,20","to me, perfect reflection of the modern commute,32,140,20","reminds me of home,5,240,20","Christian","to me, perfect reflection of the modern commute,32,140,20","Hunter","reminds me of home,5,240,20","Stephen","Very good use of colors,44,140,20","2"
"7561","","survey-text","125","751079","0.0-123.0-0.0","A1CKA1IAWYKASQ","","","","{""Q0"":""This art is grand.""}","","","","","","","","","","","","","","","","","","","","","","",""
"2774","","image-slider-response","126","753855","0.0-124.0","A1CKA1IAWYKASQ","","","","","38","","","","","","","","","","","","","","","","","","","","","",""
"2125","","image-button-response","127","758857","0.0-125.0","A1CKA1IAWYKASQ","img_art/29.jpg","4","","","","","","","","","","","","","","","","","","","","","","","","",""
"265","","image-button-response","128","759128","0.0-126.0","A1CKA1IAWYKASQ","img_art/29.jpg","4","","","","","","","","","","","","","","","","","","","","","","","","",""
"1461","","image-button-response","129","760593","0.0-127.0-0.0","A1CKA1IAWYKASQ","img_art/29.jpg","1","","","","","","","","","","","","","","","","","","","","","","","","",""
"698","","image-button-response","130","761296","0.0-128.0-0.0","A1CKA1IAWYKASQ","img_art/29.jpg","2","","","","","","","","","","","","","","","","","","","","","","","","",""
"null","","html-keyboard-response","131","762298","0.0-129.0","A1CKA1IAWYKASQ","<p style=""font-size: 48px;"">+</p>","","","","","null","allTrialResponses","1000","1","12","img_art/29.jpg","38","This art is grand.","Malik,Stephen,Daniel,Devin,Christian,Hunter","Feels like an abandoned dream,13,40,20","Really enjoy everything about this one.,50,140,20","Pinball meets a dark dream meets whale alien, drab,13,320,20","Looks a bit messy,-13,380,20","love the texture, i don't know, i just really like it (and the paintbrush adds a nice touch),44,140,20","abrasive and grotesque textures,-36,240,20","Christian","love the texture, i don't know, i just really like it (and the paintbrush adds a nice touch),44,140,20","Stephen","Really enjoy everything about this one.,50,140,20","Daniel","Pinball meets a dark dream meets whale alien, drab,13,320,20","2"
"18061","","survey-text","132","780367","0.0-130.0-0.0","A1CKA1IAWYKASQ","","","","{""Q0"":""This art is rhythmical.""}","","","","","","","","","","","","","","","","","","","","","","",""
"2582","","image-slider-response","133","782951","0.0-131.0","A1CKA1IAWYKASQ","","","","","23","","","","","","","","","","","","","","","","","","","","","",""
"2200","","image-button-response","134","787952","0.0-132.0","A1CKA1IAWYKASQ","img_art/27.jpg","4","","","","","","","","","","","","","","","","","","","","","","","","",""
"245","","image-button-response","135","788199","0.0-133.0","A1CKA1IAWYKASQ","img_art/27.jpg","3","","","","","","","","","","","","","","","","","","","","","","","","",""
"1817","","image-button-response","136","790021","0.0-134.0-0.0","A1CKA1IAWYKASQ","img_art/27.jpg","1","","","","","","","","","","","","","","","","","","","","","","","","",""
"863","","image-button-response","137","790889","0.0-135.0-0.0","A1CKA1IAWYKASQ","img_art/27.jpg","4","","","","","","","","","","","","","","","","","","","","","","","","",""
"null","","html-keyboard-response","138","791891","0.0-136.0","A1CKA1IAWYKASQ","<p style=""font-size: 48px;"">+</p>","","","","","null","allTrialResponses","1000","1","13","img_art/27.jpg","23","This art is rhythmical.","Connor,Stephen,Daniel,Dalton,Christian,Tanner","Looks like someone vandalized the original piece with a marker,-36,240,20","This one does nothing for me.,2,140,20","Nice back ground with childish scribble on top,-30,320,20","looks like a garden in between two storms.,33,300,20","don't understand, the green induces confusion,1,140,20","makes me think of fume clouds, low visibility,-28,180,20","Dalton","looks like a garden in between two storms.,33,300,20","Stephen","This one does nothing for me.,2,140,20","Christian","don't understand, the green induces confusion,1,140,20","2"
"11692","","survey-text","139","803593","0.0-137.0-0.0","A1CKA1IAWYKASQ","","","","{""Q0"":""This art is elegant.""}","","","","","","","","","","","","","","","","","","","","","","",""
"2514","","image-slider-response","140","806111","0.0-138.0","A1CKA1IAWYKASQ","","","","","42","","","","","","","","","","","","","","","","","","","","","",""
"4162","","image-button-response","141","811115","0.0-139.0","A1CKA1IAWYKASQ","img_art/8.jpg","4","","","","","","","","","","","","","","","","","","","","","","","","",""
"537","","image-button-response","142","811655","0.0-140.0","A1CKA1IAWYKASQ","img_art/8.jpg","4","","","","","","","","","","","","","","","","","","","","","","","","",""
"1125","","image-button-response","143","812784","0.0-141.0-0.0","A1CKA1IAWYKASQ","img_art/8.jpg","0","","","","","","","","","","","","","","","","","","","","","","","","",""
"612","","image-button-response","144","813399","0.0-142.0-0.0","A1CKA1IAWYKASQ","img_art/8.jpg","1","","","","","","","","","","","","","","","","","","","","","","","","",""
"null","","html-keyboard-response","145","813901","0.0-143.0","A1CKA1IAWYKASQ","<p style=""font-size: 48px;"">+</p>","","","","","null","allTrialResponses","500","1","14","img_art/8.jpg","42","This art is elegant.","Ethan,Stephen,Noah,Dalton,Christian,Joseph","Very inspiring piece. I love how it's at angle. It gives it character.,23,120,20","Has nice depth to it.,12,140,20","not sure what to make of this - just neutral again,-1,260,20","woman looking over a the community,1,300,20","gives off inception vibes <3,50,140,20","The faces are kinda freaky.,-17,220,20","Christian","gives off inception vibes <3,50,140,20","Ethan","Very inspiring piece. I love how it's at angle. It gives it character.,23,120,20","Stephen","Has nice depth to it.,12,140,20","2"
"11619","","survey-text","146","825543","0.0-144.0-0.0","A1CKA1IAWYKASQ","","","","{""Q0"":""This art is realistic.""}","","","","","","","","","","","","","","","","","","","","","","",""
"2429","","image-slider-response","147","827976","0.0-145.0","A1CKA1IAWYKASQ","","","","","37","","","","","","","","","","","","","","","","","","","","","",""
"4344","","image-button-response","148","832977","0.0-146.0","A1CKA1IAWYKASQ","img_art/21.jpg","0","","","","","","","","","","","","","","","","","","","","","","","","",""
"252","","image-button-response","149","833234","0.0-147.0","A1CKA1IAWYKASQ","img_art/21.jpg","3","","","","","","","","","","","","","","","","","","","","","","","","",""
"708","","image-button-response","150","833944","0.0-148.0-0.0","A1CKA1IAWYKASQ","img_art/21.jpg","0","","","","","","","","","","","","","","","","","","","","","","","","",""
"852","","image-button-response","151","834800","0.0-149.0-0.0","A1CKA1IAWYKASQ","img_art/21.jpg","2","","","","","","","","","","","","","","","","","","","","","","","","",""
"null","","html-keyboard-response","152","835802","0.0-150.0","A1CKA1IAWYKASQ","<p style=""font-size: 48px;"">+</p>","","","","","null","allTrialResponses","1000","1","15","img_art/21.jpg","37","This art is realistic.","Ethan,Stephen,Jorge,David,Christian,Elijah","This is lovely. I like the mix of colors, the warn and cool slowly combining.,39,120,20","Don't see anything special about it,-21,140,20","mythical between good and evil,16,180,20","I like how the piece has the possibility of depicting some type of story.,30,340,20","stormy with gold lining,0,140,20","Can't understand what it is,-27,80,20","David","I like how the piece has the possibility of depicting some type of story.,30,340,20","Ethan","This is lovely. I like the mix of colors, the warn and cool slowly combining.,39,120,20","Jorge","mythical between good and evil,16,180,20","2"
"7082","","survey-text","153","842896","0.0-151.0-0.0","A1CKA1IAWYKASQ","","","","{""Q0"":""course""}","","","","","","","","","","","","","","","","","","","","","","",""
"10350","","survey-text","154","853247","0.0-152.0-0.0","A1CKA1IAWYKASQ","","","","{""Q0"":""This art is ideal""}","","","","","","","","","","","","","","","","","","","","","","",""
"4252","","image-slider-response","155","857504","0.0-153.0","A1CKA1IAWYKASQ","","","","","-20","","","","","","","","","","","","","","","","","","","","","",""
"null","","image-button-response","156","862508","0.0-154.0","A1CKA1IAWYKASQ","img_art/1.jpg","null","","","","","","","","","","","","","","","","","","","","","","","","",""
"211","","image-button-response","157","862721","0.0-155.0","A1CKA1IAWYKASQ","img_art/1.jpg","4","","","","","","","","","","","","","","","","","","","","","","","","",""
"1347","","image-button-response","158","864072","0.0-156.0-0.0","A1CKA1IAWYKASQ","img_art/1.jpg","1","","","","","","","","","","","","","","","","","","","","","","","","",""
"420","","image-button-response","159","864498","0.0-157.0-0.0","A1CKA1IAWYKASQ","img_art/1.jpg","0","","","","","","","","","","","","","","","","","","","","","","","","",""
"null","","html-keyboard-response","160","866000","0.0-158.0","A1CKA1IAWYKASQ","<p style=""font-size: 48px;"">+</p>","","","","","null","allTrialResponses","1500","1","16","img_art/1.jpg","-20","This art is ideal","Ethan,Blake,Jorge,David,Ryan,Justin","This piece feels soft and romantic to me. I do not care for so much orange though.,3,120,20","colors that are fairly warm. its ok,8,280,20","fishing on the lake surrounded by trees,42,180,20","This image doesn't invoke much in me.,0,340,20","Seems like one i previously saw in this survey,27,380,20","It reminds me of a sunset I once saw.,16,280,20","Ryan","Seems like one i previously saw in this survey,27,380,20","Blake","colors that are fairly warm. its ok,8,280,20","Ethan","This piece feels soft and romantic to me. I do not care for so much orange though.,3,120,20","2"
"9822","","survey-text","161","875833","0.0-159.0-0.0","A1CKA1IAWYKASQ","","","","{""Q0"":""This art is poetic.""}","","","","","","","","","","","","","","","","","","","","","","",""
"2316","","image-slider-response","162","878151","0.0-160.0","A1CKA1IAWYKASQ","","","","","27","","","","","","","","","","","","","","","","","","","","","",""
"2853","","image-button-response","163","883155","0.0-161.0","A1CKA1IAWYKASQ","img_art/18.jpg","1","","","","","","","","","","","","","","","","","","","","","","","","",""
"514","","image-button-response","164","883673","0.0-162.0","A1CKA1IAWYKASQ","img_art/18.jpg","3","","","","","","","","","","","","","","","","","","","","","","","","",""
"1204","","image-button-response","165","884880","0.0-163.0-0.0","A1CKA1IAWYKASQ","img_art/18.jpg","1","","","","","","","","","","","","","","","","","","","","","","","","",""
"484","","image-button-response","166","885368","0.0-164.0-0.0","A1CKA1IAWYKASQ","img_art/18.jpg","2","","","","","","","","","","","","","","","","","","","","","","","","",""
"null","","html-keyboard-response","167","885870","0.0-165.0","A1CKA1IAWYKASQ","<p style=""font-size: 48px;"">+</p>","","","","","null","allTrialResponses","500","1","17","img_art/18.jpg","27","This art is poetic.","Ethan,Blake,Jeremy,Steven,Ryan,Bryan","I like the expression of this piece. The colors are very outdated though.,-5,120,20","i like the colors. outerspace,21,280,20","Unhappy. Makes me thing of evil,-10,60,20","Oh heck yes! I see two warriors riding down from valhalla, awesome painting,50,160,20","Too political, not my cup of tea,-50,380,20","First saw sailing ship in bad weather but then saw woman in upper left - not sure what I'm seeing.,21,400,20","Steven","Oh heck yes! I see two warriors riding down from valhalla, awesome painting,50,160,20","Blake","i like the colors. outerspace,21,280,20","Jeremy","Unhappy. Makes me thing of evil,-10,60,20","2"
"14593","","survey-text","168","900472","0.0-166.0-0.0","A1CKA1IAWYKASQ","","","","{""Q0"":""This art is imaginative.""}","","","","","","","","","","","","","","","","","","","","","","",""
"1837","","image-slider-response","169","902311","0.0-167.0","A1CKA1IAWYKASQ","","","","","28","","","","","","","","","","","","","","","","","","","","","",""
"4388","","image-button-response","170","907314","0.0-168.0","A1CKA1IAWYKASQ","img_art/10.jpg","4","","","","","","","","","","","","","","","","","","","","","","","","",""
"883","","image-button-response","171","908201","0.0-169.0","A1CKA1IAWYKASQ","img_art/10.jpg","4","","","","","","","","","","","","","","","","","","","","","","","","",""
"702","","image-button-response","172","908905","0.0-170.0-0.0","A1CKA1IAWYKASQ","img_art/10.jpg","1","","","","","","","","","","","","","","","","","","","","","","","","",""
"443","","image-button-response","173","909352","0.0-171.0-0.0","A1CKA1IAWYKASQ","img_art/10.jpg","0","","","","","","","","","","","","","","","","","","","","","","","","",""
"null","","html-keyboard-response","174","910354","0.0-172.0","A1CKA1IAWYKASQ","<p style=""font-size: 48px;"">+</p>","","","","","null","allTrialResponses","1000","1","18","img_art/10.jpg","28","This art is imaginative.","Mitchell,Blake,Jeremy,Steven,Alexander,Alexis","Circle of life, with highs and lows, good and bad. You always weather the storm and come out on top.,40,180,20","a fast racetrack. go, go, go,5,280,20","kind of happy. it is intriguing,23,60,20","I dont like it, there is too much going on,-19,160,20","Roller coaster on an island.,9,120,20","It looks like a sea monster overtaking a ship,21,140,20","Alexander","Roller coaster on an island.,9,120,20","Blake","a fast racetrack. go, go, go,5,280,20","Mitchell","Circle of life, with highs and lows, good and bad. You always weather the storm and come out on top.,40,180,20","2"
"14826","","survey-text","175","925189","0.0-173.0-0.0","A1CKA1IAWYKASQ","","","","{""Q0"":""This art is tasteful""}","","","","","","","","","","","","","","","","","","","","","","",""
"3645","","image-slider-response","176","928840","0.0-174.0","A1CKA1IAWYKASQ","","","","","50","","","","","","","","","","","","","","","","","","","","","",""
"4191","","image-button-response","177","933845","0.0-175.0","A1CKA1IAWYKASQ","img_art/13.jpg","4","","","","","","","","","","","","","","","","","","","","","","","","",""
"280","","image-button-response","178","934129","0.0-176.0","A1CKA1IAWYKASQ","img_art/13.jpg","4","","","","","","","","","","","","","","","","","","","","","","","","",""
"2437","","image-button-response","179","936568","0.0-177.0-0.0","A1CKA1IAWYKASQ","img_art/13.jpg","3","","","","","","","","","","","","","","","","","","","","","","","","",""
"1171","","image-button-response","180","937743","0.0-178.0-0.0","A1CKA1IAWYKASQ","img_art/13.jpg","0","","","","","","","","","","","","","","","","","","","","","","","","",""
"null","","html-keyboard-response","181","938746","0.0-179.0","A1CKA1IAWYKASQ","<p style=""font-size: 48px;"">+</p>","","","","","null","allTrialResponses","1000","1","19","img_art/13.jpg","50","This art is tasteful","Mitchell,Blake,Lucas,James,Alexander,Jonathan","Magnified rain around trees. Beautiful happy colors. The little person on the right feels nature is huge.,45,180,20","warm splash of salt water from ocean,16,280,20","Incredible, curious.,20,380,20","This is a very cool painting, something an art teacher or professor would own.,22,380,20","Seeing the world through different lenses.,15,120,20","It's pretty basic but it makes me feel like I'm looking at the ocean,30,140,20","Alexander","Seeing the world through different lenses.,15,120,20","James","This is a very cool painting, something an art teacher or professor would own.,22,380,20","Mitchell","Magnified rain around trees. Beautiful happy colors. The little person on the right feels nature is huge.,45,180,20","2"
"14637","","survey-text","182","953392","0.0-180.0-0.0","A1CKA1IAWYKASQ","","","","{""Q0"":""This art is realistic.""}","","","","","","","","","","","","","","","","","","","","","","",""
"4453","","image-slider-response","183","957849","0.0-181.0","A1CKA1IAWYKASQ","","","","","50","","","","","","","","","","","","","","","","","","","","","",""
"4494","","image-button-response","184","962852","0.0-182.0","A1CKA1IAWYKASQ","img_art/24.jpg","0","","","","","","","","","","","","","","","","","","","","","","","","",""
"121","","image-button-response","185","962977","0.0-183.0","A1CKA1IAWYKASQ","img_art/24.jpg","0","","","","","","","","","","","","","","","","","","","","","","","","",""
"1406","","image-button-response","186","964386","0.0-184.0-0.0","A1CKA1IAWYKASQ","img_art/24.jpg","1","","","","","","","","","","","","","","","","","","","","","","","","",""
"949","","image-button-response","187","965337","0.0-185.0-0.0","A1CKA1IAWYKASQ","img_art/24.jpg","4","","","","","","","","","","","","","","","","","","","","","","","","",""
"null","","html-keyboard-response","188","966340","0.0-186.0","A1CKA1IAWYKASQ","<p style=""font-size: 48px;"">+</p>","","","","","null","allTrialResponses","1000","1","20","img_art/24.jpg","50","This art is realistic.","Mitchell,Kenneth,Robert,James,Alexander,Anthony","Nature, Peace, connected.,50,180,20","Cute; I like what the image itself & the colors.,25,300,20","A beautiful waterfall in the springtime.,40,360,20","The waterfall looks peaceful,11,380,20","Water through the fruit.,15,120,20","This piece resembles a waterfall surrounded by trees.,21,200,20","Mitchell","Nature, Peace, connected.,50,180,20","Kenneth","Cute; I like what the image itself & the colors.,25,300,20","Alexander","Water through the fruit.,15,120,20","2"
"3232","","survey-text","189","969586","0.0-187.0-0.0","A1CKA1IAWYKASQ","","","","{""Q0"":""we""}","","","","","","","","","","","","","","","","","","","","","","",""
"15461","","survey-text","190","985050","0.0-188.0-0.0","A1CKA1IAWYKASQ","","","","{""Q0"":""This art is stimulating.""}","","","","","","","","","","","","","","","","","","","","","","",""
"3779","","image-slider-response","191","988832","0.0-189.0","A1CKA1IAWYKASQ","","","","","33","","","","","","","","","","","","","","","","","","","","","",""
"2469","","image-button-response","192","993837","0.0-190.0","A1CKA1IAWYKASQ","img_art/20.jpg","4","","","","","","","","","","","","","","","","","","","","","","","","",""
"1088","","image-button-response","193","994930","0.0-191.0","A1CKA1IAWYKASQ","img_art/20.jpg","4","","","","","","","","","","","","","","","","","","","","","","","","",""
"1467","","image-button-response","194","996401","0.0-192.0-0.0","A1CKA1IAWYKASQ","img_art/20.jpg","0","","","","","","","","","","","","","","","","","","","","","","","","",""
"644","","image-button-response","195","997049","0.0-193.0-0.0","A1CKA1IAWYKASQ","img_art/20.jpg","1","","","","","","","","","","","","","","","","","","","","","","","","",""
"null","","html-keyboard-response","196","998051","0.0-194.0","A1CKA1IAWYKASQ","<p style=""font-size: 48px;"">+</p>","","","","","null","allTrialResponses","1000","1","21","img_art/20.jpg","33","This art is stimulating.","Mitchell,Kenneth,Taylor,Nathaniel,Alexander,Miguel","Interesting. Empty place, wondering what happened, leaving what you used to know.,10,180,20","I want to like this more, but i wish it was more detailed. It's hard for me to see what it is.,5,300,20","Not bad for all the southwestern people.,15,200,20","A bit hectic, but it does have a bit of coolness to it,6,220,20","The beach and industry.,12,120,20","It's ok. Very abstract.,18,160,20","Alexander","The beach and industry.,12,120,20","Mitchell","Interesting. Empty place, wondering what happened, leaving what you used to know.,10,180,20","Kenneth","I want to like this more, but i wish it was more detailed. It's hard for me to see what it is.,5,300,20","2"
"15893","","survey-text","197","1013952","0.0-195.0-0.0","A1CKA1IAWYKASQ","","","","{""Q0"":""This art is decorative.""}","","","","","","","","","","","","","","","","","","","","","","",""
"2853","","image-slider-response","198","1016809","0.0-196.0","A1CKA1IAWYKASQ","","","","","-15","","","","","","","","","","","","","","","","","","","","","",""
"null","","image-button-response","199","1021812","0.0-197.0","A1CKA1IAWYKASQ","img_art/9.jpg","null","","","","","","","","","","","","","","","","","","","","","","","","",""
"131","","image-button-response","200","1021946","0.0-198.0","A1CKA1IAWYKASQ","img_art/9.jpg","1","","","","","","","","","","","","","","","","","","","","","","","","",""
"1477","","image-button-response","201","1023426","0.0-199.0-0.0","A1CKA1IAWYKASQ","img_art/9.jpg","3","","","","","","","","","","","","","","","","","","","","","","","","",""
"539","","image-button-response","202","1023970","0.0-200.0-0.0","A1CKA1IAWYKASQ","img_art/9.jpg","4","","","","","","","","","","","","","","","","","","","","","","","","",""
"null","","html-keyboard-response","203","1025473","0.0-201.0","A1CKA1IAWYKASQ","<p style=""font-size: 48px;"">+</p>","","","","","null","allTrialResponses","1500","1","22","img_art/9.jpg","-15","This art is decorative.","Mitchell,Kenneth,Joshua,Sean,Alexander,Jose","Cozy, In her own world. feminine .,30,180,20","It looks like a child drew it.,-28,300,20","Someone lying in bed?  Don't care for it.,-14,240,20","Gives me anxiety,-23,40,20","The mouth of an ugly beast.,-25,120,20","Idk what is in the middle but the blurry image makes it seem like the subject is of the painters interest,22,200,20","Kenneth","It looks like a child drew it.,-28,300,20","Sean","Gives me anxiety,-23,40,20","Alexander","The mouth of an ugly beast.,-25,120,20","2"
"9614","","survey-text","204","1035097","0.0-202.0-0.0","A1CKA1IAWYKASQ","","","","{""Q0"":""This art is aesthetic.""}","","","","","","","","","","","","","","","","","","","","","","",""
"3980","","image-slider-response","205","1039080","0.0-203.0","A1CKA1IAWYKASQ","","","","","-40","","","","","","","","","","","","","","","","","","","","","",""
"null","","image-button-response","206","1044084","0.0-204.0","A1CKA1IAWYKASQ","img_art/4.jpg","null","","","","","","","","","","","","","","","","","","","","","","","","",""
"555","","image-button-response","207","1044644","0.0-205.0","A1CKA1IAWYKASQ","img_art/4.jpg","4","","","","","","","","","","","","","","","","","","","","","","","","",""
"962","","image-button-response","208","1045610","0.0-206.0-0.0","A1CKA1IAWYKASQ","img_art/4.jpg","4","","","","","","","","","","","","","","","","","","","","","","","","",""
"941","","image-button-response","209","1054290","0.0-206.1-0.1","A1CKA1IAWYKASQ","img_art/4.jpg","3","","","","","","","","","","","","","","","","","","","","","","","","",""
"805","","image-button-response","210","1055099","0.0-207.0-0.0","A1CKA1IAWYKASQ","img_art/4.jpg","5","","","","","","","","","","","","","","","","","","","","","","","","",""
"null","","html-keyboard-response","211","1056601","0.0-208.0","A1CKA1IAWYKASQ","<p style=""font-size: 48px;"">+</p>","","","","","null","allTrialResponses","1500","1","23","img_art/4.jpg","-40","This art is aesthetic.","Jordan,Kenneth,Cody,Sean,Alexander,Isaac","A hand reaching for something it cannot obtain,-9,160,20","The longer I stare at this the less I like it.,-19,300,20","Interesting but maybe a little creepy,0,180,20","dont know what im looking at,1,40,20","Pretzel noodles.,7,120,20","The colors remind me of McDonalds.,-41,280,20","Alexander","Pretzel noodles.,7,120,20","Sean","dont know what im looking at,1,40,20","Isaac","The colors remind me of McDonalds.,-41,280,20","4"
"15601","","survey-text","212","1072210","0.0-209.0-0.0","A1CKA1IAWYKASQ","","","","{""Q0"":""This art is ornamental""}","","","","","","","","","","","","","","","","","","","","","","",""
"4156","","image-slider-response","213","1076369","0.0-210.0","A1CKA1IAWYKASQ","","","","","-10","","","","","","","","","","","","","","","","","","","","","",""
"4766","","image-button-response","214","1081373","0.0-211.0","A1CKA1IAWYKASQ","img_art/3.jpg","4","","","","","","","","","","","","","","","","","","","","","","","","",""
"825","","image-button-response","215","1082202","0.0-212.0","A1CKA1IAWYKASQ","img_art/3.jpg","4","","","","","","","","","","","","","","","","","","","","","","","","",""
"725","","image-button-response","216","1082931","0.0-213.0-0.0","A1CKA1IAWYKASQ","img_art/3.jpg","1","","","","","","","","","","","","","","","","","","","","","","","","",""
"611","","image-button-response","217","1083547","0.0-214.0-0.0","A1CKA1IAWYKASQ","img_art/3.jpg","0","","","","","","","","","","","","","","","","","","","","","","","","",""
"null","","html-keyboard-response","218","1084551","0.0-215.0","A1CKA1IAWYKASQ","<p style=""font-size: 48px;"">+</p>","","","","","null","allTrialResponses","1000","1","24","img_art/3.jpg","-10","This art is ornamental","Jesus,Evan,Bryce,Sean,Alexander,Isaac","I like the simplicity of it.,20,100,20","It feels like a half assed and failed imitation of Japanese signatures on old paintings,-22,140,20","Scary. Looks like blood.,-45,20,20","my response to the picture is a lot of red, danger,,-21,40,20","Somewhere between a child's art and a poorly drawn battle map.,8,120,20","It looks like scribbles.,-40,280,20","Alexander","Somewhere between a child's art and a poorly drawn battle map.,8,120,20","Evan","It feels like a half assed and failed imitation of Japanese signatures on old paintings,-22,140,20","Jesus","I like the simplicity of it.,20,100,20","4"
"10391","","survey-text","219","1094953","0.0-216.0-0.0","A1CKA1IAWYKASQ","","","","{""Q0"":""This art is stimulating.""}","","","","","","","","","","","","","","","","","","","","","","",""
"3662","","image-slider-response","220","1098618","0.0-217.0","A1CKA1IAWYKASQ","","","","","-17","","","","","","","","","","","","","","","","","","","","","",""
"null","","image-button-response","221","1103621","0.0-218.0","A1CKA1IAWYKASQ","img_art/25.jpg","null","","","","","","","","","","","","","","","","","","","","","","","","",""
"978","","image-button-response","222","1104603","0.0-219.0","A1CKA1IAWYKASQ","img_art/25.jpg","4","","","","","","","","","","","","","","","","","","","","","","","","",""
"1315","","image-button-response","223","1105922","0.0-220.0-0.0","A1CKA1IAWYKASQ","img_art/25.jpg","1","","","","","","","","","","","","","","","","","","","","","","","","",""
"1037","","image-button-response","224","1106962","0.0-221.0-0.0","A1CKA1IAWYKASQ","img_art/25.jpg","2","","","","","","","","","","","","","","","","","","","","","","","","",""
"null","","html-keyboard-response","225","1107465","0.0-222.0","A1CKA1IAWYKASQ","<p style=""font-size: 48px;"">+</p>","","","","","null","allTrialResponses","500","1","25","img_art/25.jpg","-17","This art is stimulating.","Jesus,Evan,William,Jack,Alexander,Christopher","Very nice color contrast and design.,40,100,20","I really like the green and the fact that it is tattered on the edges,23,140,20","makes me think of a scary movie,-20,380,20","beautiful in a primitive way,10,320,20","Ancient gods above you.,20,120,20","green is really cool, and the pieces in black fit together and are interesting,20,160,20","Alexander","Ancient gods above you.,20,120,20","Evan","I really like the green and the fact that it is tattered on the edges,23,140,20","William","makes me think of a scary movie,-20,380,20","4"
"4293","","survey-text","226","1111777","0.0-223.0-0.0","A1CKA1IAWYKASQ","","","","{""Q0"":""table""}","","","","","","","","","","","","","","","","","","","","","","",""
"10272","","survey-text","227","1122050","0.0-224.0-0.0","A1CKA1IAWYKASQ","","","","{""Q0"":""This art is poetic.""}","","","","","","","","","","","","","","","","","","","","","","",""
"3339","","image-slider-response","228","1125394","0.0-225.0","A1CKA1IAWYKASQ","","","","","20","","","","","","","","","","","","","","","","","","","","","",""
"1908","","image-button-response","229","1130397","0.0-226.0","A1CKA1IAWYKASQ","img_art/2.jpg","4","","","","","","","","","","","","","","","","","","","","","","","","",""
"826","","image-button-response","230","1131226","0.0-227.0","A1CKA1IAWYKASQ","img_art/2.jpg","2","","","","","","","","","","","","","","","","","","","","","","","","",""
"1084","","image-button-response","231","1132314","0.0-228.0-0.0","A1CKA1IAWYKASQ","img_art/2.jpg","2","","","","","","","","","","","","","","","","","","","","","","","","",""
"588","","image-button-response","232","1136323","0.0-228.1-0.1","A1CKA1IAWYKASQ","img_art/2.jpg","5","","","","","","","","","","","","","","","","","","","","","","","","",""
"541","","image-button-response","233","1136868","0.0-229.0-0.0","A1CKA1IAWYKASQ","img_art/2.jpg","4","","","","","","","","","","","","","","","","","","","","","","","","",""
"null","","html-keyboard-response","234","1137871","0.0-230.0","A1CKA1IAWYKASQ","<p style=""font-size: 48px;"">+</p>","","","","","null","allTrialResponses","1000","1","26","img_art/2.jpg","20","This art is poetic.","Adrian,Evan,William,Ian,Alexander,Kevin","Not a fan of the colors or the style.,-31,60,20","I feel bothered by the dark and dingy choice of colors,-22,140,20","I like the colors,22,380,20","I don't really like this but at the same time it's cute. It looks like a little monster kid.,-9,260,20","Old, dull, messy.,-10,120,20","That looks look a cartoon character of some kind.,11,320,20","William","I like the colors,22,380,20","Kevin","That looks look a cartoon character of some kind.,11,320,20","Alexander","Old, dull, messy.,-10,120,20","6"
"12719","","survey-text","235","1150602","0.0-231.0-0.0","A1CKA1IAWYKASQ","","","","{""Q0"":""This art is cultured.""}","","","","","","","","","","","","","","","","","","","","","","",""
"3094","","image-slider-response","236","1153698","0.0-232.0","A1CKA1IAWYKASQ","","","","","50","","","","","","","","","","","","","","","","","","","","","",""
"2243","","image-button-response","237","1158701","0.0-233.0","A1CKA1IAWYKASQ","img_art/19.jpg","4","","","","","","","","","","","","","","","","","","","","","","","","",""
"634","","image-button-response","238","1159339","0.0-234.0","A1CKA1IAWYKASQ","img_art/19.jpg","4","","","","","","","","","","","","","","","","","","","","","","","","",""
"605","","image-button-response","239","1159947","0.0-235.0-0.0","A1CKA1IAWYKASQ","img_art/19.jpg","5","","","","","","","","","","","","","","","","","","","","","","","","",""
"724","","image-button-response","240","1160674","0.0-236.0-0.0","A1CKA1IAWYKASQ","img_art/19.jpg","1","","","","","","","","","","","","","","","","","","","","","","","","",""
"null","","html-keyboard-response","241","1162178","0.0-237.0","A1CKA1IAWYKASQ","<p style=""font-size: 48px;"">+</p>","","","","","null","allTrialResponses","1500","1","27","img_art/19.jpg","50","This art is cultured.","Dylan,Spencer,William,Carlos,Alexander,Kevin","This photo has too much going on.,-19,40,20","Very abstract but I like it, it's busy, lots of colors,43,120,20","to much going on,-22,380,20","I like the watercolor and colors, do not like the deconstructed city scene feel.,0,80,20","Messy pantry full of food.,5,120,20","Thats a lazy town,-8,320,20","Alexander","Messy pantry full of food.,5,120,20","Kevin","Thats a lazy town,-8,320,20","Spencer","Very abstract but I like it, it's busy, lots of colors,43,120,20","6"
"8038","","survey-text","242","1170226","0.0-238.0-0.0","A1CKA1IAWYKASQ","","","","{""Q0"":""This art is ideal""}","","","","","","","","","","","","","","","","","","","","","","",""
"4927","","image-slider-response","243","1175155","0.0-239.0","A1CKA1IAWYKASQ","","","","","32","","","","","","","","","","","","","","","","","","","","","",""
"4644","","image-button-response","244","1180158","0.0-240.0","A1CKA1IAWYKASQ","img_art/6.jpg","5","","","","","","","","","","","","","","","","","","","","","","","","",""
"960","","image-button-response","245","1181123","0.0-241.0","A1CKA1IAWYKASQ","img_art/6.jpg","5","","","","","","","","","","","","","","","","","","","","","","","","",""
"1085","","image-button-response","246","1182212","0.0-242.0-0.0","A1CKA1IAWYKASQ","img_art/6.jpg","5","","","","","","","","","","","","","","","","","","","","","","","","",""
"699","","image-button-response","247","1186699","0.0-242.1-0.1","A1CKA1IAWYKASQ","img_art/6.jpg","4","","","","","","","","","","","","","","","","","","","","","","","","",""
"1116","","image-button-response","248","1187819","0.0-243.0-0.0","A1CKA1IAWYKASQ","img_art/6.jpg","1","","","","","","","","","","","","","","","","","","","","","","","","",""
"null","","html-keyboard-response","249","1188321","0.0-244.0","A1CKA1IAWYKASQ","<p style=""font-size: 48px;"">+</p>","","","","","null","allTrialResponses","500","1","28","img_art/6.jpg","32","This art is ideal","Thomas,Spencer,Vincent,Mark,Alexander,Kevin","I like the color and the gradient,10,220,20","Boring, looks like a sad tree in wind,-37,120,20","Calm and catching,30,360,20","So forlorn, and beauty amid desolation.,25,80,20","Desert that's too simple.,-15,120,20","Its the headless bird. But why?,21,320,20","Kevin","Its the headless bird. But why?,21,320,20","Alexander","Desert that's too simple.,-15,120,20","Spencer","Boring, looks like a sad tree in wind,-37,120,20","8"
"10237","","survey-text","250","1198570","0.0-245.0-0.0","A1CKA1IAWYKASQ","","","","{""Q0"":""This art is stylish""}","","","","","","","","","","","","","","","","","","","","","","",""
"2981","","image-slider-response","251","1201554","0.0-246.0","A1CKA1IAWYKASQ","","","","","16","","","","","","","","","","","","","","","","","","","","","",""
"null","","image-button-response","252","1206557","0.0-247.0","A1CKA1IAWYKASQ","img_art/30.jpg","null","","","","","","","","","","","","","","","","","","","","","","","","",""
"1588","","image-button-response","253","1208149","0.0-248.0","A1CKA1IAWYKASQ","img_art/30.jpg","5","","","","","","","","","","","","","","","","","","","","","","","","",""
"763","","image-button-response","254","1208915","0.0-249.0-0.0","A1CKA1IAWYKASQ","img_art/30.jpg","1","","","","","","","","","","","","","","","","","","","","","","","","",""
"780","","image-button-response","255","1209698","0.0-250.0-0.0","A1CKA1IAWYKASQ","img_art/30.jpg","2","","","","","","","","","","","","","","","","","","","","","","","","",""
"null","","html-keyboard-response","256","1210201","0.0-251.0","A1CKA1IAWYKASQ","<p style=""font-size: 48px;"">+</p>","","","","","null","allTrialResponses","500","1","29","img_art/30.jpg","16","This art is stylish","Travis,Spencer,Gregory,Cameron,Alexander,Kevin","I didn't like this...it looks like someone just finger painted it.,-10,260,20","Interesting, almost an underworld of plant life,11,120,20","Cool design and contrast of colors,30,220,20","Like the color and style,31,60,20","Sleek eel in the abstract ocean.,30,120,20","Some people dancing.,-7,320,20","Kevin","Some people dancing.,-7,320,20","Spencer","Interesting, almost an underworld of plant life,11,120,20","Gregory","Cool design and contrast of colors,30,220,20","8"
"10510","","survey-text","257","1220722","0.0-252.0-0.0","A1CKA1IAWYKASQ","","","","{""Q0"":""This is pictorial.""}","","","","","","","","","","","","","","","","","","","","","","",""
"2022","","image-slider-response","258","1222746","0.0-253.0","A1CKA1IAWYKASQ","","","","","25","","","","","","","","","","","","","","","","","","","","","",""
"1932","","image-button-response","259","1227750","0.0-254.0","A1CKA1IAWYKASQ","img_art/26.jpg","4","","","","","","","","","","","","","","","","","","","","","","","","",""
"843","","image-button-response","260","1228595","0.0-255.0","A1CKA1IAWYKASQ","img_art/26.jpg","0","","","","","","","","","","","","","","","","","","","","","","","","",""
"500","","image-button-response","261","1229098","0.0-256.0-0.0","A1CKA1IAWYKASQ","img_art/26.jpg","1","","","","","","","","","","","","","","","","","","","","","","","","",""
"869","","image-button-response","262","1229971","0.0-257.0-0.0","A1CKA1IAWYKASQ","img_art/26.jpg","4","","","","","","","","","","","","","","","","","","","","","","","","",""
"null","","html-keyboard-response","263","1230475","0.0-258.0","A1CKA1IAWYKASQ","<p style=""font-size: 48px;"">+</p>","","","","","null","allTrialResponses","500","1","30","img_art/26.jpg","25","This is pictorial.","Patrick,Spencer,Gregory,Tyler,Cole,Kevin","I can somewhat city a city in this drawing,11,280,20","Really like it, a very nice neighborhood scene to me,42,120,20","Street corner on a sunny day,5,220,20","Colors look glum; photograph is not properly contrasted and does not reflect the appropriate amount of natural light.,-10,320,20","Another blob on a landscape. A city street?,9,200,20","Some trees in front of a house.,2,320,20","Patrick","I can somewhat city a city in this drawing,11,280,20","Spencer","Really like it, a very nice neighborhood scene to me,42,120,20","Cole","Another blob on a landscape. A city street?,9,200,20","8"
"3245","","image-button-response_instructions","264","1233730","0.0-259.0","A1CKA1IAWYKASQ","","0","instructions","","","","","","","","","","","","","","","","","","","","","","","",""
"1192","","image-button-response","265","1234931","0.0-260.0","A1CKA1IAWYKASQ","","0","","","","","","","","","","","","","","","","","","","","","","","","",""
