"rt","url","trial_type","trial_index","time_elapsed","internal_node_id","participant_id","stimulus","button_pressed","Name","responses","response","key_press","variableName","fixationTime","condition","trial","photo","subjectRating","subjectResponse","agentsNames","agent_1_Response","agent_2_Response","agent_3_Response","agent_4_Response","agent_5_Response","agent_6_Response","kept_1_name","kept_1_response","kept_2_name","kept_2_response","kept_3_name","kept_3_response","errorCounter"
"3981","external_page_harvard.html","external-html","0","4092","0.0-0.0","A1DIW2K1J89CMO","","","","","","","","","","","","","","","","","","","","","","","","","","",""
"1108","","image-button-response","1","5202","0.0-1.0","A1DIW2K1J89CMO","","1","","","","","","","","","","","","","","","","","","","","","","","","",""
"1129","","image-button-response","2","6336","0.0-2.0-0.0","A1DIW2K1J89CMO","","1","phone","","","","","","","","","","","","","","","","","","","","","","","",""
"5273","","survey-text","3","11611","0.0-3.0-0.0","A1DIW2K1J89CMO","","","","{""Q0"":""A1DIW2K1J89CMO""}","","","","","","","","","","","","","","","","","","","","","","",""
"2868","","image-button-response_instructions","4","14482","0.0-4.0","A1DIW2K1J89CMO","","0","instructions","","","","","","","","","","","","","","","","","","","","","","","",""
"4691","","image-button-response_instructions","5","19174","0.0-5.0","A1DIW2K1J89CMO","img_art/ins/popularity/ins1.png","0","instructions","","","","","","","","","","","","","","","","","","","","","","","",""
"2104","","image-button-response_instructions","6","21279","0.0-6.0","A1DIW2K1J89CMO","img_art/ins/popularity/ins2.png","0","instructions","","","","","","","","","","","","","","","","","","","","","","","",""
"1431","","image-button-response_instructions","7","22712","0.0-7.0","A1DIW2K1J89CMO","img_art/ins/popularity/ins2Extreme.png","0","instructions","","","","","","","","","","","","","","","","","","","","","","","",""
"3173","","image-button-response_instructions","8","25886","0.0-8.0","A1DIW2K1J89CMO","img_art/ins/popularity/ins3KEEPpop.PNG","0","instructions","","","","","","","","","","","","","","","","","","","","","","","",""
"1877","","image-button-response_instructions","9","27764","0.0-9.0","A1DIW2K1J89CMO","img_art/ins/popularity/ins3ANamepop.PNG","0","instructions","","","","","","","","","","","","","","","","","","","","","","","",""
"1527","","image-button-response_instructions","10","29292","0.0-10.0","A1DIW2K1J89CMO","img_art/ins/popularity/ins3ARatingpop.png","0","instructions","","","","","","","","","","","","","","","","","","","","","","","",""
"1625","","image-button-response_instructions","11","30918","0.0-11.0","A1DIW2K1J89CMO","img_art/ins/popularity/ins3ATextpop.png","0","instructions","","","","","","","","","","","","","","","","","","","","","","","",""
"4486","","image-button-response_instructions","12","35404","0.0-12.0","A1DIW2K1J89CMO","img_art/ins/popularity/ins3ALikespop.png","0","instructions","","","","","","","","","","","","","","","","","","","","","","","",""
"4791","","image-button-response_instructions","13","40197","0.0-13.0","A1DIW2K1J89CMO","img_art/ins/popularity/ins3KEEPpop.PNG","0","instructions","","","","","","","","","","","","","","","","","","","","","","","",""
"6125","","image-button-response_instructions","14","46323","0.0-14.0","A1DIW2K1J89CMO","img_art/ins/popularity/ins3_5RED.png","0","instructions","","","","","","","","","","","","","","","","","","","","","","","",""
"2087","","image-button-response_instructions","15","48411","0.0-15.0","A1DIW2K1J89CMO","img_art/ins/popularity/ins3KEEPpop.PNG","0","instructions","","","","","","","","","","","","","","","","","","","","","","","",""
"13863","","image-button-response_instructions","16","62275","0.0-16.0","A1DIW2K1J89CMO","img_art/ins/popularity/ins4KEEPpop.PNG","0","instructions","","","","","","","","","","","","","","","","","","","","","","","",""
"2580","","image-button-response_instructions","17","64856","0.0-17.0","A1DIW2K1J89CMO","img_art/ins/popularity/ins5KEEPpop.PNG","0","instructions","","","","","","","","","","","","","","","","","","","","","","","",""
"927","","image-button-response_instructions","18","65785","0.0-18.0","A1DIW2K1J89CMO","","0","instructions","","","","","","","","","","","","","","","","","","","","","","","",""
"4741","","survey-text","19","70547","0.0-19.0-0.0","A1DIW2K1J89CMO","","","","{""Q0"":""but""}","","","","","","","","","","","","","","","","","","","","","","",""
"22308","","survey-text","20","92856","0.0-20.0-0.0","A1DIW2K1J89CMO","","","","{""Q0"":""This reminds me of when you dream and you wake up and can't remember what the dream was about.""}","","","","","","","","","","","","","","","","","","","","","","",""
"2497.5","","image-slider-response","21","95356","0.0-21.0","A1DIW2K1J89CMO","","","","","6","","","","","","","","","","","","","","","","","","","","","",""
"null","","image-button-response","22","100360","0.0-22.0","A1DIW2K1J89CMO","img_art/ins/1.jpg","null","","","","","","","","","","","","","","","","","","","","","","","","",""
"1493","","image-button-response","23","101854","0.0-23.0","A1DIW2K1J89CMO","img_art/ins/1.jpg","5","","","","","","","","","","","","","","","","","","","","","","","","",""
"2459","","image-button-response","24","104315","0.0-24.0-0.0","A1DIW2K1J89CMO","img_art/ins/1.jpg","4","","","","","","","","","","","","","","","","","","","","","","","","",""
"1005","","image-button-response","25","105321","0.0-25.0-0.0","A1DIW2K1J89CMO","img_art/ins/1.jpg","0","","","","","","","","","","","","","","","","","","","","","","","","",""
"null","","html-keyboard-response","26","105834","0.0-26.0","A1DIW2K1J89CMO","<p style=""font-size: 48px;"">+</p>","","","","","null","allTrialResponses","500","1","-2","img_art/ins/1.jpg","6","This reminds me of when you dream and you wake up and can't remember what the dream was about.","Allison,Ashley,Beth,Dora,Erika,Jen","looks like a lot of things going on in the mist,20,20,20","I just don't get why these type of art would be popular,-32,40,20","This color reminds me of poo,-46,60,20","looks like what my niece in 3rd grade did this afternoon,-50,80,20","I like the sophisticated brushwork,40,100,20","It reminds me of a candy land dream I had,36,120,20","Jen","It reminds me of a candy land dream I had,36,120,20","Erika","I like the sophisticated brushwork,40,100,20","Allison","looks like a lot of things going on in the mist,20,20,20","0"
"21998","","survey-text","27","127837","0.0-27.0-0.0","A1DIW2K1J89CMO","","","","{""Q0"":""This reminds me of a warm, comfortable bed.""}","","","","","","","","","","","","","","","","","","","","","","",""
"2239.5","","image-slider-response","28","130078","0.0-28.0","A1DIW2K1J89CMO","","","","","25","","","","","","","","","","","","","","","","","","","","","",""
"4133","","image-button-response","29","135081","0.0-29.0","A1DIW2K1J89CMO","img_art/ins/2.jpg","5","","","","","","","","","","","","","","","","","","","","","","","","",""
"690","","image-button-response","30","135772","0.0-30.0","A1DIW2K1J89CMO","img_art/ins/2.jpg","5","","","","","","","","","","","","","","","","","","","","","","","","",""
"1413","","image-button-response","31","137187","0.0-31.0-0.0","A1DIW2K1J89CMO","img_art/ins/2.jpg","4","","","","","","","","","","","","","","","","","","","","","","","","",""
"2610","","image-button-response","32","139799","0.0-32.0-0.0","A1DIW2K1J89CMO","img_art/ins/2.jpg","1","","","","","","","","","","","","","","","","","","","","","","","","",""
"null","","html-keyboard-response","33","140801","0.0-33.0","A1DIW2K1J89CMO","<p style=""font-size: 48px;"">+</p>","","","","","null","allTrialResponses","1000","1","-1","img_art/ins/2.jpg","25","This reminds me of a warm, comfortable bed.","Allison,Kara,Katie,Jenna,Erika,Jen","I don't have strong feelings about this,10,20,20","I like the blocks of color arrangements,30,160,20","too much color!,-28,180,20","One of my pet peevs,-48,140,20","I would never be able to compose a sophisticated pallete like this,48,100,20","It reminds me of a fireplace,36,120,20","Jen","It reminds me of a fireplace,36,120,20","Erika","I would never be able to compose a sophisticated pallete like this,48,100,20","Kara","I like the blocks of color arrangements,30,160,20","0"
"15090","","survey-text","34","155894","0.0-34.0-0.0","A1DIW2K1J89CMO","","","","{""Q0"":""Birds flying in the sky after a storm""}","","","","","","","","","","","","","","","","","","","","","","",""
"5313.700000047684","","image-slider-response","35","161209","0.0-35.0","A1DIW2K1J89CMO","","","","","1","","","","","","","","","","","","","","","","","","","","","",""
"2012","","image-button-response","36","166212","0.0-36.0","A1DIW2K1J89CMO","img_art/ins/3.jpg","0","","","","","","","","","","","","","","","","","","","","","","","","",""
"1734","","image-button-response","37","167947","0.0-37.0","A1DIW2K1J89CMO","img_art/ins/3.jpg","0","","","","","","","","","","","","","","","","","","","","","","","","",""
"1352","","image-button-response","38","169300","0.0-38.0-0.0","A1DIW2K1J89CMO","img_art/ins/3.jpg","0","","","","","","","","","","","","","","","","","","","","","","","","",""
"2738","","image-button-response","39","174770","0.0-38.1-0.1","A1DIW2K1J89CMO","img_art/ins/3.jpg","4","","","","","","","","","","","","","","","","","","","","","","","","",""
"645","","image-button-response","40","175417","0.0-39.0-0.0","A1DIW2K1J89CMO","img_art/ins/3.jpg","5","","","","","","","","","","","","","","","","","","","","","","","","",""
"null","","html-keyboard-response","41","175919","0.0-40.0","A1DIW2K1J89CMO","<p style=""font-size: 48px;"">+</p>","","","","","null","allTrialResponses","500","1","0","img_art/ins/3.jpg","1","Birds flying in the sky after a storm","Mary,Kara,Rose,Leslie,Erika,Jen","I like the overlapping of brushes,41,220,20","calming blue is very nice,36,160,20","My daily routine, it's depressing,-20,240,20","It's an alright work,15,200,20","I feel connected to the artist,40,100,20","I can feel a rainy day from this painting,18,120,20","Mary","I like the overlapping of brushes,41,220,20","Erika","I feel connected to the artist,40,100,20","Jen","I can feel a rainy day from this painting,18,120,20","2"
"3094","","image-button-response_instructions","42","179017","0.0-41.0","A1DIW2K1J89CMO","","0","instructions","","","","","","","","","","","","","","","","","","","","","","","",""
"7931","","survey-likert","43","186949","0.0-42.0-0.0","A1DIW2K1J89CMO","","","","{""Q0"":"""",""Q1"":0,""Q2"":1}","","","","","","","","","","","","","","","","","","","","","","",""
"4332","","survey-text","44","191289","0.0-43.0-0.0","A1DIW2K1J89CMO","","","","{""Q0"":""rock""}","","","","","","","","","","","","","","","","","","","","","","",""
"13977","","survey-text","45","205268","0.0-44.0-0.0","A1DIW2K1J89CMO","","","","{""Q0"":""It reminds me of child innocence lost""}","","","","","","","","","","","","","","","","","","","","","","",""
"3472.899999976158","","image-slider-response","46","208742","0.0-45.0","A1DIW2K1J89CMO","","","","","-5","","","","","","","","","","","","","","","","","","","","","",""
"null","","image-button-response","47","213765","0.0-46.0","A1DIW2K1J89CMO","img_art/16.jpg","null","","","","","","","","","","","","","","","","","","","","","","","","",""
"797","","image-button-response","48","214564","0.0-47.0","A1DIW2K1J89CMO","img_art/16.jpg","2","","","","","","","","","","","","","","","","","","","","","","","","",""
"3082","","image-button-response","49","217648","0.0-48.0-0.0","A1DIW2K1J89CMO","img_art/16.jpg","4","","","","","","","","","","","","","","","","","","","","","","","","",""
"409","","image-button-response","50","218059","0.0-49.0-0.0","A1DIW2K1J89CMO","img_art/16.jpg","3","","","","","","","","","","","","","","","","","","","","","","","","",""
"null","","html-keyboard-response","51","219563","0.0-50.0","A1DIW2K1J89CMO","<p style=""font-size: 48px;"">+</p>","","","","","null","allTrialResponses","1500","1","1","img_art/16.jpg","-5","It reminds me of child innocence lost","Kayla,Caroline,Lindsey,Amanda,Erika,Molly","Looks upsetting. Like it's actually graphic violence but you can't tell.,-24,180,20","Did not like at all. I think something sinister going on in the background and the bear a diversion,-50,100,20","It's depressing. Probably achieved its goal. But I wouldn't want it hanging in my home.,-31,400,20","Very modern, reminds me of bansky,43,180,20","Very emotional,23,100,20","It's frightening.,30,340,20","Lindsey","It's depressing. Probably achieved its goal. But I wouldn't want it hanging in my home.,-31,400,20","Erika","Very emotional,23,100,20","Amanda","Very modern, reminds me of bansky,43,180,20","2"
"20854","","survey-text","52","240420","0.0-51.0-0.0","A1DIW2K1J89CMO","","","","{""Q0"":""It makes me feel lost""}","","","","","","","","","","","","","","","","","","","","","","",""
"1759.2000000476837","","image-slider-response","53","242181","0.0-52.0","A1DIW2K1J89CMO","","","","","-23","","","","","","","","","","","","","","","","","","","","","",""
"null","","image-button-response","54","247183","0.0-53.0","A1DIW2K1J89CMO","img_art/8.jpg","null","","","","","","","","","","","","","","","","","","","","","","","","",""
"11337","","image-button-response","55","258522","0.0-54.0","A1DIW2K1J89CMO","img_art/8.jpg","2","","","","","","","","","","","","","","","","","","","","","","","","",""
"2482","","image-button-response","56","261006","0.0-55.0-0.0","A1DIW2K1J89CMO","img_art/8.jpg","5","","","","","","","","","","","","","","","","","","","","","","","","",""
"2978","","image-button-response","57","263986","0.0-56.0-0.0","A1DIW2K1J89CMO","img_art/8.jpg","4","","","","","","","","","","","","","","","","","","","","","","","","",""
"null","","html-keyboard-response","58","264496","0.0-57.0","A1DIW2K1J89CMO","<p style=""font-size: 48px;"">+</p>","","","","","null","allTrialResponses","500","1","2","img_art/8.jpg","-23","It makes me feel lost","Isabella,Mary,Lindsey,Amanda,Erika,Andrea","Ancient city looked after by diety,38,280,20","Very inspiring piece. I love how it's at angle. It gives it character.,23,180,20","Pleasant colors, lots of interest. Not sure what's going on but I like it.,20,400,20","I love architectural paintings,46,180,20","Striking, but not my taste,20,100,20","The face makes me think its a statement of the almighty of big brother watching us. onfuCsion limits my enjoyment.,6,240,20","Lindsey","Pleasant colors, lots of interest. Not sure what's going on but I like it.,20,400,20","Andrea","The face makes me think its a statement of the almighty of big brother watching us. onfuCsion limits my enjoyment.,6,240,20","Erika","Striking, but not my taste,20,100,20","2"
"12198","","survey-text","59","276699","0.0-58.0-0.0","A1DIW2K1J89CMO","","","","{""Q0"":""All I can think about are old fossils""}","","","","","","","","","","","","","","","","","","","","","","",""
"2064.300000011921","","image-slider-response","60","278764","0.0-59.0","A1DIW2K1J89CMO","","","","","8","","","","","","","","","","","","","","","","","","","","","",""
"null","","image-button-response","61","283768","0.0-60.0","A1DIW2K1J89CMO","img_art/7.jpg","null","","","","","","","","","","","","","","","","","","","","","","","","",""
"3090","","image-button-response","62","286860","0.0-61.0","A1DIW2K1J89CMO","img_art/7.jpg","3","","","","","","","","","","","","","","","","","","","","","","","","",""
"3200","","image-button-response","63","290062","0.0-62.0-0.0","A1DIW2K1J89CMO","img_art/7.jpg","4","","","","","","","","","","","","","","","","","","","","","","","","",""
"811","","image-button-response","64","290875","0.0-63.0-0.0","A1DIW2K1J89CMO","img_art/7.jpg","1","","","","","","","","","","","","","","","","","","","","","","","","",""
"null","","html-keyboard-response","65","292389","0.0-64.0","A1DIW2K1J89CMO","<p style=""font-size: 48px;"">+</p>","","","","","null","allTrialResponses","1500","1","3","img_art/7.jpg","8","All I can think about are old fossils","Alexa,Kylie,Lindsey,Rachel,Erika,Andrea","Not a fan of the pattern or colors,-40,40,20","No particular reaction to this,10,300,20","It's dirty. I don't mind the colors so much as the way they are put together in this dirty-looking pattern.,-41,400,20","Looks like a desert or another planet. While the color choices are narrow, it's still interesting because it is very natural.,12,80,20","Detail oriented, like cracked paint wall,15,100,20","Reminds me of mold. Repulsive.,-10,240,20","Rachel","Looks like a desert or another planet. While the color choices are narrow, it's still interesting because it is very natural.,12,80,20","Erika","Detail oriented, like cracked paint wall,15,100,20","Kylie","No particular reaction to this,10,300,20","2"
"26712","","survey-text","66","319105","0.0-65.0-0.0","A1DIW2K1J89CMO","","","","{""Q0"":""It looks like rainbow sprinkles""}","","","","","","","","","","","","","","","","","","","","","","",""
"13724.300000011921","","image-slider-response","67","332830","0.0-66.0","A1DIW2K1J89CMO","","","","","13","","","","","","","","","","","","","","","","","","","","","",""
"null","","image-button-response","68","337844","0.0-67.0","A1DIW2K1J89CMO","img_art/23.jpg","null","","","","","","","","","","","","","","","","","","","","","","","","",""
"17101","","image-button-response","69","354948","0.0-68.0","A1DIW2K1J89CMO","img_art/23.jpg","5","","","","","","","","","","","","","","","","","","","","","","","","",""
"1307","","image-button-response","70","356258","0.0-69.0-0.0","A1DIW2K1J89CMO","img_art/23.jpg","3","","","","","","","","","","","","","","","","","","","","","","","","",""
"2002","","image-button-response","71","358262","0.0-70.0-0.0","A1DIW2K1J89CMO","img_art/23.jpg","2","","","","","","","","","","","","","","","","","","","","","","","","",""
"null","","html-keyboard-response","72","358769","0.0-71.0","A1DIW2K1J89CMO","<p style=""font-size: 48px;"">+</p>","","","","","null","allTrialResponses","500","1","4","img_art/23.jpg","13","It looks like rainbow sprinkles","Danielle,Kylie,Lauren,Rachel,Erika,Maria","While I don't normally enjoy these color schemes all together, I kind of like this one,10,340,20","Universal celebration,40,300,20","I like the symmetrical design and how it portrays the liveliness of a musical environment.,30,340,20","Vivid colors and the white in the middle looks like people dancing.,31,80,20","Very intense and unique,3,100,20","the pattern of colours imbues in me a sense of infinity, which I find soothing,10,120,20","Maria","the pattern of colours imbues in me a sense of infinity, which I find soothing,10,120,20","Rachel","Vivid colors and the white in the middle looks like people dancing.,31,80,20","Lauren","I like the symmetrical design and how it portrays the liveliness of a musical environment.,30,340,20","2"
"11461","","survey-text","73","370233","0.0-72.0-0.0","A1DIW2K1J89CMO","","","","{""Q0"":""Soothing and serene""}","","","","","","","","","","","","","","","","","","","","","","",""
"3039.5","","image-slider-response","74","373274","0.0-73.0","A1DIW2K1J89CMO","","","","","50","","","","","","","","","","","","","","","","","","","","","",""
"2982","","image-button-response","75","378276","0.0-74.0","A1DIW2K1J89CMO","img_art/24.jpg","1","","","","","","","","","","","","","","","","","","","","","","","","",""
"823","","image-button-response","76","379101","0.0-75.0","A1DIW2K1J89CMO","img_art/24.jpg","1","","","","","","","","","","","","","","","","","","","","","","","","",""
"1449","","image-button-response","77","380551","0.0-76.0-0.0","A1DIW2K1J89CMO","img_art/24.jpg","0","","","","","","","","","","","","","","","","","","","","","","","","",""
"1899","","image-button-response","78","382453","0.0-77.0-0.0","A1DIW2K1J89CMO","img_art/24.jpg","2","","","","","","","","","","","","","","","","","","","","","","","","",""
"null","","html-keyboard-response","79","382968","0.0-78.0","A1DIW2K1J89CMO","<p style=""font-size: 48px;"">+</p>","","","","","null","allTrialResponses","500","1","5","img_art/24.jpg","50","Soothing and serene","Chelsea,Brianna,Lauren,Rachel,Meghan,Maria","The colors are relaxing and cheerful.,32,180,20","The waterfall looks peaceful,11,20,20","Invokes a strong sense of nature, since the piece can interpreted as a stream or an abstracted bird.,40,340,20","Looks like a beautiful stream rolling through terrain of rocks and flowers.,43,80,20","pretty like a waterfall,22,220,20","this evokes a gutural reaction - it displeases me how similar it is to art I saw growing up,-30,120,20","Brianna","The waterfall looks peaceful,11,20,20","Chelsea","The colors are relaxing and cheerful.,32,180,20","Lauren","Invokes a strong sense of nature, since the piece can interpreted as a stream or an abstracted bird.,40,340,20","2"
"3395","","survey-text","80","386370","0.0-79.0-0.0","A1DIW2K1J89CMO","","","","{""Q0"":""sky""}","","","","","","","","","","","","","","","","","","","","","","",""
"21470","","survey-text","81","407842","0.0-80.0-0.0","A1DIW2K1J89CMO","","","","{""Q0"":""Colorful streamers left in a tree ""}","","","","","","","","","","","","","","","","","","","","","","",""
"4581","","image-slider-response","82","412425","0.0-81.0","A1DIW2K1J89CMO","","","","","9","","","","","","","","","","","","","","","","","","","","","",""
"4568","","image-button-response","83","417427","0.0-82.0","A1DIW2K1J89CMO","img_art/17.jpg","2","","","","","","","","","","","","","","","","","","","","","","","","",""
"3367","","image-button-response","84","420795","0.0-83.0","A1DIW2K1J89CMO","img_art/17.jpg","2","","","","","","","","","","","","","","","","","","","","","","","","",""
"1083","","image-button-response","85","421879","0.0-84.0-0.0","A1DIW2K1J89CMO","img_art/17.jpg","0","","","","","","","","","","","","","","","","","","","","","","","","",""
"2214","","image-button-response","86","424095","0.0-85.0-0.0","A1DIW2K1J89CMO","img_art/17.jpg","3","","","","","","","","","","","","","","","","","","","","","","","","",""
"null","","html-keyboard-response","87","424598","0.0-86.0","A1DIW2K1J89CMO","<p style=""font-size: 48px;"">+</p>","","","","","null","allTrialResponses","500","1","6","img_art/17.jpg","9","Colorful streamers left in a tree ","Chelsea,Brianna,Lauren,Margaret,Jacqueline,Hailey","The colors are soft.,32,180,20","It's nice and realistic looking.,12,20,20","I like how the image gives an impression of gaseous tree.,15,340,20","gentle watercolor vibes,12,100,20","It's okay, I just don't see much too it.,7,300,20","soft and warm light colors are relaxing,12,200,20","Lauren","I like how the image gives an impression of gaseous tree.,15,340,20","Chelsea","The colors are soft.,32,180,20","Margaret","gentle watercolor vibes,12,100,20","2"
"14928","","survey-text","88","439530","0.0-87.0-0.0","A1DIW2K1J89CMO","","","","{""Q0"":""I like the transition from more natural colors to bright colors""}","","","","","","","","","","","","","","","","","","","","","","",""
"3266.900000035763","","image-slider-response","89","442798","0.0-88.0","A1DIW2K1J89CMO","","","","","50","","","","","","","","","","","","","","","","","","","","","",""
"null","","image-button-response","90","447801","0.0-89.0","A1DIW2K1J89CMO","img_art/12.jpg","null","","","","","","","","","","","","","","","","","","","","","","","","",""
"3095","","image-button-response","91","450897","0.0-90.0","A1DIW2K1J89CMO","img_art/12.jpg","3","","","","","","","","","","","","","","","","","","","","","","","","",""
"2370","","image-button-response","92","453267","0.0-91.0-0.0","A1DIW2K1J89CMO","img_art/12.jpg","3","","","","","","","","","","","","","","","","","","","","","","","","",""
"895","","image-button-response","93","456700","0.0-91.1-0.1","A1DIW2K1J89CMO","img_art/12.jpg","0","","","","","","","","","","","","","","","","","","","","","","","","",""
"1127","","image-button-response","94","457829","0.0-92.0-0.0","A1DIW2K1J89CMO","img_art/12.jpg","2","","","","","","","","","","","","","","","","","","","","","","","","",""
"null","","html-keyboard-response","95","458342","0.0-93.0","A1DIW2K1J89CMO","<p style=""font-size: 48px;"">+</p>","","","","","null","allTrialResponses","500","1","7","img_art/12.jpg","50","I like the transition from more natural colors to bright colors","Chelsea,Sierra,Lauren,Margaret,Nicole,Breanna","I like the gradient of little color on the top to colorful on the bottom.,24,180,20","i dont see the point.,-19,260,20","This doesn't invoke anything. Just a mosaic of random images.,0,340,20","I like the bottom half and hate the top half,7,100,20","I like all the squares and the colors but it feels too cluttered to me,20,20,20","It makes me feel confused,-15,380,20","Margaret","I like the bottom half and hate the top half,7,100,20","Chelsea","I like the gradient of little color on the top to colorful on the bottom.,24,180,20","Lauren","This doesn't invoke anything. Just a mosaic of random images.,0,340,20","4"
"33264","","survey-text","96","491610","0.0-94.0-0.0","A1DIW2K1J89CMO","","","","{""Q0"":""It seems like how things can seem disconnected until you look at the big picture and it all fits""}","","","","","","","","","","","","","","","","","","","","","","",""
"3032.800000011921","","image-slider-response","97","494644","0.0-95.0","A1DIW2K1J89CMO","","","","","50","","","","","","","","","","","","","","","","","","","","","",""
"2522","","image-button-response","98","499652","0.0-96.0","A1DIW2K1J89CMO","img_art/13.jpg","2","","","","","","","","","","","","","","","","","","","","","","","","",""
"803","","image-button-response","99","500457","0.0-97.0","A1DIW2K1J89CMO","img_art/13.jpg","2","","","","","","","","","","","","","","","","","","","","","","","","",""
"3101","","image-button-response","100","503558","0.0-98.0-0.0","A1DIW2K1J89CMO","img_art/13.jpg","3","","","","","","","","","","","","","","","","","","","","","","","","",""
"545","","image-button-response","101","504106","0.0-99.0-0.0","A1DIW2K1J89CMO","img_art/13.jpg","5","","","","","","","","","","","","","","","","","","","","","","","","",""
"null","","html-keyboard-response","102","505613","0.0-100.0","A1DIW2K1J89CMO","<p style=""font-size: 48px;"">+</p>","","","","","null","allTrialResponses","1500","1","8","img_art/13.jpg","50","It seems like how things can seem disconnected until you look at the big picture and it all fits","Chelsea,Kathryn,Lauren,Margaret,Destiny,Laura","The colors are okay but I don't like the shapes here.,-18,180,20","Reminds me of depression anxiety, but negativity is dampened by motion. It's trying to release itself through expression.,-10,140,20","I like the color coordination between the foreground and background.,10,340,20","i like the splatters and the colors,21,100,20","so simple and stupid this looks like what I did to my cousins wall when we repainted it for her 13th bday,0,360,20","water on my shower curtain - I feel refreshed, renewed,9,320,20","Lauren","I like the color coordination between the foreground and background.,10,340,20","Margaret","i like the splatters and the colors,21,100,20","Laura","water on my shower curtain - I feel refreshed, renewed,9,320,20","4"
"34924","","survey-text","103","540542","0.0-101.0-0.0","A1DIW2K1J89CMO","","","","{""Q0"":""I like the sunrise-evoking colors""}","","","","","","","","","","","","","","","","","","","","","","",""
"1413.3999999761581","","image-slider-response","104","541956","0.0-102.0","A1DIW2K1J89CMO","","","","","7","","","","","","","","","","","","","","","","","","","","","",""
"4878","","image-button-response","105","546961","0.0-103.0","A1DIW2K1J89CMO","img_art/22.jpg","4","","","","","","","","","","","","","","","","","","","","","","","","",""
"1246","","image-button-response","106","548210","0.0-104.0","A1DIW2K1J89CMO","img_art/22.jpg","4","","","","","","","","","","","","","","","","","","","","","","","","",""
"638","","image-button-response","107","548850","0.0-105.0-0.0","A1DIW2K1J89CMO","img_art/22.jpg","3","","","","","","","","","","","","","","","","","","","","","","","","",""
"2468","","image-button-response","108","551320","0.0-106.0-0.0","A1DIW2K1J89CMO","img_art/22.jpg","0","","","","","","","","","","","","","","","","","","","","","","","","",""
"null","","html-keyboard-response","109","552823","0.0-107.0","A1DIW2K1J89CMO","<p style=""font-size: 48px;"">+</p>","","","","","null","allTrialResponses","1500","1","9","img_art/22.jpg","7","I like the sunrise-evoking colors","Kristen,Cheyenne,Lauren,Margaret,Elizabeth,Laura","fire, danger, resentful,-17,280,20","Didn't illicit any reaction,1,200,20","This doesn't invoke anything, since I can't tell what the piece represents.,0,340,20","i feel like this is a a basic art piece that a school would have on the wall,-24,100,20","Great color palette,29,20,20","muddy and rough,14,320,20","Elizabeth","Great color palette,29,20,20","Margaret","i feel like this is a a basic art piece that a school would have on the wall,-24,100,20","Kristen","fire, danger, resentful,-17,280,20","4"
"23099","","survey-text","110","575926","0.0-108.0-0.0","A1DIW2K1J89CMO","","","","{""Q0"":""It's like how a dream feels when you wake up""}","","","","","","","","","","","","","","","","","","","","","","",""
"1547.300000011921","","image-slider-response","111","577475","0.0-109.0","A1DIW2K1J89CMO","","","","","10","","","","","","","","","","","","","","","","","","","","","",""
"null","","image-button-response","112","582479","0.0-110.0","A1DIW2K1J89CMO","img_art/26.jpg","null","","","","","","","","","","","","","","","","","","","","","","","","",""
"904","","image-button-response","113","583385","0.0-111.0","A1DIW2K1J89CMO","img_art/26.jpg","0","","","","","","","","","","","","","","","","","","","","","","","","",""
"3153","","image-button-response","114","586540","0.0-112.0-0.0","A1DIW2K1J89CMO","img_art/26.jpg","2","","","","","","","","","","","","","","","","","","","","","","","","",""
"3093","","image-button-response","115","589636","0.0-113.0-0.0","A1DIW2K1J89CMO","img_art/26.jpg","4","","","","","","","","","","","","","","","","","","","","","","","","",""
"null","","html-keyboard-response","116","591137","0.0-114.0","A1DIW2K1J89CMO","<p style=""font-size: 48px;"">+</p>","","","","","null","allTrialResponses","1500","1","10","img_art/26.jpg","10","It's like how a dream feels when you wake up","Kristen,Heather,Katie,Margaret,Elizabeth,Paige","happy, park, childhood,9,280,20","neighborhood and trees. i wonder if this is water paint.,1,260,20","Reminds me of watercolor. Muted tones and blurry soft brush strokes. Calm to me.,1,160,20","its boring and i dont like the color palette,3,100,20","Like the soft blend of colors,26,20,20","somewhat happy, like being outside on a nice day,30,60,20","Kristen","happy, park, childhood,9,280,20","Katie","Reminds me of watercolor. Muted tones and blurry soft brush strokes. Calm to me.,1,160,20","Elizabeth","Like the soft blend of colors,26,20,20","4"
"3087","","survey-text","117","594232","0.0-115.0-0.0","A1DIW2K1J89CMO","","","","{""Q0"":""our""}","","","","","","","","","","","","","","","","","","","","","","",""
"16697","","survey-text","118","610930","0.0-116.0-0.0","A1DIW2K1J89CMO","","","","{""Q0"":""The style of painting fits the subject""}","","","","","","","","","","","","","","","","","","","","","","",""
"3182.800000011921","","image-slider-response","119","614114","0.0-117.0","A1DIW2K1J89CMO","","","","","8","","","","","","","","","","","","","","","","","","","","","",""
"null","","image-button-response","120","619117","0.0-118.0","A1DIW2K1J89CMO","img_art/28.jpg","null","","","","","","","","","","","","","","","","","","","","","","","","",""
"3679","","image-button-response","121","622797","0.0-119.0","A1DIW2K1J89CMO","img_art/28.jpg","1","","","","","","","","","","","","","","","","","","","","","","","","",""
"2507","","image-button-response","122","625306","0.0-120.0-0.0","A1DIW2K1J89CMO","img_art/28.jpg","2","","","","","","","","","","","","","","","","","","","","","","","","",""
"693","","image-button-response","123","626002","0.0-121.0-0.0","A1DIW2K1J89CMO","img_art/28.jpg","3","","","","","","","","","","","","","","","","","","","","","","","","",""
"null","","html-keyboard-response","124","627005","0.0-122.0","A1DIW2K1J89CMO","<p style=""font-size: 48px;"">+</p>","","","","","null","allTrialResponses","1000","1","11","img_art/28.jpg","8","The style of painting fits the subject","Kristen,Michelle,Katie,Melissa,Elizabeth,Julia","almost reminds me of thomas becket getting his head cut off,21,280,20","This piece is depressing to me, reminds me of German paintings,-6,280,20","Like the muted pink colors. However, the mood is sad because of the blurriness,22,160,20","reminds me of kandinsky,14,240,20","Not really exciting,23,20,20","the people kind of scare me in this one,-15,40,20","Michelle","This piece is depressing to me, reminds me of German paintings,-6,280,20","Katie","Like the muted pink colors. However, the mood is sad because of the blurriness,22,160,20","Melissa","reminds me of kandinsky,14,240,20","4"
"15235","","survey-text","125","642244","0.0-123.0-0.0","A1DIW2K1J89CMO","","","","{""Q0"":""A picnic overlooking the river""}","","","","","","","","","","","","","","","","","","","","","","",""
"2504.199999988079","","image-slider-response","126","644750","0.0-124.0","A1DIW2K1J89CMO","","","","","-4","","","","","","","","","","","","","","","","","","","","","",""
"null","","image-button-response","127","649752","0.0-125.0","A1DIW2K1J89CMO","img_art/19.jpg","null","","","","","","","","","","","","","","","","","","","","","","","","",""
"684","","image-button-response","128","650437","0.0-126.0","A1DIW2K1J89CMO","img_art/19.jpg","2","","","","","","","","","","","","","","","","","","","","","","","","",""
"5413","","image-button-response","129","655852","0.0-127.0-0.0","A1DIW2K1J89CMO","img_art/19.jpg","0","","","","","","","","","","","","","","","","","","","","","","","","",""
"690","","image-button-response","130","656544","0.0-128.0-0.0","A1DIW2K1J89CMO","img_art/19.jpg","1","","","","","","","","","","","","","","","","","","","","","","","","",""
"null","","html-keyboard-response","131","657057","0.0-129.0","A1DIW2K1J89CMO","<p style=""font-size: 48px;"">+</p>","","","","","null","allTrialResponses","500","1","12","img_art/19.jpg","-4","A picnic overlooking the river","Stephanie,Michelle,Katie,Melissa,Miranda,Madeline","A dreary town in the fall.,-4,300,20","I like the water but again, the small lines with no detail are irritating,3,280,20","Too busy, makes me anxious and frustrated. Lots of movement in the brush strokes.,-9,160,20","feels free and loose,3,240,20","It looks cool but at the time looks like it was done by a talented 5 year old.,13,320,20","Looks a bit too loose,-2,40,20","Katie","Too busy, makes me anxious and frustrated. Lots of movement in the brush strokes.,-9,160,20","Stephanie","A dreary town in the fall.,-4,300,20","Michelle","I like the water but again, the small lines with no detail are irritating,3,280,20","4"
"29258","","survey-text","132","686320","0.0-130.0-0.0","A1DIW2K1J89CMO","","","","{""Q0"":""It's colorful and abstract""}","","","","","","","","","","","","","","","","","","","","","","",""
"1687.2999999523163","","image-slider-response","133","688008","0.0-131.0","A1DIW2K1J89CMO","","","","","-5","","","","","","","","","","","","","","","","","","","","","",""
"null","","image-button-response","134","693010","0.0-132.0","A1DIW2K1J89CMO","img_art/1.jpg","null","","","","","","","","","","","","","","","","","","","","","","","","",""
"1828","","image-button-response","135","694839","0.0-133.0","A1DIW2K1J89CMO","img_art/1.jpg","3","","","","","","","","","","","","","","","","","","","","","","","","",""
"1312","","image-button-response","136","696153","0.0-134.0-0.0","A1DIW2K1J89CMO","img_art/1.jpg","5","","","","","","","","","","","","","","","","","","","","","","","","",""
"897","","image-button-response","137","697052","0.0-135.0-0.0","A1DIW2K1J89CMO","img_art/1.jpg","0","","","","","","","","","","","","","","","","","","","","","","","","",""
"null","","html-keyboard-response","138","698057","0.0-136.0","A1DIW2K1J89CMO","<p style=""font-size: 48px;"">+</p>","","","","","null","allTrialResponses","1000","1","13","img_art/1.jpg","-5","It's colorful and abstract","Stephanie,Michelle,Katie,Caitlin,Savannah,Cassidy","Pretty colors. Fall day in the East Coast of USA.,42,300,20","Random paint does not make art,-5,280,20","Too messy. Just looks like a mess of dark colors.,-20,160,20","Deja vu. Haven't I seen this one before? Not bad for those living in the backwoods.,10,80,20","Its simply okay.,3,200,20","I like the colors and layers,25,140,20","Caitlin","Deja vu. Haven't I seen this one before? Not bad for those living in the backwoods.,10,80,20","Cassidy","I like the colors and layers,25,140,20","Stephanie","Pretty colors. Fall day in the East Coast of USA.,42,300,20","4"
"16269","","survey-text","139","714330","0.0-137.0-0.0","A1DIW2K1J89CMO","","","","{""Q0"":""It reminds me of the desert where one thing is growing among the sand""}","","","","","","","","","","","","","","","","","","","","","","",""
"1920.8999999761581","","image-slider-response","140","716252","0.0-138.0","A1DIW2K1J89CMO","","","","","3","","","","","","","","","","","","","","","","","","","","","",""
"null","","image-button-response","141","721254","0.0-139.0","A1DIW2K1J89CMO","img_art/14.jpg","null","","","","","","","","","","","","","","","","","","","","","","","","",""
"1218","","image-button-response","142","722474","0.0-140.0","A1DIW2K1J89CMO","img_art/14.jpg","5","","","","","","","","","","","","","","","","","","","","","","","","",""
"649","","image-button-response","143","723125","0.0-141.0-0.0","A1DIW2K1J89CMO","img_art/14.jpg","4","","","","","","","","","","","","","","","","","","","","","","","","",""
"624","","image-button-response","144","723751","0.0-142.0-0.0","A1DIW2K1J89CMO","img_art/14.jpg","2","","","","","","","","","","","","","","","","","","","","","","","","",""
"null","","html-keyboard-response","145","724762","0.0-143.0","A1DIW2K1J89CMO","<p style=""font-size: 48px;"">+</p>","","","","","null","allTrialResponses","1000","1","14","img_art/14.jpg","3","It reminds me of the desert where one thing is growing among the sand","Stephanie,Kelsey,Mackenzie,Caitlin,Erica,Cassidy","Late Winter when things are just starting to bloom.,21,300,20","i like this one!,23,240,20","I like the combination of colors and textures.,35,20,20","Are they blowing up a tree?,-5,80,20","positive colours, makes me to look at it and investigate what is going on,27,80,20","Meh. Pleasant to look at. Colors are nice,6,140,20","Cassidy","Meh. Pleasant to look at. Colors are nice,6,140,20","Erica","positive colours, makes me to look at it and investigate what is going on,27,80,20","Mackenzie","I like the combination of colors and textures.,35,20,20","4"
"15395","","survey-text","146","740160","0.0-144.0-0.0","A1DIW2K1J89CMO","","","","{""Q0"":""A car accident""}","","","","","","","","","","","","","","","","","","","","","","",""
"2494.2999999523163","","image-slider-response","147","742656","0.0-145.0","A1DIW2K1J89CMO","","","","","-14","","","","","","","","","","","","","","","","","","","","","",""
"null","","image-button-response","148","747657","0.0-146.0","A1DIW2K1J89CMO","img_art/20.jpg","null","","","","","","","","","","","","","","","","","","","","","","","","",""
"1904","","image-button-response","149","749563","0.0-147.0","A1DIW2K1J89CMO","img_art/20.jpg","4","","","","","","","","","","","","","","","","","","","","","","","","",""
"2920","","image-button-response","150","752486","0.0-148.0-0.0","A1DIW2K1J89CMO","img_art/20.jpg","5","","","","","","","","","","","","","","","","","","","","","","","","",""
"3773","","image-button-response","151","756261","0.0-149.0-0.0","A1DIW2K1J89CMO","img_art/20.jpg","1","","","","","","","","","","","","","","","","","","","","","","","","",""
"null","","html-keyboard-response","152","756770","0.0-150.0","A1DIW2K1J89CMO","<p style=""font-size: 48px;"">+</p>","","","","","null","allTrialResponses","500","1","15","img_art/20.jpg","-14","A car accident","Kaitlyn,Ashley,Mackenzie,Michaela,Erica,Cassidy","The picture looks smudged and dirty,-4,80,20","Painting within a painting, abstract.,32,320,20","Shapes are fun to interpret,21,20,20","I can't tell what's going on but I like the colors,12,260,20","looks like an auto accident,-30,80,20","sort of pleasant to look at, but can't tell if it's supposed to be something,13,140,20","Erica","looks like an auto accident,-30,80,20","Cassidy","sort of pleasant to look at, but can't tell if it's supposed to be something,13,140,20","Ashley","Painting within a painting, abstract.,32,320,20","4"
"3902","","survey-text","153","760681","0.0-151.0-0.0","A1DIW2K1J89CMO","","","","{""Q0"":""course""}","","","","","","","","","","","","","","","","","","","","","","",""
"18861","","survey-text","154","779543","0.0-152.0-0.0","A1DIW2K1J89CMO","","","","{""Q0"":""It reminds me of the part in the Princess Bride with Fezzik in the cloak""}","","","","","","","","","","","","","","","","","","","","","","",""
"3431.699999988079","","image-slider-response","155","782976","0.0-153.0","A1DIW2K1J89CMO","","","","","50","","","","","","","","","","","","","","","","","","","","","",""
"4893","","image-button-response","156","787978","0.0-154.0","A1DIW2K1J89CMO","img_art/25.jpg","3","","","","","","","","","","","","","","","","","","","","","","","","",""
"1461","","image-button-response","157","789441","0.0-155.0","A1DIW2K1J89CMO","img_art/25.jpg","5","","","","","","","","","","","","","","","","","","","","","","","","",""
"441","","image-button-response","158","789884","0.0-156.0-0.0","A1DIW2K1J89CMO","img_art/25.jpg","3","","","","","","","","","","","","","","","","","","","","","","","","",""
"1123","","image-button-response","159","791009","0.0-157.0-0.0","A1DIW2K1J89CMO","img_art/25.jpg","1","","","","","","","","","","","","","","","","","","","","","","","","",""
"null","","html-keyboard-response","160","792511","0.0-158.0","A1DIW2K1J89CMO","<p style=""font-size: 48px;"">+</p>","","","","","null","allTrialResponses","1500","1","16","img_art/25.jpg","50","It reminds me of the part in the Princess Bride with Fezzik in the cloak","Alexandria,Ashley,Courtney,Jenna,Erica,Cassidy","the contrasting colors are very interesting,24,80,20","haunting, a lovely impression.,50,320,20","That on i find a bit creapy.,-19,280,20","beautiful in a primitive way,10,360,20","reminds me of a demon,-25,80,20","Love the colors, and how it's simple yet complex,25,140,20","Cassidy","Love the colors, and how it's simple yet complex,25,140,20","Jenna","beautiful in a primitive way,10,360,20","Ashley","haunting, a lovely impression.,50,320,20","4"
"14173","","survey-text","161","806692","0.0-159.0-0.0","A1DIW2K1J89CMO","","","","{""Q0"":""Approaching an oasis""}","","","","","","","","","","","","","","","","","","","","","","",""
"3021.400000035763","","image-slider-response","162","809714","0.0-160.0","A1DIW2K1J89CMO","","","","","28","","","","","","","","","","","","","","","","","","","","","",""
"null","","image-button-response","163","814722","0.0-161.0","A1DIW2K1J89CMO","img_art/6.jpg","null","","","","","","","","","","","","","","","","","","","","","","","","",""
"1264","","image-button-response","164","815988","0.0-162.0","A1DIW2K1J89CMO","img_art/6.jpg","5","","","","","","","","","","","","","","","","","","","","","","","","",""
"1712","","image-button-response","165","817701","0.0-163.0-0.0","A1DIW2K1J89CMO","img_art/6.jpg","4","","","","","","","","","","","","","","","","","","","","","","","","",""
"1112","","image-button-response","166","818815","0.0-164.0-0.0","A1DIW2K1J89CMO","img_art/6.jpg","0","","","","","","","","","","","","","","","","","","","","","","","","",""
"null","","html-keyboard-response","167","819825","0.0-165.0","A1DIW2K1J89CMO","<p style=""font-size: 48px;"">+</p>","","","","","null","allTrialResponses","1000","1","17","img_art/6.jpg","28","Approaching an oasis","Erin,Ashley,Kaylee,Jenna,Jasmine,Cassidy","Blackbird in the desert,27,120,20","A lot of people will lvoe this, I do not.,1,320,20","just an another tree on a desert?,9,200,20","I like the bottom half, but not the top,-7,360,20","Simple and clean,11,340,20","The background on the upper half is nice. I also like the contrast of the top and bottom halves,5,140,20","Cassidy","The background on the upper half is nice. I also like the contrast of the top and bottom halves,5,140,20","Jasmine","Simple and clean,11,340,20","Erin","Blackbird in the desert,27,120,20","4"
"21554","","survey-text","168","841383","0.0-166.0-0.0","A1DIW2K1J89CMO","","","","{""Q0"":""Overlooking the water, trying to guess what's on the way""}","","","","","","","","","","","","","","","","","","","","","","",""
"28022.69999998808","","image-slider-response","169","869407","0.0-167.0","A1DIW2K1J89CMO","","","","","9","","","","","","","","","","","","","","","","","","","","","",""
"4214","","image-button-response","170","874409","0.0-168.0","A1DIW2K1J89CMO","img_art/21.jpg","0","","","","","","","","","","","","","","","","","","","","","","","","",""
"655","","image-button-response","171","875066","0.0-169.0","A1DIW2K1J89CMO","img_art/21.jpg","0","","","","","","","","","","","","","","","","","","","","","","","","",""
"2818","","image-button-response","172","877887","0.0-170.0-0.0","A1DIW2K1J89CMO","img_art/21.jpg","3","","","","","","","","","","","","","","","","","","","","","","","","",""
"1444","","image-button-response","173","879333","0.0-171.0-0.0","A1DIW2K1J89CMO","img_art/21.jpg","5","","","","","","","","","","","","","","","","","","","","","","","","",""
"null","","html-keyboard-response","174","880847","0.0-172.0","A1DIW2K1J89CMO","<p style=""font-size: 48px;"">+</p>","","","","","null","allTrialResponses","1500","1","18","img_art/21.jpg","9","Overlooking the water, trying to guess what's on the way","Erin,Chloe,Alexandra,Bailey,Jasmine,Cassidy","Love the colors and hue, ocean,38,120,20","Lovely colors and emotive effects. Turner-esque in a not-so derivative way.,44,220,20","This one is nice, it reminds me of the sky,42,60,20","Looks like two ships on fire. Cool image.,12,360,20","The blues make me feel sadder as my mood is already not the best right now,-10,340,20","I really like these colors together and their placement. The dabs of white are a nice contrast to the soft blending,10,140,20","Erin","Love the colors and hue, ocean,38,120,20","Bailey","Looks like two ships on fire. Cool image.,12,360,20","Cassidy","I really like these colors together and their placement. The dabs of white are a nice contrast to the soft blending,10,140,20","4"
"17180","","survey-text","175","898031","0.0-173.0-0.0","A1DIW2K1J89CMO","","","","{""Q0"":""This reminds me of a French horn""}","","","","","","","","","","","","","","","","","","","","","","",""
"3530.800000011921","","image-slider-response","176","901563","0.0-174.0","A1DIW2K1J89CMO","","","","","-8","","","","","","","","","","","","","","","","","","","","","",""
"null","","image-button-response","177","906566","0.0-175.0","A1DIW2K1J89CMO","img_art/4.jpg","null","","","","","","","","","","","","","","","","","","","","","","","","",""
"3379","","image-button-response","178","909947","0.0-176.0","A1DIW2K1J89CMO","img_art/4.jpg","0","","","","","","","","","","","","","","","","","","","","","","","","",""
"967","","image-button-response","179","910916","0.0-177.0-0.0","A1DIW2K1J89CMO","img_art/4.jpg","1","","","","","","","","","","","","","","","","","","","","","","","","",""
"1525","","image-button-response","180","912443","0.0-178.0-0.0","A1DIW2K1J89CMO","img_art/4.jpg","2","","","","","","","","","","","","","","","","","","","","","","","","",""
"null","","html-keyboard-response","181","913951","0.0-179.0","A1DIW2K1J89CMO","<p style=""font-size: 48px;"">+</p>","","","","","null","allTrialResponses","1500","1","19","img_art/4.jpg","-8","This reminds me of a French horn","Erin,Briana,Rebecca,Bailey,Tiffany,Cassidy","Seems simplistic,-8,120,20","Fingerpaint of a hand?,-30,400,20","no sorry i can't really understand,-18,100,20","Boring and tasteless. Almost reminds me of when an art gallery called a banana 'art',-42,360,20","The sickly looking colors make me feel very uncomfortable.,-35,360,20","Hate the color, and just do not get the point.,-13,140,20","Erin","Seems simplistic,-8,120,20","Briana","Fingerpaint of a hand?,-30,400,20","Rebecca","no sorry i can't really understand,-18,100,20","4"
"14350","","survey-text","182","928305","0.0-180.0-0.0","A1DIW2K1J89CMO","","","","{""Q0"":""I like the way the red stands out""}","","","","","","","","","","","","","","","","","","","","","","",""
"6803.100000023842","","image-slider-response","183","935110","0.0-181.0","A1DIW2K1J89CMO","","","","","7","","","","","","","","","","","","","","","","","","","","","",""
"null","","image-button-response","184","940112","0.0-182.0","A1DIW2K1J89CMO","img_art/30.jpg","null","","","","","","","","","","","","","","","","","","","","","","","","",""
"1661","","image-button-response","185","941774","0.0-183.0","A1DIW2K1J89CMO","img_art/30.jpg","2","","","","","","","","","","","","","","","","","","","","","","","","",""
"893","","image-button-response","186","942668","0.0-184.0-0.0","A1DIW2K1J89CMO","img_art/30.jpg","0","","","","","","","","","","","","","","","","","","","","","","","","",""
"2557","","image-button-response","187","945227","0.0-185.0-0.0","A1DIW2K1J89CMO","img_art/30.jpg","3","","","","","","","","","","","","","","","","","","","","","","","","",""
"null","","html-keyboard-response","188","945729","0.0-186.0","A1DIW2K1J89CMO","<p style=""font-size: 48px;"">+</p>","","","","","null","allTrialResponses","500","1","20","img_art/30.jpg","7","I like the way the red stands out","Erin,Briana,Rebecca,Olivia,Shelby,Christina","Layers are interesting,22,120,20","Its ugly. Too simple,-23,400,20","don't know but it somehow speaks to me,29,100,20","perceiving greatness,20,40,20","It's pleasent but otherwise unprovoking,8,240,20","it looks like some thing I could make it my garage,-18,240,20","Rebecca","don't know but it somehow speaks to me,29,100,20","Erin","Layers are interesting,22,120,20","Olivia","perceiving greatness,20,40,20","4"
"2630","","survey-text","189","948368","0.0-187.0-0.0","A1DIW2K1J89CMO","","","","{""Q0"":""we""}","","","","","","","","","","","","","","","","","","","","","","",""
"26681","","survey-text","190","975050","0.0-188.0-0.0","A1DIW2K1J89CMO","","","","{""Q0"":""It's very playful, I can't really describe why, these colors are used on a lot of kid's toys""}","","","","","","","","","","","","","","","","","","","","","","",""
"3033.400000035763","","image-slider-response","191","978085","0.0-189.0","A1DIW2K1J89CMO","","","","","2","","","","","","","","","","","","","","","","","","","","","",""
"3605","","image-button-response","192","983087","0.0-190.0","A1DIW2K1J89CMO","img_art/2.jpg","3","","","","","","","","","","","","","","","","","","","","","","","","",""
"1651","","image-button-response","193","984740","0.0-191.0","A1DIW2K1J89CMO","img_art/2.jpg","3","","","","","","","","","","","","","","","","","","","","","","","","",""
"2719","","image-button-response","194","987461","0.0-192.0-0.0","A1DIW2K1J89CMO","img_art/2.jpg","5","","","","","","","","","","","","","","","","","","","","","","","","",""
"2696","","image-button-response","195","990158","0.0-193.0-0.0","A1DIW2K1J89CMO","img_art/2.jpg","1","","","","","","","","","","","","","","","","","","","","","","","","",""
"null","","html-keyboard-response","196","991160","0.0-194.0","A1DIW2K1J89CMO","<p style=""font-size: 48px;"">+</p>","","","","","null","allTrialResponses","1000","1","21","img_art/2.jpg","2","It's very playful, I can't really describe why, these colors are used on a lot of kid's toys","Erin,Katelyn,Rebecca,Olivia,Megan,Victoria","There is an odd face here that is creepy,-4,120,20","Looks childish and i dont like the texture,-25,100,20","do not understand,-21,100,20","i liked the bright colors,13,40,20","Colors and space work but the top scribbled killed it.,11,200,20","I like the colors,22,400,20","Olivia","i liked the bright colors,13,40,20","Victoria","I like the colors,22,400,20","Katelyn","Looks childish and i dont like the texture,-25,100,20","4"
"13158","","survey-text","197","1004322","0.0-195.0-0.0","A1DIW2K1J89CMO","","","","{""Q0"":""There's a stark contrast between the colors.""}","","","","","","","","","","","","","","","","","","","","","","",""
"3177.600000023842","","image-slider-response","198","1007502","0.0-196.0","A1DIW2K1J89CMO","","","","","11","","","","","","","","","","","","","","","","","","","","","",""
"null","","image-button-response","199","1012503","0.0-197.0","A1DIW2K1J89CMO","img_art/3.jpg","null","","","","","","","","","","","","","","","","","","","","","","","","",""
"1068","","image-button-response","200","1013574","0.0-198.0","A1DIW2K1J89CMO","img_art/3.jpg","5","","","","","","","","","","","","","","","","","","","","","","","","",""
"1596","","image-button-response","201","1015172","0.0-199.0-0.0","A1DIW2K1J89CMO","img_art/3.jpg","2","","","","","","","","","","","","","","","","","","","","","","","","",""
"493","","image-button-response","202","1015667","0.0-200.0-0.0","A1DIW2K1J89CMO","img_art/3.jpg","0","","","","","","","","","","","","","","","","","","","","","","","","",""
"null","","html-keyboard-response","203","1016169","0.0-201.0","A1DIW2K1J89CMO","<p style=""font-size: 48px;"">+</p>","","","","","null","allTrialResponses","500","1","22","img_art/3.jpg","11","There's a stark contrast between the colors.","Makayla,Katelyn,Abigail,Olivia,Gabriela,Victoria","Looks like blood scribbled on walls,-20,80,20","No substance or feeling to it,-20,100,20","Reminded me of blood or something bad,-21,20,20","confusing taking over,-15,40,20","It looks like a child drawing,-29,140,20","makes me think of anger,-33,400,20","Victoria","makes me think of anger,-33,400,20","Abigail","Reminded me of blood or something bad,-21,20,20","Makayla","Looks like blood scribbled on walls,-20,80,20","4"
"15043","","survey-text","204","1031217","0.0-202.0-0.0","A1DIW2K1J89CMO","","","","{""Q0"":""Skeleton warriors riding on horseback""}","","","","","","","","","","","","","","","","","","","","","","",""
"2313.300000011921","","image-slider-response","205","1033532","0.0-203.0","A1DIW2K1J89CMO","","","","","39","","","","","","","","","","","","","","","","","","","","","",""
"2127","","image-button-response","206","1038534","0.0-204.0","A1DIW2K1J89CMO","img_art/18.jpg","1","","","","","","","","","","","","","","","","","","","","","","","","",""
"596","","image-button-response","207","1039131","0.0-205.0","A1DIW2K1J89CMO","img_art/18.jpg","1","","","","","","","","","","","","","","","","","","","","","","","","",""
"445","","image-button-response","208","1039579","0.0-206.0-0.0","A1DIW2K1J89CMO","img_art/18.jpg","2","","","","","","","","","","","","","","","","","","","","","","","","",""
"766","","image-button-response","209","1040347","0.0-207.0-0.0","A1DIW2K1J89CMO","img_art/18.jpg","5","","","","","","","","","","","","","","","","","","","","","","","","",""
"null","","html-keyboard-response","210","1040850","0.0-208.0","A1DIW2K1J89CMO","<p style=""font-size: 48px;"">+</p>","","","","","null","allTrialResponses","500","1","23","img_art/18.jpg","39","Skeleton warriors riding on horseback","Makayla,Autumn,Abigail,Sydney,Claire,Victoria","I'm not partial to the design, unsettling,2,80,20","This looks amazing.,40,340,20","Interesting and capitvating to look at,19,20,20","I like the colors being used, but I don't like the chaos in the middle of it.,20,320,20","reminds me of greek mythology,22,260,20","Makes me think of stormy oceans,20,400,20","Autumn","This looks amazing.,40,340,20","Abigail","Interesting and capitvating to look at,19,20,20","Victoria","Makes me think of stormy oceans,20,400,20","4"
"17558","","survey-text","211","1058412","0.0-209.0-0.0","A1DIW2K1J89CMO","","","","{""Q0"":""This reminds me of the Venus de Milo and the Birth of Venus painting""}","","","","","","","","","","","","","","","","","","","","","","",""
"2304.699999988079","","image-slider-response","212","1060718","0.0-210.0","A1DIW2K1J89CMO","","","","","38","","","","","","","","","","","","","","","","","","","","","",""
"null","","image-button-response","213","1065727","0.0-211.0","A1DIW2K1J89CMO","img_art/9.jpg","null","","","","","","","","","","","","","","","","","","","","","","","","",""
"4386","","image-button-response","214","1070115","0.0-212.0","A1DIW2K1J89CMO","img_art/9.jpg","5","","","","","","","","","","","","","","","","","","","","","","","","",""
"1139","","image-button-response","215","1071256","0.0-213.0-0.0","A1DIW2K1J89CMO","img_art/9.jpg","3","","","","","","","","","","","","","","","","","","","","","","","","",""
"4283","","image-button-response","216","1075540","0.0-214.0-0.0","A1DIW2K1J89CMO","img_art/9.jpg","2","","","","","","","","","","","","","","","","","","","","","","","","",""
"null","","html-keyboard-response","217","1076042","0.0-215.0","A1DIW2K1J89CMO","<p style=""font-size: 48px;"">+</p>","","","","","null","allTrialResponses","500","1","24","img_art/9.jpg","38","This reminds me of the Venus de Milo and the Birth of Venus painting","Grace,Autumn,Abigail,Gabrielle,Jamie,Victoria","Huh?  Doesn't invoke much.,-37,180,20","Abstract but not well made,-26,340,20","Reminds me of a cave in a scary movie,-21,20,20","looks like an imitation of a real piece of art, reclining lady,-1,160,20","Mash up of colors and designs don't really go together,-5,320,20","reminds me of a story book,18,400,20","Victoria","reminds me of a story book,18,400,20","Gabrielle","looks like an imitation of a real piece of art, reclining lady,-1,160,20","Abigail","Reminds me of a cave in a scary movie,-21,20,20","4"
"19188","","survey-text","218","1095234","0.0-216.0-0.0","A1DIW2K1J89CMO","","","","{""Q0"":""This reminds me of fall""}","","","","","","","","","","","","","","","","","","","","","","",""
"1534.8999999761581","","image-slider-response","219","1096771","0.0-217.0","A1DIW2K1J89CMO","","","","","10","","","","","","","","","","","","","","","","","","","","","",""
"null","","image-button-response","220","1101787","0.0-218.0","A1DIW2K1J89CMO","img_art/27.jpg","null","","","","","","","","","","","","","","","","","","","","","","","","",""
"1359","","image-button-response","221","1103148","0.0-219.0","A1DIW2K1J89CMO","img_art/27.jpg","5","","","","","","","","","","","","","","","","","","","","","","","","",""
"5551","","image-button-response","222","1108700","0.0-220.0-0.0","A1DIW2K1J89CMO","img_art/27.jpg","1","","","","","","","","","","","","","","","","","","","","","","","","",""
"2363","","image-button-response","223","1111066","0.0-221.0-0.0","A1DIW2K1J89CMO","img_art/27.jpg","4","","","","","","","","","","","","","","","","","","","","","","","","",""
"null","","html-keyboard-response","224","1111569","0.0-222.0","A1DIW2K1J89CMO","<p style=""font-size: 48px;"">+</p>","","","","","null","allTrialResponses","500","1","25","img_art/27.jpg","10","This reminds me of fall","Leah,Amber,Abigail,Gabrielle,Alicia,Victoria","An attractive assortment of squiggles and colors,22,360,20","I like the colors.,6,200,20","Looks like a little kids drawing,20,20,20","like the patterns and colors all but the orange blob on the right,32,160,20","dont like it, don't hate it, meh.,2,120,20","reminds me of fall,33,400,20","Victoria","reminds me of fall,33,400,20","Amber","I like the colors.,6,200,20","Alicia","dont like it, don't hate it, meh.,2,120,20","4"
"3343","","survey-text","225","1114922","0.0-223.0-0.0","A1DIW2K1J89CMO","","","","{""Q0"":""table""}","","","","","","","","","","","","","","","","","","","","","","",""
"44806","","survey-text","226","1159729","0.0-224.0-0.0","A1DIW2K1J89CMO","","","","{""Q0"":""It looks like a pen holder""}","","","","","","","","","","","","","","","","","","","","","","",""
"4153.399999976158","","image-slider-response","227","1163885","0.0-225.0","A1DIW2K1J89CMO","","","","","-2","","","","","","","","","","","","","","","","","","","","","",""
"null","","image-button-response","228","1168886","0.0-226.0","A1DIW2K1J89CMO","img_art/5.jpg","null","","","","","","","","","","","","","","","","","","","","","","","","",""
"3550","","image-button-response","229","1172438","0.0-227.0","A1DIW2K1J89CMO","img_art/5.jpg","0","","","","","","","","","","","","","","","","","","","","","","","","",""
"1425","","image-button-response","230","1173864","0.0-228.0-0.0","A1DIW2K1J89CMO","img_art/5.jpg","1","","","","","","","","","","","","","","","","","","","","","","","","",""
"1326","","image-button-response","231","1175192","0.0-229.0-0.0","A1DIW2K1J89CMO","img_art/5.jpg","2","","","","","","","","","","","","","","","","","","","","","","","","",""
"null","","html-keyboard-response","232","1176698","0.0-230.0","A1DIW2K1J89CMO","<p style=""font-size: 48px;"">+</p>","","","","","null","allTrialResponses","1500","1","26","img_art/5.jpg","-2","It looks like a pen holder","Hannah,Amber,Alyssa,Crystal,Alicia,Victoria","Very basic, but at least has some color to it.,-9,240,20","Missing something,-5,200,20","It has a sense of vague familiarity that i like.Like a stick starting a fire at a campsite.,30,160,20","Confused as to what the artist is attempting to do.,-50,300,20","pointless, ugly, not creative.,-50,120,20","very boring and plain,-35,400,20","Hannah","Very basic, but at least has some color to it.,-9,240,20","Amber","Missing something,-5,200,20","Alyssa","It has a sense of vague familiarity that i like.Like a stick starting a fire at a campsite.,30,160,20","4"
"13599","","survey-text","233","1190301","0.0-231.0-0.0","A1DIW2K1J89CMO","","","","{""Q0"":""The linework reminds me of music staff""}","","","","","","","","","","","","","","","","","","","","","","",""
"2580.399999976158","","image-slider-response","234","1192883","0.0-232.0","A1DIW2K1J89CMO","","","","","11","","","","","","","","","","","","","","","","","","","","","",""
"null","","image-button-response","235","1197886","0.0-233.0","A1DIW2K1J89CMO","img_art/10.jpg","null","","","","","","","","","","","","","","","","","","","","","","","","",""
"177","","image-button-response","236","1198065","0.0-234.0","A1DIW2K1J89CMO","img_art/10.jpg","4","","","","","","","","","","","","","","","","","","","","","","","","",""
"1417","","image-button-response","237","1199484","0.0-235.0-0.0","A1DIW2K1J89CMO","img_art/10.jpg","0","","","","","","","","","","","","","","","","","","","","","","","","",""
"637","","image-button-response","238","1200123","0.0-236.0-0.0","A1DIW2K1J89CMO","img_art/10.jpg","3","","","","","","","","","","","","","","","","","","","","","","","","",""
"null","","html-keyboard-response","239","1200626","0.0-237.0","A1DIW2K1J89CMO","<p style=""font-size: 48px;"">+</p>","","","","","null","allTrialResponses","500","1","27","img_art/10.jpg","11","The linework reminds me of music staff","Hannah,Amber,Alyssa,Jessica,Kaitlin,Mariah","This one is interesting. I like it.,11,240,20","This picture just seems depressing.,-26,200,20","Bleak and uninteresting,-10,160,20","I feel like this has a cool concept behind it.,11,400,20","awww... this looks very nice,32,60,20","The colors and shapes are soothing but also disconcerting.,21,140,20","Kaitlin","awww... this looks very nice,32,60,20","Hannah","This one is interesting. I like it.,11,240,20","Jessica","I feel like this has a cool concept behind it.,11,400,20","4"
"21262","","survey-text","240","1221892","0.0-238.0-0.0","A1DIW2K1J89CMO","","","","{""Q0"":""It feels like bluebirds in the tree""}","","","","","","","","","","","","","","","","","","","","","","",""
"5333.100000023842","","image-slider-response","241","1227227","0.0-239.0","A1DIW2K1J89CMO","","","","","16","","","","","","","","","","","","","","","","","","","","","",""
"3378","","image-button-response","242","1232230","0.0-240.0","A1DIW2K1J89CMO","img_art/15.jpg","2","","","","","","","","","","","","","","","","","","","","","","","","",""
"569","","image-button-response","243","1232800","0.0-241.0","A1DIW2K1J89CMO","img_art/15.jpg","2","","","","","","","","","","","","","","","","","","","","","","","","",""
"2075","","image-button-response","244","1234877","0.0-242.0-0.0","A1DIW2K1J89CMO","img_art/15.jpg","0","","","","","","","","","","","","","","","","","","","","","","","","",""
"1224","","image-button-response","245","1236103","0.0-243.0-0.0","A1DIW2K1J89CMO","img_art/15.jpg","5","","","","","","","","","","","","","","","","","","","","","","","","",""
"null","","html-keyboard-response","246","1237117","0.0-244.0","A1DIW2K1J89CMO","<p style=""font-size: 48px;"">+</p>","","","","","null","allTrialResponses","1000","1","28","img_art/15.jpg","16","It feels like bluebirds in the tree","Hannah,Kelly,Dominique,Jessica,Kaitlin,Morgan","Like this for the colors and arrangement.,11,240,20","I can't really make out what this is supposed to be.,-8,220,20","I like the colors and the different style This brings,7,400,20","I think it's trying to execute a cool idea, but unfortunately it doesn't appeal,5,400,20","This one seems a bit frightening,-19,60,20","Leafs spread on the ground.,27,380,20","Dominique","I like the colors and the different style This brings,7,400,20","Hannah","Like this for the colors and arrangement.,11,240,20","Morgan","Leafs spread on the ground.,27,380,20","4"
"17743","","survey-text","247","1254866","0.0-245.0-0.0","A1DIW2K1J89CMO","","","","{""Q0"":""This feels like they're trying to make a plan of attack""}","","","","","","","","","","","","","","","","","","","","","","",""
"2314","","image-slider-response","248","1257182","0.0-246.0","A1DIW2K1J89CMO","","","","","-27","","","","","","","","","","","","","","","","","","","","","",""
"null","","image-button-response","249","1262185","0.0-247.0","A1DIW2K1J89CMO","img_art/29.jpg","null","","","","","","","","","","","","","","","","","","","","","","","","",""
"2968","","image-button-response","250","1265155","0.0-248.0","A1DIW2K1J89CMO","img_art/29.jpg","3","","","","","","","","","","","","","","","","","","","","","","","","",""
"2267","","image-button-response","251","1267424","0.0-249.0-0.0","A1DIW2K1J89CMO","img_art/29.jpg","1","","","","","","","","","","","","","","","","","","","","","","","","",""
"292","","image-button-response","252","1267717","0.0-250.0-0.0","A1DIW2K1J89CMO","img_art/29.jpg","0","","","","","","","","","","","","","","","","","","","","","","","","",""
"null","","html-keyboard-response","253","1269224","0.0-251.0","A1DIW2K1J89CMO","<p style=""font-size: 48px;"">+</p>","","","","","null","allTrialResponses","1500","1","29","img_art/29.jpg","-27","This feels like they're trying to make a plan of attack","Hannah,Monica,Dominique,Brooke,Allison,Morgan","I don't like the red X through it.,-20,240,20","There's too much black and it looks sloppy,-35,360,20","Another great work of art and very conversational piece,33,400,20","Lines and light are clean but subject doesn't interest me,0,60,20","Flash is too strong. Dislike the colors,-5,140,20","Tested and failed a lot of ideas.,-20,380,20","Brooke","Lines and light are clean but subject doesn't interest me,0,60,20","Monica","There's too much black and it looks sloppy,-35,360,20","Hannah","I don't like the red X through it.,-20,240,20","4"
"28524","","survey-text","254","1297753","0.0-252.0-0.0","A1DIW2K1J89CMO","","","","{""Q0"":""This reminds me of when you see certain cities like in Italy and they have their clotheslines everywhere and there are clothes drying""}","","","","","","","","","","","","","","","","","","","","","","",""
"1695.8999999761581","","image-slider-response","255","1299451","0.0-253.0","A1DIW2K1J89CMO","","","","","29","","","","","","","","","","","","","","","","","","","","","",""
"null","","image-button-response","256","1304466","0.0-254.0","A1DIW2K1J89CMO","img_art/11.jpg","null","","","","","","","","","","","","","","","","","","","","","","","","",""
"4289","","image-button-response","257","1308757","0.0-255.0","A1DIW2K1J89CMO","img_art/11.jpg","3","","","","","","","","","","","","","","","","","","","","","","","","",""
"612","","image-button-response","258","1309372","0.0-256.0-0.0","A1DIW2K1J89CMO","img_art/11.jpg","5","","","","","","","","","","","","","","","","","","","","","","","","",""
"669","","image-button-response","259","1310044","0.0-257.0-0.0","A1DIW2K1J89CMO","img_art/11.jpg","1","","","","","","","","","","","","","","","","","","","","","","","","",""
"null","","html-keyboard-response","260","1310546","0.0-258.0","A1DIW2K1J89CMO","<p style=""font-size: 48px;"">+</p>","","","","","null","allTrialResponses","500","1","30","img_art/11.jpg","29","This reminds me of when you see certain cities like in Italy and they have their clotheslines everywhere and there are clothes drying","Hannah,Monica,Alexis,Brooke,Sabrina,Brittany","Is interesting. Wouldn't bother me to have this hanging where I'd see it every day.,11,240,20","I like how it reminds me of music and at the same time it looks like colorful train tracks.,10,360,20","Don't like cityscapes, which this picture reminds me of,-29,100,20","futuristic arching railways,25,60,20","I love the city chaos from this,50,120,20","It reminds me of telephone wires.,1,40,20","Brooke","futuristic arching railways,25,60,20","Brittany","It reminds me of telephone wires.,1,40,20","Monica","I like how it reminds me of music and at the same time it looks like colorful train tracks.,10,360,20","4"
"1642","","image-button-response_instructions","261","1312193","0.0-259.0","A1DIW2K1J89CMO","","0","instructions","","","","","","","","","","","","","","","","","","","","","","","",""
"794","","image-button-response","262","1312991","0.0-260.0","A1DIW2K1J89CMO","","0","","","","","","","","","","","","","","","","","","","","","","","","",""
