"rt","url","trial_type","trial_index","time_elapsed","internal_node_id","participant_id","stimulus","button_pressed","Name","responses","response","key_press","variableName","fixationTime","condition","trial","photo","subjectRating","subjectResponse","agentsNames","agent_1_Response","agent_2_Response","agent_3_Response","agent_4_Response","agent_5_Response","agent_6_Response","kept_1_name","kept_1_response","kept_2_name","kept_2_response","kept_3_name","kept_3_response","errorCounter"
"7487","external_page_harvard.html","external-html","0","7586","0.0-0.0","A1DKVUTOBPQH11","","","","","","","","","","","","","","","","","","","","","","","","","","",""
"1714","","image-button-response","1","9301","0.0-1.0","A1DKVUTOBPQH11","","0","","","","","","","","","","","","","","","","","","","","","","","","",""
"3403","","image-button-response","2","12707","0.0-2.0-0.0","A1DKVUTOBPQH11","","1","phone","","","","","","","","","","","","","","","","","","","","","","","",""
"196436","","survey-text","3","209145","0.0-3.0-0.0","A1DKVUTOBPQH11","","","","{""Q0"":""A1DKVUTOBPQH11""}","","","","","","","","","","","","","","","","","","","","","","",""
"16936","","image-button-response_instructions","4","226082","0.0-4.0","A1DKVUTOBPQH11","","0","instructions","","","","","","","","","","","","","","","","","","","","","","","",""
"29494","","image-button-response_instructions","5","255577","0.0-5.0","A1DKVUTOBPQH11","img_art/ins/popularity/ins1.png","0","instructions","","","","","","","","","","","","","","","","","","","","","","","",""
"90421","","image-button-response_instructions","6","345998","0.0-6.0","A1DKVUTOBPQH11","img_art/ins/popularity/ins2.png","0","instructions","","","","","","","","","","","","","","","","","","","","","","","",""
"4065","","image-button-response_instructions","7","350064","0.0-7.0","A1DKVUTOBPQH11","img_art/ins/popularity/ins2Extreme.png","0","instructions","","","","","","","","","","","","","","","","","","","","","","","",""
"16208","","image-button-response_instructions","8","366272","0.0-8.0","A1DKVUTOBPQH11","img_art/ins/popularity/ins3KEEPpop.PNG","0","instructions","","","","","","","","","","","","","","","","","","","","","","","",""
"3501","","image-button-response_instructions","9","369775","0.0-9.0","A1DKVUTOBPQH11","img_art/ins/popularity/ins3ANamepop.PNG","0","instructions","","","","","","","","","","","","","","","","","","","","","","","",""
"4404","","image-button-response_instructions","10","374179","0.0-10.0","A1DKVUTOBPQH11","img_art/ins/popularity/ins3ARatingpop.png","0","instructions","","","","","","","","","","","","","","","","","","","","","","","",""
"1904","","image-button-response_instructions","11","376084","0.0-11.0","A1DKVUTOBPQH11","img_art/ins/popularity/ins3ATextpop.png","0","instructions","","","","","","","","","","","","","","","","","","","","","","","",""
"7101","","image-button-response_instructions","12","383186","0.0-12.0","A1DKVUTOBPQH11","img_art/ins/popularity/ins3ALikespop.png","0","instructions","","","","","","","","","","","","","","","","","","","","","","","",""
"15990","","image-button-response_instructions","13","399177","0.0-13.0","A1DKVUTOBPQH11","img_art/ins/popularity/ins3KEEPpop.PNG","0","instructions","","","","","","","","","","","","","","","","","","","","","","","",""
"25606","","image-button-response_instructions","14","424783","0.0-14.0","A1DKVUTOBPQH11","img_art/ins/popularity/ins3_5RED.png","0","instructions","","","","","","","","","","","","","","","","","","","","","","","",""
"3960","","image-button-response_instructions","15","428745","0.0-15.0","A1DKVUTOBPQH11","img_art/ins/popularity/ins3KEEPpop.PNG","0","instructions","","","","","","","","","","","","","","","","","","","","","","","",""
"9936","","image-button-response_instructions","16","438682","0.0-16.0","A1DKVUTOBPQH11","img_art/ins/popularity/ins4KEEPpop.PNG","0","instructions","","","","","","","","","","","","","","","","","","","","","","","",""
"4118","","image-button-response_instructions","17","442801","0.0-17.0","A1DKVUTOBPQH11","img_art/ins/popularity/ins5KEEPpop.PNG","0","instructions","","","","","","","","","","","","","","","","","","","","","","","",""
"35019","","image-button-response_instructions","18","477821","0.0-18.0","A1DKVUTOBPQH11","","0","instructions","","","","","","","","","","","","","","","","","","","","","","","",""
"14264","","survey-text","19","492104","0.0-19.0-0.0","A1DKVUTOBPQH11","","","","{""Q0"":""but""}","","","","","","","","","","","","","","","","","","","","","","",""
"15631","","survey-text","20","507736","0.0-20.0-0.0","A1DKVUTOBPQH11","","","","{""Q0"":""I don't care for the color choices.""}","","","","","","","","","","","","","","","","","","","","","","",""
"7227.699999999721","","image-slider-response","21","514966","0.0-21.0","A1DKVUTOBPQH11","","","","","-30","","","","","","","","","","","","","","","","","","","","","",""
"null","","image-button-response","22","519969","0.0-22.0","A1DKVUTOBPQH11","img_art/ins/1.jpg","null","","","","","","","","","","","","","","","","","","","","","","","","",""
"10679","","image-button-response","23","530651","0.0-23.0","A1DKVUTOBPQH11","img_art/ins/1.jpg","0","","","","","","","","","","","","","","","","","","","","","","","","",""
"7152","","image-button-response","24","537805","0.0-24.0-0.0","A1DKVUTOBPQH11","img_art/ins/1.jpg","4","","","","","","","","","","","","","","","","","","","","","","","","",""
"1791","","image-button-response","25","539597","0.0-25.0-0.0","A1DKVUTOBPQH11","img_art/ins/1.jpg","0","","","","","","","","","","","","","","","","","","","","","","","","",""
"3249","","image-button-response","26","548513","0.0-25.1-0.1","A1DKVUTOBPQH11","img_art/ins/1.jpg","2","","","","","","","","","","","","","","","","","","","","","","","","",""
"null","","html-keyboard-response","27","549025","0.0-26.0","A1DKVUTOBPQH11","<p style=""font-size: 48px;"">+</p>","","","","","null","allTrialResponses","500","1","-2","img_art/ins/1.jpg","-30","I don't care for the color choices.","Adam,Alex,Ben,Carl,Daniel,Jack","Seems like doodles,-20,20,20","very creative work.,36,40,20","This color reminds me of poo,-46,60,20","very calming artwork,42,80,20","It looks like a murder scene.,-48,100,20","I like the sophisticated brushwork,40,120,20","Adam","Seems like doodles,-20,20,20","Daniel","It looks like a murder scene.,-48,100,20","Ben","This color reminds me of poo,-46,60,20","2"
"31438","","survey-text","28","580467","0.0-27.0-0.0","A1DKVUTOBPQH11","","","","{""Q0"":""The brushstrokes look quite interesting.""}","","","","","","","","","","","","","","","","","","","","","","",""
"3921.600000000093","","image-slider-response","29","584390","0.0-28.0","A1DKVUTOBPQH11","","","","","15","","","","","","","","","","","","","","","","","","","","","",""
"4372","","image-button-response","30","589392","0.0-29.0","A1DKVUTOBPQH11","img_art/ins/2.jpg","1","","","","","","","","","","","","","","","","","","","","","","","","",""
"16671","","image-button-response","31","606067","0.0-30.0","A1DKVUTOBPQH11","img_art/ins/2.jpg","2","","","","","","","","","","","","","","","","","","","","","","","","",""
"5778","","image-button-response","32","611846","0.0-31.0-0.0","A1DKVUTOBPQH11","img_art/ins/2.jpg","4","","","","","","","","","","","","","","","","","","","","","","","","",""
"3230","","image-button-response","33","615078","0.0-32.0-0.0","A1DKVUTOBPQH11","img_art/ins/2.jpg","0","","","","","","","","","","","","","","","","","","","","","","","","",""
"null","","html-keyboard-response","34","616579","0.0-33.0","A1DKVUTOBPQH11","<p style=""font-size: 48px;"">+</p>","","","","","null","allTrialResponses","1500","1","-1","img_art/ins/2.jpg","15","The brushstrokes look quite interesting.","Adam,John,Ben,James,Daniel,Kyle","too much color,-18,20,20","love the texture of paint,48,160,20","meaningless painting,-45,60,20","looks too angry,-50,140,20","One of my pet peevs,-48,100,20","Idk, it is just annoying,-32,180,20","Ben","meaningless painting,-45,60,20","Daniel","One of my pet peevs,-48,100,20","Adam","too much color,-18,20,20","2"
"14499","","survey-text","35","631084","0.0-34.0-0.0","A1DKVUTOBPQH11","","","","{""Q0"":""I really love the colors here, it reminds me of ice.""}","","","","","","","","","","","","","","","","","","","","","","",""
"3297.5","","image-slider-response","36","634383","0.0-35.0","A1DKVUTOBPQH11","","","","","27","","","","","","","","","","","","","","","","","","","","","",""
"null","","image-button-response","37","639385","0.0-36.0","A1DKVUTOBPQH11","img_art/ins/3.jpg","null","","","","","","","","","","","","","","","","","","","","","","","","",""
"1101","","image-button-response","38","640488","0.0-37.0","A1DKVUTOBPQH11","img_art/ins/3.jpg","3","","","","","","","","","","","","","","","","","","","","","","","","",""
"3864","","image-button-response","39","644354","0.0-38.0-0.0","A1DKVUTOBPQH11","img_art/ins/3.jpg","5","","","","","","","","","","","","","","","","","","","","","","","","",""
"12187","","image-button-response","40","656543","0.0-39.0-0.0","A1DKVUTOBPQH11","img_art/ins/3.jpg","2","","","","","","","","","","","","","","","","","","","","","","","","",""
"null","","html-keyboard-response","41","657544","0.0-40.0","A1DKVUTOBPQH11","<p style=""font-size: 48px;"">+</p>","","","","","null","allTrialResponses","1000","1","0","img_art/ins/3.jpg","27","I really love the colors here, it reminds me of ice.","Adam,Ron,Ben,Mike,Daniel,Sam","My daily routine, it's depressing,-20,20,20","It looks depressing,-26,220,20","This thing gives me anxiety,-41,60,20","enjoy the different shades of blue,22,200,20","looks like a murder room,-35,100,20","I can feel a rainy day from this painting,18,240,20","Mike","enjoy the different shades of blue,22,200,20","Sam","I can feel a rainy day from this painting,18,240,20","Ben","This thing gives me anxiety,-41,60,20","2"
"7457","","image-button-response_instructions","42","665011","0.0-41.0","A1DKVUTOBPQH11","","0","instructions","","","","","","","","","","","","","","","","","","","","","","","",""
"18379","","survey-likert","43","683391","0.0-42.0-0.0","A1DKVUTOBPQH11","","","","{""Q0"":"""",""Q1"":0,""Q2"":1}","","","","","","","","","","","","","","","","","","","","","","",""
"6695","","survey-text","44","690091","0.0-43.0-0.0","A1DKVUTOBPQH11","","","","{""Q0"":""rock""}","","","","","","","","","","","","","","","","","","","","","","",""
"23408","","survey-text","45","713499","0.0-44.0-0.0","A1DKVUTOBPQH11","","","","{""Q0"":""The shapes are interesting but the color choices are slightly gross.""}","","","","","","","","","","","","","","","","","","","","","","",""
"10238.19999999972","","image-slider-response","46","723739","0.0-45.0","A1DKVUTOBPQH11","","","","","-5","","","","","","","","","","","","","","","","","","","","","",""
"null","","image-button-response","47","728759","0.0-46.0","A1DKVUTOBPQH11","img_art/2.jpg","null","","","","","","","","","","","","","","","","","","","","","","","","",""
"11525","","image-button-response","48","740285","0.0-47.0","A1DKVUTOBPQH11","img_art/2.jpg","4","","","","","","","","","","","","","","","","","","","","","","","","",""
"7036","","image-button-response","49","747322","0.0-48.0-0.0","A1DKVUTOBPQH11","img_art/2.jpg","0","","","","","","","","","","","","","","","","","","","","","","","","",""
"928","","image-button-response","50","748251","0.0-49.0-0.0","A1DKVUTOBPQH11","img_art/2.jpg","0","","","","","","","","","","","","","","","","","","","","","","","","",""
"660","","image-button-response","51","751377","0.0-49.1-0.1","A1DKVUTOBPQH11","img_art/2.jpg","1","","","","","","","","","","","","","","","","","","","","","","","","",""
"null","","html-keyboard-response","52","752379","0.0-50.0","A1DKVUTOBPQH11","<p style=""font-size: 48px;"">+</p>","","","","","null","allTrialResponses","1000","1","1","img_art/2.jpg","-5","The shapes are interesting but the color choices are slightly gross.","Connor,Nathaniel,Evan,Jason,Shawn,Eric","There is an odd face here that is creepy,-4,240,20","Too gloopy and unfocused,-38,220,20","I feel bothered by the dark and dingy choice of colors,-22,140,20","Too jumbled and disorienting,-13,20,20","The color choices and lines seem a bit sloppy?,-10,100,20","I like the color, but I feel like I see a creepy face which I dislike.,-5,100,20","Shawn","The color choices and lines seem a bit sloppy?,-10,100,20","Connor","There is an odd face here that is creepy,-4,240,20","Nathaniel","Too gloopy and unfocused,-38,220,20","4"
"29107","","survey-text","53","781495","0.0-51.0-0.0","A1DKVUTOBPQH11","","","","{""Q0"":""I love the dream-like appearance and color choices.""}","","","","","","","","","","","","","","","","","","","","","","",""
"5073.700000000186","","image-slider-response","54","786570","0.0-52.0","A1DKVUTOBPQH11","","","","","45","","","","","","","","","","","","","","","","","","","","","",""
"null","","image-button-response","55","791572","0.0-53.0","A1DKVUTOBPQH11","img_art/18.jpg","null","","","","","","","","","","","","","","","","","","","","","","","","",""
"3757","","image-button-response","56","795331","0.0-54.0","A1DKVUTOBPQH11","img_art/18.jpg","3","","","","","","","","","","","","","","","","","","","","","","","","",""
"5760","","image-button-response","57","801092","0.0-55.0-0.0","A1DKVUTOBPQH11","img_art/18.jpg","0","","","","","","","","","","","","","","","","","","","","","","","","",""
"8778","","image-button-response","58","809871","0.0-56.0-0.0","A1DKVUTOBPQH11","img_art/18.jpg","5","","","","","","","","","","","","","","","","","","","","","","","","",""
"null","","html-keyboard-response","59","811374","0.0-57.0","A1DKVUTOBPQH11","<p style=""font-size: 48px;"">+</p>","","","","","null","allTrialResponses","1500","1","2","img_art/18.jpg","45","I love the dream-like appearance and color choices.","Connor,Nathaniel,Robert,Jorge,Shawn,Juan","See a weird horse,-22,240,20","Looks like a jumbled mess. I prefer a clearer picture,-18,220,20","It made me think of a car crash,-39,360,20","Imaginative, makes me feel creative.,42,180,20","Evocative but cheesy.,-20,100,20","Again, this is too abtract.,-25,260,20","Jorge","Imaginative, makes me feel creative.,42,180,20","Connor","See a weird horse,-22,240,20","Juan","Again, this is too abtract.,-25,260,20","4"
"71781","","survey-text","60","883165","0.0-58.0-0.0","A1DKVUTOBPQH11","","","","{""Q0"":""It looks like a child drew on it with a green crayon.""}","","","","","","","","","","","","","","","","","","","","","","",""
"2988.5","","image-slider-response","61","886154","0.0-59.0","A1DKVUTOBPQH11","","","","","-11","","","","","","","","","","","","","","","","","","","","","",""
"null","","image-button-response","62","891156","0.0-60.0","A1DKVUTOBPQH11","img_art/27.jpg","null","","","","","","","","","","","","","","","","","","","","","","","","",""
"3182","","image-button-response","63","894338","0.0-61.0","A1DKVUTOBPQH11","img_art/27.jpg","1","","","","","","","","","","","","","","","","","","","","","","","","",""
"2042","","image-button-response","64","896381","0.0-62.0-0.0","A1DKVUTOBPQH11","img_art/27.jpg","0","","","","","","","","","","","","","","","","","","","","","","","","",""
"3409","","image-button-response","65","899792","0.0-63.0-0.0","A1DKVUTOBPQH11","img_art/27.jpg","5","","","","","","","","","","","","","","","","","","","","","","","","",""
"null","","html-keyboard-response","66","901294","0.0-64.0","A1DKVUTOBPQH11","<p style=""font-size: 48px;"">+</p>","","","","","null","allTrialResponses","1500","1","3","img_art/27.jpg","-11","It looks like a child drew on it with a green crayon.","Connor,Kenneth,Brett,Jorge,Thomas,Juan","Looks like someone vandalized the original piece with a marker,-36,240,20","The green stick drawings or whatever they are ruin it for me.,-23,300,20","Soothing in the middle of some confusion,40,360,20","dirty and misunderstood,-47,180,20","First thought is again, that this looks like a child's art assignment,-20,220,20","Colors make me think of fall, but I don't like how the picture was done or the weird lines across the background,6,260,20","Kenneth","The green stick drawings or whatever they are ruin it for me.,-23,300,20","Connor","Looks like someone vandalized the original piece with a marker,-36,240,20","Juan","Colors make me think of fall, but I don't like how the picture was done or the weird lines across the background,6,260,20","4"
"19065","","survey-text","67","920364","0.0-65.0-0.0","A1DKVUTOBPQH11","","","","{""Q0"":""Interesting color choices but it's a bit too blurry for my taste.""}","","","","","","","","","","","","","","","","","","","","","","",""
"5394.600000000093","","image-slider-response","68","925759","0.0-66.0","A1DKVUTOBPQH11","","","","","-10","","","","","","","","","","","","","","","","","","","","","",""
"null","","image-button-response","69","930763","0.0-67.0","A1DKVUTOBPQH11","img_art/12.jpg","null","","","","","","","","","","","","","","","","","","","","","","","","",""
"9590","","image-button-response","70","940356","0.0-68.0","A1DKVUTOBPQH11","img_art/12.jpg","3","","","","","","","","","","","","","","","","","","","","","","","","",""
"656","","image-button-response","71","941013","0.0-69.0-0.0","A1DKVUTOBPQH11","img_art/12.jpg","5","","","","","","","","","","","","","","","","","","","","","","","","",""
"1915","","image-button-response","72","942930","0.0-70.0-0.0","A1DKVUTOBPQH11","img_art/12.jpg","2","","","","","","","","","","","","","","","","","","","","","","","","",""
"null","","html-keyboard-response","73","943431","0.0-71.0","A1DKVUTOBPQH11","<p style=""font-size: 48px;"">+</p>","","","","","null","allTrialResponses","500","1","4","img_art/12.jpg","-10","Interesting color choices but it's a bit too blurry for my taste.","Connor,Kenneth,Jesse,Jack,Adrian,Juan","City scape but palette is odd,4,240,20","It's pretty, I find it interesting to look at.,10,300,20","Just confuses me overall,-11,80,20","interesting, but feels like someone cut up a picture and pasted it together wrong. want to see the original,15,320,20","Ugly colors and I'm just not too much a fan of cubist abstract art.,-50,60,20","This is too abstract and the colors are too worn out.,-23,260,20","Jack","interesting, but feels like someone cut up a picture and pasted it together wrong. want to see the original,15,320,20","Juan","This is too abstract and the colors are too worn out.,-23,260,20","Jesse","Just confuses me overall,-11,80,20","4"
"98871","","survey-text","74","1042307","0.0-72.0-0.0","A1DKVUTOBPQH11","","","","{""Q0"":""The color choices look nice but I wish the shapes at more concrete form.""}","","","","","","","","","","","","","","","","","","","","","","",""
"4813.100000000093","","image-slider-response","75","1047121","0.0-73.0","A1DKVUTOBPQH11","","","","","10","","","","","","","","","","","","","","","","","","","","","",""
"null","","image-button-response","76","1052124","0.0-74.0","A1DKVUTOBPQH11","img_art/20.jpg","null","","","","","","","","","","","","","","","","","","","","","","","","",""
"560","","image-button-response","77","1052688","0.0-75.0","A1DKVUTOBPQH11","img_art/20.jpg","0","","","","","","","","","","","","","","","","","","","","","","","","",""
"3685","","image-button-response","78","1056374","0.0-76.0-0.0","A1DKVUTOBPQH11","img_art/20.jpg","2","","","","","","","","","","","","","","","","","","","","","","","","",""
"1480","","image-button-response","79","1057855","0.0-77.0-0.0","A1DKVUTOBPQH11","img_art/20.jpg","4","","","","","","","","","","","","","","","","","","","","","","","","",""
"null","","html-keyboard-response","80","1059357","0.0-78.0","A1DKVUTOBPQH11","<p style=""font-size: 48px;"">+</p>","","","","","null","allTrialResponses","1500","1","5","img_art/20.jpg","10","The color choices look nice but I wish the shapes at more concrete form.","Garrett,Luke,Jesse,Jack,Dakota,Juan","I really like this. There are lots of objects the artist wanted to show and the colors are good.,38,180,20","it looks like a car crash which is depressing,-19,20,20","I do at least like the dark colors blending,6,80,20","could look for hours. love the brush work. color choices look like a desert.,50,320,20","very fluid and mysterious,37,280,20","I like the deep blues, but I don't like the way this picture makes me feel.,-13,260,20","Garrett","I really like this. There are lots of objects the artist wanted to show and the colors are good.,38,180,20","Jesse","I do at least like the dark colors blending,6,80,20","Dakota","very fluid and mysterious,37,280,20","4"
"6951","","survey-text","81","1066315","0.0-79.0-0.0","A1DKVUTOBPQH11","","","","{""Q0"":""sky""}","","","","","","","","","","","","","","","","","","","","","","",""
"17783","","survey-text","82","1084100","0.0-80.0-0.0","A1DKVUTOBPQH11","","","","{""Q0"":""This seems just far too random and formless.""}","","","","","","","","","","","","","","","","","","","","","","",""
"2100.0999999996275","","image-slider-response","83","1086201","0.0-81.0","A1DKVUTOBPQH11","","","","","-27","","","","","","","","","","","","","","","","","","","","","",""
"null","","image-button-response","84","1091203","0.0-82.0","A1DKVUTOBPQH11","img_art/23.jpg","null","","","","","","","","","","","","","","","","","","","","","","","","",""
"49209","","image-button-response","85","1140415","0.0-83.0","A1DKVUTOBPQH11","img_art/23.jpg","5","","","","","","","","","","","","","","","","","","","","","","","","",""
"15378","","image-button-response","86","1155795","0.0-84.0-0.0","A1DKVUTOBPQH11","img_art/23.jpg","1","","","","","","","","","","","","","","","","","","","","","","","","",""
"7712","","image-button-response","87","1163508","0.0-85.0-0.0","A1DKVUTOBPQH11","img_art/23.jpg","2","","","","","","","","","","","","","","","","","","","","","","","","",""
"null","","html-keyboard-response","88","1165010","0.0-86.0","A1DKVUTOBPQH11","<p style=""font-size: 48px;"">+</p>","","","","","null","allTrialResponses","1500","1","6","img_art/23.jpg","-27","This seems just far too random and formless.","Garrett,Peter,Jesse,Mason,Dakota,Hunter","I really like the way all the colors look, I think this is a pretty picture.,40,180,20","Reminds me of disco/70's, not my favorite design,-12,320,20","Makes me want to stare at it for hours. Like there is something deeper to find.,37,80,20","No reactions, childish.,-19,100,20","teeth! dancing people, celebrations,-39,280,20","do not like color splatters or sharp silhouettes, feels tacky,-34,240,20","Hunter","do not like color splatters or sharp silhouettes, feels tacky,-34,240,20","Peter","Reminds me of disco/70's, not my favorite design,-12,320,20","Jesse","Makes me want to stare at it for hours. Like there is something deeper to find.,37,80,20","4"
"20316","","survey-text","89","1185336","0.0-87.0-0.0","A1DKVUTOBPQH11","","","","{""Q0"":""It's a generally interesting painting.""}","","","","","","","","","","","","","","","","","","","","","","",""
"3882.399999999907","","image-slider-response","90","1189220","0.0-88.0","A1DKVUTOBPQH11","","","","","20","","","","","","","","","","","","","","","","","","","","","",""
"null","","image-button-response","91","1194222","0.0-89.0","A1DKVUTOBPQH11","img_art/11.jpg","null","","","","","","","","","","","","","","","","","","","","","","","","",""
"1395","","image-button-response","92","1195620","0.0-90.0","A1DKVUTOBPQH11","img_art/11.jpg","0","","","","","","","","","","","","","","","","","","","","","","","","",""
"1572","","image-button-response","93","1197194","0.0-91.0-0.0","A1DKVUTOBPQH11","img_art/11.jpg","2","","","","","","","","","","","","","","","","","","","","","","","","",""
"2191","","image-button-response","94","1199386","0.0-92.0-0.0","A1DKVUTOBPQH11","img_art/11.jpg","4","","","","","","","","","","","","","","","","","","","","","","","","",""
"null","","html-keyboard-response","95","1200388","0.0-93.0","A1DKVUTOBPQH11","<p style=""font-size: 48px;"">+</p>","","","","","null","allTrialResponses","1000","1","7","img_art/11.jpg","20","It's a generally interesting painting.","Edward,Peter,Jesse,Dylan,William,Hunter","Reminds me of a city and how chaotic it can be,22,60,20","Smoggy, oily, industrial. Don't like,1,320,20","I like the dark lines and it interests me,13,80,20","I normally would not like this photo, but the design is nice.,21,40,20","reminds me of a rainy day in the city,32,380,20","reminds me of home,5,240,20","Edward","Reminds me of a city and how chaotic it can be,22,60,20","Jesse","I like the dark lines and it interests me,13,80,20","William","reminds me of a rainy day in the city,32,380,20","4"
"17544","","survey-text","96","1217938","0.0-94.0-0.0","A1DKVUTOBPQH11","","","","{""Q0"":""It's just too random for my taste.""}","","","","","","","","","","","","","","","","","","","","","","",""
"5008.799999999814","","image-slider-response","97","1222948","0.0-95.0","A1DKVUTOBPQH11","","","","","-26","","","","","","","","","","","","","","","","","","","","","",""
"2489","","image-button-response","98","1227950","0.0-96.0","A1DKVUTOBPQH11","img_art/16.jpg","0","","","","","","","","","","","","","","","","","","","","","","","","",""
"1037","","image-button-response","99","1228988","0.0-97.0","A1DKVUTOBPQH11","img_art/16.jpg","0","","","","","","","","","","","","","","","","","","","","","","","","",""
"3236","","image-button-response","100","1232225","0.0-98.0-0.0","A1DKVUTOBPQH11","img_art/16.jpg","4","","","","","","","","","","","","","","","","","","","","","","","","",""
"19102","","image-button-response","101","1251329","0.0-99.0-0.0","A1DKVUTOBPQH11","img_art/16.jpg","1","","","","","","","","","","","","","","","","","","","","","","","","",""
"null","","html-keyboard-response","102","1251831","0.0-100.0","A1DKVUTOBPQH11","<p style=""font-size: 48px;"">+</p>","","","","","null","allTrialResponses","500","1","8","img_art/16.jpg","-26","It's just too random for my taste.","Edward,Kevin,Jesse,Bradley,William,Logan","It feels lazily done,-9,60,20","Hmm i don't know what going on here.,1,320,20","I dont feel any real response,5,80,20","This feels like there's some kind of pedofile thing going on here.,-50,300,20","liked the bear, nothing else made sense,10,380,20","what is this doing for anyone. If you connect with this you're literally lying to yourself. pretentious,-50,360,20","Edward","It feels lazily done,-9,60,20","William","liked the bear, nothing else made sense,10,380,20","Kevin","Hmm i don't know what going on here.,1,320,20","4"
"39293","","survey-text","103","1291130","0.0-101.0-0.0","A1DKVUTOBPQH11","","","","{""Q0"":""I like the color choices but I feel that it's too formless overall.""}","","","","","","","","","","","","","","","","","","","","","","",""
"3496.899999999907","","image-slider-response","104","1294628","0.0-102.0","A1DKVUTOBPQH11","","","","","15","","","","","","","","","","","","","","","","","","","","","",""
"null","","image-button-response","105","1299631","0.0-103.0","A1DKVUTOBPQH11","img_art/24.jpg","null","","","","","","","","","","","","","","","","","","","","","","","","",""
"3951","","image-button-response","106","1303583","0.0-104.0","A1DKVUTOBPQH11","img_art/24.jpg","1","","","","","","","","","","","","","","","","","","","","","","","","",""
"378","","image-button-response","107","1303963","0.0-105.0-0.0","A1DKVUTOBPQH11","img_art/24.jpg","2","","","","","","","","","","","","","","","","","","","","","","","","",""
"5361","","image-button-response","108","1309326","0.0-106.0-0.0","A1DKVUTOBPQH11","img_art/24.jpg","4","","","","","","","","","","","","","","","","","","","","","","","","",""
"null","","html-keyboard-response","109","1310328","0.0-107.0","A1DKVUTOBPQH11","<p style=""font-size: 48px;"">+</p>","","","","","null","allTrialResponses","1000","1","9","img_art/24.jpg","15","I like the color choices but I feel that it's too formless overall.","Edward,Kevin,Samuel,Travis,William,Dustin","Very pretty and soft,37,60,20","What a nice refreshing waterfall.,39,320,20","tranquility in the stream,34,400,20","I like it...looks like a waterfall.,11,260,20","very peaceful and serene,47,380,20","I see a waterfall, which is relaxing and peaceful!  I like the blue coloring,30,20,20","Kevin","What a nice refreshing waterfall.,39,320,20","Samuel","tranquility in the stream,34,400,20","William","very peaceful and serene,47,380,20","4"
"14632","","survey-text","110","1324966","0.0-108.0-0.0","A1DKVUTOBPQH11","","","","{""Q0"":""It's very clean and colorful looking.""}","","","","","","","","","","","","","","","","","","","","","","",""
"2043.2999999998137","","image-slider-response","111","1327011","0.0-109.0","A1DKVUTOBPQH11","","","","","35","","","","","","","","","","","","","","","","","","","","","",""
"null","","image-button-response","112","1332013","0.0-110.0","A1DKVUTOBPQH11","img_art/8.jpg","null","","","","","","","","","","","","","","","","","","","","","","","","",""
"17699","","image-button-response","113","1349715","0.0-111.0","A1DKVUTOBPQH11","img_art/8.jpg","3","","","","","","","","","","","","","","","","","","","","","","","","",""
"1072","","image-button-response","114","1350789","0.0-112.0-0.0","A1DKVUTOBPQH11","img_art/8.jpg","5","","","","","","","","","","","","","","","","","","","","","","","","",""
"2021","","image-button-response","115","1352812","0.0-113.0-0.0","A1DKVUTOBPQH11","img_art/8.jpg","2","","","","","","","","","","","","","","","","","","","","","","","","",""
"null","","html-keyboard-response","116","1353820","0.0-114.0","A1DKVUTOBPQH11","<p style=""font-size: 48px;"">+</p>","","","","","null","allTrialResponses","1000","1","10","img_art/8.jpg","35","It's very clean and colorful looking.","Victor,Kevin,Samuel,Tristan,William,Andrew","I like the colors,10,340,20","Now that one is wild. Looks like maybe mother nature isnt happy.,28,320,20","being watched over,17,400,20","The definition and the colors give make this painting accessible and thought provoking.,30,300,20","makes me think of a busy city,-18,380,20","Looks like it would be an interesting place to live,35,160,20","Tristan","The definition and the colors give make this painting accessible and thought provoking.,30,300,20","Andrew","Looks like it would be an interesting place to live,35,160,20","Samuel","being watched over,17,400,20","4"
"6040","","survey-text","117","1359879","0.0-115.0-0.0","A1DKVUTOBPQH11","","","","{""Q0"":""our""}","","","","","","","","","","","","","","","","","","","","","","",""
"67982","","survey-text","118","1427862","0.0-116.0-0.0","A1DKVUTOBPQH11","","","","{""Q0"":""It's surprisingly interesting looking. The like the green color especially.""}","","","","","","","","","","","","","","","","","","","","","","",""
"4108.299999999814","","image-slider-response","119","1431971","0.0-117.0","A1DKVUTOBPQH11","","","","","25","","","","","","","","","","","","","","","","","","","","","",""
"null","","image-button-response","120","1436973","0.0-118.0","A1DKVUTOBPQH11","img_art/25.jpg","null","","","","","","","","","","","","","","","","","","","","","","","","",""
"1996","","image-button-response","121","1438972","0.0-119.0","A1DKVUTOBPQH11","img_art/25.jpg","0","","","","","","","","","","","","","","","","","","","","","","","","",""
"8028","","image-button-response","122","1447000","0.0-120.0-0.0","A1DKVUTOBPQH11","img_art/25.jpg","3","","","","","","","","","","","","","","","","","","","","","","","","",""
"2424","","image-button-response","123","1449425","0.0-121.0-0.0","A1DKVUTOBPQH11","img_art/25.jpg","5","","","","","","","","","","","","","","","","","","","","","","","","",""
"null","","html-keyboard-response","124","1450427","0.0-122.0","A1DKVUTOBPQH11","<p style=""font-size: 48px;"">+</p>","","","","","null","allTrialResponses","1000","1","11","img_art/25.jpg","25","It's surprisingly interesting looking. The like the green color especially.","Ryan,Joseph,Samuel,Tristan,Ian,Andrew","Reminds me of Mr. Burns on drugs in the Simpsons,-50,380,20","Ghosts are NOT my thing.,-13,220,20","reminds me of burning man,18,400,20","The limited palette make this figure mysterious and interpret-able.,20,300,20","This looks cool but I don't really care for it. Some sort or religious figure?,16,260,20","It makes me feel a little uneasy, but I like the painting,11,160,20","Ryan","Reminds me of Mr. Burns on drugs in the Simpsons,-50,380,20","Tristan","The limited palette make this figure mysterious and interpret-able.,20,300,20","Andrew","It makes me feel a little uneasy, but I like the painting,11,160,20","4"
"10242","","survey-text","125","1460672","0.0-123.0-0.0","A1DKVUTOBPQH11","","","","{""Q0"":""It's just too abstract and formless.""}","","","","","","","","","","","","","","","","","","","","","","",""
"1588.3999999999069","","image-slider-response","126","1462262","0.0-124.0","A1DKVUTOBPQH11","","","","","-30","","","","","","","","","","","","","","","","","","","","","",""
"null","","image-button-response","127","1467265","0.0-125.0","A1DKVUTOBPQH11","img_art/1.jpg","null","","","","","","","","","","","","","","","","","","","","","","","","",""
"79","","image-button-response","128","1467347","0.0-126.0","A1DKVUTOBPQH11","img_art/1.jpg","1","","","","","","","","","","","","","","","","","","","","","","","","",""
"1187","","image-button-response","129","1468534","0.0-127.0-0.0","A1DKVUTOBPQH11","img_art/1.jpg","2","","","","","","","","","","","","","","","","","","","","","","","","",""
"9569","","image-button-response","130","1478105","0.0-128.0-0.0","A1DKVUTOBPQH11","img_art/1.jpg","3","","","","","","","","","","","","","","","","","","","","","","","","",""
"null","","html-keyboard-response","131","1478606","0.0-129.0","A1DKVUTOBPQH11","<p style=""font-size: 48px;"">+</p>","","","","","null","allTrialResponses","500","1","12","img_art/1.jpg","-30","It's just too abstract and formless.","Ryan,Zachary,Chase,Tristan,Marcus,Andrew","Seems like one i previously saw in this survey,27,380,20","While I like the colors, I find nothing interesting or thought provoking about it.,10,400,20","It's alright but lacks any depth.,-5,120,20","Unpleasing palette. I see a figure but it seems incongrous to the highly abstract background.,-20,300,20","Like the colors very much, and this piece makes me feel peaceful.,29,60,20","Makes me think of a bad thunderstorm,11,160,20","Zachary","While I like the colors, I find nothing interesting or thought provoking about it.,10,400,20","Chase","It's alright but lacks any depth.,-5,120,20","Tristan","Unpleasing palette. I see a figure but it seems incongrous to the highly abstract background.,-20,300,20","4"
"38289","","survey-text","132","1516901","0.0-130.0-0.0","A1DKVUTOBPQH11","","","","{""Q0"":""There's too many pointless \""scribbles\"" or random line work.""}","","","","","","","","","","","","","","","","","","","","","","",""
"3087.5","","image-slider-response","133","1519990","0.0-131.0","A1DKVUTOBPQH11","","","","","-15","","","","","","","","","","","","","","","","","","","","","",""
"null","","image-button-response","134","1524993","0.0-132.0","A1DKVUTOBPQH11","img_art/19.jpg","null","","","","","","","","","","","","","","","","","","","","","","","","",""
"18578","","image-button-response","135","1543573","0.0-133.0","A1DKVUTOBPQH11","img_art/19.jpg","4","","","","","","","","","","","","","","","","","","","","","","","","",""
"4745","","image-button-response","136","1548319","0.0-134.0-0.0","A1DKVUTOBPQH11","img_art/19.jpg","1","","","","","","","","","","","","","","","","","","","","","","","","",""
"1194","","image-button-response","137","1549514","0.0-135.0-0.0","A1DKVUTOBPQH11","img_art/19.jpg","3","","","","","","","","","","","","","","","","","","","","","","","","",""
"null","","html-keyboard-response","138","1550516","0.0-136.0","A1DKVUTOBPQH11","<p style=""font-size: 48px;"">+</p>","","","","","null","allTrialResponses","1000","1","13","img_art/19.jpg","-15","There's too many pointless ""scribbles"" or random line work.","Elijah,Zachary,Chase,Tristan,Antonio,Benjamin","The details are amazing,36,80,20","Reminds me of a busy town. Chaotic in nature.,-11,400,20","This is just a mess.,-30,120,20","Though provoking. Adventurous.,10,300,20","Chaotic. Too much going on in the picture,14,220,20","Reminds me of a busy village.,16,260,20","Antonio","Chaotic. Too much going on in the picture,14,220,20","Zachary","Reminds me of a busy town. Chaotic in nature.,-11,400,20","Tristan","Though provoking. Adventurous.,10,300,20","4"
"19509","","survey-text","139","1570036","0.0-137.0-0.0","A1DKVUTOBPQH11","","","","{""Q0"":""I don't understand it really; it's too random and bland looking.""}","","","","","","","","","","","","","","","","","","","","","","",""
"2494","","image-slider-response","140","1572532","0.0-138.0","A1DKVUTOBPQH11","","","","","-31","","","","","","","","","","","","","","","","","","","","","",""
"null","","image-button-response","141","1577534","0.0-139.0","A1DKVUTOBPQH11","img_art/29.jpg","null","","","","","","","","","","","","","","","","","","","","","","","","",""
"4893","","image-button-response","142","1582429","0.0-140.0","A1DKVUTOBPQH11","img_art/29.jpg","3","","","","","","","","","","","","","","","","","","","","","","","","",""
"8058","","image-button-response","143","1590488","0.0-141.0-0.0","A1DKVUTOBPQH11","img_art/29.jpg","1","","","","","","","","","","","","","","","","","","","","","","","","",""
"18167","","image-button-response","144","1608656","0.0-142.0-0.0","A1DKVUTOBPQH11","img_art/29.jpg","2","","","","","","","","","","","","","","","","","","","","","","","","",""
"null","","html-keyboard-response","145","1609669","0.0-143.0","A1DKVUTOBPQH11","<p style=""font-size: 48px;"">+</p>","","","","","null","allTrialResponses","1000","1","14","img_art/29.jpg","-31","I don't understand it really; it's too random and bland looking.","Steven,Zachary,Nicholas,Tristan,Antonio,Charles","Yeah, I don't know. It's clearly a situation where art is the reject of something more,-27,160,20","It looks like someone did not like their art and drew an x over it.,-32,400,20","I love this things almost hidden in it like paint brush and other details,50,240,20","The textures bring this painting alive. A window to another existence with infinite possibility.,25,300,20","Depressing and with that big red x on it just makes me not like it.,-33,220,20","I like the usage of a physical object,33,100,20","Tristan","The textures bring this painting alive. A window to another existence with infinite possibility.,25,300,20","Zachary","It looks like someone did not like their art and drew an x over it.,-32,400,20","Nicholas","I love this things almost hidden in it like paint brush and other details,50,240,20","4"
"22206","","survey-text","146","1631889","0.0-144.0-0.0","A1DKVUTOBPQH11","","","","{""Q0"":""It's slightly boring but there seems to be a story being told here.""}","","","","","","","","","","","","","","","","","","","","","","",""
"1934.5","","image-slider-response","147","1633825","0.0-145.0","A1DKVUTOBPQH11","","","","","10","","","","","","","","","","","","","","","","","","","","","",""
"null","","image-button-response","148","1638828","0.0-146.0","A1DKVUTOBPQH11","img_art/6.jpg","null","","","","","","","","","","","","","","","","","","","","","","","","",""
"2287","","image-button-response","149","1641117","0.0-147.0","A1DKVUTOBPQH11","img_art/6.jpg","3","","","","","","","","","","","","","","","","","","","","","","","","",""
"2895","","image-button-response","150","1644014","0.0-148.0-0.0","A1DKVUTOBPQH11","img_art/6.jpg","5","","","","","","","","","","","","","","","","","","","","","","","","",""
"8336","","image-button-response","151","1652352","0.0-149.0-0.0","A1DKVUTOBPQH11","img_art/6.jpg","1","","","","","","","","","","","","","","","","","","","","","","","","",""
"null","","html-keyboard-response","152","1653854","0.0-150.0","A1DKVUTOBPQH11","<p style=""font-size: 48px;"">+</p>","","","","","null","allTrialResponses","1500","1","15","img_art/6.jpg","10","It's slightly boring but there seems to be a story being told here.","Seth,Zachary,Nicholas,Tristan,Bryce,Noah","I love it. It reminds me of a bird sitting on a wall.,26,60,20","Reminds me of a plant poking through the soil. It reminds me of new life.,31,400,20","It isnt bad but sort of too bland,0,240,20","Lack of context makes this painting 1-d for me. The headless bird is mysterious and indecipherable.,-10,300,20","Not very exciting.,-34,20,20","intrigues me - not sure what I'm seeing, but I like combination of colour and texture,21,260,20","Tristan","Lack of context makes this painting 1-d for me. The headless bird is mysterious and indecipherable.,-10,300,20","Noah","intrigues me - not sure what I'm seeing, but I like combination of colour and texture,21,260,20","Zachary","Reminds me of a plant poking through the soil. It reminds me of new life.,31,400,20","4"
"6003","","survey-text","153","1659879","0.0-151.0-0.0","A1DKVUTOBPQH11","","","","{""Q0"":""course""}","","","","","","","","","","","","","","","","","","","","","","",""
"15579","","survey-text","154","1675459","0.0-152.0-0.0","A1DKVUTOBPQH11","","","","{""Q0"":""It seems to be mostly pointless and bland.""}","","","","","","","","","","","","","","","","","","","","","","",""
"1458","","image-slider-response","155","1676918","0.0-153.0","A1DKVUTOBPQH11","","","","","-42","","","","","","","","","","","","","","","","","","","","","",""
"null","","image-button-response","156","1681920","0.0-154.0","A1DKVUTOBPQH11","img_art/15.jpg","null","","","","","","","","","","","","","","","","","","","","","","","","",""
"1470","","image-button-response","157","1683392","0.0-155.0","A1DKVUTOBPQH11","img_art/15.jpg","3","","","","","","","","","","","","","","","","","","","","","","","","",""
"4835","","image-button-response","158","1688229","0.0-156.0-0.0","A1DKVUTOBPQH11","img_art/15.jpg","1","","","","","","","","","","","","","","","","","","","","","","","","",""
"4293","","image-button-response","159","1692524","0.0-157.0-0.0","A1DKVUTOBPQH11","img_art/15.jpg","5","","","","","","","","","","","","","","","","","","","","","","","","",""
"null","","html-keyboard-response","160","1693526","0.0-158.0","A1DKVUTOBPQH11","<p style=""font-size: 48px;"">+</p>","","","","","null","allTrialResponses","1000","1","16","img_art/15.jpg","-42","It seems to be mostly pointless and bland.","Aaron,Zachary,Dalton,Tristan,Shane,Noah","I like how it's simple but beautiful.,40,20,20","Reminds me of blue birds in a tree at night. I love nature.,40,400,20","black leaves makes the blue birds stand out.,1,300,20","basic colors and pleasing shapes providing a calming effect,15,300,20","Too intense with the black dotting,-22,80,20","i enjoy its apaprent simplicity (of colour and shape),32,260,20","Tristan","basic colors and pleasing shapes providing a calming effect,15,300,20","Zachary","Reminds me of blue birds in a tree at night. I love nature.,40,400,20","Noah","i enjoy its apaprent simplicity (of colour and shape),32,260,20","4"
"31901","","survey-text","161","1725429","0.0-159.0-0.0","A1DKVUTOBPQH11","","","","{""Q0"":""The colors are gross and it's quite boring overall.""}","","","","","","","","","","","","","","","","","","","","","","",""
"2934.399999999907","","image-slider-response","162","1728365","0.0-160.0","A1DKVUTOBPQH11","","","","","-39","","","","","","","","","","","","","","","","","","","","","",""
"null","","image-button-response","163","1733367","0.0-161.0","A1DKVUTOBPQH11","img_art/4.jpg","null","","","","","","","","","","","","","","","","","","","","","","","","",""
"181061","","image-button-response","164","1914431","0.0-162.0","A1DKVUTOBPQH11","img_art/4.jpg","1","","","","","","","","","","","","","","","","","","","","","","","","",""
"2083","","image-button-response","165","1916517","0.0-163.0-0.0","A1DKVUTOBPQH11","img_art/4.jpg","2","","","","","","","","","","","","","","","","","","","","","","","","",""
"2087","","image-button-response","166","1918607","0.0-164.0-0.0","A1DKVUTOBPQH11","img_art/4.jpg","3","","","","","","","","","","","","","","","","","","","","","","","","",""
"null","","html-keyboard-response","167","1919108","0.0-165.0","A1DKVUTOBPQH11","<p style=""font-size: 48px;"">+</p>","","","","","null","allTrialResponses","500","1","17","img_art/4.jpg","-39","The colors are gross and it's quite boring overall.","Jeffrey,Zachary,Richard,Tristan,David,Noah","Easy and relaxing,23,40,20","Not a huge fan of the color story, but it reminds me of a child finger-painting.,12,400,20","too childish, not really art in my world,-50,340,20","disturbing and uncomfortable.,10,300,20","I like the design. It can be interpreted in various ways, such as a hand of horror or still piece.,15,340,20","no strong feelings about this one,2,260,20","Zachary","Not a huge fan of the color story, but it reminds me of a child finger-painting.,12,400,20","Richard","too childish, not really art in my world,-50,340,20","Tristan","disturbing and uncomfortable.,10,300,20","4"
"14842","","survey-text","168","1933976","0.0-166.0-0.0","A1DKVUTOBPQH11","","","","{""Q0"":""It's pretty random but I like it.""}","","","","","","","","","","","","","","","","","","","","","","",""
"2948.399999999907","","image-slider-response","169","1936926","0.0-167.0","A1DKVUTOBPQH11","","","","","25","","","","","","","","","","","","","","","","","","","","","",""
"4352","","image-button-response","170","1941927","0.0-168.0","A1DKVUTOBPQH11","img_art/13.jpg","0","","","","","","","","","","","","","","","","","","","","","","","","",""
"468","","image-button-response","171","1942396","0.0-169.0","A1DKVUTOBPQH11","img_art/13.jpg","0","","","","","","","","","","","","","","","","","","","","","","","","",""
"4916","","image-button-response","172","1947314","0.0-170.0-0.0","A1DKVUTOBPQH11","img_art/13.jpg","3","","","","","","","","","","","","","","","","","","","","","","","","",""
"4563","","image-button-response","173","1951879","0.0-171.0-0.0","A1DKVUTOBPQH11","img_art/13.jpg","4","","","","","","","","","","","","","","","","","","","","","","","","",""
"null","","html-keyboard-response","174","1953381","0.0-172.0","A1DKVUTOBPQH11","<p style=""font-size: 48px;"">+</p>","","","","","null","allTrialResponses","1500","1","18","img_art/13.jpg","25","It's pretty random but I like it.","Trevor,Zachary,Richard,Tristan,Christopher,Brendan","i like the colors but it looks like something that would hang in a hotel,18,280,20","Peaceful colors.,20,400,20","kind of like the pattern and colors but don't love it,13,340,20","I recognize the beauty of this but FOR ME its large degree of abstraction diminishes my emotional interaction.,-10,300,20","this is an appealing mix of textures to me and the color scheme is harmonious,36,160,20","its crazy to the point that i cant get it,-28,340,20","Trevor","i like the colors but it looks like something that would hang in a hotel,18,280,20","Tristan","I recognize the beauty of this but FOR ME its large degree of abstraction diminishes my emotional interaction.,-10,300,20","Christopher","this is an appealing mix of textures to me and the color scheme is harmonious,36,160,20","4"
"15365","","survey-text","175","1968750","0.0-173.0-0.0","A1DKVUTOBPQH11","","","","{""Q0"":""This looks like childish scribbles.""}","","","","","","","","","","","","","","","","","","","","","","",""
"2286.5","","image-slider-response","176","1971038","0.0-174.0","A1DKVUTOBPQH11","","","","","-37","","","","","","","","","","","","","","","","","","","","","",""
"null","","image-button-response","177","1976040","0.0-175.0","A1DKVUTOBPQH11","img_art/3.jpg","null","","","","","","","","","","","","","","","","","","","","","","","","",""
"2495","","image-button-response","178","1978537","0.0-176.0","A1DKVUTOBPQH11","img_art/3.jpg","1","","","","","","","","","","","","","","","","","","","","","","","","",""
"7754","","image-button-response","179","1986293","0.0-177.0-0.0","A1DKVUTOBPQH11","img_art/3.jpg","3","","","","","","","","","","","","","","","","","","","","","","","","",""
"1004","","image-button-response","180","1987299","0.0-178.0-0.0","A1DKVUTOBPQH11","img_art/3.jpg","0","","","","","","","","","","","","","","","","","","","","","","","","",""
"null","","html-keyboard-response","181","1988801","0.0-179.0","A1DKVUTOBPQH11","<p style=""font-size: 48px;"">+</p>","","","","","null","allTrialResponses","1500","1","19","img_art/3.jpg","-37","This looks like childish scribbles.","Trevor,Brandon,Malik,Tristan,Christopher,Jared","looks more classic but i'm not a fan of the colors,7,280,20","Just scribbles. Not a fan.,-40,320,20","Unaure what the artist  was doing, needs context,11,40,20","i like the colors particulairly the contrast of foreground to background. Exciting and thoughtful.,10,300,20","the red is impactful but the work overall doesn't say anything to me,-8,160,20","scattered and angry,-26,400,20","Brandon","Just scribbles. Not a fan.,-40,320,20","Tristan","i like the colors particulairly the contrast of foreground to background. Exciting and thoughtful.,10,300,20","Trevor","looks more classic but i'm not a fan of the colors,7,280,20","4"
"24257","","survey-text","182","2013072","0.0-180.0-0.0","A1DKVUTOBPQH11","","","","{""Q0"":""I don't really understand what this is supposed to be.""}","","","","","","","","","","","","","","","","","","","","","","",""
"2558.7000000001863","","image-slider-response","183","2015632","0.0-181.0","A1DKVUTOBPQH11","","","","","-23","","","","","","","","","","","","","","","","","","","","","",""
"1594","","image-button-response","184","2020634","0.0-182.0","A1DKVUTOBPQH11","img_art/5.jpg","0","","","","","","","","","","","","","","","","","","","","","","","","",""
"7220","","image-button-response","185","2027856","0.0-183.0","A1DKVUTOBPQH11","img_art/5.jpg","3","","","","","","","","","","","","","","","","","","","","","","","","",""
"2024","","image-button-response","186","2029881","0.0-184.0-0.0","A1DKVUTOBPQH11","img_art/5.jpg","1","","","","","","","","","","","","","","","","","","","","","","","","",""
"1810","","image-button-response","187","2031692","0.0-185.0-0.0","A1DKVUTOBPQH11","img_art/5.jpg","0","","","","","","","","","","","","","","","","","","","","","","","","",""
"null","","html-keyboard-response","188","2032694","0.0-186.0","A1DKVUTOBPQH11","<p style=""font-size: 48px;"">+</p>","","","","","null","allTrialResponses","1000","1","20","img_art/5.jpg","-23","I don't really understand what this is supposed to be.","Trevor,Brandon,Devin,Tristan,Mitchell,Gabriel","looks like a little kids painting,-50,280,20","Kindergarten art. I really don't like this style.,-50,320,20","A bit too messy in my eyes,-4,380,20","Nearly white background gives a lack of context. Questionable skills,-45,300,20","Building remnants in the sand.,1,180,20","too abstract, looks like a pyramid,-22,160,20","Tristan","Nearly white background gives a lack of context. Questionable skills,-45,300,20","Brandon","Kindergarten art. I really don't like this style.,-50,320,20","Trevor","looks like a little kids painting,-50,280,20","4"
"5471","","survey-text","189","2038191","0.0-187.0-0.0","A1DKVUTOBPQH11","","","","{""Q0"":""we""}","","","","","","","","","","","","","","","","","","","","","","",""
"15489","","survey-text","190","2053680","0.0-188.0-0.0","A1DKVUTOBPQH11","","","","{""Q0"":""It's interesting but so incredibly abstract.""}","","","","","","","","","","","","","","","","","","","","","","",""
"7297","","image-slider-response","191","2060979","0.0-189.0","A1DKVUTOBPQH11","","","","","10","","","","","","","","","","","","","","","","","","","","","",""
"null","","image-button-response","192","2065981","0.0-190.0","A1DKVUTOBPQH11","img_art/28.jpg","null","","","","","","","","","","","","","","","","","","","","","","","","",""
"2526","","image-button-response","193","2068509","0.0-191.0","A1DKVUTOBPQH11","img_art/28.jpg","0","","","","","","","","","","","","","","","","","","","","","","","","",""
"567","","image-button-response","194","2069077","0.0-192.0-0.0","A1DKVUTOBPQH11","img_art/28.jpg","1","","","","","","","","","","","","","","","","","","","","","","","","",""
"4529","","image-button-response","195","2073607","0.0-193.0-0.0","A1DKVUTOBPQH11","img_art/28.jpg","3","","","","","","","","","","","","","","","","","","","","","","","","",""
"null","","html-keyboard-response","196","2075109","0.0-194.0","A1DKVUTOBPQH11","<p style=""font-size: 48px;"">+</p>","","","","","null","allTrialResponses","1500","1","21","img_art/28.jpg","10","It's interesting but so incredibly abstract.","Trevor,Brandon,Alexis,Tristan,Vincent,Alejandro","very blah colors and it's not fun,-27,280,20","Interesting. I like the ""old woman"" on the left. Lots of different entities to look at,21,320,20","The brown and green colors used look dull and unappealing,-30,140,20","Contemplative and a little dark. The muted colors and subject create a sense of mystery.,15,300,20","This is one of my favorites. It says to me to take time for people,37,360,20","I like the flow and abstract nature of what seems to be humans,40,80,20","Trevor","very blah colors and it's not fun,-27,280,20","Brandon","Interesting. I like the ""old woman"" on the left. Lots of different entities to look at,21,320,20","Tristan","Contemplative and a little dark. The muted colors and subject create a sense of mystery.,15,300,20","4"
"22242","","survey-text","197","2097357","0.0-195.0-0.0","A1DKVUTOBPQH11","","","","{""Q0"":""The colors and shapes are pretty appealing.""}","","","","","","","","","","","","","","","","","","","","","","",""
"5906.5999999996275","","image-slider-response","198","2103265","0.0-196.0","A1DKVUTOBPQH11","","","","","20","","","","","","","","","","","","","","","","","","","","","",""
"null","","image-button-response","199","2108267","0.0-197.0","A1DKVUTOBPQH11","img_art/22.jpg","null","","","","","","","","","","","","","","","","","","","","","","","","",""
"13541","","image-button-response","200","2121809","0.0-198.0","A1DKVUTOBPQH11","img_art/22.jpg","3","","","","","","","","","","","","","","","","","","","","","","","","",""
"6706","","image-button-response","201","2128517","0.0-199.0-0.0","A1DKVUTOBPQH11","img_art/22.jpg","5","","","","","","","","","","","","","","","","","","","","","","","","",""
"2344","","image-button-response","202","2130862","0.0-200.0-0.0","A1DKVUTOBPQH11","img_art/22.jpg","1","","","","","","","","","","","","","","","","","","","","","","","","",""
"null","","html-keyboard-response","203","2132364","0.0-201.0","A1DKVUTOBPQH11","<p style=""font-size: 48px;"">+</p>","","","","","null","allTrialResponses","1500","1","22","img_art/22.jpg","20","The colors and shapes are pretty appealing.","Trevor,Brandon,Michael,Tristan,Corey,Devon","i like the colors but it looks too 80s for me,7,280,20","Don't like this type of abstract work,-39,320,20","There is some flow and organization.,10,140,20","I appreciate the shapes but the abundance of primary colors make it seem garrish.,-10,300,20","i feel like this is a a basic art piece that a school would have on the wall,-24,260,20","This represents the hopes in my life.,21,400,20","Tristan","I appreciate the shapes but the abundance of primary colors make it seem garrish.,-10,300,20","Devon","This represents the hopes in my life.,21,400,20","Brandon","Don't like this type of abstract work,-39,320,20","4"
"25278","","survey-text","204","2157655","0.0-202.0-0.0","A1DKVUTOBPQH11","","","","{""Q0"":""It just looks like a close-up of a blotch of paint.""}","","","","","","","","","","","","","","","","","","","","","","",""
"7473.100000000559","","image-slider-response","205","2165129","0.0-203.0","A1DKVUTOBPQH11","","","","","-30","","","","","","","","","","","","","","","","","","","","","",""
"4887","","image-button-response","206","2170131","0.0-204.0","A1DKVUTOBPQH11","img_art/7.jpg","3","","","","","","","","","","","","","","","","","","","","","","","","",""
"5301","","image-button-response","207","2175433","0.0-205.0","A1DKVUTOBPQH11","img_art/7.jpg","1","","","","","","","","","","","","","","","","","","","","","","","","",""
"6183","","image-button-response","208","2181618","0.0-206.0-0.0","A1DKVUTOBPQH11","img_art/7.jpg","5","","","","","","","","","","","","","","","","","","","","","","","","",""
"1102","","image-button-response","209","2182721","0.0-207.0-0.0","A1DKVUTOBPQH11","img_art/7.jpg","3","","","","","","","","","","","","","","","","","","","","","","","","",""
"null","","html-keyboard-response","210","2183723","0.0-208.0","A1DKVUTOBPQH11","<p style=""font-size: 48px;"">+</p>","","","","","null","allTrialResponses","1000","1","23","img_art/7.jpg","-30","It just looks like a close-up of a blotch of paint.","Scott,Brandon,Jordan,Tristan,Blake,Devon","I don't like the texture,-49,20,20","Looks like bad wallpaper,-29,320,20","Looks like a skin disease,-31,160,20","Limited emotional reaction for me. No focus and highly abstract,-20,300,20","hot desert with big rocks.,-19,280,20","I'm not too sure about this one,-10,400,20","Brandon","Looks like bad wallpaper,-29,320,20","Devon","I'm not too sure about this one,-10,400,20","Tristan","Limited emotional reaction for me. No focus and highly abstract,-20,300,20","4"
"20185","","survey-text","211","2203912","0.0-209.0-0.0","A1DKVUTOBPQH11","","","","{""Q0"":""It's odd but very interesting.""}","","","","","","","","","","","","","","","","","","","","","","",""
"6192.4000000003725","","image-slider-response","212","2210106","0.0-210.0","A1DKVUTOBPQH11","","","","","15","","","","","","","","","","","","","","","","","","","","","",""
"null","","image-button-response","213","2215110","0.0-211.0","A1DKVUTOBPQH11","img_art/10.jpg","null","","","","","","","","","","","","","","","","","","","","","","","","",""
"366","","image-button-response","214","2215478","0.0-212.0","A1DKVUTOBPQH11","img_art/10.jpg","1","","","","","","","","","","","","","","","","","","","","","","","","",""
"4583","","image-button-response","215","2220063","0.0-213.0-0.0","A1DKVUTOBPQH11","img_art/10.jpg","3","","","","","","","","","","","","","","","","","","","","","","","","",""
"3545","","image-button-response","216","2223609","0.0-214.0-0.0","A1DKVUTOBPQH11","img_art/10.jpg","4","","","","","","","","","","","","","","","","","","","","","","","","",""
"null","","html-keyboard-response","217","2225111","0.0-215.0","A1DKVUTOBPQH11","<p style=""font-size: 48px;"">+</p>","","","","","null","allTrialResponses","1500","1","24","img_art/10.jpg","15","It's odd but very interesting.","Miguel,Brandon,Jeremy,Tristan,Luis,Devon","It just looks like a dirty stain.,-38,160,20","Too abstract and it doesn't really remind me of anything,-40,320,20","kind of happy. it is intriguing,23,60,20","Highly abstract and yet the shapes and colors provide an emotional accessibility for me.,20,300,20","I love the dark and edgy nature of this,50,400,20","awww... this looks very nice,32,400,20","Brandon","Too abstract and it doesn't really remind me of anything,-40,320,20","Tristan","Highly abstract and yet the shapes and colors provide an emotional accessibility for me.,20,300,20","Luis","I love the dark and edgy nature of this,50,400,20","4"
"28876","","survey-text","218","2253996","0.0-216.0-0.0","A1DKVUTOBPQH11","","","","{""Q0"":""It's incredibly abstract but also very dreamlike.""}","","","","","","","","","","","","","","","","","","","","","","",""
"2330.4000000003725","","image-slider-response","219","2256328","0.0-217.0","A1DKVUTOBPQH11","","","","","20","","","","","","","","","","","","","","","","","","","","","",""
"null","","image-button-response","220","2261330","0.0-218.0","A1DKVUTOBPQH11","img_art/21.jpg","null","","","","","","","","","","","","","","","","","","","","","","","","",""
"14432","","image-button-response","221","2275766","0.0-219.0","A1DKVUTOBPQH11","img_art/21.jpg","1","","","","","","","","","","","","","","","","","","","","","","","","",""
"857","","image-button-response","222","2276625","0.0-220.0-0.0","A1DKVUTOBPQH11","img_art/21.jpg","0","","","","","","","","","","","","","","","","","","","","","","","","",""
"1171","","image-button-response","223","2277797","0.0-221.0-0.0","A1DKVUTOBPQH11","img_art/21.jpg","3","","","","","","","","","","","","","","","","","","","","","","","","",""
"null","","html-keyboard-response","224","2279300","0.0-222.0","A1DKVUTOBPQH11","<p style=""font-size: 48px;"">+</p>","","","","","null","allTrialResponses","1500","1","25","img_art/21.jpg","20","It's incredibly abstract but also very dreamlike.","Jose,Brandon,Alex,Tristan,Luis,Carlos","I can't explain why this struck me as absolutely gorgeous. Like the clashing between 2 different worlds,43,200,20","I love this. Reminds me of a coast. The colors flow beautifully,40,320,20","The colors are very nice. I like the dots because they remind me of pearls,5,100,20","A landscape that leaves me inspired and hopeful.,20,300,20","I like the representation of love and hate in this,43,400,20","Motion, the light marks in the lower right corner are very appealing.,15,80,20","Brandon","I love this. Reminds me of a coast. The colors flow beautifully,40,320,20","Jose","I can't explain why this struck me as absolutely gorgeous. Like the clashing between 2 different worlds,43,200,20","Tristan","A landscape that leaves me inspired and hopeful.,20,300,20","4"
"4601","","survey-text","225","2283925","0.0-223.0-0.0","A1DKVUTOBPQH11","","","","{""Q0"":""table""}","","","","","","","","","","","","","","","","","","","","","","",""
"18781","","survey-text","226","2302707","0.0-224.0-0.0","A1DKVUTOBPQH11","","","","{""Q0"":""It just looks like random brushstrokes.""}","","","","","","","","","","","","","","","","","","","","","","",""
"2520.7999999998137","","image-slider-response","227","2305229","0.0-225.0","A1DKVUTOBPQH11","","","","","-42","","","","","","","","","","","","","","","","","","","","","",""
"null","","image-button-response","228","2310231","0.0-226.0","A1DKVUTOBPQH11","img_art/30.jpg","null","","","","","","","","","","","","","","","","","","","","","","","","",""
"3287","","image-button-response","229","2313523","0.0-227.0","A1DKVUTOBPQH11","img_art/30.jpg","0","","","","","","","","","","","","","","","","","","","","","","","","",""
"502","","image-button-response","230","2314027","0.0-228.0-0.0","A1DKVUTOBPQH11","img_art/30.jpg","1","","","","","","","","","","","","","","","","","","","","","","","","",""
"739","","image-button-response","231","2314768","0.0-229.0-0.0","A1DKVUTOBPQH11","img_art/30.jpg","3","","","","","","","","","","","","","","","","","","","","","","","","",""
"null","","html-keyboard-response","232","2315769","0.0-230.0","A1DKVUTOBPQH11","<p style=""font-size: 48px;"">+</p>","","","","","null","allTrialResponses","1000","1","26","img_art/30.jpg","-42","It just looks like random brushstrokes.","Jose,Brandon,Taylor,Tristan,Isaac,Christian","For some reason I like the red in this one. Maybe it's the style of lines/blurs,46,200,20","Too abstract, looks like something I could paint,-50,320,20","My kid drew this same picture at daycare!!!,5,200,20","Too much abstraction for me, leaving my focus mainly on color. I like the texture.,-20,300,20","It looks like it was painted in 5 minutes.,-32,280,20","don't know but it somehow speaks to me,29,140,20","Jose","For some reason I like the red in this one. Maybe it's the style of lines/blurs,46,200,20","Brandon","Too abstract, looks like something I could paint,-50,320,20","Tristan","Too much abstraction for me, leaving my focus mainly on color. I like the texture.,-20,300,20","4"
"15249","","survey-text","233","2331030","0.0-231.0-0.0","A1DKVUTOBPQH11","","","","{""Q0"":""It's slightly hideous looking.""}","","","","","","","","","","","","","","","","","","","","","","",""
"2192.0999999996275","","image-slider-response","234","2333223","0.0-232.0","A1DKVUTOBPQH11","","","","","-44","","","","","","","","","","","","","","","","","","","","","",""
"null","","image-button-response","235","2338226","0.0-233.0","A1DKVUTOBPQH11","img_art/9.jpg","null","","","","","","","","","","","","","","","","","","","","","","","","",""
"5141","","image-button-response","236","2343370","0.0-234.0","A1DKVUTOBPQH11","img_art/9.jpg","0","","","","","","","","","","","","","","","","","","","","","","","","",""
"618","","image-button-response","237","2343989","0.0-235.0-0.0","A1DKVUTOBPQH11","img_art/9.jpg","1","","","","","","","","","","","","","","","","","","","","","","","","",""
"892","","image-button-response","238","2344882","0.0-236.0-0.0","A1DKVUTOBPQH11","img_art/9.jpg","3","","","","","","","","","","","","","","","","","","","","","","","","",""
"null","","html-keyboard-response","239","2345384","0.0-237.0","A1DKVUTOBPQH11","<p style=""font-size: 48px;"">+</p>","","","","","null","allTrialResponses","500","1","27","img_art/9.jpg","-44","It's slightly hideous looking.","Jose,Brandon,Bryan,Tristan,Angel,Nathan","Idk what is in the middle but the blurry image makes it seem like the subject is of the painters interest,22,200,20","I like the sense of forboding, the green creates a claustrophobic feeling,10,320,20","Huh?  Doesn't invoke much.,-37,400,20","The busyness and harsh nature of the lines in this painting  mute my emotional response.,-10,300,20","This feels dreamy. Like I'm seeing inside someone's head while they're sleeping.,20,180,20","Looks like a child's drawing,-40,200,20","Jose","Idk what is in the middle but the blurry image makes it seem like the subject is of the painters interest,22,200,20","Brandon","I like the sense of forboding, the green creates a claustrophobic feeling,10,320,20","Tristan","The busyness and harsh nature of the lines in this painting  mute my emotional response.,-10,300,20","4"
"19141","","survey-text","240","2364534","0.0-238.0-0.0","A1DKVUTOBPQH11","","","","{""Q0"":""It kind of looks like a tree of sorts.""}","","","","","","","","","","","","","","","","","","","","","","",""
"6154.0999999996275","","image-slider-response","241","2370689","0.0-239.0","A1DKVUTOBPQH11","","","","","10","","","","","","","","","","","","","","","","","","","","","",""
"null","","image-button-response","242","2375691","0.0-240.0","A1DKVUTOBPQH11","img_art/14.jpg","null","","","","","","","","","","","","","","","","","","","","","","","","",""
"13575","","image-button-response","243","2389270","0.0-241.0","A1DKVUTOBPQH11","img_art/14.jpg","3","","","","","","","","","","","","","","","","","","","","","","","","",""
"1876","","image-button-response","244","2391148","0.0-242.0-0.0","A1DKVUTOBPQH11","img_art/14.jpg","1","","","","","","","","","","","","","","","","","","","","","","","","",""
"1001","","image-button-response","245","2392151","0.0-243.0-0.0","A1DKVUTOBPQH11","img_art/14.jpg","4","","","","","","","","","","","","","","","","","","","","","","","","",""
"null","","html-keyboard-response","246","2393653","0.0-244.0","A1DKVUTOBPQH11","<p style=""font-size: 48px;"">+</p>","","","","","null","allTrialResponses","1500","1","28","img_art/14.jpg","10","It kind of looks like a tree of sorts.","Jose,Brandon,Stephen,Tristan,Alexander,Colton","I don't like the color red,30,200,20","Don't like the colors on this. Too simple,-20,320,20","I'm a fan of the background.,13,140,20","In others I might say the colors are garish. Here it works perfectly. The balance is wondrous and unlimiting.,25,300,20","Angled, colored, boxy.,10,120,20","mythical and nature like,37,220,20","Tristan","In others I might say the colors are garish. Here it works perfectly. The balance is wondrous and unlimiting.,25,300,20","Brandon","Don't like the colors on this. Too simple,-20,320,20","Alexander","Angled, colored, boxy.,10,120,20","4"
"24027","","survey-text","247","2417702","0.0-245.0-0.0","A1DKVUTOBPQH11","","","","{""Q0"":""I really love the colors and shapes here; the tree is quite impressive looking.""}","","","","","","","","","","","","","","","","","","","","","","",""
"3523.5999999996275","","image-slider-response","248","2421227","0.0-246.0","A1DKVUTOBPQH11","","","","","30","","","","","","","","","","","","","","","","","","","","","",""
"null","","image-button-response","249","2426229","0.0-247.0","A1DKVUTOBPQH11","img_art/17.jpg","null","","","","","","","","","","","","","","","","","","","","","","","","",""
"9439","","image-button-response","250","2435670","0.0-248.0","A1DKVUTOBPQH11","img_art/17.jpg","3","","","","","","","","","","","","","","","","","","","","","","","","",""
"2390","","image-button-response","251","2438062","0.0-249.0-0.0","A1DKVUTOBPQH11","img_art/17.jpg","0","","","","","","","","","","","","","","","","","","","","","","","","",""
"7979","","image-button-response","252","2446042","0.0-250.0-0.0","A1DKVUTOBPQH11","img_art/17.jpg","2","","","","","","","","","","","","","","","","","","","","","","","","",""
"null","","html-keyboard-response","253","2446544","0.0-251.0","A1DKVUTOBPQH11","<p style=""font-size: 48px;"">+</p>","","","","","null","allTrialResponses","500","1","29","img_art/17.jpg","30","I really love the colors and shapes here; the tree is quite impressive looking.","Jacob,Brandon,Derek,Tristan,Alexander,Daniel","The way they painted the trees is so cool.,27,340,20","Love the color and nature motif,36,320,20","The colors are beautiful and the painting itself is magnificent,50,360,20","peaceful. contemplative. balanced. old,10,300,20","Tree of knowledge in a quiet school.,17,120,20","2 paintings in 1 with shared colors,5,320,20","Tristan","peaceful. contemplative. balanced. old,10,300,20","Jacob","The way they painted the trees is so cool.,27,340,20","Derek","The colors are beautiful and the painting itself is magnificent,50,360,20","4"
"50929","","survey-text","254","2497480","0.0-252.0-0.0","A1DKVUTOBPQH11","","","","{""Q0"":""The water color look is nice but it's too abstract for my taste.""}","","","","","","","","","","","","","","","","","","","","","","",""
"1797.9000000003725","","image-slider-response","255","2499279","0.0-253.0","A1DKVUTOBPQH11","","","","","-5","","","","","","","","","","","","","","","","","","","","","",""
"null","","image-button-response","256","2504286","0.0-254.0","A1DKVUTOBPQH11","img_art/26.jpg","null","","","","","","","","","","","","","","","","","","","","","","","","",""
"6582","","image-button-response","257","2510870","0.0-255.0","A1DKVUTOBPQH11","img_art/26.jpg","2","","","","","","","","","","","","","","","","","","","","","","","","",""
"823","","image-button-response","258","2511695","0.0-256.0-0.0","A1DKVUTOBPQH11","img_art/26.jpg","0","","","","","","","","","","","","","","","","","","","","","","","","",""
"782","","image-button-response","259","2512478","0.0-257.0-0.0","A1DKVUTOBPQH11","img_art/26.jpg","3","","","","","","","","","","","","","","","","","","","","","","","","",""
"null","","html-keyboard-response","260","2512979","0.0-258.0","A1DKVUTOBPQH11","<p style=""font-size: 48px;"">+</p>","","","","","null","allTrialResponses","500","1","30","img_art/26.jpg","-5","The water color look is nice but it's too abstract for my taste.","Jacob,Paul,Derek,Tristan,Grant,Brian","It doesn't look so vibrant, I'm not sure what feelings they were trying to capture,-41,340,20","It looks empty and unfinished,-28,300,20","Looks messy and like it was painted by a small child,-48,360,20","The feeling that I am looking at the world through a dingy filter makes this unpleasant for me.,-20,300,20","It's a cute city scene. I like the trees.,10,200,20","I'm not really into landscapes unless I have a personal connection to them,-21,380,20","Derek","Looks messy and like it was painted by a small child,-48,360,20","Jacob","It doesn't look so vibrant, I'm not sure what feelings they were trying to capture,-41,340,20","Tristan","The feeling that I am looking at the world through a dingy filter makes this unpleasant for me.,-20,300,20","4"
"8338","","image-button-response_instructions","261","2521335","0.0-259.0","A1DKVUTOBPQH11","","0","instructions","","","","","","","","","","","","","","","","","","","","","","","",""
"1087","","image-button-response","262","2522426","0.0-260.0","A1DKVUTOBPQH11","","0","","","","","","","","","","","","","","","","","","","","","","","","",""
