"rt","url","trial_type","trial_index","time_elapsed","internal_node_id","participant_id","stimulus","button_pressed","Name","responses","response","key_press","variableName","fixationTime","condition","trial","photo","subjectRating","subjectResponse","agentsNames","agent_1_Response","agent_2_Response","agent_3_Response","agent_4_Response","agent_5_Response","agent_6_Response","kept_1_name","kept_1_response","kept_2_name","kept_2_response","kept_3_name","kept_3_response","errorCounter"
"8215","external_page_harvard.html","external-html","0","8347","0.0-0.0","A1G5EPLJEGL381","","","","","","","","","","","","","","","","","","","","","","","","","","",""
"1675","","image-button-response","1","10024","0.0-1.0","A1G5EPLJEGL381","","1","","","","","","","","","","","","","","","","","","","","","","","","",""
"6080","","image-button-response","2","16112","0.0-2.0-0.0","A1G5EPLJEGL381","","1","phone","","","","","","","","","","","","","","","","","","","","","","","",""
"10477","","survey-text","3","26592","0.0-3.0-0.0","A1G5EPLJEGL381","","","","{""Q0"":""A1G5EPLJEGL381""}","","","","","","","","","","","","","","","","","","","","","","",""
"4557","","image-button-response_instructions","4","31152","0.0-4.0","A1G5EPLJEGL381","","0","instructions","","","","","","","","","","","","","","","","","","","","","","","",""
"9982","","image-button-response_instructions","5","41136","0.0-5.0","A1G5EPLJEGL381","img_art/ins/popularity/ins1.png","0","instructions","","","","","","","","","","","","","","","","","","","","","","","",""
"3046","","image-button-response_instructions","6","44184","0.0-6.0","A1G5EPLJEGL381","img_art/ins/popularity/ins2.png","0","instructions","","","","","","","","","","","","","","","","","","","","","","","",""
"3135","","image-button-response_instructions","7","47320","0.0-7.0","A1G5EPLJEGL381","img_art/ins/popularity/ins2Extreme.png","0","instructions","","","","","","","","","","","","","","","","","","","","","","","",""
"9638","","image-button-response_instructions","8","56960","0.0-8.0","A1G5EPLJEGL381","img_art/ins/popularity/ins3KEEPpop.PNG","0","instructions","","","","","","","","","","","","","","","","","","","","","","","",""
"7126","","image-button-response_instructions","9","64087","0.0-9.0","A1G5EPLJEGL381","img_art/ins/popularity/ins3ANamepop.PNG","0","instructions","","","","","","","","","","","","","","","","","","","","","","","",""
"1535","","image-button-response_instructions","10","65624","0.0-10.0","A1G5EPLJEGL381","img_art/ins/popularity/ins3ARatingpop.png","0","instructions","","","","","","","","","","","","","","","","","","","","","","","",""
"1695","","image-button-response_instructions","11","67320","0.0-11.0","A1G5EPLJEGL381","img_art/ins/popularity/ins3ATextpop.png","0","instructions","","","","","","","","","","","","","","","","","","","","","","","",""
"2071","","image-button-response_instructions","12","69392","0.0-12.0","A1G5EPLJEGL381","img_art/ins/popularity/ins3ALikespop.png","0","instructions","","","","","","","","","","","","","","","","","","","","","","","",""
"5383","","image-button-response_instructions","13","74775","0.0-13.0","A1G5EPLJEGL381","img_art/ins/popularity/ins3KEEPpop.PNG","0","instructions","","","","","","","","","","","","","","","","","","","","","","","",""
"3519","","image-button-response_instructions","14","78296","0.0-14.0","A1G5EPLJEGL381","img_art/ins/popularity/ins3_5RED.png","0","instructions","","","","","","","","","","","","","","","","","","","","","","","",""
"2158","","image-button-response_instructions","15","80456","0.0-15.0","A1G5EPLJEGL381","img_art/ins/popularity/ins3KEEPpop.PNG","0","instructions","","","","","","","","","","","","","","","","","","","","","","","",""
"4199","","image-button-response_instructions","16","84655","0.0-16.0","A1G5EPLJEGL381","img_art/ins/popularity/ins4KEEPpop.PNG","0","instructions","","","","","","","","","","","","","","","","","","","","","","","",""
"2927","","image-button-response_instructions","17","87583","0.0-17.0","A1G5EPLJEGL381","img_art/ins/popularity/ins5KEEPpop.PNG","0","instructions","","","","","","","","","","","","","","","","","","","","","","","",""
"1591","","image-button-response_instructions","18","89175","0.0-18.0","A1G5EPLJEGL381","","0","instructions","","","","","","","","","","","","","","","","","","","","","","","",""
"3542","","survey-text","19","92743","0.0-19.0-0.0","A1G5EPLJEGL381","","","","{""Q0"":""but""}","","","","","","","","","","","","","","","","","","","","","","",""
"29999","","survey-text","20","122744","0.0-20.0-0.0","A1G5EPLJEGL381","","","","{""Q0"":""Feels like artist couldn't decide what this was.""}","","","","","","","","","","","","","","","","","","","","","","",""
"4669","","image-slider-response","21","127416","0.0-21.0","A1G5EPLJEGL381","","","","","-7","","","","","","","","","","","","","","","","","","","","","",""
"3420","","image-button-response","22","132421","0.0-22.0","A1G5EPLJEGL381","img_art/ins/1.jpg","3","","","","","","","","","","","","","","","","","","","","","","","","",""
"2448","","image-button-response","23","134873","0.0-23.0","A1G5EPLJEGL381","img_art/ins/1.jpg","3","","","","","","","","","","","","","","","","","","","","","","","","",""
"965","","image-button-response","24","135841","0.0-24.0-0.0","A1G5EPLJEGL381","img_art/ins/1.jpg","5","","","","","","","","","","","","","","","","","","","","","","","","",""
"2180","","image-button-response","25","138024","0.0-25.0-0.0","A1G5EPLJEGL381","img_art/ins/1.jpg","1","","","","","","","","","","","","","","","","","","","","","","","","",""
"null","","html-keyboard-response","26","138527","0.0-26.0","A1G5EPLJEGL381","<p style=""font-size: 48px;"">+</p>","","","","","null","allTrialResponses","500","1","-2","img_art/ins/1.jpg","-7","Feels like artist couldn't decide what this was.","Allison,Ashley,Beth,Dora,Erika,Jen","looks like a lot of things going on in the mist,20,20,20","I just don't get why these type of art would be popular,-32,40,20","This color reminds me of poo,-46,60,20","looks like what my niece in 3rd grade did this afternoon,-50,80,20","I like the sophisticated brushwork,40,100,20","It reminds me of a candy land dream I had,36,120,20","Dora","looks like what my niece in 3rd grade did this afternoon,-50,80,20","Jen","It reminds me of a candy land dream I had,36,120,20","Ashley","I just don't get why these type of art would be popular,-32,40,20","0"
"18442","","survey-text","27","156976","0.0-27.0-0.0","A1G5EPLJEGL381","","","","{""Q0"":""Vivid, modern piece that works""}","","","","","","","","","","","","","","","","","","","","","","",""
"2973.900000035763","","image-slider-response","28","159952","0.0-28.0","A1G5EPLJEGL381","","","","","6","","","","","","","","","","","","","","","","","","","","","",""
"null","","image-button-response","29","164955","0.0-29.0","A1G5EPLJEGL381","img_art/ins/2.jpg","null","","","","","","","","","","","","","","","","","","","","","","","","",""
"3394","","image-button-response","30","168352","0.0-30.0","A1G5EPLJEGL381","img_art/ins/2.jpg","3","","","","","","","","","","","","","","","","","","","","","","","","",""
"1429","","image-button-response","31","169785","0.0-31.0-0.0","A1G5EPLJEGL381","img_art/ins/2.jpg","5","","","","","","","","","","","","","","","","","","","","","","","","",""
"2517","","image-button-response","32","172304","0.0-32.0-0.0","A1G5EPLJEGL381","img_art/ins/2.jpg","2","","","","","","","","","","","","","","","","","","","","","","","","",""
"null","","html-keyboard-response","33","172806","0.0-33.0","A1G5EPLJEGL381","<p style=""font-size: 48px;"">+</p>","","","","","null","allTrialResponses","500","1","-1","img_art/ins/2.jpg","6","Vivid, modern piece that works","Jenna,Ashley,Katie,Dora,Kara,Jen","One of my pet peevs,-48,140,20","Idk, it is just annoying,-32,40,20","too much color!,-28,180,20","looks too angry,-50,80,20","I like the blocks of color arrangements,30,160,20","It reminds me of a fireplace,36,120,20","Dora","looks too angry,-50,80,20","Jen","It reminds me of a fireplace,36,120,20","Katie","too much color!,-28,180,20","0"
"10992","","survey-text","34","183807","0.0-34.0-0.0","A1G5EPLJEGL381","","","","{""Q0"":""Blue and peaceful""}","","","","","","","","","","","","","","","","","","","","","","",""
"37389.80000001192","","image-slider-response","35","221199","0.0-35.0","A1G5EPLJEGL381","","","","","3","","","","","","","","","","","","","","","","","","","","","",""
"null","","image-button-response","36","226203","0.0-36.0","A1G5EPLJEGL381","img_art/ins/3.jpg","null","","","","","","","","","","","","","","","","","","","","","","","","",""
"789","","image-button-response","37","226996","0.0-37.0","A1G5EPLJEGL381","img_art/ins/3.jpg","5","","","","","","","","","","","","","","","","","","","","","","","","",""
"1224","","image-button-response","38","228224","0.0-38.0-0.0","A1G5EPLJEGL381","img_art/ins/3.jpg","4","","","","","","","","","","","","","","","","","","","","","","","","",""
"678","","image-button-response","39","228904","0.0-39.0-0.0","A1G5EPLJEGL381","img_art/ins/3.jpg","0","","","","","","","","","","","","","","","","","","","","","","","","",""
"null","","html-keyboard-response","40","230405","0.0-40.0","A1G5EPLJEGL381","<p style=""font-size: 48px;"">+</p>","","","","","null","allTrialResponses","1500","1","0","img_art/ins/3.jpg","3","Blue and peaceful","Leslie,Rose,Katie,Dora,Mary,Jen","It's an alright work,15,200,20","My daily routine, it's depressing,-20,240,20","It looks depressing,-26,180,20","My worst nightmare,-42,80,20","I like the overlapping of brushes,41,220,20","I can feel a rainy day from this painting,18,120,20","Jen","I can feel a rainy day from this painting,18,120,20","Mary","I like the overlapping of brushes,41,220,20","Leslie","It's an alright work,15,200,20","0"
"18266","","image-button-response_instructions","41","248679","0.0-41.0","A1G5EPLJEGL381","","0","instructions","","","","","","","","","","","","","","","","","","","","","","","",""
"7470","","survey-likert","42","256150","0.0-42.0-0.0","A1G5EPLJEGL381","","","","{""Q0"":"""",""Q1"":0,""Q2"":1}","","","","","","","","","","","","","","","","","","","","","","",""
"4308","","survey-text","43","260470","0.0-43.0-0.0","A1G5EPLJEGL381","","","","{""Q0"":""rock""}","","","","","","","","","","","","","","","","","","","","","","",""
"21534","","survey-text","44","282006","0.0-44.0-0.0","A1G5EPLJEGL381","","","","{""Q0"":""Sepia child's finger-painting""}","","","","","","","","","","","","","","","","","","","","","","",""
"3261.900000035763","","image-slider-response","45","285270","0.0-45.0","A1G5EPLJEGL381","","","","","-25","","","","","","","","","","","","","","","","","","","","","",""
"null","","image-button-response","46","290296","0.0-46.0","A1G5EPLJEGL381","img_art/4.jpg","null","","","","","","","","","","","","","","","","","","","","","","","","",""
"995","","image-button-response","47","291294","0.0-47.0","A1G5EPLJEGL381","img_art/4.jpg","1","","","","","","","","","","","","","","","","","","","","","","","","",""
"1901","","image-button-response","48","293199","0.0-48.0-0.0","A1G5EPLJEGL381","img_art/4.jpg","4","","","","","","","","","","","","","","","","","","","","","","","","",""
"1069","","image-button-response","49","294271","0.0-49.0-0.0","A1G5EPLJEGL381","img_art/4.jpg","5","","","","","","","","","","","","","","","","","","","","","","","","",""
"null","","html-keyboard-response","50","294773","0.0-50.0","A1G5EPLJEGL381","<p style=""font-size: 48px;"">+</p>","","","","","null","allTrialResponses","500","1","1","img_art/4.jpg","-25","Sepia child's finger-painting","Kimberly,Alexandra,Kaitlyn,Breanna,Brittany,Miranda","It's ok, theres nothing that draws me away from it I guess,0,260,20","This artwork looks like a child did it,-41,60,20","I don't understand this at all,3,80,20","Looks like a hand, not very impressed,-22,380,20","Rather boring design and colors.,-21,40,20","I just don't understand this one at all, I do not like it,-43,320,20","Alexandra","This artwork looks like a child did it,-41,60,20","Brittany","Rather boring design and colors.,-21,40,20","Miranda","I just don't understand this one at all, I do not like it,-43,320,20","0"
"26113","","survey-text","51","320894","0.0-51.0-0.0","A1G5EPLJEGL381","","","","{""Q0"":""The color is nice, but not liking the warped cars.""}","","","","","","","","","","","","","","","","","","","","","","",""
"9158.600000023842","","image-slider-response","52","330055","0.0-52.0","A1G5EPLJEGL381","","","","","11","","","","","","","","","","","","","","","","","","","","","",""
"null","","image-button-response","53","335058","0.0-53.0","A1G5EPLJEGL381","img_art/20.jpg","null","","","","","","","","","","","","","","","","","","","","","","","","",""
"1017","","image-button-response","54","336079","0.0-54.0","A1G5EPLJEGL381","img_art/20.jpg","2","","","","","","","","","","","","","","","","","","","","","","","","",""
"2094","","image-button-response","55","338176","0.0-55.0-0.0","A1G5EPLJEGL381","img_art/20.jpg","5","","","","","","","","","","","","","","","","","","","","","","","","",""
"3787","","image-button-response","56","341967","0.0-56.0-0.0","A1G5EPLJEGL381","img_art/20.jpg","4","","","","","","","","","","","","","","","","","","","","","","","","",""
"null","","html-keyboard-response","57","343470","0.0-57.0","A1G5EPLJEGL381","<p style=""font-size: 48px;"">+</p>","","","","","null","allTrialResponses","1500","1","2","img_art/20.jpg","11","The color is nice, but not liking the warped cars.","Crystal,Alexandra,Hannah,Kelsey,Brittany,Miranda","The pulling and sagging nature is very beautiful.,30,300,20","The white blob looks like a face and it's creepy,-30,60,20","Reminds me of the Southwest; i.e. New Mexico or Arizona. It's interesting.,12,240,20","i almost feel like i can recognize what this is,-6,240,20","The colors and the scene depicted is interesting.,13,40,20","A painting within a painting, the inner painting looks like a car crash with a semi truck.,21,320,20","Hannah","Reminds me of the Southwest; i.e. New Mexico or Arizona. It's interesting.,12,240,20","Miranda","A painting within a painting, the inner painting looks like a car crash with a semi truck.,21,320,20","Brittany","The colors and the scene depicted is interesting.,13,40,20","0"
"29352","","survey-text","58","372829","0.0-58.0-0.0","A1G5EPLJEGL381","","","","{""Q0"":""Slightly creepy collage style, too dark for me.""}","","","","","","","","","","","","","","","","","","","","","","",""
"7311.100000023842","","image-slider-response","59","380144","0.0-59.0","A1G5EPLJEGL381","","","","","-25","","","","","","","","","","","","","","","","","","","","","",""
"null","","image-button-response","60","385148","0.0-60.0","A1G5EPLJEGL381","img_art/16.jpg","null","","","","","","","","","","","","","","","","","","","","","","","","",""
"2271","","image-button-response","61","387423","0.0-61.0","A1G5EPLJEGL381","img_art/16.jpg","5","","","","","","","","","","","","","","","","","","","","","","","","",""
"1853","","image-button-response","62","389278","0.0-62.0-0.0","A1G5EPLJEGL381","img_art/16.jpg","2","","","","","","","","","","","","","","","","","","","","","","","","",""
"2309","","image-button-response","63","391590","0.0-63.0-0.0","A1G5EPLJEGL381","img_art/16.jpg","1","","","","","","","","","","","","","","","","","","","","","","","","",""
"null","","html-keyboard-response","64","393092","0.0-64.0","A1G5EPLJEGL381","<p style=""font-size: 48px;"">+</p>","","","","","null","allTrialResponses","1500","1","3","img_art/16.jpg","-25","Slightly creepy collage style, too dark for me.","Sierra,Stephanie,Hannah,Jenna,Brittany,Miranda","it looks psychotic,-31,260,20","It looks violent.,-30,300,20","This is weird and a little creepy.,6,240,20","very bizarre and confusing, but that feels purposeful, so i don't completely hate it.,-25,360,20","Kind of dull, colors and drawings are not really interesting.,0,40,20","This looks like it was made by an art student filled with angst,-30,320,20","Miranda","This looks like it was made by an art student filled with angst,-30,320,20","Hannah","This is weird and a little creepy.,6,240,20","Stephanie","It looks violent.,-30,300,20","0"
"22099","","survey-text","65","415197","0.0-65.0-0.0","A1G5EPLJEGL381","","","","{""Q0"":""A 5th graders impressionistic pear.""}","","","","","","","","","","","","","","","","","","","","","","",""
"7622","","image-slider-response","66","422821","0.0-66.0","A1G5EPLJEGL381","","","","","-10","","","","","","","","","","","","","","","","","","","","","",""
"null","","image-button-response","67","427824","0.0-67.0","A1G5EPLJEGL381","img_art/5.jpg","null","","","","","","","","","","","","","","","","","","","","","","","","",""
"2187","","image-button-response","68","430014","0.0-68.0","A1G5EPLJEGL381","img_art/5.jpg","0","","","","","","","","","","","","","","","","","","","","","","","","",""
"3508","","image-button-response","69","433526","0.0-69.0-0.0","A1G5EPLJEGL381","img_art/5.jpg","1","","","","","","","","","","","","","","","","","","","","","","","","",""
"1029","","image-button-response","70","434558","0.0-70.0-0.0","A1G5EPLJEGL381","img_art/5.jpg","0","","","","","","","","","","","","","","","","","","","","","","","","",""
"3846","","image-button-response","71","441351","0.0-70.1-0.1","A1G5EPLJEGL381","img_art/5.jpg","4","","","","","","","","","","","","","","","","","","","","","","","","",""
"null","","html-keyboard-response","72","442853","0.0-71.0","A1G5EPLJEGL381","<p style=""font-size: 48px;"">+</p>","","","","","null","allTrialResponses","1500","1","4","img_art/5.jpg","-10","A 5th graders impressionistic pear.","Gabrielle,Stephanie,Hannah,Katherine,Anna,Miranda","looks like a 2nd grader did it,-50,160,20","This did not do a thing for me.,-50,300,20","Very basic, but at least has some color to it.,-9,240,20","Don't love don't hate,8,120,20","It's kind of boring.,-20,300,20","This either looks like a bell or aliens finishing the pyramids,-34,320,20","Gabrielle","looks like a 2nd grader did it,-50,160,20","Stephanie","This did not do a thing for me.,-50,300,20","Anna","It's kind of boring.,-20,300,20","2"
"12519","","survey-text","73","455381","0.0-72.0-0.0","A1G5EPLJEGL381","","","","{""Q0"":""A modern art child's finger painting.""}","","","","","","","","","","","","","","","","","","","","","","",""
"20846.19999998808","","image-slider-response","74","476229","0.0-73.0","A1G5EPLJEGL381","","","","","-20","","","","","","","","","","","","","","","","","","","","","",""
"null","","image-button-response","75","481232","0.0-74.0","A1G5EPLJEGL381","img_art/30.jpg","null","","","","","","","","","","","","","","","","","","","","","","","","",""
"5186","","image-button-response","76","486421","0.0-75.0","A1G5EPLJEGL381","img_art/30.jpg","4","","","","","","","","","","","","","","","","","","","","","","","","",""
"1725","","image-button-response","77","488149","0.0-76.0-0.0","A1G5EPLJEGL381","img_art/30.jpg","3","","","","","","","","","","","","","","","","","","","","","","","","",""
"1142","","image-button-response","78","489293","0.0-77.0-0.0","A1G5EPLJEGL381","img_art/30.jpg","0","","","","","","","","","","","","","","","","","","","","","","","","",""
"null","","html-keyboard-response","79","489794","0.0-78.0","A1G5EPLJEGL381","<p style=""font-size: 48px;"">+</p>","","","","","null","allTrialResponses","500","1","5","img_art/30.jpg","-20","A modern art child's finger painting.","Gabrielle,Stephanie,Lauren,Danielle,Anna,Kaitlin","looks very childish, like your kid did it,-33,160,20","My kindergarten class could do this,-50,300,20","I like how the strokes invokes a sense of fluidity.,20,340,20","It's okay. It should either have stuck to the grey-blue, or added more red. Seems unorganized (maybe that's the point?),-9,340,20","It looks like a pretty but unremarkable painting in a doctors office,15,300,20","the different roads to take in life,10,60,20","Anna","It looks like a pretty but unremarkable painting in a doctors office,15,300,20","Danielle","It's okay. It should either have stuck to the grey-blue, or added more red. Seems unorganized (maybe that's the point?),-9,340,20","Gabrielle","looks very childish, like your kid did it,-33,160,20","2"
"5006","","survey-text","80","494812","0.0-79.0-0.0","A1G5EPLJEGL381","","","","{""Q0"":""sky""}","","","","","","","","","","","","","","","","","","","","","","",""
"34989","","survey-text","81","529804","0.0-80.0-0.0","A1G5EPLJEGL381","","","","{""Q0"":""Like a cross between a Degas and a Picasso.""}","","","","","","","","","","","","","","","","","","","","","","",""
"18670.69999998808","","image-slider-response","82","548477","0.0-81.0","A1G5EPLJEGL381","","","","","10","","","","","","","","","","","","","","","","","","","","","",""
"null","","image-button-response","83","553480","0.0-82.0","A1G5EPLJEGL381","img_art/8.jpg","null","","","","","","","","","","","","","","","","","","","","","","","","",""
"3162","","image-button-response","84","556645","0.0-83.0","A1G5EPLJEGL381","img_art/8.jpg","5","","","","","","","","","","","","","","","","","","","","","","","","",""
"1581","","image-button-response","85","558229","0.0-84.0-0.0","A1G5EPLJEGL381","img_art/8.jpg","4","","","","","","","","","","","","","","","","","","","","","","","","",""
"685","","image-button-response","86","558916","0.0-85.0-0.0","A1G5EPLJEGL381","img_art/8.jpg","0","","","","","","","","","","","","","","","","","","","","","","","","",""
"null","","html-keyboard-response","87","559933","0.0-86.0","A1G5EPLJEGL381","<p style=""font-size: 48px;"">+</p>","","","","","null","allTrialResponses","1000","1","6","img_art/8.jpg","10","Like a cross between a Degas and a Picasso.","Gabrielle,Michaela,Kristen,Danielle,Anna,Lindsey","lots going on with great use of lots of color and geometry,24,160,20","It's too boxy for my taste,-10,260,20","mothe nature/godess, watching over you,21,280,20","Enjoy this, it looks like a rushing water pool, surrounded by mountains and buildings, hiding details such as faces.,30,340,20","The shapes and colors work well together.,40,300,20","Pleasant colors, lots of interest. Not sure what's going on but I like it.,20,400,20","Lindsey","Pleasant colors, lots of interest. Not sure what's going on but I like it.,20,400,20","Anna","The shapes and colors work well together.,40,300,20","Gabrielle","lots going on with great use of lots of color and geometry,24,160,20","2"
"14728","","survey-text","88","574668","0.0-87.0-0.0","A1G5EPLJEGL381","","","","{""Q0"":""Looks like it should hang in a doctor's office.""}","","","","","","","","","","","","","","","","","","","","","","",""
"7342.099999964237","","image-slider-response","89","582012","0.0-88.0","A1G5EPLJEGL381","","","","","25","","","","","","","","","","","","","","","","","","","","","",""
"null","","image-button-response","90","587590","0.0-89.0","A1G5EPLJEGL381","img_art/13.jpg","null","","","","","","","","","","","","","","","","","","","","","","","","",""
"7836","","image-button-response","91","595429","0.0-90.0","A1G5EPLJEGL381","img_art/13.jpg","5","","","","","","","","","","","","","","","","","","","","","","","","",""
"2301","","image-button-response","92","597732","0.0-91.0-0.0","A1G5EPLJEGL381","img_art/13.jpg","3","","","","","","","","","","","","","","","","","","","","","","","","",""
"2212","","image-button-response","93","599948","0.0-92.0-0.0","A1G5EPLJEGL381","img_art/13.jpg","0","","","","","","","","","","","","","","","","","","","","","","","","",""
"null","","html-keyboard-response","94","600451","0.0-93.0","A1G5EPLJEGL381","<p style=""font-size: 48px;"">+</p>","","","","","null","allTrialResponses","500","1","7","img_art/13.jpg","25","Looks like it should hang in a doctor's office.","Gabrielle,Jordan,Jacqueline,Alexis,Anna,Lindsey","kind of like the pattern and colors but don't love it,13,160,20","It's just paint splatter, no real meaning to me,-50,20,20","Seems a little cold but I like the neuron looking splatters.,10,300,20","Simple, but pleasing. The blue gradient is a favorite of mine,32,100,20","It reminds me of a window on a rainy day.,40,300,20","I find this oddly pleasant, but I object to this style. It's just a background with splatters. How is that art?,-5,400,20","Lindsey","I find this oddly pleasant, but I object to this style. It's just a background with splatters. How is that art?,-5,400,20","Alexis","Simple, but pleasing. The blue gradient is a favorite of mine,32,100,20","Gabrielle","kind of like the pattern and colors but don't love it,13,160,20","2"
"15787","","survey-text","95","616244","0.0-94.0-0.0","A1G5EPLJEGL381","","","","{""Q0"":""An impressionistic buzzard in the desert.""}","","","","","","","","","","","","","","","","","","","","","","",""
"3486.100000023842","","image-slider-response","96","619732","0.0-95.0","A1G5EPLJEGL381","","","","","3","","","","","","","","","","","","","","","","","","","","","",""
"null","","image-button-response","97","624735","0.0-96.0","A1G5EPLJEGL381","img_art/6.jpg","null","","","","","","","","","","","","","","","","","","","","","","","","",""
"811","","image-button-response","98","625549","0.0-97.0","A1G5EPLJEGL381","img_art/6.jpg","4","","","","","","","","","","","","","","","","","","","","","","","","",""
"1869","","image-button-response","99","627420","0.0-98.0-0.0","A1G5EPLJEGL381","img_art/6.jpg","0","","","","","","","","","","","","","","","","","","","","","","","","",""
"1357","","image-button-response","100","628780","0.0-99.0-0.0","A1G5EPLJEGL381","img_art/6.jpg","1","","","","","","","","","","","","","","","","","","","","","","","","",""
"null","","html-keyboard-response","101","629783","0.0-100.0","A1G5EPLJEGL381","<p style=""font-size: 48px;"">+</p>","","","","","null","allTrialResponses","1000","1","8","img_art/6.jpg","3","An impressionistic buzzard in the desert.","Gabrielle,Jennifer,Brianna,Alexis,Courtney,Lindsey","simplistic but reminds me of a crow in a field,-10,160,20","I am neutral towards this piece.,0,380,20","Nice desert scene,10,20,20","The feeling of isolation with so little objects. Great,20,100,20","Its the headless bird. But why?,21,280,20","Simple, warm, hopeful.,12,400,20","Courtney","Its the headless bird. But why?,21,280,20","Gabrielle","simplistic but reminds me of a crow in a field,-10,160,20","Jennifer","I am neutral towards this piece.,0,380,20","2"
"66383","","survey-text","102","696171","0.0-101.0-0.0","A1G5EPLJEGL381","","","","{""Q0"":""Feels like three or four unfinished paintings.""}","","","","","","","","","","","","","","","","","","","","","","",""
"23173.80000001192","","image-slider-response","103","719347","0.0-102.0","A1G5EPLJEGL381","","","","","-20","","","","","","","","","","","","","","","","","","","","","",""
"null","","image-button-response","104","724357","0.0-103.0","A1G5EPLJEGL381","img_art/27.jpg","null","","","","","","","","","","","","","","","","","","","","","","","","",""
"7083","","image-button-response","105","731444","0.0-104.0","A1G5EPLJEGL381","img_art/27.jpg","4","","","","","","","","","","","","","","","","","","","","","","","","",""
"740","","image-button-response","106","732188","0.0-105.0-0.0","A1G5EPLJEGL381","img_art/27.jpg","5","","","","","","","","","","","","","","","","","","","","","","","","",""
"532","","image-button-response","107","732723","0.0-106.0-0.0","A1G5EPLJEGL381","img_art/27.jpg","2","","","","","","","","","","","","","","","","","","","","","","","","",""
"null","","html-keyboard-response","108","734227","0.0-107.0","A1G5EPLJEGL381","<p style=""font-size: 48px;"">+</p>","","","","","null","allTrialResponses","1500","1","9","img_art/27.jpg","-20","Feels like three or four unfinished paintings.","Gabrielle,Jennifer,Marissa,Mackenzie,Courtney,Meghan","like the patterns and colors all but the orange blob on the right,32,160,20","Somewhat boring piece,-3,380,20","I am bothered by the green doodles,-20,160,20","The color palette isn't my taste,-24,20,20","A fall mess going on here,2,280,20","again looks like childrens artwork,-40,220,20","Courtney","A fall mess going on here,2,280,20","Meghan","again looks like childrens artwork,-40,220,20","Marissa","I am bothered by the green doodles,-20,160,20","2"
"21216","","survey-text","109","755450","0.0-108.0-0.0","A1G5EPLJEGL381","","","","{""Q0"":""I love this, it's like an impressionistic city peek-a-boo.""}","","","","","","","","","","","","","","","","","","","","","","",""
"8014.100000023842","","image-slider-response","110","763466","0.0-109.0","A1G5EPLJEGL381","","","","","40","","","","","","","","","","","","","","","","","","","","","",""
"null","","image-button-response","111","768588","0.0-110.0","A1G5EPLJEGL381","img_art/11.jpg","null","","","","","","","","","","","","","","","","","","","","","","","","",""
"7100","","image-button-response","112","775691","0.0-111.0","A1G5EPLJEGL381","img_art/11.jpg","3","","","","","","","","","","","","","","","","","","","","","","","","",""
"4269","","image-button-response","113","779963","0.0-112.0-0.0","A1G5EPLJEGL381","img_art/11.jpg","1","","","","","","","","","","","","","","","","","","","","","","","","",""
"2053","","image-button-response","114","782019","0.0-113.0-0.0","A1G5EPLJEGL381","img_art/11.jpg","4","","","","","","","","","","","","","","","","","","","","","","","","",""
"null","","html-keyboard-response","115","783520","0.0-114.0","A1G5EPLJEGL381","<p style=""font-size: 48px;"">+</p>","","","","","null","allTrialResponses","1500","1","10","img_art/11.jpg","40","I love this, it's like an impressionistic city peek-a-boo.","Kaylee,Margaret,Marissa,Sabrina,Courtney,Meghan","i dont understand this painting,-1,200,20","dont like the colors. Its a gloomy day in london and this is the transit system,-26,100,20","I dislike how dark this is,-21,160,20","I love the city chaos from this,50,120,20","Thats a creepy old rollercoasters abandoned,-2,280,20","makes me feel dizzy,-37,220,20","Sabrina","I love the city chaos from this,50,120,20","Margaret","dont like the colors. Its a gloomy day in london and this is the transit system,-26,100,20","Courtney","Thats a creepy old rollercoasters abandoned,-2,280,20","2"
"4613","","survey-text","116","788146","0.0-115.0-0.0","A1G5EPLJEGL381","","","","{""Q0"":""our""}","","","","","","","","","","","","","","","","","","","","","","",""
"18894","","survey-text","117","807042","0.0-116.0-0.0","A1G5EPLJEGL381","","","","{""Q0"":""Haunting skeletal tree seen from a deck.""}","","","","","","","","","","","","","","","","","","","","","","",""
"5214","","image-slider-response","118","812258","0.0-117.0","A1G5EPLJEGL381","","","","","20","","","","","","","","","","","","","","","","","","","","","",""
"4957","","image-button-response","119","817261","0.0-118.0","A1G5EPLJEGL381","img_art/17.jpg","1","","","","","","","","","","","","","","","","","","","","","","","","",""
"625","","image-button-response","120","817890","0.0-119.0","A1G5EPLJEGL381","img_art/17.jpg","1","","","","","","","","","","","","","","","","","","","","","","","","",""
"829","","image-button-response","121","818723","0.0-120.0-0.0","A1G5EPLJEGL381","img_art/17.jpg","5","","","","","","","","","","","","","","","","","","","","","","","","",""
"1996","","image-button-response","122","820723","0.0-121.0-0.0","A1G5EPLJEGL381","img_art/17.jpg","3","","","","","","","","","","","","","","","","","","","","","","","","",""
"null","","html-keyboard-response","123","822225","0.0-122.0","A1G5EPLJEGL381","<p style=""font-size: 48px;"">+</p>","","","","","null","allTrialResponses","1500","1","11","img_art/17.jpg","20","Haunting skeletal tree seen from a deck.","Savannah,Margaret,Autumn,Sabrina,Courtney,Jasmine","Not even abstract to me, very clear meaning.,44,200,20","gentle watercolor vibes,12,100,20","Looks awesome .,33,340,20","Messy shadow of loss and love,50,120,20","Some new perm we got there.,12,280,20","I like the use of color in this and how you can actually see shapes form. Seems thoughtful,22,340,20","Margaret","gentle watercolor vibes,12,100,20","Jasmine","I like the use of color in this and how you can actually see shapes form. Seems thoughtful,22,340,20","Sabrina","Messy shadow of loss and love,50,120,20","2"
"23690","","survey-text","124","845922","0.0-123.0-0.0","A1G5EPLJEGL381","","","","{""Q0"":""Looks like a tree bursting through the floor.""}","","","","","","","","","","","","","","","","","","","","","","",""
"2294.099999964237","","image-slider-response","125","848218","0.0-124.0","A1G5EPLJEGL381","","","","","-17","","","","","","","","","","","","","","","","","","","","","",""
"null","","image-button-response","126","853222","0.0-125.0","A1G5EPLJEGL381","img_art/14.jpg","null","","","","","","","","","","","","","","","","","","","","","","","","",""
"1426","","image-button-response","127","854651","0.0-126.0","A1G5EPLJEGL381","img_art/14.jpg","4","","","","","","","","","","","","","","","","","","","","","","","","",""
"821","","image-button-response","128","855475","0.0-127.0-0.0","A1G5EPLJEGL381","img_art/14.jpg","5","","","","","","","","","","","","","","","","","","","","","","","","",""
"757","","image-button-response","129","856234","0.0-128.0-0.0","A1G5EPLJEGL381","img_art/14.jpg","2","","","","","","","","","","","","","","","","","","","","","","","","",""
"null","","html-keyboard-response","130","856736","0.0-129.0","A1G5EPLJEGL381","<p style=""font-size: 48px;"">+</p>","","","","","null","allTrialResponses","500","1","12","img_art/14.jpg","-17","Looks like a tree bursting through the floor.","Rebecca,Margaret,Angelica,Sabrina,Briana,Jasmine","medium recalls back to an oriental style,16,100,20","its okay. pretty bland but looks like nature,8,100,20","This is poorly done and not aesthetically appealing.,-2,280,20","Love the assortment of colors and flowers, expressing gentle and caring,50,120,20","Simplistic. Looks like a child did it,14,400,20","The colors are nice and it reminds me of a shrub or tree,10,340,20","Briana","Simplistic. Looks like a child did it,14,400,20","Jasmine","The colors are nice and it reminds me of a shrub or tree,10,340,20","Angelica","This is poorly done and not aesthetically appealing.,-2,280,20","2"
"11570","","survey-text","131","868314","0.0-130.0-0.0","A1G5EPLJEGL381","","","","{""Q0"":""You get the feeling of a musical, jazz party.""}","","","","","","","","","","","","","","","","","","","","","","",""
"4790.200000047684","","image-slider-response","132","873106","0.0-131.0","A1G5EPLJEGL381","","","","","-20","","","","","","","","","","","","","","","","","","","","","",""
"null","","image-button-response","133","878109","0.0-132.0","A1G5EPLJEGL381","img_art/23.jpg","null","","","","","","","","","","","","","","","","","","","","","","","","",""
"227","","image-button-response","134","878340","0.0-133.0","A1G5EPLJEGL381","img_art/23.jpg","3","","","","","","","","","","","","","","","","","","","","","","","","",""
"3828","","image-button-response","135","882171","0.0-134.0-0.0","A1G5EPLJEGL381","img_art/23.jpg","5","","","","","","","","","","","","","","","","","","","","","","","","",""
"2093","","image-button-response","136","884266","0.0-135.0-0.0","A1G5EPLJEGL381","img_art/23.jpg","2","","","","","","","","","","","","","","","","","","","","","","","","",""
"null","","html-keyboard-response","137","884768","0.0-136.0","A1G5EPLJEGL381","<p style=""font-size: 48px;"">+</p>","","","","","null","allTrialResponses","500","1","13","img_art/23.jpg","-20","You get the feeling of a musical, jazz party.","Sarah,Grace,Angelica,Heather,Briana,Jasmine","it's not uninteresting, but i'm not responding to it,-7,180,20","Looks like fireworks.,21,180,20","This looks like hotel room art, it's ugly and odd.,-2,280,20","illegible wording with a graffiti background,1,260,20","White in the middle look like people dancing naked,19,400,20","Mostly neutral but a bit too guady with the brash colors,-6,340,20","Heather","illegible wording with a graffiti background,1,260,20","Jasmine","Mostly neutral but a bit too guady with the brash colors,-6,340,20","Angelica","This looks like hotel room art, it's ugly and odd.,-2,280,20","2"
"20673","","survey-text","138","905450","0.0-137.0-0.0","A1G5EPLJEGL381","","","","{""Q0"":""Faded, Picasso-like style in neutral tones.""}","","","","","","","","","","","","","","","","","","","","","","",""
"2621.899999976158","","image-slider-response","139","908074","0.0-138.0","A1G5EPLJEGL381","","","","","6","","","","","","","","","","","","","","","","","","","","","",""
"null","","image-button-response","140","913077","0.0-139.0","A1G5EPLJEGL381","img_art/28.jpg","null","","","","","","","","","","","","","","","","","","","","","","","","",""
"3138","","image-button-response","141","916219","0.0-140.0","A1G5EPLJEGL381","img_art/28.jpg","2","","","","","","","","","","","","","","","","","","","","","","","","",""
"437","","image-button-response","142","916658","0.0-141.0-0.0","A1G5EPLJEGL381","img_art/28.jpg","1","","","","","","","","","","","","","","","","","","","","","","","","",""
"821","","image-button-response","143","917483","0.0-142.0-0.0","A1G5EPLJEGL381","img_art/28.jpg","3","","","","","","","","","","","","","","","","","","","","","","","","",""
"null","","html-keyboard-response","144","917984","0.0-143.0","A1G5EPLJEGL381","<p style=""font-size: 48px;"">+</p>","","","","","null","allTrialResponses","500","1","14","img_art/28.jpg","6","Faded, Picasso-like style in neutral tones.","Erica,Leah,Angelica,Heather,Taylor,Jasmine","Nothing calls my attention,15,80,20","Too me it's a mish mash, true abstract,-37,360,20","This is very ugly with poor colors.,-23,280,20","not sure what i feel but it makes me feel uncomfortable,1,260,20","Doesn't give me an emotional response,0,340,20","Colors too dull for me,-10,340,20","Angelica","This is very ugly with poor colors.,-23,280,20","Leah","Too me it's a mish mash, true abstract,-37,360,20","Heather","not sure what i feel but it makes me feel uncomfortable,1,260,20","2"
"13442","","survey-text","145","931433","0.0-144.0-0.0","A1G5EPLJEGL381","","","","{""Q0"":""Bright and colorful abstract with keys. ""}","","","","","","","","","","","","","","","","","","","","","","",""
"4838","","image-slider-response","146","936273","0.0-145.0","A1G5EPLJEGL381","","","","","-14","","","","","","","","","","","","","","","","","","","","","",""
"null","","image-button-response","147","941587","0.0-146.0","A1G5EPLJEGL381","img_art/1.jpg","null","","","","","","","","","","","","","","","","","","","","","","","","",""
"20276","","image-button-response","148","961866","0.0-147.0","A1G5EPLJEGL381","img_art/1.jpg","4","","","","","","","","","","","","","","","","","","","","","","","","",""
"3390","","image-button-response","149","965258","0.0-148.0-0.0","A1G5EPLJEGL381","img_art/1.jpg","1","","","","","","","","","","","","","","","","","","","","","","","","",""
"1141","","image-button-response","150","966402","0.0-149.0-0.0","A1G5EPLJEGL381","img_art/1.jpg","5","","","","","","","","","","","","","","","","","","","","","","","","",""
"null","","html-keyboard-response","151","966904","0.0-150.0","A1G5EPLJEGL381","<p style=""font-size: 48px;"">+</p>","","","","","null","allTrialResponses","500","1","15","img_art/1.jpg","-14","Bright and colorful abstract with keys. ","Katelyn,Leah,Angelica,Heather,Natalie,Katie","Im not a fan of the bluriness,-18,100,20","Pretty intermeshing of colors, happy,32,360,20","This is ugly with bad colors.,-6,280,20","the colors are vibrant and beautiful,1,260,20","my reaction is that the picture is that Ive seen it before,-14,400,20","Too messy. Just looks like a mess of dark colors.,-20,160,20","Natalie","my reaction is that the picture is that Ive seen it before,-14,400,20","Leah","Pretty intermeshing of colors, happy,32,360,20","Katie","Too messy. Just looks like a mess of dark colors.,-20,160,20","2"
"4450","","survey-text","152","971369","0.0-151.0-0.0","A1G5EPLJEGL381","","","","{""Q0"":""course""}","","","","","","","","","","","","","","","","","","","","","","",""
"23415","","survey-text","153","994785","0.0-152.0-0.0","A1G5EPLJEGL381","","","","{""Q0"":""Mess of a bland painting. ""}","","","","","","","","","","","","","","","","","","","","","","",""
"4550.600000023842","","image-slider-response","154","999338","0.0-153.0","A1G5EPLJEGL381","","","","","-20","","","","","","","","","","","","","","","","","","","","","",""
"null","","image-button-response","155","1004594","0.0-154.0","A1G5EPLJEGL381","img_art/10.jpg","null","","","","","","","","","","","","","","","","","","","","","","","","",""
"36885","","image-button-response","156","1041482","0.0-155.0","A1G5EPLJEGL381","img_art/10.jpg","1","","","","","","","","","","","","","","","","","","","","","","","","",""
"3381","","image-button-response","157","1044866","0.0-156.0-0.0","A1G5EPLJEGL381","img_art/10.jpg","5","","","","","","","","","","","","","","","","","","","","","","","","",""
"1204","","image-button-response","158","1046074","0.0-157.0-0.0","A1G5EPLJEGL381","img_art/10.jpg","3","","","","","","","","","","","","","","","","","","","","","","","","",""
"null","","html-keyboard-response","159","1047077","0.0-158.0","A1G5EPLJEGL381","<p style=""font-size: 48px;"">+</p>","","","","","null","allTrialResponses","1000","1","16","img_art/10.jpg","-20","Mess of a bland painting. ","Claire,Leah,Alyssa,Brooke,Natalie,Katie","it looks very musical,24,260,20","Dark with no object, looks like experimentation, slightly like a storm on the ocean,-21,360,20","Bleak and uninteresting,-10,160,20","artistic cello piece?,30,60,20","I see a rollercoaster,23,400,20","Dark and weird. Unidentifiable shape. I can't tell what it is, so I don't like it.,-50,160,20","Leah","Dark with no object, looks like experimentation, slightly like a storm on the ocean,-21,360,20","Katie","Dark and weird. Unidentifiable shape. I can't tell what it is, so I don't like it.,-50,160,20","Brooke","artistic cello piece?,30,60,20","2"
"20547","","survey-text","160","1067633","0.0-159.0-0.0","A1G5EPLJEGL381","","","","{""Q0"":""Mess of black and blue with no definition.""}","","","","","","","","","","","","","","","","","","","","","","",""
"9990.300000011921","","image-slider-response","161","1077626","0.0-160.0","A1G5EPLJEGL381","","","","","-15","","","","","","","","","","","","","","","","","","","","","",""
"null","","image-button-response","162","1082629","0.0-161.0","A1G5EPLJEGL381","img_art/15.jpg","null","","","","","","","","","","","","","","","","","","","","","","","","",""
"3817","","image-button-response","163","1086449","0.0-162.0","A1G5EPLJEGL381","img_art/15.jpg","0","","","","","","","","","","","","","","","","","","","","","","","","",""
"2710","","image-button-response","164","1089162","0.0-163.0-0.0","A1G5EPLJEGL381","img_art/15.jpg","4","","","","","","","","","","","","","","","","","","","","","","","","",""
"1125","","image-button-response","165","1090290","0.0-164.0-0.0","A1G5EPLJEGL381","img_art/15.jpg","3","","","","","","","","","","","","","","","","","","","","","","","","",""
"null","","html-keyboard-response","166","1091291","0.0-165.0","A1G5EPLJEGL381","<p style=""font-size: 48px;"">+</p>","","","","","null","allTrialResponses","1000","1","17","img_art/15.jpg","-15","Mess of black and blue with no definition.","Sara,Leah,Cynthia,Brooke,Destiny,Katie","I don't like the black dots,-19,160,20","Pretty, like in a field of poppies,19,360,20","interested in this transformation,20,320,20","This one reminds me of a postage stamp, but branches and leaves. Kind of fun.,15,60,20","I couldn't tell you why but I'm really into this,39,360,20","Too much black. I see weeds or dead/dying flowers.,-40,160,20","Sara","I don't like the black dots,-19,160,20","Destiny","I couldn't tell you why but I'm really into this,39,360,20","Brooke","This one reminds me of a postage stamp, but branches and leaves. Kind of fun.,15,60,20","2"
"23075","","survey-text","167","1114376","0.0-166.0-0.0","A1G5EPLJEGL381","","","","{""Q0"":""Lonely busker in a impressionistic city.""}","","","","","","","","","","","","","","","","","","","","","","",""
"7190","","image-slider-response","168","1121568","0.0-167.0","A1G5EPLJEGL381","","","","","-5","","","","","","","","","","","","","","","","","","","","","",""
"null","","image-button-response","169","1126572","0.0-168.0","A1G5EPLJEGL381","img_art/19.jpg","null","","","","","","","","","","","","","","","","","","","","","","","","",""
"3442","","image-button-response","170","1130016","0.0-169.0","A1G5EPLJEGL381","img_art/19.jpg","2","","","","","","","","","","","","","","","","","","","","","","","","",""
"3119","","image-button-response","171","1133137","0.0-170.0-0.0","A1G5EPLJEGL381","img_art/19.jpg","1","","","","","","","","","","","","","","","","","","","","","","","","",""
"3357","","image-button-response","172","1136497","0.0-171.0-0.0","A1G5EPLJEGL381","img_art/19.jpg","4","","","","","","","","","","","","","","","","","","","","","","","","",""
"null","","html-keyboard-response","173","1137499","0.0-172.0","A1G5EPLJEGL381","<p style=""font-size: 48px;"">+</p>","","","","","null","allTrialResponses","1000","1","18","img_art/19.jpg","-5","Lonely busker in a impressionistic city.","Sara,Laura,Shannon,Brooke,Destiny,Madeline","I like the vibrant color blocks,13,160,20","confusion, scattered and diffuse,-4,320,20","This looks like a bunch of weird blobs and the colors don't go great together.,-10,220,20","Snowy winter scene,25,60,20","this flow I just really like how everything blends but also doesn't,45,360,20","Looks a bit too loose,-2,40,20","Shannon","This looks like a bunch of weird blobs and the colors don't go great together.,-10,220,20","Laura","confusion, scattered and diffuse,-4,320,20","Destiny","this flow I just really like how everything blends but also doesn't,45,360,20","2"
"29283","","survey-text","174","1166792","0.0-173.0-0.0","A1G5EPLJEGL381","","","","{""Q0"":""Something oddly desert or native like in this.""}","","","","","","","","","","","","","","","","","","","","","","",""
"3070","","image-slider-response","175","1169864","0.0-174.0","A1G5EPLJEGL381","","","","","2","","","","","","","","","","","","","","","","","","","","","",""
"null","","image-button-response","176","1174867","0.0-175.0","A1G5EPLJEGL381","img_art/12.jpg","null","","","","","","","","","","","","","","","","","","","","","","","","",""
"882","","image-button-response","177","1175753","0.0-176.0","A1G5EPLJEGL381","img_art/12.jpg","4","","","","","","","","","","","","","","","","","","","","","","","","",""
"2021","","image-button-response","178","1177776","0.0-177.0-0.0","A1G5EPLJEGL381","img_art/12.jpg","2","","","","","","","","","","","","","","","","","","","","","","","","",""
"2117","","image-button-response","179","1179897","0.0-178.0-0.0","A1G5EPLJEGL381","img_art/12.jpg","5","","","","","","","","","","","","","","","","","","","","","","","","",""
"null","","html-keyboard-response","180","1181400","0.0-179.0","A1G5EPLJEGL381","<p style=""font-size: 48px;"">+</p>","","","","","null","allTrialResponses","1500","1","19","img_art/12.jpg","2","Something oddly desert or native like in this.","Emma,Laura,Shannon,Abigail,Destiny,Maria","Pretty but not a huge fan of the colors,20,60,20","angry, disturbed and sharp,-25,320,20","This image doesn't have anything going on. The top half is really ugly, I kind of like the bottom a little.,-20,220,20","Made me uncomfortable, reminded me of the 90s,-9,20,20","giving me major endless summer vibes,26,360,20","evokes the 80s, and not in a necessarily good way,-10,120,20","Destiny","giving me major endless summer vibes,26,360,20","Shannon","This image doesn't have anything going on. The top half is really ugly, I kind of like the bottom a little.,-20,220,20","Maria","evokes the 80s, and not in a necessarily good way,-10,120,20","2"
"30879","","survey-text","181","1212287","0.0-180.0-0.0","A1G5EPLJEGL381","","","","{""Q0"":""Gives the impression of an ancient being on a hill.""}","","","","","","","","","","","","","","","","","","","","","","",""
"4446.599999964237","","image-slider-response","182","1216736","0.0-181.0","A1G5EPLJEGL381","","","","","3","","","","","","","","","","","","","","","","","","","","","",""
"null","","image-button-response","183","1221739","0.0-182.0","A1G5EPLJEGL381","img_art/25.jpg","null","","","","","","","","","","","","","","","","","","","","","","","","",""
"1226","","image-button-response","184","1222969","0.0-183.0","A1G5EPLJEGL381","img_art/25.jpg","3","","","","","","","","","","","","","","","","","","","","","","","","",""
"677","","image-button-response","185","1223649","0.0-184.0-0.0","A1G5EPLJEGL381","img_art/25.jpg","4","","","","","","","","","","","","","","","","","","","","","","","","",""
"1845","","image-button-response","186","1225497","0.0-185.0-0.0","A1G5EPLJEGL381","img_art/25.jpg","5","","","","","","","","","","","","","","","","","","","","","","","","",""
"null","","html-keyboard-response","187","1226498","0.0-186.0","A1G5EPLJEGL381","<p style=""font-size: 48px;"">+</p>","","","","","null","allTrialResponses","1000","1","20","img_art/25.jpg","3","Gives the impression of an ancient being on a hill.","Leslie,Chloe,Shannon,Ashley,Destiny,Maria","I feel like I'm looking at something larger than myself.,30,380,20","Cheesy and unprofessional,-30,220,20","I like the way the persons clothes look, there could be more color though.,10,220,20","haunting, a lovely impression.,50,320,20","creeeeeppyyyyyyy but mad cool,-26,360,20","I find it enjoyable - mainly because it is not art I ever expected to see,16,120,20","Ashley","haunting, a lovely impression.,50,320,20","Destiny","creeeeeppyyyyyyy but mad cool,-26,360,20","Maria","I find it enjoyable - mainly because it is not art I ever expected to see,16,120,20","2"
"1925","","survey-text","188","1228439","0.0-187.0-0.0","A1G5EPLJEGL381","","","","{""Q0"":""we""}","","","","","","","","","","","","","","","","","","","","","","",""
"17054","","survey-text","189","1245495","0.0-188.0-0.0","A1G5EPLJEGL381","","","","{""Q0"":""Woman in repose through a window.""}","","","","","","","","","","","","","","","","","","","","","","",""
"6214.900000035763","","image-slider-response","190","1251712","0.0-189.0","A1G5EPLJEGL381","","","","","5","","","","","","","","","","","","","","","","","","","","","",""
"null","","image-button-response","191","1256715","0.0-190.0","A1G5EPLJEGL381","img_art/9.jpg","null","","","","","","","","","","","","","","","","","","","","","","","","",""
"2777","","image-button-response","192","1259496","0.0-191.0","A1G5EPLJEGL381","img_art/9.jpg","5","","","","","","","","","","","","","","","","","","","","","","","","",""
"757","","image-button-response","193","1260255","0.0-192.0-0.0","A1G5EPLJEGL381","img_art/9.jpg","0","","","","","","","","","","","","","","","","","","","","","","","","",""
"2077","","image-button-response","194","1262336","0.0-193.0-0.0","A1G5EPLJEGL381","img_art/9.jpg","2","","","","","","","","","","","","","","","","","","","","","","","","",""
"null","","html-keyboard-response","195","1263339","0.0-194.0","A1G5EPLJEGL381","<p style=""font-size: 48px;"">+</p>","","","","","null","allTrialResponses","1000","1","21","img_art/9.jpg","5","Woman in repose through a window.","Jessica,Morgan,Vanessa,Ashley,Destiny,Maria","So I don't really like this style but it looks somewhat okay,3,400,20","The mouth of an ugly beast.,-25,380,20","It's too abstract for my taste. I wish there were more definition.,-9,380,20","Similar to the tohers, but not as clear.,11,320,20","is that sleeping beauty,33,360,20","while I don't dispute the art, it feels childish,-20,120,20","Maria","while I don't dispute the art, it feels childish,-20,120,20","Jessica","So I don't really like this style but it looks somewhat okay,3,400,20","Vanessa","It's too abstract for my taste. I wish there were more definition.,-9,380,20","2"
"12529","","survey-text","196","1275879","0.0-195.0-0.0","A1G5EPLJEGL381","","","","{""Q0"":""Chaotic, almost city like.""}","","","","","","","","","","","","","","","","","","","","","","",""
"3254.699999988079","","image-slider-response","197","1279135","0.0-196.0","A1G5EPLJEGL381","","","","","-5","","","","","","","","","","","","","","","","","","","","","",""
"null","","image-button-response","198","1284138","0.0-197.0","A1G5EPLJEGL381","img_art/22.jpg","null","","","","","","","","","","","","","","","","","","","","","","","","",""
"794","","image-button-response","199","1284936","0.0-198.0","A1G5EPLJEGL381","img_art/22.jpg","3","","","","","","","","","","","","","","","","","","","","","","","","",""
"1613","","image-button-response","200","1286551","0.0-199.0-0.0","A1G5EPLJEGL381","img_art/22.jpg","1","","","","","","","","","","","","","","","","","","","","","","","","",""
"1029","","image-button-response","201","1287583","0.0-200.0-0.0","A1G5EPLJEGL381","img_art/22.jpg","0","","","","","","","","","","","","","","","","","","","","","","","","",""
"null","","html-keyboard-response","202","1289085","0.0-201.0","A1G5EPLJEGL381","<p style=""font-size: 48px;"">+</p>","","","","","null","allTrialResponses","1500","1","22","img_art/22.jpg","-5","Chaotic, almost city like.","Jessica,Haley,Vanessa,Emily,Makayla,Maria","I like the mixing of the primary colors.,8,400,20","Beautiful. I love the color contrast and gradients.,50,220,20","I don't like the colors or the way they've been arranged.,-20,380,20","There is some flow and organization.,10,40,20","Just neutral no feelings,2,80,20","displeasure - not a fan of the colour or the shapes,-18,120,20","Emily","There is some flow and organization.,10,40,20","Haley","Beautiful. I love the color contrast and gradients.,50,220,20","Jessica","I like the mixing of the primary colors.,8,400,20","2"
"20872","","survey-text","203","1309967","0.0-202.0-0.0","A1G5EPLJEGL381","","","","{""Q0"":""Muddied mishmash of a modern art piece.""}","","","","","","","","","","","","","","","","","","","","","","",""
"4150","","image-slider-response","204","1314118","0.0-203.0","A1G5EPLJEGL381","","","","","10","","","","","","","","","","","","","","","","","","","","","",""
"null","","image-button-response","205","1319122","0.0-204.0","A1G5EPLJEGL381","img_art/2.jpg","null","","","","","","","","","","","","","","","","","","","","","","","","",""
"1034","","image-button-response","206","1320159","0.0-205.0","A1G5EPLJEGL381","img_art/2.jpg","2","","","","","","","","","","","","","","","","","","","","","","","","",""
"1750","","image-button-response","207","1321911","0.0-206.0-0.0","A1G5EPLJEGL381","img_art/2.jpg","3","","","","","","","","","","","","","","","","","","","","","","","","",""
"6861","","image-button-response","208","1328776","0.0-207.0-0.0","A1G5EPLJEGL381","img_art/2.jpg","5","","","","","","","","","","","","","","","","","","","","","","","","",""
"null","","html-keyboard-response","209","1330278","0.0-208.0","A1G5EPLJEGL381","<p style=""font-size: 48px;"">+</p>","","","","","null","allTrialResponses","1500","1","23","img_art/2.jpg","10","Muddied mishmash of a modern art piece.","Jessica,Haley,Caroline,Emily,Diana,Hailey","I don't get the meaning of this piece either.,-13,400,20","My first thought was that it looks like a children's art project,-30,220,20","Colors are drab and cause a sense of blandness,-28,100,20","Random colors and shapes mashed together. Nothing artistic, but better than some of the other ones.,-37,40,20","I think I see people sitting in lawn chairs in a circle watching an event. Not really sure so I rated it lower.,-35,380,20","ugly green color and makes me sick,-29,200,20","Caroline","Colors are drab and cause a sense of blandness,-28,100,20","Emily","Random colors and shapes mashed together. Nothing artistic, but better than some of the other ones.,-37,40,20","Hailey","ugly green color and makes me sick,-29,200,20","2"
"19006","","survey-text","210","1349294","0.0-209.0-0.0","A1G5EPLJEGL381","","","","{""Q0"":""Chaotic, reminds me of a bird with feathers, almost.""}","","","","","","","","","","","","","","","","","","","","","","",""
"4062.199999988079","","image-slider-response","211","1353358","0.0-210.0","A1G5EPLJEGL381","","","","","-8","","","","","","","","","","","","","","","","","","","","","",""
"null","","image-button-response","212","1358362","0.0-211.0","A1G5EPLJEGL381","img_art/24.jpg","null","","","","","","","","","","","","","","","","","","","","","","","","",""
"1882","","image-button-response","213","1360246","0.0-212.0","A1G5EPLJEGL381","img_art/24.jpg","2","","","","","","","","","","","","","","","","","","","","","","","","",""
"1702","","image-button-response","214","1361952","0.0-213.0-0.0","A1G5EPLJEGL381","img_art/24.jpg","4","","","","","","","","","","","","","","","","","","","","","","","","",""
"2124","","image-button-response","215","1364078","0.0-214.0-0.0","A1G5EPLJEGL381","img_art/24.jpg","1","","","","","","","","","","","","","","","","","","","","","","","","",""
"null","","html-keyboard-response","216","1365581","0.0-215.0","A1G5EPLJEGL381","<p style=""font-size: 48px;"">+</p>","","","","","null","allTrialResponses","1500","1","24","img_art/24.jpg","-8","Chaotic, reminds me of a bird with feathers, almost.","Erika,Dominique,Caroline,Emily,Amy,Hailey","Very nice textures and subject,38,100,20","Spending a day in nature,21,400,20","Waterfalls and spring and gives me a sense of renewal,34,100,20","It's not super high uality  but there is some skill and talent in it I see.,15,40,20","The contorted angles of the flowing water upset the harmony,-20,220,20","warm spring day after a rain. soft,20,200,20","Caroline","Waterfalls and spring and gives me a sense of renewal,34,100,20","Amy","The contorted angles of the flowing water upset the harmony,-20,220,20","Dominique","Spending a day in nature,21,400,20","2"
"11643","","survey-text","217","1377229","0.0-216.0-0.0","A1G5EPLJEGL381","","","","{""Q0"":""Night moving in a city, or a battle of light/dark.""}","","","","","","","","","","","","","","","","","","","","","","",""
"8798.399999976158","","image-slider-response","218","1386030","0.0-217.0","A1G5EPLJEGL381","","","","","10","","","","","","","","","","","","","","","","","","","","","",""
"null","","image-button-response","219","1391034","0.0-218.0","A1G5EPLJEGL381","img_art/21.jpg","null","","","","","","","","","","","","","","","","","","","","","","","","",""
"2153","","image-button-response","220","1393191","0.0-219.0","A1G5EPLJEGL381","img_art/21.jpg","5","","","","","","","","","","","","","","","","","","","","","","","","",""
"4493","","image-button-response","221","1397686","0.0-220.0-0.0","A1G5EPLJEGL381","img_art/21.jpg","1","","","","","","","","","","","","","","","","","","","","","","","","",""
"3445","","image-button-response","222","1401134","0.0-221.0-0.0","A1G5EPLJEGL381","img_art/21.jpg","0","","","","","","","","","","","","","","","","","","","","","","","","",""
"null","","html-keyboard-response","223","1402136","0.0-222.0","A1G5EPLJEGL381","<p style=""font-size: 48px;"">+</p>","","","","","null","allTrialResponses","1000","1","25","img_art/21.jpg","10","Night moving in a city, or a battle of light/dark.","Kayla,Dominique,Caroline,Cheyenne,Amy,Erin","I like that it reminds me of an abstract version of a Bob Ross painting.,36,180,20","Love the colors have to say this is my favorite above all,37,400,20","the colors are pretty but I did not feel any thing looking at it,33,100,20","Don't see anything special about it,-21,200,20","A landscape that leaves me inspired and hopeful.,20,220,20","Love the colors and hue, ocean,38,120,20","Erin","Love the colors and hue, ocean,38,120,20","Dominique","Love the colors have to say this is my favorite above all,37,400,20","Kayla","I like that it reminds me of an abstract version of a Bob Ross painting.,36,180,20","2"
"4301","","survey-text","224","1406454","0.0-223.0-0.0","A1G5EPLJEGL381","","","","{""Q0"":""table""}","","","","","","","","","","","","","","","","","","","","","","",""
"10422","","survey-text","225","1416878","0.0-224.0-0.0","A1G5EPLJEGL381","","","","{""Q0"":""Looks like a piece of burned skin.""}","","","","","","","","","","","","","","","","","","","","","","",""
"15701.600000023842","","image-slider-response","226","1432582","0.0-225.0","A1G5EPLJEGL381","","","","","-40","","","","","","","","","","","","","","","","","","","","","",""
"null","","image-button-response","227","1437585","0.0-226.0","A1G5EPLJEGL381","img_art/7.jpg","null","","","","","","","","","","","","","","","","","","","","","","","","",""
"5139","","image-button-response","228","1442727","0.0-227.0","A1G5EPLJEGL381","img_art/7.jpg","0","","","","","","","","","","","","","","","","","","","","","","","","",""
"2541","","image-button-response","229","1445271","0.0-228.0-0.0","A1G5EPLJEGL381","img_art/7.jpg","4","","","","","","","","","","","","","","","","","","","","","","","","",""
"1765","","image-button-response","230","1447039","0.0-229.0-0.0","A1G5EPLJEGL381","img_art/7.jpg","5","","","","","","","","","","","","","","","","","","","","","","","","",""
"null","","html-keyboard-response","231","1447548","0.0-230.0","A1G5EPLJEGL381","<p style=""font-size: 48px;"">+</p>","","","","","null","allTrialResponses","500","1","26","img_art/7.jpg","-40","Looks like a piece of burned skin.","Kayla,Dominique,Madison,Alicia,Bailey,Erin","Dinosaur bones. Death.,-14,180,20","One I would love to own . Calm relaxing spiritual and full of love,41,400,20","Is this a painting, really? Very compelling if so, the texture work is incredible.,15,60,20","I don't get it. looks like a picture of the ground.,-42,120,20","It gives off an alien-like vastness of space vibe which I like,9,360,20","Color is bland and looks damaged,-37,120,20","Kayla","Dinosaur bones. Death.,-14,180,20","Bailey","It gives off an alien-like vastness of space vibe which I like,9,360,20","Erin","Color is bland and looks damaged,-37,120,20","2"
"9807","","survey-text","232","1457366","0.0-231.0-0.0","A1G5EPLJEGL381","","","","{""Q0"":""A prisoner dreaming in his cell.""}","","","","","","","","","","","","","","","","","","","","","","",""
"5957.899999976158","","image-slider-response","233","1463326","0.0-232.0","A1G5EPLJEGL381","","","","","-8","","","","","","","","","","","","","","","","","","","","","",""
"null","","image-button-response","234","1468329","0.0-233.0","A1G5EPLJEGL381","img_art/29.jpg","null","","","","","","","","","","","","","","","","","","","","","","","","",""
"930","","image-button-response","235","1469262","0.0-234.0","A1G5EPLJEGL381","img_art/29.jpg","0","","","","","","","","","","","","","","","","","","","","","","","","",""
"3239","","image-button-response","236","1472503","0.0-235.0-0.0","A1G5EPLJEGL381","img_art/29.jpg","3","","","","","","","","","","","","","","","","","","","","","","","","",""
"5605","","image-button-response","237","1478112","0.0-236.0-0.0","A1G5EPLJEGL381","img_art/29.jpg","2","","","","","","","","","","","","","","","","","","","","","","","","",""
"null","","html-keyboard-response","238","1479114","0.0-237.0","A1G5EPLJEGL381","<p style=""font-size: 48px;"">+</p>","","","","","null","allTrialResponses","1000","1","27","img_art/29.jpg","-8","A prisoner dreaming in his cell.","Kayla,Catherine,Isabella,Mariah,Bailey,Erin","It looks like graffiti in a subway tunnel- destruction.,-20,180,20","death, darkness, negative picture,-31,160,20","Darkness and torment,-50,280,20","It feels like looking through layers of frustration.,19,140,20","Giant messy blob. Looks like it tries to be edgy, but fails.,-40,360,20","Red X is scary, like the bricks,7,120,20","Kayla","It looks like graffiti in a subway tunnel- destruction.,-20,180,20","Mariah","It feels like looking through layers of frustration.,19,140,20","Isabella","Darkness and torment,-50,280,20","2"
"28001","","survey-text","239","1507126","0.0-238.0-0.0","A1G5EPLJEGL381","","","","{""Q0"":""Too chaotic and odd for me, like blood was thrown onto the painting.""}","","","","","","","","","","","","","","","","","","","","","","",""
"5621.100000023842","","image-slider-response","240","1512750","0.0-239.0","A1G5EPLJEGL381","","","","","-27","","","","","","","","","","","","","","","","","","","","","",""
"null","","image-button-response","241","1517753","0.0-240.0","A1G5EPLJEGL381","img_art/3.jpg","null","","","","","","","","","","","","","","","","","","","","","","","","",""
"4059","","image-button-response","242","1521815","0.0-241.0","A1G5EPLJEGL381","img_art/3.jpg","5","","","","","","","","","","","","","","","","","","","","","","","","",""
"1581","","image-button-response","243","1523398","0.0-242.0-0.0","A1G5EPLJEGL381","img_art/3.jpg","2","","","","","","","","","","","","","","","","","","","","","","","","",""
"693","","image-button-response","244","1524094","0.0-243.0-0.0","A1G5EPLJEGL381","img_art/3.jpg","1","","","","","","","","","","","","","","","","","","","","","","","","",""
"null","","html-keyboard-response","245","1524596","0.0-244.0","A1G5EPLJEGL381","<p style=""font-size: 48px;"">+</p>","","","","","null","allTrialResponses","500","1","28","img_art/3.jpg","-27","Too chaotic and odd for me, like blood was thrown onto the painting.","Kayla,Allison,Isabella,Mariah,Christina,Michelle","Really have no idea what I'm looking at.,1,180,20","Reminds me of a hot mess,-10,140,20","Too much red or blood,-28,280,20","The composition keeps the eye moving, the colors are satisfying.,31,140,20","looks more classic but i'm not a fan of the colors,7,240,20","Ok, just a bunch of red lines and a grey smudge. Would pass this right by in a gallery,-12,280,20","Michelle","Ok, just a bunch of red lines and a grey smudge. Would pass this right by in a gallery,-12,280,20","Isabella","Too much red or blood,-28,280,20","Allison","Reminds me of a hot mess,-10,140,20","2"
"12342","","survey-text","246","1536949","0.0-245.0-0.0","A1G5EPLJEGL381","","","","{""Q0"":""Washed out, impressionistic watercolor that I love.""}","","","","","","","","","","","","","","","","","","","","","","",""
"4646.099999964237","","image-slider-response","247","1541598","0.0-246.0","A1G5EPLJEGL381","","","","","35","","","","","","","","","","","","","","","","","","","","","",""
"null","","image-button-response","248","1546600","0.0-247.0","A1G5EPLJEGL381","img_art/26.jpg","null","","","","","","","","","","","","","","","","","","","","","","","","",""
"4074","","image-button-response","249","1550678","0.0-248.0","A1G5EPLJEGL381","img_art/26.jpg","5","","","","","","","","","","","","","","","","","","","","","","","","",""
"3285","","image-button-response","250","1553966","0.0-249.0-0.0","A1G5EPLJEGL381","img_art/26.jpg","2","","","","","","","","","","","","","","","","","","","","","","","","",""
"1309","","image-button-response","251","1555278","0.0-250.0-0.0","A1G5EPLJEGL381","img_art/26.jpg","0","","","","","","","","","","","","","","","","","","","","","","","","",""
"null","","html-keyboard-response","252","1556779","0.0-251.0","A1G5EPLJEGL381","<p style=""font-size: 48px;"">+</p>","","","","","null","allTrialResponses","1500","1","29","img_art/26.jpg","35","Washed out, impressionistic watercolor that I love.","Monica,Allison,Isabella,Kelly,Victoria,Michelle","It looks empty and unfinished,-28,360,20","pretty colors, but sketch style isn't for me,10,140,20","Colors are full and reminds me of a messy room,-9,280,20","Very subdued, but wouldn't give it a 2nd notice.,4,220,20","feels a tad old,30,400,20","I can make out a street view and I am a fan of watercolors but still too boring,15,280,20","Michelle","I can make out a street view and I am a fan of watercolors but still too boring,15,280,20","Isabella","Colors are full and reminds me of a messy room,-9,280,20","Monica","It looks empty and unfinished,-28,360,20","2"
"16376","","survey-text","253","1573165","0.0-252.0-0.0","A1G5EPLJEGL381","","","","{""Q0"":""Death coming for people on a skeletal horse.""}","","","","","","","","","","","","","","","","","","","","","","",""
"4446.100000023842","","image-slider-response","254","1577613","0.0-253.0","A1G5EPLJEGL381","","","","","7","","","","","","","","","","","","","","","","","","","","","",""
"null","","image-button-response","255","1582616","0.0-254.0","A1G5EPLJEGL381","img_art/18.jpg","null","","","","","","","","","","","","","","","","","","","","","","","","",""
"778","","image-button-response","256","1583398","0.0-255.0","A1G5EPLJEGL381","img_art/18.jpg","3","","","","","","","","","","","","","","","","","","","","","","","","",""
"2285","","image-button-response","257","1585687","0.0-256.0-0.0","A1G5EPLJEGL381","img_art/18.jpg","5","","","","","","","","","","","","","","","","","","","","","","","","",""
"804","","image-button-response","258","1586494","0.0-257.0-0.0","A1G5EPLJEGL381","img_art/18.jpg","2","","","","","","","","","","","","","","","","","","","","","","","","",""
"null","","html-keyboard-response","259","1587997","0.0-258.0","A1G5EPLJEGL381","<p style=""font-size: 48px;"">+</p>","","","","","null","allTrialResponses","1500","1","30","img_art/18.jpg","7","Death coming for people on a skeletal horse.","Monica,Jamie,Isabella,Molly,Amanda,Michelle","It doesn't look like much, the colors are dark and it doesn't really make me feel anything.,-2,360,20","Mash up of colors and don't see a grander picture,-10,320,20","Feels like a story of ancient war of the gods,26,280,20","White and yellow look awesome and the picture's dynamics are wonderful.,30,340,20","Too political, not my cup of tea,-50,180,20","The small lines elicit a very nauseating response for some reason, too Dali like for me,-19,280,20","Molly","White and yellow look awesome and the picture's dynamics are wonderful.,30,340,20","Michelle","The small lines elicit a very nauseating response for some reason, too Dali like for me,-19,280,20","Isabella","Feels like a story of ancient war of the gods,26,280,20","2"
"1892","","image-button-response_instructions","260","1589901","0.0-259.0","A1G5EPLJEGL381","","0","instructions","","","","","","","","","","","","","","","","","","","","","","","",""
"954","","image-button-response","261","1590861","0.0-260.0","A1G5EPLJEGL381","","0","","","","","","","","","","","","","","","","","","","","","","","","",""
