"rt","url","trial_type","trial_index","time_elapsed","internal_node_id","participant_id","stimulus","button_pressed","Name","responses","response","key_press","variableName","fixationTime","condition","trial","photo","subjectRating","subjectResponse","agentsNames","agent_1_Response","agent_2_Response","agent_3_Response","agent_4_Response","agent_5_Response","agent_6_Response","kept_1_name","kept_1_response","kept_2_name","kept_2_response","kept_3_name","kept_3_response","errorCounter"
"24559","external_page_harvard.html","external-html","0","24663","0.0-0.0","A1GKD3NG1NNHRP","","","","","","","","","","","","","","","","","","","","","","","","","","",""
"2335","","image-button-response","1","26998","0.0-1.0","A1GKD3NG1NNHRP","","1","","","","","","","","","","","","","","","","","","","","","","","","",""
"2340","","image-button-response","2","29341","0.0-2.0-0.0","A1GKD3NG1NNHRP","","1","phone","","","","","","","","","","","","","","","","","","","","","","","",""
"8904","","survey-text","3","38246","0.0-3.0-0.0","A1GKD3NG1NNHRP","","","","{""Q0"":""A1GKD3NG1NNHRP""}","","","","","","","","","","","","","","","","","","","","","","",""
"7638","","image-button-response_instructions","4","45886","0.0-4.0","A1GKD3NG1NNHRP","","0","instructions","","","","","","","","","","","","","","","","","","","","","","","",""
"66295","","image-button-response_instructions","5","112183","0.0-5.0","A1GKD3NG1NNHRP","img_art/ins/popularity/ins1.png","0","instructions","","","","","","","","","","","","","","","","","","","","","","","",""
"3463","","image-button-response_instructions","6","115646","0.0-6.0","A1GKD3NG1NNHRP","img_art/ins/popularity/ins2.png","0","instructions","","","","","","","","","","","","","","","","","","","","","","","",""
"6142","","image-button-response_instructions","7","121790","0.0-7.0","A1GKD3NG1NNHRP","img_art/ins/popularity/ins2Extreme.png","0","instructions","","","","","","","","","","","","","","","","","","","","","","","",""
"2687","","image-button-response_instructions","8","124478","0.0-8.0","A1GKD3NG1NNHRP","img_art/ins/popularity/ins3KEEPpop.PNG","0","instructions","","","","","","","","","","","","","","","","","","","","","","","",""
"1951","","image-button-response_instructions","9","126430","0.0-9.0","A1GKD3NG1NNHRP","img_art/ins/popularity/ins3ANamepop.PNG","0","instructions","","","","","","","","","","","","","","","","","","","","","","","",""
"2079","","image-button-response_instructions","10","128509","0.0-10.0","A1GKD3NG1NNHRP","img_art/ins/popularity/ins3ARatingpop.png","0","instructions","","","","","","","","","","","","","","","","","","","","","","","",""
"3136","","image-button-response_instructions","11","131645","0.0-11.0","A1GKD3NG1NNHRP","img_art/ins/popularity/ins3ATextpop.png","0","instructions","","","","","","","","","","","","","","","","","","","","","","","",""
"3455","","image-button-response_instructions","12","135102","0.0-12.0","A1GKD3NG1NNHRP","img_art/ins/popularity/ins3ALikespop.png","0","instructions","","","","","","","","","","","","","","","","","","","","","","","",""
"41679","","image-button-response_instructions","13","176782","0.0-13.0","A1GKD3NG1NNHRP","img_art/ins/popularity/ins3KEEPpop.PNG","0","instructions","","","","","","","","","","","","","","","","","","","","","","","",""
"3759","","image-button-response_instructions","14","180542","0.0-14.0","A1GKD3NG1NNHRP","img_art/ins/popularity/ins3_5RED.png","0","instructions","","","","","","","","","","","","","","","","","","","","","","","",""
"2146","","image-button-response_instructions","15","182688","0.0-15.0","A1GKD3NG1NNHRP","img_art/ins/popularity/ins3KEEPpop.PNG","0","instructions","","","","","","","","","","","","","","","","","","","","","","","",""
"3936","","image-button-response_instructions","16","186624","0.0-16.0","A1GKD3NG1NNHRP","img_art/ins/popularity/ins4KEEPpop.PNG","0","instructions","","","","","","","","","","","","","","","","","","","","","","","",""
"3527","","image-button-response_instructions","17","190152","0.0-17.0","A1GKD3NG1NNHRP","img_art/ins/popularity/ins5KEEPpop.PNG","0","instructions","","","","","","","","","","","","","","","","","","","","","","","",""
"927","","image-button-response_instructions","18","191079","0.0-18.0","A1GKD3NG1NNHRP","","0","instructions","","","","","","","","","","","","","","","","","","","","","","","",""
"8466","","survey-text","19","199560","0.0-19.0-0.0","A1GKD3NG1NNHRP","","","","{""Q0"":""but""}","","","","","","","","","","","","","","","","","","","","","","",""
"16247","","survey-text","20","215808","0.0-20.0-0.0","A1GKD3NG1NNHRP","","","","{""Q0"":""the colors are nice""}","","","","","","","","","","","","","","","","","","","","","","",""
"3077.7999999523163","","image-slider-response","21","218888","0.0-21.0","A1GKD3NG1NNHRP","","","","","10","","","","","","","","","","","","","","","","","","","","","",""
"null","","image-button-response","22","223891","0.0-22.0","A1GKD3NG1NNHRP","img_art/ins/1.jpg","null","","","","","","","","","","","","","","","","","","","","","","","","",""
"2643","","image-button-response","23","226537","0.0-23.0","A1GKD3NG1NNHRP","img_art/ins/1.jpg","5","","","","","","","","","","","","","","","","","","","","","","","","",""
"654","","image-button-response","24","227192","0.0-24.0-0.0","A1GKD3NG1NNHRP","img_art/ins/1.jpg","4","","","","","","","","","","","","","","","","","","","","","","","","",""
"9438","","image-button-response","25","236632","0.0-25.0-0.0","A1GKD3NG1NNHRP","img_art/ins/1.jpg","0","","","","","","","","","","","","","","","","","","","","","","","","",""
"null","","html-keyboard-response","26","238135","0.0-26.0","A1GKD3NG1NNHRP","<p style=""font-size: 48px;"">+</p>","","","","","null","allTrialResponses","1500","1","-2","img_art/ins/1.jpg","10","the colors are nice","Allison,Ashley,Beth,Dora,Erika,Jen","looks like a lot of things going on in the mist,20,20,20","I just don't get why these type of art would be popular,-32,40,20","This color reminds me of poo,-46,60,20","looks like what my niece in 3rd grade did this afternoon,-50,80,20","I like the sophisticated brushwork,40,100,20","It reminds me of a candy land dream I had,36,120,20","Jen","It reminds me of a candy land dream I had,36,120,20","Erika","I like the sophisticated brushwork,40,100,20","Allison","looks like a lot of things going on in the mist,20,20,20","0"
"6936","","survey-text","27","245077","0.0-27.0-0.0","A1GKD3NG1NNHRP","","","","{""Q0"":""interesting and colorful""}","","","","","","","","","","","","","","","","","","","","","","",""
"10526.800000011921","","image-slider-response","28","255605","0.0-28.0","A1GKD3NG1NNHRP","","","","","9","","","","","","","","","","","","","","","","","","","","","",""
"null","","image-button-response","29","260608","0.0-29.0","A1GKD3NG1NNHRP","img_art/ins/2.jpg","null","","","","","","","","","","","","","","","","","","","","","","","","",""
"1371","","image-button-response","30","261981","0.0-30.0","A1GKD3NG1NNHRP","img_art/ins/2.jpg","1","","","","","","","","","","","","","","","","","","","","","","","","",""
"6263","","image-button-response","31","268246","0.0-31.0-0.0","A1GKD3NG1NNHRP","img_art/ins/2.jpg","4","","","","","","","","","","","","","","","","","","","","","","","","",""
"4382","","image-button-response","32","272630","0.0-32.0-0.0","A1GKD3NG1NNHRP","img_art/ins/2.jpg","0","","","","","","","","","","","","","","","","","","","","","","","","",""
"null","","html-keyboard-response","33","274131","0.0-33.0","A1GKD3NG1NNHRP","<p style=""font-size: 48px;"">+</p>","","","","","null","allTrialResponses","1500","1","-1","img_art/ins/2.jpg","9","interesting and colorful","Allison,Kara,Katie,Jenna,Erika,Jen","I don't have strong feelings about this,10,20,20","I like the blocks of color arrangements,30,160,20","too much color!,-28,180,20","One of my pet peevs,-48,140,20","I would never be able to compose a sophisticated pallete like this,48,100,20","It reminds me of a fireplace,36,120,20","Kara","I like the blocks of color arrangements,30,160,20","Erika","I would never be able to compose a sophisticated pallete like this,48,100,20","Allison","I don't have strong feelings about this,10,20,20","0"
"20645","","survey-text","34","294781","0.0-34.0-0.0","A1GKD3NG1NNHRP","","","","{""Q0"":""i like the colors and artistic design""}","","","","","","","","","","","","","","","","","","","","","","",""
"4518.800000011921","","image-slider-response","35","299301","0.0-35.0","A1GKD3NG1NNHRP","","","","","10","","","","","","","","","","","","","","","","","","","","","",""
"4919","","image-button-response","36","304304","0.0-36.0","A1GKD3NG1NNHRP","img_art/ins/3.jpg","1","","","","","","","","","","","","","","","","","","","","","","","","",""
"412","","image-button-response","37","304718","0.0-37.0","A1GKD3NG1NNHRP","img_art/ins/3.jpg","1","","","","","","","","","","","","","","","","","","","","","","","","",""
"1359","","image-button-response","38","306077","0.0-38.0-0.0","A1GKD3NG1NNHRP","img_art/ins/3.jpg","2","","","","","","","","","","","","","","","","","","","","","","","","",""
"415","","image-button-response","39","306493","0.0-39.0-0.0","A1GKD3NG1NNHRP","img_art/ins/3.jpg","2","","","","","","","","","","","","","","","","","","","","","","","","",""
"3199","","image-button-response","40","312926","0.0-39.1-0.1","A1GKD3NG1NNHRP","img_art/ins/3.jpg","4","","","","","","","","","","","","","","","","","","","","","","","","",""
"null","","html-keyboard-response","41","313427","0.0-40.0","A1GKD3NG1NNHRP","<p style=""font-size: 48px;"">+</p>","","","","","null","allTrialResponses","500","1","0","img_art/ins/3.jpg","10","i like the colors and artistic design","Allison,Kara,Mary,Leslie,Erika,Rose","enjoy the different shades of blue,22,20,20","calming blue is very nice,36,160,20","I like the overlapping of brushes,41,220,20","It's an alright work,15,200,20","I feel connected to the artist,40,100,20","My daily routine, it's depressing,-20,240,20","Kara","calming blue is very nice,36,160,20","Mary","I like the overlapping of brushes,41,220,20","Erika","I feel connected to the artist,40,100,20","2"
"4358","","image-button-response_instructions","42","317789","0.0-41.0","A1GKD3NG1NNHRP","","0","instructions","","","","","","","","","","","","","","","","","","","","","","","",""
"13375","","survey-likert","43","331165","0.0-42.0-0.0","A1GKD3NG1NNHRP","","","","{""Q0"":"""",""Q1"":0,""Q2"":1}","","","","","","","","","","","","","","","","","","","","","","",""
"5411","","survey-text","44","336581","0.0-43.0-0.0","A1GKD3NG1NNHRP","","","","{""Q0"":""rock""}","","","","","","","","","","","","","","","","","","","","","","",""
"11448","","survey-text","45","348029","0.0-44.0-0.0","A1GKD3NG1NNHRP","","","","{""Q0"":""interesting but crowded""}","","","","","","","","","","","","","","","","","","","","","","",""
"2286.699999988079","","image-slider-response","46","350317","0.0-45.0","A1GKD3NG1NNHRP","","","","","-6","","","","","","","","","","","","","","","","","","","","","",""
"4716","","image-button-response","47","355345","0.0-46.0","A1GKD3NG1NNHRP","img_art/18.jpg","2","","","","","","","","","","","","","","","","","","","","","","","","",""
"243","","image-button-response","48","355589","0.0-47.0","A1GKD3NG1NNHRP","img_art/18.jpg","2","","","","","","","","","","","","","","","","","","","","","","","","",""
"214","","image-button-response","49","355805","0.0-48.0-0.0","A1GKD3NG1NNHRP","img_art/18.jpg","2","","","","","","","","","","","","","","","","","","","","","","","","",""
"911","","image-button-response","50","360549","0.0-48.1-0.1","A1GKD3NG1NNHRP","img_art/18.jpg","3","","","","","","","","","","","","","","","","","","","","","","","","",""
"4127","","image-button-response","51","364678","0.0-49.0-0.0","A1GKD3NG1NNHRP","img_art/18.jpg","5","","","","","","","","","","","","","","","","","","","","","","","","",""
"null","","html-keyboard-response","52","365180","0.0-50.0","A1GKD3NG1NNHRP","<p style=""font-size: 48px;"">+</p>","","","","","null","allTrialResponses","500","1","1","img_art/18.jpg","-6","interesting but crowded","Julia,Molly,Emily,Leslie,Jasmine,Cassandra","Very classy, I feel like it's the apocalypse.,25,40,20","White and yellow look awesome and the picture's dynamics are wonderful.,30,340,20","Not my style but I can see some serious skill went int it.,21,40,20","This is a very energetic painting, and brings to mind scenes of battle.,50,380,20","I feel indifferent about this one,0,340,20","I don't know...kind of a dissatified feeling inside.,-6,120,20","Emily","Not my style but I can see some serious skill went int it.,21,40,20","Leslie","This is a very energetic painting, and brings to mind scenes of battle.,50,380,20","Cassandra","I don't know...kind of a dissatified feeling inside.,-6,120,20","4"
"9886","","survey-text","53","375070","0.0-51.0-0.0","A1GKD3NG1NNHRP","","","","{""Q0"":""i like the colors and design""}","","","","","","","","","","","","","","","","","","","","","","",""
"5934.300000011921","","image-slider-response","54","381005","0.0-52.0","A1GKD3NG1NNHRP","","","","","12","","","","","","","","","","","","","","","","","","","","","",""
"4983","","image-button-response","55","386009","0.0-53.0","A1GKD3NG1NNHRP","img_art/21.jpg","1","","","","","","","","","","","","","","","","","","","","","","","","",""
"331","","image-button-response","56","386342","0.0-54.0","A1GKD3NG1NNHRP","img_art/21.jpg","1","","","","","","","","","","","","","","","","","","","","","","","","",""
"3103","","image-button-response","57","389445","0.0-55.0-0.0","A1GKD3NG1NNHRP","img_art/21.jpg","3","","","","","","","","","","","","","","","","","","","","","","","","",""
"4207","","image-button-response","58","393654","0.0-56.0-0.0","A1GKD3NG1NNHRP","img_art/21.jpg","4","","","","","","","","","","","","","","","","","","","","","","","","",""
"null","","html-keyboard-response","59","394156","0.0-57.0","A1GKD3NG1NNHRP","<p style=""font-size: 48px;"">+</p>","","","","","null","allTrialResponses","500","1","2","img_art/21.jpg","12","i like the colors and design","Hannah,Olivia,Emily,Leslie,Dominique,Cassandra","Boring colors and look. Too much 1980s.,-20,240,20","feels like a wave coming into light,9,40,20","What's the point?,-30,40,20","The colors make me think of a perilous scene at sea, and are pretty interesting.,15,380,20","Love the colors have to say this is my favorite above all,37,400,20","I liked it...it looked like a storm raging.,12,120,20","Olivia","feels like a wave coming into light,9,40,20","Leslie","The colors make me think of a perilous scene at sea, and are pretty interesting.,15,380,20","Dominique","Love the colors have to say this is my favorite above all,37,400,20","4"
"17727","","survey-text","60","411885","0.0-58.0-0.0","A1GKD3NG1NNHRP","","","","{""Q0"":""interesting i like it""}","","","","","","","","","","","","","","","","","","","","","","",""
"2086.800000011921","","image-slider-response","61","413973","0.0-59.0","A1GKD3NG1NNHRP","","","","","8","","","","","","","","","","","","","","","","","","","","","",""
"4848","","image-button-response","62","418981","0.0-60.0","A1GKD3NG1NNHRP","img_art/27.jpg","1","","","","","","","","","","","","","","","","","","","","","","","","",""
"526","","image-button-response","63","419510","0.0-61.0","A1GKD3NG1NNHRP","img_art/27.jpg","1","","","","","","","","","","","","","","","","","","","","","","","","",""
"1319","","image-button-response","64","420830","0.0-62.0-0.0","A1GKD3NG1NNHRP","img_art/27.jpg","0","","","","","","","","","","","","","","","","","","","","","","","","",""
"3238","","image-button-response","65","424070","0.0-63.0-0.0","A1GKD3NG1NNHRP","img_art/27.jpg","4","","","","","","","","","","","","","","","","","","","","","","","","",""
"null","","html-keyboard-response","66","425071","0.0-64.0","A1GKD3NG1NNHRP","<p style=""font-size: 48px;"">+</p>","","","","","null","allTrialResponses","1000","1","3","img_art/27.jpg","8","interesting i like it","Brooke,Olivia,Erica,Leslie,Dominique,Gabriela","Like it, autumn colors, trees and foliage scene.,25,60,20","city at sunset brings happyness,10,40,20","I like the pictures but it is a lot of going on,10,80,20","This feels like I'm looking at a child's scribbles.,-27,380,20","A beautiful day full of Hope and Inspiritation. The warmth of hot cocoa with the family gathering around,33,400,20","I like hoe it looks like a fall day in a city,45,140,20","Olivia","city at sunset brings happyness,10,40,20","Brooke","Like it, autumn colors, trees and foliage scene.,25,60,20","Dominique","A beautiful day full of Hope and Inspiritation. The warmth of hot cocoa with the family gathering around,33,400,20","4"
"11209","","survey-text","67","436286","0.0-65.0-0.0","A1GKD3NG1NNHRP","","","","{""Q0"":""i like the design and colors""}","","","","","","","","","","","","","","","","","","","","","","",""
"2814.5","","image-slider-response","68","439101","0.0-66.0","A1GKD3NG1NNHRP","","","","","15","","","","","","","","","","","","","","","","","","","","","",""
"null","","image-button-response","69","444112","0.0-67.0","A1GKD3NG1NNHRP","img_art/12.jpg","null","","","","","","","","","","","","","","","","","","","","","","","","",""
"492","","image-button-response","70","444606","0.0-68.0","A1GKD3NG1NNHRP","img_art/12.jpg","3","","","","","","","","","","","","","","","","","","","","","","","","",""
"1575","","image-button-response","71","446182","0.0-69.0-0.0","A1GKD3NG1NNHRP","img_art/12.jpg","2","","","","","","","","","","","","","","","","","","","","","","","","",""
"2910","","image-button-response","72","449094","0.0-70.0-0.0","A1GKD3NG1NNHRP","img_art/12.jpg","5","","","","","","","","","","","","","","","","","","","","","","","","",""
"null","","html-keyboard-response","73","449595","0.0-71.0","A1GKD3NG1NNHRP","<p style=""font-size: 48px;"">+</p>","","","","","null","allTrialResponses","500","1","4","img_art/12.jpg","15","i like the design and colors","Brooke,Olivia,Caroline,Jamie,Dominique,Rebecca","Dislike the style, the sharp rectangular pattern very jarring.,-20,60,20","feels cluttered,-11,40,20","I like the colors in both sections, brights compared to neutrals. Each block has a different view. I think of the future,11,100,20","Black and white contrast with color looks nice,15,320,20","I have seen some like this before very popular and full of life,42,400,20","so many different available interpretations for this, would love to closer.,24,100,20","Jamie","Black and white contrast with color looks nice,15,320,20","Caroline","I like the colors in both sections, brights compared to neutrals. Each block has a different view. I think of the future,11,100,20","Rebecca","so many different available interpretations for this, would love to closer.,24,100,20","4"
"11109","","survey-text","74","460709","0.0-72.0-0.0","A1GKD3NG1NNHRP","","","","{""Q0"":""i like this a lot.""}","","","","","","","","","","","","","","","","","","","","","","",""
"3207","","image-slider-response","75","463918","0.0-73.0","A1GKD3NG1NNHRP","","","","","9","","","","","","","","","","","","","","","","","","","","","",""
"2886","","image-button-response","76","468920","0.0-74.0","A1GKD3NG1NNHRP","img_art/4.jpg","1","","","","","","","","","","","","","","","","","","","","","","","","",""
"2708","","image-button-response","77","471630","0.0-75.0","A1GKD3NG1NNHRP","img_art/4.jpg","5","","","","","","","","","","","","","","","","","","","","","","","","",""
"1486","","image-button-response","78","473118","0.0-76.0-0.0","A1GKD3NG1NNHRP","img_art/4.jpg","1","","","","","","","","","","","","","","","","","","","","","","","","",""
"654","","image-button-response","79","473774","0.0-77.0-0.0","A1GKD3NG1NNHRP","img_art/4.jpg","2","","","","","","","","","","","","","","","","","","","","","","","","",""
"null","","html-keyboard-response","80","474283","0.0-78.0","A1GKD3NG1NNHRP","<p style=""font-size: 48px;"">+</p>","","","","","null","allTrialResponses","500","1","5","img_art/4.jpg","9","i like this a lot.","Jacqueline,Alexandria,Caroline,Jamie,Amy,Rebecca","It looks like smeared poop.,-27,300,20","it looks like a simple finger painting, yet i liked the color choices,-12,80,20","Blah feeling, nothing,-8,100,20","Mustard yellow doesn't do it for me,-25,320,20","disturbing and uncomfortable.,10,220,20","no sorry i can't really understand,-18,100,20","Rebecca","no sorry i can't really understand,-18,100,20","Alexandria","it looks like a simple finger painting, yet i liked the color choices,-12,80,20","Caroline","Blah feeling, nothing,-8,100,20","4"
"4650","","survey-text","81","478941","0.0-79.0-0.0","A1GKD3NG1NNHRP","","","","{""Q0"":""sky""}","","","","","","","","","","","","","","","","","","","","","","",""
"63735","","survey-text","82","542677","0.0-80.0-0.0","A1GKD3NG1NNHRP","","","","{""Q0"":""interesting and artistic""}","","","","","","","","","","","","","","","","","","","","","","",""
"2495.100000023842","","image-slider-response","83","545174","0.0-81.0","A1GKD3NG1NNHRP","","","","","7","","","","","","","","","","","","","","","","","","","","","",""
"2741","","image-button-response","84","550168","0.0-82.0","A1GKD3NG1NNHRP","img_art/10.jpg","0","","","","","","","","","","","","","","","","","","","","","","","","",""
"547","","image-button-response","85","550716","0.0-83.0","A1GKD3NG1NNHRP","img_art/10.jpg","3","","","","","","","","","","","","","","","","","","","","","","","","",""
"1151","","image-button-response","86","551868","0.0-84.0-0.0","A1GKD3NG1NNHRP","img_art/10.jpg","4","","","","","","","","","","","","","","","","","","","","","","","","",""
"2319","","image-button-response","87","554188","0.0-85.0-0.0","A1GKD3NG1NNHRP","img_art/10.jpg","5","","","","","","","","","","","","","","","","","","","","","","","","",""
"null","","html-keyboard-response","88","555189","0.0-86.0","A1GKD3NG1NNHRP","<p style=""font-size: 48px;"">+</p>","","","","","null","allTrialResponses","1000","1","6","img_art/10.jpg","7","interesting and artistic","Alicia,Alexandria,Caroline,Katelyn,Kathryn,Rebecca","It's art. (for some),7,120,20","it reminds me of a musical instrument,19,80,20","This painting made me think of a guitar which made me think of music which envoked happy feelings.,28,100,20","It makes me think of music and i love the reflective aspect,29,100,20","This piece makes me think of music. The music is dark; I like dark music so it edges toward good.,10,140,20","gives a sense of a roller coaster unit splashed in water. it's not but i love it nevertheless,44,100,20","Katelyn","It makes me think of music and i love the reflective aspect,29,100,20","Kathryn","This piece makes me think of music. The music is dark; I like dark music so it edges toward good.,10,140,20","Rebecca","gives a sense of a roller coaster unit splashed in water. it's not but i love it nevertheless,44,100,20","4"
"11660","","survey-text","89","566852","0.0-87.0-0.0","A1GKD3NG1NNHRP","","","","{""Q0"":""i like the colors and artistic design""}","","","","","","","","","","","","","","","","","","","","","","",""
"2229.800000011921","","image-slider-response","90","569084","0.0-88.0","A1GKD3NG1NNHRP","","","","","12","","","","","","","","","","","","","","","","","","","","","",""
"4911","","image-button-response","91","574096","0.0-89.0","A1GKD3NG1NNHRP","img_art/9.jpg","2","","","","","","","","","","","","","","","","","","","","","","","","",""
"196","","image-button-response","92","574292","0.0-90.0","A1GKD3NG1NNHRP","img_art/9.jpg","2","","","","","","","","","","","","","","","","","","","","","","","","",""
"4046","","image-button-response","93","578340","0.0-91.0-0.0","A1GKD3NG1NNHRP","img_art/9.jpg","4","","","","","","","","","","","","","","","","","","","","","","","","",""
"1206","","image-button-response","94","579549","0.0-92.0-0.0","A1GKD3NG1NNHRP","img_art/9.jpg","5","","","","","","","","","","","","","","","","","","","","","","","","",""
"null","","html-keyboard-response","95","580551","0.0-93.0","A1GKD3NG1NNHRP","<p style=""font-size: 48px;"">+</p>","","","","","null","allTrialResponses","1000","1","7","img_art/9.jpg","12","i like the colors and artistic design","Jordan,Meghan,Stephanie,Katelyn,Kathryn,Rebecca","I just dont like it, no reaction from me at all,-50,20,20","looks like someone resting,12,220,20","Someone sleeping in a cave. Dont like the scribble look.,-30,300,20","The lack of concrete form kind of turns me off,-2,100,20","This feels dreamy. Like I'm seeing inside someone's head while they're sleeping.,20,140,20","love the color palette, but I'm gonna be honest, I don't really understand it,14,100,20","Stephanie","Someone sleeping in a cave. Dont like the scribble look.,-30,300,20","Kathryn","This feels dreamy. Like I'm seeing inside someone's head while they're sleeping.,20,140,20","Rebecca","love the color palette, but I'm gonna be honest, I don't really understand it,14,100,20","4"
"52515","","survey-text","96","633068","0.0-94.0-0.0","A1GKD3NG1NNHRP","","","","{""Q0"":""artistic i like it""}","","","","","","","","","","","","","","","","","","","","","","",""
"1991","","image-slider-response","97","635060","0.0-95.0","A1GKD3NG1NNHRP","","","","","12","","","","","","","","","","","","","","","","","","","","","",""
"null","","image-button-response","98","640071","0.0-96.0","A1GKD3NG1NNHRP","img_art/15.jpg","null","","","","","","","","","","","","","","","","","","","","","","","","",""
"628","","image-button-response","99","640702","0.0-97.0","A1GKD3NG1NNHRP","img_art/15.jpg","4","","","","","","","","","","","","","","","","","","","","","","","","",""
"1645","","image-button-response","100","642349","0.0-98.0-0.0","A1GKD3NG1NNHRP","img_art/15.jpg","0","","","","","","","","","","","","","","","","","","","","","","","","",""
"1806","","image-button-response","101","644157","0.0-99.0-0.0","A1GKD3NG1NNHRP","img_art/15.jpg","1","","","","","","","","","","","","","","","","","","","","","","","","",""
"null","","html-keyboard-response","102","645158","0.0-100.0","A1GKD3NG1NNHRP","<p style=""font-size: 48px;"">+</p>","","","","","null","allTrialResponses","1000","1","8","img_art/15.jpg","12","artistic i like it","Maria,Marissa,Stephanie,Paige,Kathryn,Rebecca","i enjoy its apaprent simplicity (of colour and shape),32,120,20","I am reminded of spring flowers swaying in the dark night's breeze,9,160,20","This piece is too dark,-42,300,20","I feel nothing when looking at this,1,60,20","This is looking at a forest from above. I can see water and some pathways throughout. Nature.,20,140,20","very unsettling! like reverse porcelain esp because of the colors,28,100,20","Kathryn","This is looking at a forest from above. I can see water and some pathways throughout. Nature.,20,140,20","Maria","i enjoy its apaprent simplicity (of colour and shape),32,120,20","Marissa","I am reminded of spring flowers swaying in the dark night's breeze,9,160,20","4"
"8642","","survey-text","103","653804","0.0-101.0-0.0","A1GKD3NG1NNHRP","","","","{""Q0"":""nice and artistic""}","","","","","","","","","","","","","","","","","","","","","","",""
"2254.800000011921","","image-slider-response","104","656060","0.0-102.0","A1GKD3NG1NNHRP","","","","","22","","","","","","","","","","","","","","","","","","","","","",""
"1919","","image-button-response","105","661062","0.0-103.0","A1GKD3NG1NNHRP","img_art/8.jpg","2","","","","","","","","","","","","","","","","","","","","","","","","",""
"2974","","image-button-response","106","664036","0.0-104.0","A1GKD3NG1NNHRP","img_art/8.jpg","4","","","","","","","","","","","","","","","","","","","","","","","","",""
"799","","image-button-response","107","664836","0.0-105.0-0.0","A1GKD3NG1NNHRP","img_art/8.jpg","3","","","","","","","","","","","","","","","","","","","","","","","","",""
"1263","","image-button-response","108","666101","0.0-106.0-0.0","A1GKD3NG1NNHRP","img_art/8.jpg","5","","","","","","","","","","","","","","","","","","","","","","","","",""
"null","","html-keyboard-response","109","667103","0.0-107.0","A1GKD3NG1NNHRP","<p style=""font-size: 48px;"">+</p>","","","","","null","allTrialResponses","1000","1","9","img_art/8.jpg","22","nice and artistic","Maria,Marissa,Michelle,Mikayla,Kathryn,Natalie","not sure what to make of this - just neutral again,-1,120,20","I can't tell if this is supposed to portray just city life or a town crumbling,-5,160,20","I appreciate the complexity of this piece but it's too cubist for me,3,280,20","Its kinda like an optical illusion.,22,300,20","The angle makes it kind of disorienting but I enjoy the fantastical colors and imagery. It's like a dream.,10,140,20","looks nice, like the details,25,400,20","Kathryn","The angle makes it kind of disorienting but I enjoy the fantastical colors and imagery. It's like a dream.,10,140,20","Mikayla","Its kinda like an optical illusion.,22,300,20","Natalie","looks nice, like the details,25,400,20","4"
"7266","","survey-text","110","674374","0.0-108.0-0.0","A1GKD3NG1NNHRP","","","","{""Q0"":""i like it a lot""}","","","","","","","","","","","","","","","","","","","","","","",""
"2814.199999988079","","image-slider-response","111","677189","0.0-109.0","A1GKD3NG1NNHRP","","","","","14","","","","","","","","","","","","","","","","","","","","","",""
"null","","image-button-response","112","682428","0.0-110.0","A1GKD3NG1NNHRP","img_art/6.jpg","null","","","","","","","","","","","","","","","","","","","","","","","","",""
"8670","","image-button-response","113","691101","0.0-111.0","A1GKD3NG1NNHRP","img_art/6.jpg","4","","","","","","","","","","","","","","","","","","","","","","","","",""
"3759","","image-button-response","114","694861","0.0-112.0-0.0","A1GKD3NG1NNHRP","img_art/6.jpg","1","","","","","","","","","","","","","","","","","","","","","","","","",""
"1511","","image-button-response","115","696374","0.0-113.0-0.0","A1GKD3NG1NNHRP","img_art/6.jpg","2","","","","","","","","","","","","","","","","","","","","","","","","",""
"null","","html-keyboard-response","116","697875","0.0-114.0","A1GKD3NG1NNHRP","<p style=""font-size: 48px;"">+</p>","","","","","null","allTrialResponses","1500","1","10","img_art/6.jpg","14","i like it a lot","Leah,Claire,Alexandra,Mikayla,Kathryn,Natalie","Boring, looks like a sad tree in wind,-37,360,20","very minimalistic,22,260,20","this is interesting and unique,11,60,20","Not very exciting.,-34,300,20","This piece feels hopeful, like an oasis in the desert.,20,140,20","reminds me a giant peach,19,400,20","Kathryn","This piece feels hopeful, like an oasis in the desert.,20,140,20","Claire","very minimalistic,22,260,20","Alexandra","this is interesting and unique,11,60,20","4"
"4457","","survey-text","117","702341","0.0-115.0-0.0","A1GKD3NG1NNHRP","","","","{""Q0"":""our""}","","","","","","","","","","","","","","","","","","","","","","",""
"10799","","survey-text","118","713141","0.0-116.0-0.0","A1GKD3NG1NNHRP","","","","{""Q0"":""very artistic and interesting""}","","","","","","","","","","","","","","","","","","","","","","",""
"3342.699999988079","","image-slider-response","119","716485","0.0-117.0","A1GKD3NG1NNHRP","","","","","26","","","","","","","","","","","","","","","","","","","","","",""
"4934","","image-button-response","120","721499","0.0-118.0","A1GKD3NG1NNHRP","img_art/28.jpg","1","","","","","","","","","","","","","","","","","","","","","","","","",""
"159","","image-button-response","121","721661","0.0-119.0","A1GKD3NG1NNHRP","img_art/28.jpg","1","","","","","","","","","","","","","","","","","","","","","","","","",""
"3879","","image-button-response","122","725541","0.0-120.0-0.0","A1GKD3NG1NNHRP","img_art/28.jpg","4","","","","","","","","","","","","","","","","","","","","","","","","",""
"1015","","image-button-response","123","726557","0.0-121.0-0.0","A1GKD3NG1NNHRP","img_art/28.jpg","5","","","","","","","","","","","","","","","","","","","","","","","","",""
"null","","html-keyboard-response","124","728058","0.0-122.0","A1GKD3NG1NNHRP","<p style=""font-size: 48px;"">+</p>","","","","","null","allTrialResponses","1500","1","11","img_art/28.jpg","26","very artistic and interesting","Mary,Claire,Alexandra,Hailey,Kathryn,Sabrina","The colors are really ugly. They do not compliment each other well.,-45,180,20","not a fan of the colors or strokes used,-27,260,20","Boring, looks like it belongs in a coffee shop,-20,60,20","an old woman in a wheelchair. sad,-35,200,20","My immediate reaction was to think of smog. It recalls choking on dirty air.,-20,140,20","Self-hate and abuse at home, unsafe and torturing,-30,120,20","Claire","not a fan of the colors or strokes used,-27,260,20","Kathryn","My immediate reaction was to think of smog. It recalls choking on dirty air.,-20,140,20","Sabrina","Self-hate and abuse at home, unsafe and torturing,-30,120,20","4"
"10545","","survey-text","125","738605","0.0-123.0-0.0","A1GKD3NG1NNHRP","","","","{""Q0"":""interesting and realistic""}","","","","","","","","","","","","","","","","","","","","","","",""
"2366.300000011921","","image-slider-response","126","740972","0.0-124.0","A1GKD3NG1NNHRP","","","","","14","","","","","","","","","","","","","","","","","","","","","",""
"1480","","image-button-response","127","745974","0.0-125.0","A1GKD3NG1NNHRP","img_art/7.jpg","2","","","","","","","","","","","","","","","","","","","","","","","","",""
"605","","image-button-response","128","746581","0.0-126.0","A1GKD3NG1NNHRP","img_art/7.jpg","2","","","","","","","","","","","","","","","","","","","","","","","","",""
"2215","","image-button-response","129","748797","0.0-127.0-0.0","A1GKD3NG1NNHRP","img_art/7.jpg","1","","","","","","","","","","","","","","","","","","","","","","","","",""
"870","","image-button-response","130","749669","0.0-128.0-0.0","A1GKD3NG1NNHRP","img_art/7.jpg","0","","","","","","","","","","","","","","","","","","","","","","","","",""
"null","","html-keyboard-response","131","750670","0.0-129.0","A1GKD3NG1NNHRP","<p style=""font-size: 48px;"">+</p>","","","","","null","allTrialResponses","1000","1","12","img_art/7.jpg","14","interesting and realistic","Briana,Claire,Kristen,Alexa,Kathryn,Sabrina","Are these ancient cave paintings?,-7,400,20","reminds me of a cave wall,-21,260,20","sand, beach, tranquil,10,280,20","Not a fan of the pattern or colors,-40,40,20","It's off-putting because it reminds me of walking over rough sand/rocks or having scabs on my skin.,-10,140,20","Not getting the vibe i would like from this,-30,120,20","Kristen","sand, beach, tranquil,10,280,20","Claire","reminds me of a cave wall,-21,260,20","Briana","Are these ancient cave paintings?,-7,400,20","4"
"7450","","survey-text","132","758125","0.0-130.0-0.0","A1GKD3NG1NNHRP","","","","{""Q0"":""simple but interesting""}","","","","","","","","","","","","","","","","","","","","","","",""
"2630.900000035763","","image-slider-response","133","760757","0.0-131.0","A1GKD3NG1NNHRP","","","","","4","","","","","","","","","","","","","","","","","","","","","",""
"null","","image-button-response","134","765770","0.0-132.0","A1GKD3NG1NNHRP","img_art/30.jpg","null","","","","","","","","","","","","","","","","","","","","","","","","",""
"1553","","image-button-response","135","767324","0.0-133.0","A1GKD3NG1NNHRP","img_art/30.jpg","1","","","","","","","","","","","","","","","","","","","","","","","","",""
"775","","image-button-response","136","768101","0.0-134.0-0.0","A1GKD3NG1NNHRP","img_art/30.jpg","2","","","","","","","","","","","","","","","","","","","","","","","","",""
"1222","","image-button-response","137","769324","0.0-135.0-0.0","A1GKD3NG1NNHRP","img_art/30.jpg","0","","","","","","","","","","","","","","","","","","","","","","","","",""
"null","","html-keyboard-response","138","770327","0.0-136.0","A1GKD3NG1NNHRP","<p style=""font-size: 48px;"">+</p>","","","","","null","allTrialResponses","1000","1","13","img_art/30.jpg","4","simple but interesting","Briana,Claire,Kristen,Monica,Jennifer,Angelica","Its ugly. Too simple,-23,400,20","too segmented, looks sloppy,-37,260,20","makes me think of a tunnel filled with graffiti,19,280,20","It looked like a random scribble but I can see a person's face in it now and I think it's clever,13,360,20","The color scheme used in this piece is very ugly.,-50,380,20","This is just simple and ugly.,-2,280,20","Claire","too segmented, looks sloppy,-37,260,20","Kristen","makes me think of a tunnel filled with graffiti,19,280,20","Briana","Its ugly. Too simple,-23,400,20","4"
"7090","","survey-text","139","777420","0.0-137.0-0.0","A1GKD3NG1NNHRP","","","","{""Q0"":""interesting and busy""}","","","","","","","","","","","","","","","","","","","","","","",""
"3221.899999976158","","image-slider-response","140","780645","0.0-138.0","A1GKD3NG1NNHRP","","","","","17","","","","","","","","","","","","","","","","","","","","","",""
"null","","image-button-response","141","785647","0.0-139.0","A1GKD3NG1NNHRP","img_art/19.jpg","null","","","","","","","","","","","","","","","","","","","","","","","","",""
"461","","image-button-response","142","786109","0.0-140.0","A1GKD3NG1NNHRP","img_art/19.jpg","0","","","","","","","","","","","","","","","","","","","","","","","","",""
"558","","image-button-response","143","786669","0.0-141.0-0.0","A1GKD3NG1NNHRP","img_art/19.jpg","1","","","","","","","","","","","","","","","","","","","","","","","","",""
"550","","image-button-response","144","787221","0.0-142.0-0.0","A1GKD3NG1NNHRP","img_art/19.jpg","2","","","","","","","","","","","","","","","","","","","","","","","","",""
"null","","html-keyboard-response","145","788730","0.0-143.0","A1GKD3NG1NNHRP","<p style=""font-size: 48px;"">+</p>","","","","","null","allTrialResponses","1500","1","14","img_art/19.jpg","17","interesting and busy","Briana,Claire,Kristen,Kaitlin,Kelsey,Alexis","Its simple and the colors i like. It reminds me of chagall,34,400,20","way too much going on,-33,260,20","city, stress of urbanism, slightly panicked,2,280,20","this looks like a busy city lifestyle,24,60,20","not sure if i like it or not,1,240,20","Not a fan of the blobbiness,-22,100,20","Briana","Its simple and the colors i like. It reminds me of chagall,34,400,20","Claire","way too much going on,-33,260,20","Kristen","city, stress of urbanism, slightly panicked,2,280,20","4"
"11660","","survey-text","146","800396","0.0-144.0-0.0","A1GKD3NG1NNHRP","","","","{""Q0"":""different but interesting""}","","","","","","","","","","","","","","","","","","","","","","",""
"1661.5999999642372","","image-slider-response","147","802060","0.0-145.0","A1GKD3NG1NNHRP","","","","","10","","","","","","","","","","","","","","","","","","","","","",""
"null","","image-button-response","148","807075","0.0-146.0","A1GKD3NG1NNHRP","img_art/29.jpg","null","","","","","","","","","","","","","","","","","","","","","","","","",""
"1128","","image-button-response","149","808205","0.0-147.0","A1GKD3NG1NNHRP","img_art/29.jpg","0","","","","","","","","","","","","","","","","","","","","","","","","",""
"1734","","image-button-response","150","809941","0.0-148.0-0.0","A1GKD3NG1NNHRP","img_art/29.jpg","0","","","","","","","","","","","","","","","","","","","","","","","","",""
"855","","image-button-response","151","815989","0.0-148.1-0.1","A1GKD3NG1NNHRP","img_art/29.jpg","3","","","","","","","","","","","","","","","","","","","","","","","","",""
"1366","","image-button-response","152","817356","0.0-149.0-0.0","A1GKD3NG1NNHRP","img_art/29.jpg","1","","","","","","","","","","","","","","","","","","","","","","","","",""
"null","","html-keyboard-response","153","818359","0.0-150.0","A1GKD3NG1NNHRP","<p style=""font-size: 48px;"">+</p>","","","","","null","allTrialResponses","1000","1","15","img_art/29.jpg","10","different but interesting","Briana,Claire,Kristen,Kaylee,Catherine,Laura","Looks like someone trying to make something they dont understand,-36,400,20","interesting, but I wouldn't put it on my wall,8,260,20","danger, crime scene,,10,280,20","it looks like a prison,-33,200,20","death, darkness, negative picture,-31,160,20","this is not art to me - it's random collage,-45,320,20","Briana","Looks like someone trying to make something they dont understand,-36,400,20","Kaylee","it looks like a prison,-33,200,20","Claire","interesting, but I wouldn't put it on my wall,8,260,20","6"
"4253","","survey-text","154","822621","0.0-151.0-0.0","A1GKD3NG1NNHRP","","","","{""Q0"":""course""}","","","","","","","","","","","","","","","","","","","","","","",""
"12040","","survey-text","155","834661","0.0-152.0-0.0","A1GKD3NG1NNHRP","","","","{""Q0"":""i like the colors and design""}","","","","","","","","","","","","","","","","","","","","","","",""
"3886.400000035763","","image-slider-response","156","838548","0.0-153.0","A1GKD3NG1NNHRP","","","","","-7","","","","","","","","","","","","","","","","","","","","","",""
"3472","","image-button-response","157","843565","0.0-154.0","A1GKD3NG1NNHRP","img_art/13.jpg","1","","","","","","","","","","","","","","","","","","","","","","","","",""
"502","","image-button-response","158","844069","0.0-155.0","A1GKD3NG1NNHRP","img_art/13.jpg","1","","","","","","","","","","","","","","","","","","","","","","","","",""
"695","","image-button-response","159","844765","0.0-156.0-0.0","A1GKD3NG1NNHRP","img_art/13.jpg","0","","","","","","","","","","","","","","","","","","","","","","","","",""
"1006","","image-button-response","160","845773","0.0-157.0-0.0","A1GKD3NG1NNHRP","img_art/13.jpg","3","","","","","","","","","","","","","","","","","","","","","","","","",""
"null","","html-keyboard-response","161","846788","0.0-158.0","A1GKD3NG1NNHRP","<p style=""font-size: 48px;"">+</p>","","","","","null","allTrialResponses","1000","1","16","img_art/13.jpg","-7","i like the colors and design","Briana,Claire,Erika,Kaylee,Margaret,Chelsea","The blue colors are very calming. Reminds me of water,33,400,20","love the colors and splatters,44,260,20","Gorgeous contrast and color choice, very pleasing,50,100,20","its crazy to the point that i cant get it,-28,200,20","i like the splatters and the colors,21,100,20","The colors are okay but I don't like the shapes here.,-18,180,20","Claire","love the colors and splatters,44,260,20","Briana","The blue colors are very calming. Reminds me of water,33,400,20","Kaylee","its crazy to the point that i cant get it,-28,200,20","6"
"9022","","survey-text","162","855813","0.0-159.0-0.0","A1GKD3NG1NNHRP","","","","{""Q0"":""interesting and artistic""}","","","","","","","","","","","","","","","","","","","","","","",""
"2694.7000000476837","","image-slider-response","163","858509","0.0-160.0","A1GKD3NG1NNHRP","","","","","13","","","","","","","","","","","","","","","","","","","","","",""
"null","","image-button-response","164","863528","0.0-161.0","A1GKD3NG1NNHRP","img_art/20.jpg","null","","","","","","","","","","","","","","","","","","","","","","","","",""
"3131","","image-button-response","165","866661","0.0-162.0","A1GKD3NG1NNHRP","img_art/20.jpg","4","","","","","","","","","","","","","","","","","","","","","","","","",""
"2639","","image-button-response","166","869300","0.0-163.0-0.0","A1GKD3NG1NNHRP","img_art/20.jpg","1","","","","","","","","","","","","","","","","","","","","","","","","",""
"782","","image-button-response","167","870085","0.0-164.0-0.0","A1GKD3NG1NNHRP","img_art/20.jpg","2","","","","","","","","","","","","","","","","","","","","","","","","",""
"null","","html-keyboard-response","168","871086","0.0-165.0","A1GKD3NG1NNHRP","<p style=""font-size: 48px;"">+</p>","","","","","null","allTrialResponses","1000","1","17","img_art/20.jpg","13","interesting and artistic","Briana,Claire,Bailey,Kaylee,Victoria,Danielle","Someone trying to be dali,-15,400,20","reminds me of Salvadore Dali,24,260,20","A bit hectic, but it does have a bit of coolness to it,6,360,20","i can see a car crash,13,200,20","like the colors and desert feel,7,400,20","Don't really like the subject it focuses on, however the color usage is great,-10,340,20","Victoria","like the colors and desert feel,7,400,20","Claire","reminds me of Salvadore Dali,24,260,20","Bailey","A bit hectic, but it does have a bit of coolness to it,6,360,20","6"
"5256","","survey-text","169","876349","0.0-166.0-0.0","A1GKD3NG1NNHRP","","","","{""Q0"":""nice colors""}","","","","","","","","","","","","","","","","","","","","","","",""
"2615.199999988079","","image-slider-response","170","878965","0.0-167.0","A1GKD3NG1NNHRP","","","","","16","","","","","","","","","","","","","","","","","","","","","",""
"4998","","image-button-response","171","883967","0.0-168.0","A1GKD3NG1NNHRP","img_art/2.jpg","1","","","","","","","","","","","","","","","","","","","","","","","","",""
"797","","image-button-response","172","884765","0.0-169.0","A1GKD3NG1NNHRP","img_art/2.jpg","2","","","","","","","","","","","","","","","","","","","","","","","","",""
"590","","image-button-response","173","885356","0.0-170.0-0.0","A1GKD3NG1NNHRP","img_art/2.jpg","1","","","","","","","","","","","","","","","","","","","","","","","","",""
"720","","image-button-response","174","886077","0.0-171.0-0.0","A1GKD3NG1NNHRP","img_art/2.jpg","0","","","","","","","","","","","","","","","","","","","","","","","","",""
"null","","html-keyboard-response","175","886579","0.0-172.0","A1GKD3NG1NNHRP","<p style=""font-size: 48px;"">+</p>","","","","","null","allTrialResponses","500","1","18","img_art/2.jpg","16","nice colors","Shelby,Claire,Bailey,Chloe,Victoria,Melissa","The contrasting colors are a bit harsh,-10,240,20","too blocky and don't like color combination,-32,260,20","Too gloopy and unfocused,-38,360,20","The color choices and lines seem a bit sloppy?,-10,220,20","I like the colors,22,400,20","appealing colors,4,240,20","Bailey","Too gloopy and unfocused,-38,360,20","Claire","too blocky and don't like color combination,-32,260,20","Shelby","The contrasting colors are a bit harsh,-10,240,20","6"
"7628","","survey-text","176","894213","0.0-173.0-0.0","A1GKD3NG1NNHRP","","","","{""Q0"":""interesting and colorful""}","","","","","","","","","","","","","","","","","","","","","","",""
"2230.5","","image-slider-response","177","896444","0.0-174.0","A1GKD3NG1NNHRP","","","","","17","","","","","","","","","","","","","","","","","","","","","",""
"4639","","image-button-response","178","901460","0.0-175.0","A1GKD3NG1NNHRP","img_art/23.jpg","0","","","","","","","","","","","","","","","","","","","","","","","","",""
"567","","image-button-response","179","902029","0.0-176.0","A1GKD3NG1NNHRP","img_art/23.jpg","0","","","","","","","","","","","","","","","","","","","","","","","","",""
"598","","image-button-response","180","902628","0.0-177.0-0.0","A1GKD3NG1NNHRP","img_art/23.jpg","1","","","","","","","","","","","","","","","","","","","","","","","","",""
"1039","","image-button-response","181","903669","0.0-178.0-0.0","A1GKD3NG1NNHRP","img_art/23.jpg","3","","","","","","","","","","","","","","","","","","","","","","","","",""
"null","","html-keyboard-response","182","904171","0.0-179.0","A1GKD3NG1NNHRP","<p style=""font-size: 48px;"">+</p>","","","","","null","allTrialResponses","500","1","19","img_art/23.jpg","17","interesting and colorful","Shelby,Claire,Bailey,Allison,Autumn,Jenna","This feels so energized, i love it,50,240,20","the pattern is pleasing to the eye,28,260,20","Not a fan of these dot pieces. They hurt my eyes.,-25,360,20","I like the color contrast, though I'm unable to tell what the white shapes are.,25,140,20","Awesome abstraction love it.,30,340,20","awesome colors. love the white drawing the eye to the center. oddly comforting.,50,360,20","Shelby","This feels so energized, i love it,50,240,20","Claire","the pattern is pleasing to the eye,28,260,20","Allison","I like the color contrast, though I'm unable to tell what the white shapes are.,25,140,20","6"
"9172","","survey-text","183","913348","0.0-180.0-0.0","A1GKD3NG1NNHRP","","","","{""Q0"":""interesting and artistic""}","","","","","","","","","","","","","","","","","","","","","","",""
"2527.699999988079","","image-slider-response","184","915877","0.0-181.0","A1GKD3NG1NNHRP","","","","","13","","","","","","","","","","","","","","","","","","","","","",""
"4894","","image-button-response","185","920891","0.0-182.0","A1GKD3NG1NNHRP","img_art/16.jpg","1","","","","","","","","","","","","","","","","","","","","","","","","",""
"223","","image-button-response","186","921117","0.0-183.0","A1GKD3NG1NNHRP","img_art/16.jpg","1","","","","","","","","","","","","","","","","","","","","","","","","",""
"767","","image-button-response","187","921885","0.0-184.0-0.0","A1GKD3NG1NNHRP","img_art/16.jpg","0","","","","","","","","","","","","","","","","","","","","","","","","",""
"694","","image-button-response","188","922580","0.0-185.0-0.0","A1GKD3NG1NNHRP","img_art/16.jpg","2","","","","","","","","","","","","","","","","","","","","","","","","",""
"null","","html-keyboard-response","189","923082","0.0-186.0","A1GKD3NG1NNHRP","<p style=""font-size: 48px;"">+</p>","","","","","null","allTrialResponses","500","1","20","img_art/16.jpg","13","interesting and artistic","Shelby,Claire,Amanda,Allison,Kelly,Sydney","This feels like images of a painful childhood,-50,240,20","the materials used are interesting,30,260,20","Very modern, reminds me of bansky,43,180,20","Hard contrast, but no emotions towards any of the objects.,-6,140,20","Looks like someone got really high and did a bad photoshop job.,-27,220,20","This piece is unusual but unique.,5,320,20","Claire","the materials used are interesting,30,260,20","Shelby","This feels like images of a painful childhood,-50,240,20","Amanda","Very modern, reminds me of bansky,43,180,20","6"
"2371","","survey-text","190","925461","0.0-187.0-0.0","A1GKD3NG1NNHRP","","","","{""Q0"":""we""}","","","","","","","","","","","","","","","","","","","","","","",""
"8031","","survey-text","191","933493","0.0-188.0-0.0","A1GKD3NG1NNHRP","","","","{""Q0"":""artistic and colorful""}","","","","","","","","","","","","","","","","","","","","","","",""
"2198.900000035763","","image-slider-response","192","935693","0.0-189.0","A1GKD3NG1NNHRP","","","","","15","","","","","","","","","","","","","","","","","","","","","",""
"null","","image-button-response","193","941424","0.0-190.0","A1GKD3NG1NNHRP","img_art/1.jpg","null","","","","","","","","","","","","","","","","","","","","","","","","",""
"4618","","image-button-response","194","946045","0.0-191.0","A1GKD3NG1NNHRP","img_art/1.jpg","5","","","","","","","","","","","","","","","","","","","","","","","","",""
"550","","image-button-response","195","946596","0.0-192.0-0.0","A1GKD3NG1NNHRP","img_art/1.jpg","4","","","","","","","","","","","","","","","","","","","","","","","","",""
"527","","image-button-response","196","947125","0.0-193.0-0.0","A1GKD3NG1NNHRP","img_art/1.jpg","3","","","","","","","","","","","","","","","","","","","","","","","","",""
"null","","html-keyboard-response","197","947626","0.0-194.0","A1GKD3NG1NNHRP","<p style=""font-size: 48px;"">+</p>","","","","","null","allTrialResponses","500","1","21","img_art/1.jpg","15","artistic and colorful","Shelby,Claire,Amanda,Nicole,Amber,Cassidy","This one has a pleasent energy,15,240,20","the colors are nice,8,260,20","Seems like one i previously saw in this survey,27,180,20","I love the colors but it's too intense sometimes,22,20,20","Really like all of the colors and how they mesh well.,27,200,20","I like the colors and layers,25,140,20","Cassidy","I like the colors and layers,25,140,20","Amber","Really like all of the colors and how they mesh well.,27,200,20","Nicole","I love the colors but it's too intense sometimes,22,20,20","6"
"5199","","survey-text","198","952828","0.0-195.0-0.0","A1GKD3NG1NNHRP","","","","{""Q0"":""i like the colors and artistic design""}","","","","","","","","","","","","","","","","","","","","","","",""
"2197.899999976158","","image-slider-response","199","955028","0.0-196.0","A1GKD3NG1NNHRP","","","","","11","","","","","","","","","","","","","","","","","","","","","",""
"null","","image-button-response","200","960428","0.0-197.0","A1GKD3NG1NNHRP","img_art/22.jpg","null","","","","","","","","","","","","","","","","","","","","","","","","",""
"8071","","image-button-response","201","968501","0.0-198.0","A1GKD3NG1NNHRP","img_art/22.jpg","1","","","","","","","","","","","","","","","","","","","","","","","","",""
"542","","image-button-response","202","969045","0.0-199.0-0.0","A1GKD3NG1NNHRP","img_art/22.jpg","2","","","","","","","","","","","","","","","","","","","","","","","","",""
"823","","image-button-response","203","969869","0.0-200.0-0.0","A1GKD3NG1NNHRP","img_art/22.jpg","0","","","","","","","","","","","","","","","","","","","","","","","","",""
"null","","html-keyboard-response","204","971370","0.0-201.0","A1GKD3NG1NNHRP","<p style=""font-size: 48px;"">+</p>","","","","","null","allTrialResponses","1500","1","22","img_art/22.jpg","11","i like the colors and artistic design","Erin,Brianna,Lindsey,Nicole,Amber,Cassidy","Seems dated with geometic forms,-20,120,20","Like the black key and the rainbow color theme.,31,20,20","Too much contrasting colors makes me feel anxious. I don't like it.,-20,400,20","The warm and color colors together in this way feels exciting,39,20,20","Colors are bright and cheerful.,5,200,20","I don't really know why, I just like looking at it,10,140,20","Brianna","Like the black key and the rainbow color theme.,31,20,20","Lindsey","Too much contrasting colors makes me feel anxious. I don't like it.,-20,400,20","Erin","Seems dated with geometic forms,-20,120,20","6"
"4951","","survey-text","205","976325","0.0-202.0-0.0","A1GKD3NG1NNHRP","","","","{""Q0"":""i like the colors and artistic design""}","","","","","","","","","","","","","","","","","","","","","","",""
"2982.600000023842","","image-slider-response","206","979308","0.0-203.0","A1GKD3NG1NNHRP","","","","","19","","","","","","","","","","","","","","","","","","","","","",""
"4831","","image-button-response","207","984310","0.0-204.0","A1GKD3NG1NNHRP","img_art/17.jpg","5","","","","","","","","","","","","","","","","","","","","","","","","",""
"309","","image-button-response","208","984620","0.0-205.0","A1GKD3NG1NNHRP","img_art/17.jpg","5","","","","","","","","","","","","","","","","","","","","","","","","",""
"1256","","image-button-response","209","985877","0.0-206.0-0.0","A1GKD3NG1NNHRP","img_art/17.jpg","3","","","","","","","","","","","","","","","","","","","","","","","","",""
"1254","","image-button-response","210","987133","0.0-207.0-0.0","A1GKD3NG1NNHRP","img_art/17.jpg","2","","","","","","","","","","","","","","","","","","","","","","","","",""
"null","","html-keyboard-response","211","987634","0.0-208.0","A1GKD3NG1NNHRP","<p style=""font-size: 48px;"">+</p>","","","","","null","allTrialResponses","500","1","23","img_art/17.jpg","19","i like the colors and artistic design","Erin,Brianna,Lindsey,Tiffany,Mackenzie,Sara","Windows indoor tree, weird palette,-11,120,20","It's nice and realistic looking.,12,20,20","Pretty composition and I like the colors.,20,400,20","The painting makes me feel relaxed, and a bit lonely, like I'm sitting at a park waiting for someone.,30,360,20","Very fun textures,32,20,20","Beautiful patterns but evokes sad emotions in me due to the color shades,31,160,20","Sara","Beautiful patterns but evokes sad emotions in me due to the color shades,31,160,20","Tiffany","The painting makes me feel relaxed, and a bit lonely, like I'm sitting at a park waiting for someone.,30,360,20","Lindsey","Pretty composition and I like the colors.,20,400,20","6"
"9163","","survey-text","212","996804","0.0-209.0-0.0","A1GKD3NG1NNHRP","","","","{""Q0"":""i like the design and colors""}","","","","","","","","","","","","","","","","","","","","","","",""
"2911.100000023842","","image-slider-response","213","999716","0.0-210.0","A1GKD3NG1NNHRP","","","","","13","","","","","","","","","","","","","","","","","","","","","",""
"1382","","image-button-response","214","1005426","0.0-211.0","A1GKD3NG1NNHRP","img_art/3.jpg","2","","","","","","","","","","","","","","","","","","","","","","","","",""
"1455","","image-button-response","215","1006885","0.0-212.0","A1GKD3NG1NNHRP","img_art/3.jpg","1","","","","","","","","","","","","","","","","","","","","","","","","",""
"454","","image-button-response","216","1007341","0.0-213.0-0.0","A1GKD3NG1NNHRP","img_art/3.jpg","0","","","","","","","","","","","","","","","","","","","","","","","","",""
"591","","image-button-response","217","1007933","0.0-214.0-0.0","A1GKD3NG1NNHRP","img_art/3.jpg","2","","","","","","","","","","","","","","","","","","","","","","","","",""
"null","","html-keyboard-response","218","1008934","0.0-215.0","A1GKD3NG1NNHRP","<p style=""font-size: 48px;"">+</p>","","","","","null","allTrialResponses","1000","1","24","img_art/3.jpg","13","i like the design and colors","Abigail,Christina,Lindsey,Tiffany,Sophia,Sara","Reminded me of blood or something bad,-21,20,20","looks more classic but i'm not a fan of the colors,7,240,20","Angry red crayons, like a child throwing a tantrum. No thanks.,-10,400,20","I feel uncomfortable, like I am looking at a crime scene.,-17,360,20","Marker gone wild?  Not sure what's going on here.,-21,280,20","Random use of red and looks scary,-50,160,20","Christina","looks more classic but i'm not a fan of the colors,7,240,20","Abigail","Reminded me of blood or something bad,-21,20,20","Lindsey","Angry red crayons, like a child throwing a tantrum. No thanks.,-10,400,20","6"
"6852","","survey-text","219","1015788","0.0-216.0-0.0","A1GKD3NG1NNHRP","","","","{""Q0"":""artistic and interesting""}","","","","","","","","","","","","","","","","","","","","","","",""
"3143","","image-slider-response","220","1018932","0.0-217.0","A1GKD3NG1NNHRP","","","","","22","","","","","","","","","","","","","","","","","","","","","",""
"4592","","image-button-response","221","1023935","0.0-218.0","A1GKD3NG1NNHRP","img_art/25.jpg","1","","","","","","","","","","","","","","","","","","","","","","","","",""
"548","","image-button-response","222","1024484","0.0-219.0","A1GKD3NG1NNHRP","img_art/25.jpg","0","","","","","","","","","","","","","","","","","","","","","","","","",""
"424","","image-button-response","223","1024909","0.0-220.0-0.0","A1GKD3NG1NNHRP","img_art/25.jpg","1","","","","","","","","","","","","","","","","","","","","","","","","",""
"590","","image-button-response","224","1025501","0.0-221.0-0.0","A1GKD3NG1NNHRP","img_art/25.jpg","2","","","","","","","","","","","","","","","","","","","","","","","","",""
"null","","html-keyboard-response","225","1026517","0.0-222.0","A1GKD3NG1NNHRP","<p style=""font-size: 48px;"">+</p>","","","","","null","allTrialResponses","1000","1","25","img_art/25.jpg","22","artistic and interesting","Abigail,Christina,Lindsey,Cheyenne,Destiny,Angela","This is creepy and I dont like it,-28,20,20","nice colors and it looks like a native work,32,240,20","This piece makes me think of oppression and fighting it. Makes me feel calm, sad and strong.,11,400,20","It's nice but nothing special.,7,200,20","creeeeeppyyyyyyy but mad cool,-26,360,20","Ugly green color and don't like it at all,-30,260,20","Abigail","This is creepy and I dont like it,-28,20,20","Christina","nice colors and it looks like a native work,32,240,20","Lindsey","This piece makes me think of oppression and fighting it. Makes me feel calm, sad and strong.,11,400,20","6"
"4079","","survey-text","226","1030605","0.0-223.0-0.0","A1GKD3NG1NNHRP","","","","{""Q0"":""table""}","","","","","","","","","","","","","","","","","","","","","","",""
"6032","","survey-text","227","1036637","0.0-224.0-0.0","A1GKD3NG1NNHRP","","","","{""Q0"":""artistic and interesting""}","","","","","","","","","","","","","","","","","","","","","","",""
"3220.899999976158","","image-slider-response","228","1039860","0.0-225.0","A1GKD3NG1NNHRP","","","","","15","","","","","","","","","","","","","","","","","","","","","",""
"2247","","image-button-response","229","1044863","0.0-226.0","A1GKD3NG1NNHRP","img_art/24.jpg","5","","","","","","","","","","","","","","","","","","","","","","","","",""
"300","","image-button-response","230","1045166","0.0-227.0","A1GKD3NG1NNHRP","img_art/24.jpg","3","","","","","","","","","","","","","","","","","","","","","","","","",""
"854","","image-button-response","231","1046021","0.0-228.0-0.0","A1GKD3NG1NNHRP","img_art/24.jpg","5","","","","","","","","","","","","","","","","","","","","","","","","",""
"902","","image-button-response","232","1046925","0.0-229.0-0.0","A1GKD3NG1NNHRP","img_art/24.jpg","2","","","","","","","","","","","","","","","","","","","","","","","","",""
"null","","html-keyboard-response","233","1047426","0.0-230.0","A1GKD3NG1NNHRP","<p style=""font-size: 48px;"">+</p>","","","","","null","allTrialResponses","500","1","26","img_art/24.jpg","15","artistic and interesting","Abigail,Christina,Lindsey,Katherine,Grace,Isabella","Beautiful waterfall I like waterfalls,39,20,20","I like how it looks like a waterfall in an exotic place,50,240,20","I like the colors and see a stream in a wooded setting. Makes me feel calm and cheerful.,27,400,20","The combination of nature / realism with abstract colors is unique.,39,120,20","Abstract falls & nature.,41,180,20","A peaceful day by the river,42,280,20","Katherine","The combination of nature / realism with abstract colors is unique.,39,120,20","Isabella","A peaceful day by the river,42,280,20","Lindsey","I like the colors and see a stream in a wooded setting. Makes me feel calm and cheerful.,27,400,20","6"
"5715","","survey-text","234","1053148","0.0-231.0-0.0","A1GKD3NG1NNHRP","","","","{""Q0"":""i like the colors and artistic design""}","","","","","","","","","","","","","","","","","","","","","","",""
"2119.199999988079","","image-slider-response","235","1055269","0.0-232.0","A1GKD3NG1NNHRP","","","","","30","","","","","","","","","","","","","","","","","","","","","",""
"4654","","image-button-response","236","1060275","0.0-233.0","A1GKD3NG1NNHRP","img_art/11.jpg","0","","","","","","","","","","","","","","","","","","","","","","","","",""
"841","","image-button-response","237","1061117","0.0-234.0","A1GKD3NG1NNHRP","img_art/11.jpg","0","","","","","","","","","","","","","","","","","","","","","","","","",""
"335","","image-button-response","238","1061453","0.0-235.0-0.0","A1GKD3NG1NNHRP","img_art/11.jpg","0","","","","","","","","","","","","","","","","","","","","","","","","",""
"1455","","image-button-response","239","1066110","0.0-235.1-0.1","A1GKD3NG1NNHRP","img_art/11.jpg","2","","","","","","","","","","","","","","","","","","","","","","","","",""
"1710","","image-button-response","240","1067821","0.0-236.0-0.0","A1GKD3NG1NNHRP","img_art/11.jpg","4","","","","","","","","","","","","","","","","","","","","","","","","",""
"null","","html-keyboard-response","241","1068323","0.0-237.0","A1GKD3NG1NNHRP","<p style=""font-size: 48px;"">+</p>","","","","","null","allTrialResponses","500","1","27","img_art/11.jpg","30","i like the colors and artistic design","Katie,Emma,Lindsey,Katherine,Megan,Isabella","Dark and dreary. Makes me think of rain/water. I see grey clouds and high waves. Looks unsettling.,-20,160,20","Pretty, interesting, feels like a city, feels like home,50,60,20","Not a fan of the colors but it looks interesting.,-31,400,20","Makes me feel like my vision is breaking,19,120,20","Some interesting color but scratchy train mess.,-14,200,20","City on a hill, tranquility,42,280,20","Katie","Dark and dreary. Makes me think of rain/water. I see grey clouds and high waves. Looks unsettling.,-20,160,20","Lindsey","Not a fan of the colors but it looks interesting.,-31,400,20","Megan","Some interesting color but scratchy train mess.,-14,200,20","8"
"12129","","survey-text","242","1080460","0.0-238.0-0.0","A1GKD3NG1NNHRP","","","","{""Q0"":""interesting and artistic""}","","","","","","","","","","","","","","","","","","","","","","",""
"2254.7999999523163","","image-slider-response","243","1082716","0.0-239.0","A1GKD3NG1NNHRP","","","","","13","","","","","","","","","","","","","","","","","","","","","",""
"null","","image-button-response","244","1088204","0.0-240.0","A1GKD3NG1NNHRP","img_art/5.jpg","null","","","","","","","","","","","","","","","","","","","","","","","","",""
"1351","","image-button-response","245","1089557","0.0-241.0","A1GKD3NG1NNHRP","img_art/5.jpg","2","","","","","","","","","","","","","","","","","","","","","","","","",""
"743","","image-button-response","246","1090302","0.0-242.0-0.0","A1GKD3NG1NNHRP","img_art/5.jpg","5","","","","","","","","","","","","","","","","","","","","","","","","",""
"581","","image-button-response","247","1090885","0.0-243.0-0.0","A1GKD3NG1NNHRP","img_art/5.jpg","4","","","","","","","","","","","","","","","","","","","","","","","","",""
"null","","html-keyboard-response","248","1091387","0.0-244.0","A1GKD3NG1NNHRP","<p style=""font-size: 48px;"">+</p>","","","","","null","allTrialResponses","500","1","28","img_art/5.jpg","13","interesting and artistic","Katie,Makayla,Lindsey,Mariah,Megan,Madison","I don't get it at all. But, maybe it is the top portion of a piece of fruit.,-50,160,20","Bright and sunny,19,80,20","Black bit reminds me of a giant splinter. Yellow bit reminds me of urine. I hate it.,-50,400,20","It feels very strong and open.,31,140,20","Cop out, easy money for artist for a 4 min piece,-29,200,20","Bright and luminous,31,60,20","Lindsey","Black bit reminds me of a giant splinter. Yellow bit reminds me of urine. I hate it.,-50,400,20","Madison","Bright and luminous,31,60,20","Megan","Cop out, easy money for artist for a 4 min piece,-29,200,20","8"
"6748","","survey-text","249","1098141","0.0-245.0-0.0","A1GKD3NG1NNHRP","","","","{""Q0"":""colorful and interesting""}","","","","","","","","","","","","","","","","","","","","","","",""
"2222.900000035763","","image-slider-response","250","1100365","0.0-246.0","A1GKD3NG1NNHRP","","","","","11","","","","","","","","","","","","","","","","","","","","","",""
"null","","image-button-response","251","1105431","0.0-247.0","A1GKD3NG1NNHRP","img_art/26.jpg","null","","","","","","","","","","","","","","","","","","","","","","","","",""
"43875","","image-button-response","252","1149309","0.0-248.0","A1GKD3NG1NNHRP","img_art/26.jpg","5","","","","","","","","","","","","","","","","","","","","","","","","",""
"831","","image-button-response","253","1150141","0.0-249.0-0.0","A1GKD3NG1NNHRP","img_art/26.jpg","2","","","","","","","","","","","","","","","","","","","","","","","","",""
"431","","image-button-response","254","1150573","0.0-250.0-0.0","A1GKD3NG1NNHRP","img_art/26.jpg","1","","","","","","","","","","","","","","","","","","","","","","","","",""
"null","","html-keyboard-response","255","1151074","0.0-251.0","A1GKD3NG1NNHRP","<p style=""font-size: 48px;"">+</p>","","","","","null","allTrialResponses","500","1","29","img_art/26.jpg","11","colorful and interesting","Diana,Taylor,Lindsey,Vanessa,Megan,Madison","I'm not sure if this is the image of a furniture store or not.,-20,380,20","Makes me want to walk down a cool street,20,340,20","I see a suburban neighborhood with townhouses and trees. Not a fan of the colors or style.,-16,400,20","Something I'd see in a thrift store. It looks like not much effort was used to paint this.,9,380,20","Washed out suburban scene with childish tones.,-24,200,20","Colors look glum; photograph is not properly contrasted and does not reflect the appropriate amount of natural light.,-10,60,20","Madison","Colors look glum; photograph is not properly contrasted and does not reflect the appropriate amount of natural light.,-10,60,20","Lindsey","I see a suburban neighborhood with townhouses and trees. Not a fan of the colors or style.,-16,400,20","Taylor","Makes me want to walk down a cool street,20,340,20","8"
"3445","","survey-text","256","1154525","0.0-252.0-0.0","A1GKD3NG1NNHRP","","","","{""Q0"":""artistic and interesting""}","","","","","","","","","","","","","","","","","","","","","","",""
"1678.699999988079","","image-slider-response","257","1156205","0.0-253.0","A1GKD3NG1NNHRP","","","","","12","","","","","","","","","","","","","","","","","","","","","",""
"null","","image-button-response","258","1161422","0.0-254.0","A1GKD3NG1NNHRP","img_art/14.jpg","null","","","","","","","","","","","","","","","","","","","","","","","","",""
"22516","","image-button-response","259","1183940","0.0-255.0","A1GKD3NG1NNHRP","img_art/14.jpg","2","","","","","","","","","","","","","","","","","","","","","","","","",""
"519","","image-button-response","260","1184460","0.0-256.0-0.0","A1GKD3NG1NNHRP","img_art/14.jpg","1","","","","","","","","","","","","","","","","","","","","","","","","",""
"728","","image-button-response","261","1185189","0.0-257.0-0.0","A1GKD3NG1NNHRP","img_art/14.jpg","0","","","","","","","","","","","","","","","","","","","","","","","","",""
"null","","html-keyboard-response","262","1186690","0.0-258.0","A1GKD3NG1NNHRP","<p style=""font-size: 48px;"">+</p>","","","","","null","allTrialResponses","1500","1","30","img_art/14.jpg","12","artistic and interesting","Savannah,Taylor,Lindsey,Heather,Haley,Madison","Again. This is pretty neutral, leaning dislike.,-18,200,20","Makes me think of my plants growing,11,340,20","Warm, positive, growth.,8,400,20","nice simple art piece,2,260,20","I like the colors in the background, but not the bottom/center. It almost looks sloppy.,-20,220,20","No strong feelings either direction.,-4,60,20","Lindsey","Warm, positive, growth.,8,400,20","Taylor","Makes me think of my plants growing,11,340,20","Savannah","Again. This is pretty neutral, leaning dislike.,-18,200,20","8"
"2707","","image-button-response_instructions","263","1189404","0.0-259.0","A1GKD3NG1NNHRP","","0","instructions","","","","","","","","","","","","","","","","","","","","","","","",""
"1365","","image-button-response","264","1190773","0.0-260.0","A1GKD3NG1NNHRP","","0","","","","","","","","","","","","","","","","","","","","","","","","",""
