"rt","url","trial_type","trial_index","time_elapsed","internal_node_id","participant_id","stimulus","button_pressed","Name","responses","response","key_press","variableName","fixationTime","condition","trial","photo","subjectRating","subjectResponse","agentsNames","agent_1_Response","agent_2_Response","agent_3_Response","agent_4_Response","agent_5_Response","agent_6_Response","kept_1_name","kept_1_response","kept_2_name","kept_2_response","kept_3_name","kept_3_response","errorCounter"
"6158","external_page_harvard.html","external-html","0","6294","0.0-0.0","A1HDD2B9I6D33I","","","","","","","","","","","","","","","","","","","","","","","","","","",""
"1905","","image-button-response","1","8201","0.0-1.0","A1HDD2B9I6D33I","","0","","","","","","","","","","","","","","","","","","","","","","","","",""
"1791","","image-button-response","2","10008","0.0-2.0-0.0","A1HDD2B9I6D33I","","1","phone","","","","","","","","","","","","","","","","","","","","","","","",""
"6225","","survey-text","3","16238","0.0-3.0-0.0","A1HDD2B9I6D33I","","","","{""Q0"":""A1HDD2B9I6D33I""}","","","","","","","","","","","","","","","","","","","","","","",""
"7347","","image-button-response_instructions","4","23586","0.0-4.0","A1HDD2B9I6D33I","","0","instructions","","","","","","","","","","","","","","","","","","","","","","","",""
"12415","","image-button-response_instructions","5","36005","0.0-5.0","A1HDD2B9I6D33I","img_art/ins/popularity/ins1.png","0","instructions","","","","","","","","","","","","","","","","","","","","","","","",""
"8983","","image-button-response_instructions","6","44988","0.0-6.0","A1HDD2B9I6D33I","img_art/ins/popularity/ins2.png","0","instructions","","","","","","","","","","","","","","","","","","","","","","","",""
"6097","","image-button-response_instructions","7","51086","0.0-7.0","A1HDD2B9I6D33I","img_art/ins/popularity/ins2Extreme.png","0","instructions","","","","","","","","","","","","","","","","","","","","","","","",""
"20128","","image-button-response_instructions","8","71217","0.0-8.0","A1HDD2B9I6D33I","img_art/ins/popularity/ins3KEEPpop.PNG","0","instructions","","","","","","","","","","","","","","","","","","","","","","","",""
"2504","","image-button-response_instructions","9","73721","0.0-9.0","A1HDD2B9I6D33I","img_art/ins/popularity/ins3ANamepop.PNG","0","instructions","","","","","","","","","","","","","","","","","","","","","","","",""
"2882","","image-button-response_instructions","10","76603","0.0-10.0","A1HDD2B9I6D33I","img_art/ins/popularity/ins3ARatingpop.png","0","instructions","","","","","","","","","","","","","","","","","","","","","","","",""
"2041","","image-button-response_instructions","11","78646","0.0-11.0","A1HDD2B9I6D33I","img_art/ins/popularity/ins3ATextpop.png","0","instructions","","","","","","","","","","","","","","","","","","","","","","","",""
"4961","","image-button-response_instructions","12","83607","0.0-12.0","A1HDD2B9I6D33I","img_art/ins/popularity/ins3ALikespop.png","0","instructions","","","","","","","","","","","","","","","","","","","","","","","",""
"11594","","image-button-response_instructions","13","95203","0.0-13.0","A1HDD2B9I6D33I","img_art/ins/popularity/ins3KEEPpop.PNG","0","instructions","","","","","","","","","","","","","","","","","","","","","","","",""
"7577","","image-button-response_instructions","14","102781","0.0-14.0","A1HDD2B9I6D33I","img_art/ins/popularity/ins3_5RED.png","0","instructions","","","","","","","","","","","","","","","","","","","","","","","",""
"3813","","image-button-response_instructions","15","106595","0.0-15.0","A1HDD2B9I6D33I","img_art/ins/popularity/ins3KEEPpop.PNG","0","instructions","","","","","","","","","","","","","","","","","","","","","","","",""
"14025","","image-button-response_instructions","16","120621","0.0-16.0","A1HDD2B9I6D33I","img_art/ins/popularity/ins4KEEPpop.PNG","0","instructions","","","","","","","","","","","","","","","","","","","","","","","",""
"6118","","image-button-response_instructions","17","126740","0.0-17.0","A1HDD2B9I6D33I","img_art/ins/popularity/ins5KEEPpop.PNG","0","instructions","","","","","","","","","","","","","","","","","","","","","","","",""
"1516","","image-button-response_instructions","18","128257","0.0-18.0","A1HDD2B9I6D33I","","0","instructions","","","","","","","","","","","","","","","","","","","","","","","",""
"6086","","survey-text","19","134387","0.0-19.0-0.0","A1HDD2B9I6D33I","","","","{""Q0"":""but""}","","","","","","","","","","","","","","","","","","","","","","",""
"37713","","survey-text","20","172101","0.0-20.0-0.0","A1HDD2B9I6D33I","","","","{""Q0"":""I like it, it reminds me of flowing water over a waterfall. I'd prefer darker colors though.""}","","","","","","","","","","","","","","","","","","","","","","",""
"4969.100000023842","","image-slider-response","21","177072","0.0-21.0","A1HDD2B9I6D33I","","","","","9","","","","","","","","","","","","","","","","","","","","","",""
"null","","image-button-response","22","182089","0.0-22.0","A1HDD2B9I6D33I","img_art/ins/1.jpg","null","","","","","","","","","","","","","","","","","","","","","","","","",""
"14828","","image-button-response","23","196918","0.0-23.0","A1HDD2B9I6D33I","img_art/ins/1.jpg","5","","","","","","","","","","","","","","","","","","","","","","","","",""
"3047","","image-button-response","24","199970","0.0-24.0-0.0","A1HDD2B9I6D33I","img_art/ins/1.jpg","3","","","","","","","","","","","","","","","","","","","","","","","","",""
"4041","","image-button-response","25","204012","0.0-25.0-0.0","A1HDD2B9I6D33I","img_art/ins/1.jpg","1","","","","","","","","","","","","","","","","","","","","","","","","",""
"null","","html-keyboard-response","26","205023","0.0-26.0","A1HDD2B9I6D33I","<p style=""font-size: 48px;"">+</p>","","","","","null","allTrialResponses","1000","1","-2","img_art/ins/1.jpg","9","I like it, it reminds me of flowing water over a waterfall. I'd prefer darker colors though.","Adam,Alex,Ben,Carl,Daniel,Jack","Seems like doodles,-20,20,20","very creative work.,36,40,20","This color reminds me of poo,-46,60,20","very calming artwork,42,80,20","It looks like a murder scene.,-48,100,20","I like the sophisticated brushwork,40,120,20","Jack","I like the sophisticated brushwork,40,120,20","Carl","very calming artwork,42,80,20","Alex","very creative work.,36,40,20","0"
"45930","","survey-text","27","250965","0.0-27.0-0.0","A1HDD2B9I6D33I","","","","{""Q0"":""It has intense colors and the square/rectangles remind me of a city scene. I like it's intensity.""}","","","","","","","","","","","","","","","","","","","","","","",""
"3672.7999999523163","","image-slider-response","28","254639","0.0-28.0","A1HDD2B9I6D33I","","","","","24","","","","","","","","","","","","","","","","","","","","","",""
"null","","image-button-response","29","259656","0.0-29.0","A1HDD2B9I6D33I","img_art/ins/2.jpg","null","","","","","","","","","","","","","","","","","","","","","","","","",""
"2134","","image-button-response","30","261792","0.0-30.0","A1HDD2B9I6D33I","img_art/ins/2.jpg","1","","","","","","","","","","","","","","","","","","","","","","","","",""
"4731","","image-button-response","31","266524","0.0-31.0-0.0","A1HDD2B9I6D33I","img_art/ins/2.jpg","3","","","","","","","","","","","","","","","","","","","","","","","","",""
"1500","","image-button-response","32","268026","0.0-32.0-0.0","A1HDD2B9I6D33I","img_art/ins/2.jpg","4","","","","","","","","","","","","","","","","","","","","","","","","",""
"null","","html-keyboard-response","33","268535","0.0-33.0","A1HDD2B9I6D33I","<p style=""font-size: 48px;"">+</p>","","","","","null","allTrialResponses","500","1","-1","img_art/ins/2.jpg","24","It has intense colors and the square/rectangles remind me of a city scene. I like it's intensity.","James,Alex,Kyle,Carl,John,Jack","looks too angry,-50,140,20","I like the blocks of color arrangements,30,40,20","Idk, it is just annoying,-32,180,20","I can feel the artist's passion in it,45,80,20","love the texture of paint,48,160,20","I would never be able to compose a sophisticated pallete like this,48,120,20","Alex","I like the blocks of color arrangements,30,40,20","Carl","I can feel the artist's passion in it,45,80,20","John","love the texture of paint,48,160,20","0"
"26698","","survey-text","34","295241","0.0-34.0-0.0","A1HDD2B9I6D33I","","","","{""Q0"":""It use of negative space appeals to me. I like cold artic feel of the work.""}","","","","","","","","","","","","","","","","","","","","","","",""
"5688.299999952316","","image-slider-response","35","300931","0.0-35.0","A1HDD2B9I6D33I","","","","","26","","","","","","","","","","","","","","","","","","","","","",""
"null","","image-button-response","36","305934","0.0-36.0","A1HDD2B9I6D33I","img_art/ins/3.jpg","null","","","","","","","","","","","","","","","","","","","","","","","","",""
"615","","image-button-response","37","306550","0.0-37.0","A1HDD2B9I6D33I","img_art/ins/3.jpg","1","","","","","","","","","","","","","","","","","","","","","","","","",""
"6818","","image-button-response","38","313370","0.0-38.0-0.0","A1HDD2B9I6D33I","img_art/ins/3.jpg","0","","","","","","","","","","","","","","","","","","","","","","","","",""
"1519","","image-button-response","39","314890","0.0-39.0-0.0","A1HDD2B9I6D33I","img_art/ins/3.jpg","0","","","","","","","","","","","","","","","","","","","","","","","","",""
"2751","","image-button-response","40","321090","0.0-39.1-0.1","A1HDD2B9I6D33I","img_art/ins/3.jpg","4","","","","","","","","","","","","","","","","","","","","","","","","",""
"null","","html-keyboard-response","41","322594","0.0-40.0","A1HDD2B9I6D33I","<p style=""font-size: 48px;"">+</p>","","","","","null","allTrialResponses","1500","1","0","img_art/ins/3.jpg","26","It use of negative space appeals to me. I like cold artic feel of the work.","Mike,Alex,Ron,Carl,John,Sam","enjoy the different shades of blue,22,200,20","calming blue is very nice,36,40,20","It looks depressing,-26,220,20","It's an alright work,15,80,20","I like the overlapping of brushes,41,160,20","I can feel a rainy day from this painting,18,240,20","Alex","calming blue is very nice,36,40,20","Mike","enjoy the different shades of blue,22,200,20","John","I like the overlapping of brushes,41,160,20","2"
"3329","","image-button-response_instructions","42","325938","0.0-41.0","A1HDD2B9I6D33I","","0","instructions","","","","","","","","","","","","","","","","","","","","","","","",""
"11385","","survey-likert","43","337325","0.0-42.0-0.0","A1HDD2B9I6D33I","","","","{""Q0"":"""",""Q1"":0,""Q2"":1}","","","","","","","","","","","","","","","","","","","","","","",""
"4438","","survey-text","44","341774","0.0-43.0-0.0","A1HDD2B9I6D33I","","","","{""Q0"":""rock""}","","","","","","","","","","","","","","","","","","","","","","",""
"33477","","survey-text","45","375254","0.0-44.0-0.0","A1HDD2B9I6D33I","","","","{""Q0"":""I like it, it reminds me of a battle scene out side afterwards as the smoke settles""}","","","","","","","","","","","","","","","","","","","","","","",""
"4548.800000071526","","image-slider-response","46","379804","0.0-45.0","A1HDD2B9I6D33I","","","","","26","","","","","","","","","","","","","","","","","","","","","",""
"null","","image-button-response","47","384821","0.0-46.0","A1HDD2B9I6D33I","img_art/21.jpg","null","","","","","","","","","","","","","","","","","","","","","","","","",""
"7247","","image-button-response","48","392070","0.0-47.0","A1HDD2B9I6D33I","img_art/21.jpg","3","","","","","","","","","","","","","","","","","","","","","","","","",""
"5685","","image-button-response","49","397756","0.0-48.0-0.0","A1HDD2B9I6D33I","img_art/21.jpg","0","","","","","","","","","","","","","","","","","","","","","","","","",""
"3606","","image-button-response","50","401364","0.0-49.0-0.0","A1HDD2B9I6D33I","img_art/21.jpg","2","","","","","","","","","","","","","","","","","","","","","","","","",""
"null","","html-keyboard-response","51","401881","0.0-50.0","A1HDD2B9I6D33I","<p style=""font-size: 48px;"">+</p>","","","","","null","allTrialResponses","500","1","1","img_art/21.jpg","26","I like it, it reminds me of a battle scene out side afterwards as the smoke settles","Devin,Justin,Hunter,Steven,Bradley,Cameron","Evokes a strong colorful sense,8,380,20","Alright. I like the colors.,5,280,20","feels like a harbor scene,11,240,20","Okay, I love the color schemes, I can't quite figure it out though,14,160,20","Indifferent toward this one.,6,300,20","Like the colors. Don't like the white dots on the right side of the painting though.,15,60,20","Steven","Okay, I love the color schemes, I can't quite figure it out though,14,160,20","Devin","Evokes a strong colorful sense,8,380,20","Hunter","feels like a harbor scene,11,240,20","2"
"46275","","survey-text","52","448163","0.0-51.0-0.0","A1HDD2B9I6D33I","","","","{""Q0"":""This is middle of the road to me. It looks like the interstates outside a city, though the white sky is the only part  that I find transcendental. ""}","","","","","","","","","","","","","","","","","","","","","","",""
"6445","","image-slider-response","53","454609","0.0-52.0","A1HDD2B9I6D33I","","","","","4","","","","","","","","","","","","","","","","","","","","","",""
"null","","image-button-response","54","459623","0.0-53.0","A1HDD2B9I6D33I","img_art/11.jpg","null","","","","","","","","","","","","","","","","","","","","","","","","",""
"3796","","image-button-response","55","463421","0.0-54.0","A1HDD2B9I6D33I","img_art/11.jpg","4","","","","","","","","","","","","","","","","","","","","","","","","",""
"2252","","image-button-response","56","465674","0.0-55.0-0.0","A1HDD2B9I6D33I","img_art/11.jpg","2","","","","","","","","","","","","","","","","","","","","","","","","",""
"3829","","image-button-response","57","469506","0.0-56.0-0.0","A1HDD2B9I6D33I","img_art/11.jpg","0","","","","","","","","","","","","","","","","","","","","","","","","",""
"null","","html-keyboard-response","58","470507","0.0-57.0","A1HDD2B9I6D33I","<p style=""font-size: 48px;"">+</p>","","","","","null","allTrialResponses","1000","1","2","img_art/11.jpg","4","This is middle of the road to me. It looks like the interstates outside a city, though the white sky is the only part  that I find transcendental. ","Devin,Ryan,Hunter,Steven,Isaiah,Evan","I like the vibe of the painting,-3,380,20","It makes me feel angry and overwhelmed,-29,380,20","reminds me of home,5,240,20","Oh, I love this one, it says to me that life is very busy,50,160,20","I feel excited, like I'm in the middle of a bustling city.,26,300,20","I dislike how dark this is,-21,140,20","Isaiah","I feel excited, like I'm in the middle of a bustling city.,26,300,20","Hunter","reminds me of home,5,240,20","Devin","I like the vibe of the painting,-3,380,20","2"
"21643","","survey-text","59","492159","0.0-58.0-0.0","A1HDD2B9I6D33I","","","","{""Q0"":""I don't like this one, I feel passion but it looks like the artist just threw paint at a canvas.""}","","","","","","","","","","","","","","","","","","","","","","",""
"11224.899999976158","","image-slider-response","60","503385","0.0-59.0","A1HDD2B9I6D33I","","","","","-18","","","","","","","","","","","","","","","","","","","","","",""
"null","","image-button-response","61","508396","0.0-60.0","A1HDD2B9I6D33I","img_art/3.jpg","null","","","","","","","","","","","","","","","","","","","","","","","","",""
"6172","","image-button-response","62","514570","0.0-61.0","A1HDD2B9I6D33I","img_art/3.jpg","4","","","","","","","","","","","","","","","","","","","","","","","","",""
"1298","","image-button-response","63","515870","0.0-62.0-0.0","A1HDD2B9I6D33I","img_art/3.jpg","5","","","","","","","","","","","","","","","","","","","","","","","","",""
"2124","","image-button-response","64","517996","0.0-63.0-0.0","A1HDD2B9I6D33I","img_art/3.jpg","0","","","","","","","","","","","","","","","","","","","","","","","","",""
"null","","html-keyboard-response","65","519006","0.0-64.0","A1HDD2B9I6D33I","<p style=""font-size: 48px;"">+</p>","","","","","null","allTrialResponses","1000","1","3","img_art/3.jpg","-18","I don't like this one, I feel passion but it looks like the artist just threw paint at a canvas.","Devin,Dalton,Hunter,Shane,Isaiah,James","Scribbly a bit too much,-30,380,20","Blood splatter and one black spot.,1,300,20","strong color, interesting negative shapes,21,240,20","Too much red or blood,-28,80,20","I feel uncomfortable, like I am looking at a crime scene.,-17,300,20","It's very plain,-20,380,20","Isaiah","I feel uncomfortable, like I am looking at a crime scene.,-17,300,20","James","It's very plain,-20,380,20","Devin","Scribbly a bit too much,-30,380,20","2"
"30069","","survey-text","66","549081","0.0-65.0-0.0","A1HDD2B9I6D33I","","","","{""Q0"":""It looks like paint splattered on a picture of a bathroom drain pipe. This doesn't do much for me.""}","","","","","","","","","","","","","","","","","","","","","","",""
"4504.100000023842","","image-slider-response","67","553587","0.0-66.0","A1HDD2B9I6D33I","","","","","-11","","","","","","","","","","","","","","","","","","","","","",""
"null","","image-button-response","68","558602","0.0-67.0","A1HDD2B9I6D33I","img_art/13.jpg","null","","","","","","","","","","","","","","","","","","","","","","","","",""
"5519","","image-button-response","69","564123","0.0-68.0","A1HDD2B9I6D33I","img_art/13.jpg","0","","","","","","","","","","","","","","","","","","","","","","","","",""
"8790","","image-button-response","70","572914","0.0-69.0-0.0","A1HDD2B9I6D33I","img_art/13.jpg","2","","","","","","","","","","","","","","","","","","","","","","","","",""
"6309","","image-button-response","71","579225","0.0-70.0-0.0","A1HDD2B9I6D33I","img_art/13.jpg","3","","","","","","","","","","","","","","","","","","","","","","","","",""
"null","","html-keyboard-response","72","580727","0.0-71.0","A1HDD2B9I6D33I","<p style=""font-size: 48px;"">+</p>","","","","","null","allTrialResponses","1500","1","4","img_art/13.jpg","-11","It looks like paint splattered on a picture of a bathroom drain pipe. This doesn't do much for me.","Devin,Edward,Charles,Alexander,Isaiah,James","Really love the colors,11,380,20","The colors are really pretty together,39,60,20","It's like a pattern on a bus seat,10,100,20","Seeing the world through different lenses.,15,120,20","The painting makes me feel awe and like I am very little. Like I am alone at the bottom of the ocean.,41,300,20","This is a very cool painting, something an art teacher or professor would own.,22,380,20","Devin","Really love the colors,11,380,20","Charles","It's like a pattern on a bus seat,10,100,20","Alexander","Seeing the world through different lenses.,15,120,20","2"
"40055","","survey-text","73","620794","0.0-72.0-0.0","A1HDD2B9I6D33I","","","","{""Q0"":""This does nothing for me, teddy bears contrasted with a gun shouts look at me I'm an artist.""}","","","","","","","","","","","","","","","","","","","","","","",""
"3443.7999999523163","","image-slider-response","74","624239","0.0-73.0","A1HDD2B9I6D33I","","","","","-34","","","","","","","","","","","","","","","","","","","","","",""
"3155","","image-button-response","75","629241","0.0-74.0","A1HDD2B9I6D33I","img_art/16.jpg","0","","","","","","","","","","","","","","","","","","","","","","","","",""
"5211","","image-button-response","76","634454","0.0-75.0","A1HDD2B9I6D33I","img_art/16.jpg","4","","","","","","","","","","","","","","","","","","","","","","","","",""
"1506","","image-button-response","77","635961","0.0-76.0-0.0","A1HDD2B9I6D33I","img_art/16.jpg","0","","","","","","","","","","","","","","","","","","","","","","","","",""
"3956","","image-button-response","78","639919","0.0-77.0-0.0","A1HDD2B9I6D33I","img_art/16.jpg","2","","","","","","","","","","","","","","","","","","","","","","","","",""
"null","","html-keyboard-response","79","641431","0.0-78.0","A1HDD2B9I6D33I","<p style=""font-size: 48px;"">+</p>","","","","","null","allTrialResponses","1500","1","5","img_art/16.jpg","-34","This does nothing for me, teddy bears contrasted with a gun shouts look at me I'm an artist.","Devin,Ethan,Charles,Alexander,Trevor,Brendan","That bear looks unfitting!,-8,380,20","This is a neat piece. Sort of shocking. I think it's too monochromatic though.,19,120,20","Weird and creepy,-30,100,20","Strange and bleak.,-20,120,20","very creepy with a bear and a gun,-50,280,20","cool teddy bear,50,340,20","Trevor","very creepy with a bear and a gun,-50,280,20","Devin","That bear looks unfitting!,-8,380,20","Charles","Weird and creepy,-30,100,20","2"
"4845","","survey-text","80","646291","0.0-79.0-0.0","A1HDD2B9I6D33I","","","","{""Q0"":""sky""}","","","","","","","","","","","","","","","","","","","","","","",""
"42829","","survey-text","81","689121","0.0-80.0-0.0","A1HDD2B9I6D33I","","","","{""Q0"":""This seems like a graduate art students submission of their weekend at the city docks. Technically okay, not inspired.""}","","","","","","","","","","","","","","","","","","","","","","",""
"3009.5","","image-slider-response","82","692135","0.0-81.0","A1HDD2B9I6D33I","","","","","4","","","","","","","","","","","","","","","","","","","","","",""
"null","","image-button-response","83","697147","0.0-82.0","A1HDD2B9I6D33I","img_art/19.jpg","null","","","","","","","","","","","","","","","","","","","","","","","","",""
"7424","","image-button-response","84","704572","0.0-83.0","A1HDD2B9I6D33I","img_art/19.jpg","5","","","","","","","","","","","","","","","","","","","","","","","","",""
"2616","","image-button-response","85","707189","0.0-84.0-0.0","A1HDD2B9I6D33I","img_art/19.jpg","1","","","","","","","","","","","","","","","","","","","","","","","","",""
"1594","","image-button-response","86","708786","0.0-85.0-0.0","A1HDD2B9I6D33I","img_art/19.jpg","0","","","","","","","","","","","","","","","","","","","","","","","","",""
"null","","html-keyboard-response","87","709292","0.0-86.0","A1HDD2B9I6D33I","<p style=""font-size: 48px;"">+</p>","","","","","null","allTrialResponses","500","1","6","img_art/19.jpg","4","This seems like a graduate art students submission of their weekend at the city docks. Technically okay, not inspired.","Devin,Kyle,Charles,Stephen,Trevor,Benjamin","Looks a bit too loose,-2,380,20","Just stirred a negative reaction. Don't really like it perhaps because of the structure?,-8,340,20","The blue makes it look like it has depth,11,100,20","Solid use of colors but wished it looked more realistic.,12,140,20","i like the colors and the way it looks like an actual scene,18,280,20","Reminds me of a busy village.,16,260,20","Benjamin","Reminds me of a busy village.,16,260,20","Kyle","Just stirred a negative reaction. Don't really like it perhaps because of the structure?,-8,340,20","Devin","Looks a bit too loose,-2,380,20","2"
"19300","","survey-text","88","728594","0.0-87.0-0.0","A1HDD2B9I6D33I","","","","{""Q0"":""Too sparse, I don't like it. It doesn't say much to me.""}","","","","","","","","","","","","","","","","","","","","","","",""
"3249.8000000715256","","image-slider-response","89","731845","0.0-88.0","A1HDD2B9I6D33I","","","","","-21","","","","","","","","","","","","","","","","","","","","","",""
"3318","","image-button-response","90","736847","0.0-89.0","A1HDD2B9I6D33I","img_art/6.jpg","0","","","","","","","","","","","","","","","","","","","","","","","","",""
"2962","","image-button-response","91","739811","0.0-90.0","A1HDD2B9I6D33I","img_art/6.jpg","4","","","","","","","","","","","","","","","","","","","","","","","","",""
"1338","","image-button-response","92","741151","0.0-91.0-0.0","A1HDD2B9I6D33I","img_art/6.jpg","0","","","","","","","","","","","","","","","","","","","","","","","","",""
"9106","","image-button-response","93","750258","0.0-92.0-0.0","A1HDD2B9I6D33I","img_art/6.jpg","2","","","","","","","","","","","","","","","","","","","","","","","","",""
"null","","html-keyboard-response","94","750764","0.0-93.0","A1HDD2B9I6D33I","<p style=""font-size: 48px;"">+</p>","","","","","null","allTrialResponses","500","1","7","img_art/6.jpg","-21","Too sparse, I don't like it. It doesn't say much to me.","Devin,Kyle,Anthony,Victor,Lucas,Benjamin","Looks a bit like a pickle or something?,-16,380,20","Simple and clean,11,340,20","I am neutral towards this piece.,0,200,20","The background on the upper half is nice. I also like the contrast of the top and bottom halves,5,340,20","Nothing special.,-20,380,20","Something very simplistic about it. The colors mesh well.,10,260,20","Lucas","Nothing special.,-20,380,20","Devin","Looks a bit like a pickle or something?,-16,380,20","Anthony","I am neutral towards this piece.,0,200,20","2"
"33097","","survey-text","95","783863","0.0-94.0-0.0","A1HDD2B9I6D33I","","","","{""Q0"":""I like the complexity of the color background, the white flirts with being a chorus line. Interesting piece.""}","","","","","","","","","","","","","","","","","","","","","","",""
"4368.600000023842","","image-slider-response","96","788233","0.0-95.0","A1HDD2B9I6D33I","","","","","21","","","","","","","","","","","","","","","","","","","","","",""
"3832","","image-button-response","97","793238","0.0-96.0","A1HDD2B9I6D33I","img_art/23.jpg","4","","","","","","","","","","","","","","","","","","","","","","","","",""
"1696","","image-button-response","98","794935","0.0-97.0","A1HDD2B9I6D33I","img_art/23.jpg","4","","","","","","","","","","","","","","","","","","","","","","","","",""
"5291","","image-button-response","99","800228","0.0-98.0-0.0","A1HDD2B9I6D33I","img_art/23.jpg","0","","","","","","","","","","","","","","","","","","","","","","","","",""
"9809","","image-button-response","100","810041","0.0-99.0-0.0","A1HDD2B9I6D33I","img_art/23.jpg","2","","","","","","","","","","","","","","","","","","","","","","","","",""
"null","","html-keyboard-response","101","811057","0.0-100.0","A1HDD2B9I6D33I","<p style=""font-size: 48px;"">+</p>","","","","","null","allTrialResponses","1000","1","8","img_art/23.jpg","21","I like the complexity of the color background, the white flirts with being a chorus line. Interesting piece.","Devin,Nathaniel,Anthony,Logan,Lucas,Shawn","background is great but the white is a bit weird,3,380,20","Not a fan of these dot pieces. They hurt my eyes.,-25,220,20","The cluster of white silhouettes against the colorful background makes me feel uneasy for some reason,-36,200,20","This looks like the cover art for a scene band,-29,360,20","Shocked, beautiful.,20,380,20","Poster shop camp.,-40,100,20","Lucas","Shocked, beautiful.,20,380,20","Devin","background is great but the white is a bit weird,3,380,20","Anthony","The cluster of white silhouettes against the colorful background makes me feel uneasy for some reason,-36,200,20","2"
"27550","","survey-text","102","838611","0.0-101.0-0.0","A1HDD2B9I6D33I","","","","{""Q0"":""That has some primordial religious service at a pagan temple feel. I like it.""}","","","","","","","","","","","","","","","","","","","","","","",""
"5852.5","","image-slider-response","103","844466","0.0-102.0","A1HDD2B9I6D33I","","","","","16","","","","","","","","","","","","","","","","","","","","","",""
"4298","","image-button-response","104","849467","0.0-103.0","A1HDD2B9I6D33I","img_art/25.jpg","1","","","","","","","","","","","","","","","","","","","","","","","","",""
"3230","","image-button-response","105","852698","0.0-104.0","A1HDD2B9I6D33I","img_art/25.jpg","4","","","","","","","","","","","","","","","","","","","","","","","","",""
"1306","","image-button-response","106","854006","0.0-105.0-0.0","A1HDD2B9I6D33I","img_art/25.jpg","1","","","","","","","","","","","","","","","","","","","","","","","","",""
"5871","","image-button-response","107","859878","0.0-106.0-0.0","A1HDD2B9I6D33I","img_art/25.jpg","2","","","","","","","","","","","","","","","","","","","","","","","","",""
"null","","html-keyboard-response","108","860882","0.0-107.0","A1HDD2B9I6D33I","<p style=""font-size: 48px;"">+</p>","","","","","null","allTrialResponses","1000","1","9","img_art/25.jpg","16","That has some primordial religious service at a pagan temple feel. I like it.","Devin,Caleb,Anthony,Corey,Lucas,Cody","It looks a bit strange to me, neck too long,-19,380,20","Very cool color, very clear message!,50,40,20","Spooky, but in a good way. I like the green and black color palette.,42,200,20","love the color and the contrast of the black on teal,50,260,20","Well-designed, interesting.,30,380,20","Like the colors and the figure,30,180,20","Lucas","Well-designed, interesting.,30,380,20","Caleb","Very cool color, very clear message!,50,40,20","Anthony","Spooky, but in a good way. I like the green and black color palette.,42,200,20","2"
"49031","","survey-text","109","909916","0.0-108.0-0.0","A1HDD2B9I6D33I","","","","{""Q0"":""This looks like an impressionism scene across someone's bedroom. I like the colors and shapes and composition.""}","","","","","","","","","","","","","","","","","","","","","","",""
"3117.5","","image-slider-response","110","913035","0.0-109.0","A1HDD2B9I6D33I","","","","","22","","","","","","","","","","","","","","","","","","","","","",""
"2836","","image-button-response","111","918037","0.0-110.0","A1HDD2B9I6D33I","img_art/22.jpg","0","","","","","","","","","","","","","","","","","","","","","","","","",""
"4255","","image-button-response","112","922294","0.0-111.0","A1HDD2B9I6D33I","img_art/22.jpg","2","","","","","","","","","","","","","","","","","","","","","","","","",""
"1243","","image-button-response","113","923539","0.0-112.0-0.0","A1HDD2B9I6D33I","img_art/22.jpg","0","","","","","","","","","","","","","","","","","","","","","","","","",""
"4800","","image-button-response","114","928341","0.0-113.0-0.0","A1HDD2B9I6D33I","img_art/22.jpg","5","","","","","","","","","","","","","","","","","","","","","","","","",""
"null","","html-keyboard-response","115","929842","0.0-114.0","A1HDD2B9I6D33I","<p style=""font-size: 48px;"">+</p>","","","","","null","allTrialResponses","1500","1","10","img_art/22.jpg","22","This looks like an impressionism scene across someone's bedroom. I like the colors and shapes and composition.","Angel,Caleb,Anthony,Mitchell,Lucas,Dakota","This piece gives off a cool vibe. Reminds me of being out in the city at night.,20,180,20","Seems too simple.,-19,40,20","Colors are subdued yet vibrant,30,200,20","Scary monsters lurking causing confusion.,-40,180,20","Unfortunately, I can't see anything special in this painting.,-20,380,20","muddy and rough,14,280,20","Anthony","Colors are subdued yet vibrant,30,200,20","Angel","This piece gives off a cool vibe. Reminds me of being out in the city at night.,20,180,20","Dakota","muddy and rough,14,280,20","2"
"5154","","survey-text","116","935005","0.0-115.0-0.0","A1HDD2B9I6D33I","","","","{""Q0"":""our""}","","","","","","","","","","","","","","","","","","","","","","",""
"21693","","survey-text","117","956699","0.0-116.0-0.0","A1HDD2B9I6D33I","","","","{""Q0"":""That looks like father time in the woods, complex. I like it.""}","","","","","","","","","","","","","","","","","","","","","","",""
"3787.7999999523163","","image-slider-response","118","960488","0.0-117.0","A1HDD2B9I6D33I","","","","","17","","","","","","","","","","","","","","","","","","","","","",""
"null","","image-button-response","119","965503","0.0-118.0","A1HDD2B9I6D33I","img_art/17.jpg","null","","","","","","","","","","","","","","","","","","","","","","","","",""
"2580","","image-button-response","120","968084","0.0-119.0","A1HDD2B9I6D33I","img_art/17.jpg","3","","","","","","","","","","","","","","","","","","","","","","","","",""
"6891","","image-button-response","121","974977","0.0-120.0-0.0","A1HDD2B9I6D33I","img_art/17.jpg","2","","","","","","","","","","","","","","","","","","","","","","","","",""
"3355","","image-button-response","122","978334","0.0-121.0-0.0","A1HDD2B9I6D33I","img_art/17.jpg","1","","","","","","","","","","","","","","","","","","","","","","","","",""
"null","","html-keyboard-response","123","979335","0.0-122.0","A1HDD2B9I6D33I","<p style=""font-size: 48px;"">+</p>","","","","","null","allTrialResponses","1000","1","11","img_art/17.jpg","17","That looks like father time in the woods, complex. I like it.","Angel,Garrett,Anthony,Bryan,Elijah,Dakota","Reminds me of the modern art museum in Rome. I didn't ""get"" many pieces, but had a positive cultural experience overall.,20,180,20","I like the way the colors were used behind the tree. Makes the image colorful and interesting.,30,180,20","Very elegant, this design reminds me of trees,31,200,20","Reminds me of winters in Minnesota.,48,400,20","Very cool, makes me feel calm,43,80,20","home - reminds me of fond memories of the Barnes Museum courtyard (looks just like it),30,280,20","Bryan","Reminds me of winters in Minnesota.,48,400,20","Anthony","Very elegant, this design reminds me of trees,31,200,20","Garrett","I like the way the colors were used behind the tree. Makes the image colorful and interesting.,30,180,20","2"
"18176","","survey-text","124","997517","0.0-123.0-0.0","A1HDD2B9I6D33I","","","","{""Q0"":""This doesn't say much to me, I am not inspired by the colors.""}","","","","","","","","","","","","","","","","","","","","","","",""
"2860.5999999046326","","image-slider-response","125","1000379","0.0-124.0","A1HDD2B9I6D33I","","","","","-10","","","","","","","","","","","","","","","","","","","","","",""
"1766","","image-button-response","126","1005380","0.0-125.0","A1HDD2B9I6D33I","img_art/2.jpg","0","","","","","","","","","","","","","","","","","","","","","","","","",""
"345","","image-button-response","127","1005727","0.0-126.0","A1HDD2B9I6D33I","img_art/2.jpg","5","","","","","","","","","","","","","","","","","","","","","","","","",""
"1581","","image-button-response","128","1007309","0.0-127.0-0.0","A1HDD2B9I6D33I","img_art/2.jpg","0","","","","","","","","","","","","","","","","","","","","","","","","",""
"1827","","image-button-response","129","1009137","0.0-128.0-0.0","A1HDD2B9I6D33I","img_art/2.jpg","2","","","","","","","","","","","","","","","","","","","","","","","","",""
"null","","html-keyboard-response","130","1009651","0.0-129.0","A1HDD2B9I6D33I","<p style=""font-size: 48px;"">+</p>","","","","","null","allTrialResponses","500","1","12","img_art/2.jpg","-10","This doesn't say much to me, I am not inspired by the colors.","Jeremy,Garrett,Anthony,Bryan,Isaac,Devon","Unhappy. I do not like it,-5,60,20","I like this picture a little because the colors make it look a little vibrant.,10,180,20","Ugly color scheme,-50,200,20","Like the colors but reminds me of a kids show done in cubism.,0,400,20","Not sure what is happening. I'm not a big fan of the colors but they don't bother me either.,1,280,20","another confusing piece of art,-12,400,20","Devon","another confusing piece of art,-12,400,20","Jeremy","Unhappy. I do not like it,-5,60,20","Anthony","Ugly color scheme,-50,200,20","2"
"25049","","survey-text","131","1034703","0.0-130.0-0.0","A1HDD2B9I6D33I","","","","{""Q0"":""This is middle of the road, I like the dark colors background. The center looks like a mush.""}","","","","","","","","","","","","","","","","","","","","","","",""
"4358.5","","image-slider-response","132","1039063","0.0-131.0","A1HDD2B9I6D33I","","","","","-3","","","","","","","","","","","","","","","","","","","","","",""
"4007","","image-button-response","133","1044065","0.0-132.0","A1HDD2B9I6D33I","img_art/9.jpg","1","","","","","","","","","","","","","","","","","","","","","","","","",""
"5077","","image-button-response","134","1049143","0.0-133.0","A1HDD2B9I6D33I","img_art/9.jpg","5","","","","","","","","","","","","","","","","","","","","","","","","",""
"1729","","image-button-response","135","1050873","0.0-134.0-0.0","A1HDD2B9I6D33I","img_art/9.jpg","1","","","","","","","","","","","","","","","","","","","","","","","","",""
"2505","","image-button-response","136","1053379","0.0-135.0-0.0","A1HDD2B9I6D33I","img_art/9.jpg","2","","","","","","","","","","","","","","","","","","","","","","","","",""
"null","","html-keyboard-response","137","1053886","0.0-136.0","A1HDD2B9I6D33I","<p style=""font-size: 48px;"">+</p>","","","","","null","allTrialResponses","500","1","13","img_art/9.jpg","-3","This is middle of the road, I like the dark colors background. The center looks like a mush.","Jeremy,Thomas,Anthony,Brett,Andrew,Devon","I feel this incites anger,-16,60,20","I don't like the picture, but it wouldn't surprise me if someone did,-20,220,20","This piece is very boring to look at.,-27,200,20","Peaceful dreaming,40,360,20","The peacock theme gives me negative connotations of my ex-sister-in-law,-10,160,20","this looks to be a child nightmare,-10,400,20","Devon","this looks to be a child nightmare,-10,400,20","Thomas","I don't like the picture, but it wouldn't surprise me if someone did,-20,220,20","Anthony","This piece is very boring to look at.,-27,200,20","2"
"21892","","survey-text","138","1075781","0.0-137.0-0.0","A1HDD2B9I6D33I","","","","{""Q0"":""This is complex, death on a horse? Who following him on a journey. I like this one.""}","","","","","","","","","","","","","","","","","","","","","","",""
"3332.7999999523163","","image-slider-response","139","1079115","0.0-138.0","A1HDD2B9I6D33I","","","","","26","","","","","","","","","","","","","","","","","","","","","",""
"null","","image-button-response","140","1084117","0.0-139.0","A1HDD2B9I6D33I","img_art/18.jpg","null","","","","","","","","","","","","","","","","","","","","","","","","",""
"955","","image-button-response","141","1085073","0.0-140.0","A1HDD2B9I6D33I","img_art/18.jpg","3","","","","","","","","","","","","","","","","","","","","","","","","",""
"40195","","image-button-response","142","1125270","0.0-141.0-0.0","A1HDD2B9I6D33I","img_art/18.jpg","0","","","","","","","","","","","","","","","","","","","","","","","","",""
"1162","","image-button-response","143","1126434","0.0-142.0-0.0","A1HDD2B9I6D33I","img_art/18.jpg","5","","","","","","","","","","","","","","","","","","","","","","","","",""
"null","","html-keyboard-response","144","1127435","0.0-143.0","A1HDD2B9I6D33I","<p style=""font-size: 48px;"">+</p>","","","","","null","allTrialResponses","1000","1","14","img_art/18.jpg","26","This is complex, death on a horse? Who following him on a journey. I like this one.","Grant,Thomas,Anthony,Mark,Vincent,Devon","This is a very energetic painting, and brings to mind scenes of battle.,50,200,20","I could stare at this for long stretches of time and still find new details. I love it.,40,220,20","I have no strong feelings about this image,1,200,20","I see an artistic representation of the riding of last of the four horseman. Its stunning.,45,80,20","Very conversational and can see many different looks and feels from this .,34,360,20","I really like this one - there seems to be a story behind it,32,400,20","Mark","I see an artistic representation of the riding of last of the four horseman. Its stunning.,45,80,20","Grant","This is a very energetic painting, and brings to mind scenes of battle.,50,200,20","Devon","I really like this one - there seems to be a story behind it,32,400,20","2"
"26038","","survey-text","145","1153479","0.0-144.0-0.0","A1HDD2B9I6D33I","","","","{""Q0"":""This is some some sort of melding of the edge of town. I have middling feelings about it.""}","","","","","","","","","","","","","","","","","","","","","","",""
"2282.399999976158","","image-slider-response","146","1155763","0.0-145.0","A1HDD2B9I6D33I","","","","","4","","","","","","","","","","","","","","","","","","","","","",""
"1893","","image-button-response","147","1160780","0.0-146.0","A1HDD2B9I6D33I","img_art/20.jpg","0","","","","","","","","","","","","","","","","","","","","","","","","",""
"8011","","image-button-response","148","1168793","0.0-147.0","A1HDD2B9I6D33I","img_art/20.jpg","4","","","","","","","","","","","","","","","","","","","","","","","","",""
"1481","","image-button-response","149","1170276","0.0-148.0-0.0","A1HDD2B9I6D33I","img_art/20.jpg","0","","","","","","","","","","","","","","","","","","","","","","","","",""
"4160","","image-button-response","150","1174437","0.0-149.0-0.0","A1HDD2B9I6D33I","img_art/20.jpg","1","","","","","","","","","","","","","","","","","","","","","","","","",""
"null","","html-keyboard-response","151","1175946","0.0-150.0","A1HDD2B9I6D33I","<p style=""font-size: 48px;"">+</p>","","","","","null","allTrialResponses","1500","1","15","img_art/20.jpg","4","This is some some sort of melding of the edge of town. I have middling feelings about it.","Grant,Seth,Blake,Mark,Chase,Devon","This elicits no reaction in me.,0,200,20","I'm not sure why this reminds me of surrealism. It might be the colors used.,16,60,20","reminds me of a dead animal in the west. ugly,-25,280,20","Reminds me of persistance of time (a favorite of mine).,30,80,20","Looks like a refinery dumping shit into the water.,-40,120,20","i can feel the intensity in this,11,400,20","Chase","Looks like a refinery dumping shit into the water.,-40,120,20","Grant","This elicits no reaction in me.,0,200,20","Seth","I'm not sure why this reminds me of surrealism. It might be the colors used.,16,60,20","2"
"4729","","survey-text","152","1180684","0.0-151.0-0.0","A1HDD2B9I6D33I","","","","{""Q0"":""course""}","","","","","","","","","","","","","","","","","","","","","","",""
"23640","","survey-text","153","1204325","0.0-152.0-0.0","A1HDD2B9I6D33I","","","","{""Q0"":""This is complex, eyes and faces and building walls. I like it.""}","","","","","","","","","","","","","","","","","","","","","","",""
"2884.399999976158","","image-slider-response","154","1207211","0.0-153.0","A1HDD2B9I6D33I","","","","","19","","","","","","","","","","","","","","","","","","","","","",""
"2764","","image-button-response","155","1212214","0.0-154.0","A1HDD2B9I6D33I","img_art/8.jpg","0","","","","","","","","","","","","","","","","","","","","","","","","",""
"4410","","image-button-response","156","1216626","0.0-155.0","A1HDD2B9I6D33I","img_art/8.jpg","3","","","","","","","","","","","","","","","","","","","","","","","","",""
"3811","","image-button-response","157","1220438","0.0-156.0-0.0","A1HDD2B9I6D33I","img_art/8.jpg","0","","","","","","","","","","","","","","","","","","","","","","","","",""
"6884","","image-button-response","158","1227324","0.0-157.0-0.0","A1HDD2B9I6D33I","img_art/8.jpg","4","","","","","","","","","","","","","","","","","","","","","","","","",""
"null","","html-keyboard-response","159","1227829","0.0-158.0","A1HDD2B9I6D33I","<p style=""font-size: 48px;"">+</p>","","","","","null","allTrialResponses","500","1","16","img_art/8.jpg","19","This is complex, eyes and faces and building walls. I like it.","Grant,Seth,Colton,Nathan,Chase,Jeffrey","The stylized faces remind me of German expressionism in a very good way.,40,200,20","I don't care for the piece, but I appreciate the talent that it took to create it.,22,60,20","looks like an aerial view, very pretty,32,220,20","Enjoy this, it looks like a rushing water pool, surrounded by mountains and buildings, hiding details such as faces.,30,200,20","This is kind of neat. I really like how things are oriented and the shapes used.,18,120,20","Very busy, I want to look at it and investigate,23,40,20","Nathan","Enjoy this, it looks like a rushing water pool, surrounded by mountains and buildings, hiding details such as faces.,30,200,20","Grant","The stylized faces remind me of German expressionism in a very good way.,40,200,20","Chase","This is kind of neat. I really like how things are oriented and the shapes used.,18,120,20","2"
"24871","","survey-text","160","1252703","0.0-159.0-0.0","A1HDD2B9I6D33I","","","","{""Q0"":""I like the rushing of water over a green background. It has a woodsy feel.""}","","","","","","","","","","","","","","","","","","","","","","",""
"3956.600000023842","","image-slider-response","161","1256661","0.0-160.0","A1HDD2B9I6D33I","","","","","11","","","","","","","","","","","","","","","","","","","","","",""
"null","","image-button-response","162","1261663","0.0-161.0","A1HDD2B9I6D33I","img_art/24.jpg","null","","","","","","","","","","","","","","","","","","","","","","","","",""
"1971","","image-button-response","163","1263636","0.0-162.0","A1HDD2B9I6D33I","img_art/24.jpg","3","","","","","","","","","","","","","","","","","","","","","","","","",""
"2860","","image-button-response","164","1266498","0.0-163.0-0.0","A1HDD2B9I6D33I","img_art/24.jpg","4","","","","","","","","","","","","","","","","","","","","","","","","",""
"1042","","image-button-response","165","1267542","0.0-164.0-0.0","A1HDD2B9I6D33I","img_art/24.jpg","5","","","","","","","","","","","","","","","","","","","","","","","","",""
"null","","html-keyboard-response","166","1268543","0.0-165.0","A1HDD2B9I6D33I","<p style=""font-size: 48px;"">+</p>","","","","","null","allTrialResponses","1000","1","17","img_art/24.jpg","11","I like the rushing of water over a green background. It has a woodsy feel.","Grant,Alejandro,Gabriel,Nathan,Chase,Samuel","The colors look nice, but the painting bores me.,-20,200,20","I don't like this painting because of its blottedness. It lacks conviction, direction and purpose.,-31,80,20","this one is just a bit too harsh,-13,160,20","Looks like a mystical type of forest/waterfall. Love it,40,200,20","This one isn't that abstract. It clearly looks like a waterfall.,31,120,20","tranquility in the stream,34,400,20","Nathan","Looks like a mystical type of forest/waterfall. Love it,40,200,20","Chase","This one isn't that abstract. It clearly looks like a waterfall.,31,120,20","Samuel","tranquility in the stream,34,400,20","2"
"15756","","survey-text","167","1284302","0.0-166.0-0.0","A1HDD2B9I6D33I","","","","{""Q0"":""I don't like this. I don't like the colors and not much going on.""}","","","","","","","","","","","","","","","","","","","","","","",""
"3379.8000000715256","","image-slider-response","168","1287684","0.0-167.0","A1HDD2B9I6D33I","","","","","-22","","","","","","","","","","","","","","","","","","","","","",""
"3036","","image-button-response","169","1292688","0.0-168.0","A1HDD2B9I6D33I","img_art/5.jpg","1","","","","","","","","","","","","","","","","","","","","","","","","",""
"4188","","image-button-response","170","1296878","0.0-169.0","A1HDD2B9I6D33I","img_art/5.jpg","4","","","","","","","","","","","","","","","","","","","","","","","","",""
"1558","","image-button-response","171","1298438","0.0-170.0-0.0","A1HDD2B9I6D33I","img_art/5.jpg","2","","","","","","","","","","","","","","","","","","","","","","","","",""
"6511","","image-button-response","172","1304950","0.0-171.0-0.0","A1HDD2B9I6D33I","img_art/5.jpg","1","","","","","","","","","","","","","","","","","","","","","","","","",""
"null","","html-keyboard-response","173","1305956","0.0-172.0","A1HDD2B9I6D33I","<p style=""font-size: 48px;"">+</p>","","","","","null","allTrialResponses","1000","1","18","img_art/5.jpg","-22","I don't like this. I don't like the colors and not much going on.","Matthew,Juan,Robert,Nathan,Chase,Samuel","I like the simple shapes and colors.,23,120,20","The yellow is garish and the picture doesn't look liked anything.,-49,260,20","This did not do a thing for me.,-50,360,20","Not a fan of the themes,-30,200,20","Seems very basic and uninteresting.,-15,120,20","a brush in time,-14,400,20","Chase","Seems very basic and uninteresting.,-15,120,20","Robert","This did not do a thing for me.,-50,360,20","Juan","The yellow is garish and the picture doesn't look liked anything.,-49,260,20","2"
"26468","","survey-text","174","1332427","0.0-173.0-0.0","A1HDD2B9I6D33I","","","","{""Q0"":""I'm middle of the road, the shapes and actions seem interesting but the colors don't do anything for me.""}","","","","","","","","","","","","","","","","","","","","","","",""
"3460.899999976158","","image-slider-response","175","1335889","0.0-174.0","A1HDD2B9I6D33I","","","","","3","","","","","","","","","","","","","","","","","","","","","",""
"2992","","image-button-response","176","1340896","0.0-175.0","A1HDD2B9I6D33I","img_art/27.jpg","1","","","","","","","","","","","","","","","","","","","","","","","","",""
"2469","","image-button-response","177","1343367","0.0-176.0","A1HDD2B9I6D33I","img_art/27.jpg","3","","","","","","","","","","","","","","","","","","","","","","","","",""
"1344","","image-button-response","178","1344712","0.0-177.0-0.0","A1HDD2B9I6D33I","img_art/27.jpg","1","","","","","","","","","","","","","","","","","","","","","","","","",""
"10511","","image-button-response","179","1355226","0.0-178.0-0.0","A1HDD2B9I6D33I","img_art/27.jpg","2","","","","","","","","","","","","","","","","","","","","","","","","",""
"null","","html-keyboard-response","180","1355727","0.0-179.0","A1HDD2B9I6D33I","<p style=""font-size: 48px;"">+</p>","","","","","null","allTrialResponses","500","1","19","img_art/27.jpg","3","I'm middle of the road, the shapes and actions seem interesting but the colors don't do anything for me.","Luis,Juan,Robert,Kevin,Chase,Joseph","Love the representation of home,22,400,20","Colors make me think of fall, but I don't like how the picture was done or the weird lines across the background,6,260,20","The black sketchy over the colors doesn't fit.,-4,360,20","A fall mess going on here,2,320,20","I don't really see anything to this art.,-5,120,20","Don't know what it is, but I do like it.,10,220,20","Kevin","A fall mess going on here,2,320,20","Juan","Colors make me think of fall, but I don't like how the picture was done or the weird lines across the background,6,260,20","Robert","The black sketchy over the colors doesn't fit.,-4,360,20","2"
"44151","","survey-text","181","1399881","0.0-180.0-0.0","A1HDD2B9I6D33I","","","","{""Q0"":""I like the black white contrast, not so excited on the shrubbery representation.""}","","","","","","","","","","","","","","","","","","","","","","",""
"3451.1999999284744","","image-slider-response","182","1403334","0.0-181.0","A1HDD2B9I6D33I","","","","","-5","","","","","","","","","","","","","","","","","","","","","",""
"2336","","image-button-response","183","1408337","0.0-182.0","A1HDD2B9I6D33I","img_art/15.jpg","1","","","","","","","","","","","","","","","","","","","","","","","","",""
"5027","","image-button-response","184","1413366","0.0-183.0","A1HDD2B9I6D33I","img_art/15.jpg","5","","","","","","","","","","","","","","","","","","","","","","","","",""
"2330","","image-button-response","185","1415698","0.0-184.0-0.0","A1HDD2B9I6D33I","img_art/15.jpg","2","","","","","","","","","","","","","","","","","","","","","","","","",""
"718","","image-button-response","186","1416418","0.0-185.0-0.0","A1HDD2B9I6D33I","img_art/15.jpg","1","","","","","","","","","","","","","","","","","","","","","","","","",""
"null","","html-keyboard-response","187","1417420","0.0-186.0","A1HDD2B9I6D33I","<p style=""font-size: 48px;"">+</p>","","","","","null","allTrialResponses","1000","1","20","img_art/15.jpg","-5","I like the black white contrast, not so excited on the shrubbery representation.","Austin,Juan,Robert,Kevin,Taylor,Brandon","Perfect Abstract painting,50,240,20","I don't even know what's going on here. Again, this is too abstract.,-21,260,20","This piece is too dark,-42,360,20","Weird fuzzball bush.,22,320,20","Getting better.,10,200,20","Not a fan of abstract, but the black is very striking,10,320,20","Brandon","Not a fan of abstract, but the black is very striking,10,320,20","Robert","This piece is too dark,-42,360,20","Juan","I don't even know what's going on here. Again, this is too abstract.,-21,260,20","2"
"4075","","survey-text","188","1421503","0.0-187.0-0.0","A1HDD2B9I6D33I","","","","{""Q0"":""we""}","","","","","","","","","","","","","","","","","","","","","","",""
"23524","","survey-text","189","1445029","0.0-188.0-0.0","A1HDD2B9I6D33I","","","","{""Q0"":""I like the minimalism in this one, the light background and the mood evoked in the middle of the painting.""}","","","","","","","","","","","","","","","","","","","","","","",""
"3954.3000000715256","","image-slider-response","190","1448985","0.0-189.0","A1HDD2B9I6D33I","","","","","7","","","","","","","","","","","","","","","","","","","","","",""
"null","","image-button-response","191","1453987","0.0-190.0","A1HDD2B9I6D33I","img_art/14.jpg","null","","","","","","","","","","","","","","","","","","","","","","","","",""
"2713","","image-button-response","192","1456701","0.0-191.0","A1HDD2B9I6D33I","img_art/14.jpg","2","","","","","","","","","","","","","","","","","","","","","","","","",""
"5564","","image-button-response","193","1462266","0.0-192.0-0.0","A1HDD2B9I6D33I","img_art/14.jpg","4","","","","","","","","","","","","","","","","","","","","","","","","",""
"1599","","image-button-response","194","1463867","0.0-193.0-0.0","A1HDD2B9I6D33I","img_art/14.jpg","3","","","","","","","","","","","","","","","","","","","","","","","","",""
"null","","html-keyboard-response","195","1464369","0.0-194.0","A1HDD2B9I6D33I","<p style=""font-size: 48px;"">+</p>","","","","","null","allTrialResponses","500","1","21","img_art/14.jpg","7","I like the minimalism in this one, the light background and the mood evoked in the middle of the painting.","Timothy,Juan,Robert,Tristan,Luke,Brandon","Something about the cahotic imagery makes me uncomfortable,-15,240,20","I don't like the colors, but I espeically don't like all the negative space.,-20,260,20","Late Winter when things are just starting to bloom.,21,360,20","In others I might say the colors are garish. Here it works perfectly. The balance is wondrous and unlimiting.,25,300,20","looks like it's symbolizing rebirth which is hopeful,22,20,20","Don't like the colors on this. Too simple,-20,320,20","Robert","Late Winter when things are just starting to bloom.,21,360,20","Luke","looks like it's symbolizing rebirth which is hopeful,22,20,20","Tristan","In others I might say the colors are garish. Here it works perfectly. The balance is wondrous and unlimiting.,25,300,20","2"
"31034","","survey-text","196","1495406","0.0-195.0-0.0","A1HDD2B9I6D33I","","","","{""Q0"":""I'm not a fan of the paintbrush in the middle nor the red x. I'm okay with the dark background.""}","","","","","","","","","","","","","","","","","","","","","","",""
"3071.8000000715256","","image-slider-response","197","1498479","0.0-196.0","A1HDD2B9I6D33I","","","","","-11","","","","","","","","","","","","","","","","","","","","","",""
"null","","image-button-response","198","1503485","0.0-197.0","A1HDD2B9I6D33I","img_art/29.jpg","null","","","","","","","","","","","","","","","","","","","","","","","","",""
"3797","","image-button-response","199","1507283","0.0-198.0","A1HDD2B9I6D33I","img_art/29.jpg","1","","","","","","","","","","","","","","","","","","","","","","","","",""
"1828","","image-button-response","200","1509113","0.0-199.0-0.0","A1HDD2B9I6D33I","img_art/29.jpg","5","","","","","","","","","","","","","","","","","","","","","","","","",""
"6187","","image-button-response","201","1515301","0.0-200.0-0.0","A1HDD2B9I6D33I","img_art/29.jpg","4","","","","","","","","","","","","","","","","","","","","","","","","",""
"null","","html-keyboard-response","202","1516313","0.0-201.0","A1HDD2B9I6D33I","<p style=""font-size: 48px;"">+</p>","","","","","null","allTrialResponses","1000","1","22","img_art/29.jpg","-11","I'm not a fan of the paintbrush in the middle nor the red x. I'm okay with the dark background.","John,Dustin,Robert,Tristan,Luke,Jake","Its interesting although doesnt illicit any strong emotions from me,10,120,20","Don't get it! Too dark and random. Perhaps it was the start of something but the artist stopped and cancelled out the work.,-50,20,20","Looks like a murder,-50,360,20","The textures bring this painting alive. A window to another existence with infinite possibility.,25,300,20","it is difficult to look at but you can't look away,-25,20,20","This is very gross and odd looking.,-8,360,20","Dustin","Don't get it! Too dark and random. Perhaps it was the start of something but the artist stopped and cancelled out the work.,-50,20,20","Jake","This is very gross and odd looking.,-8,360,20","Luke","it is difficult to look at but you can't look away,-25,20,20","2"
"25338","","survey-text","203","1541656","0.0-202.0-0.0","A1HDD2B9I6D33I","","","","{""Q0"":""In an odd way this one is just mood. I like the background colors and brush strokes.""}","","","","","","","","","","","","","","","","","","","","","","",""
"3037.399999976158","","image-slider-response","204","1544695","0.0-203.0","A1HDD2B9I6D33I","","","","","11","","","","","","","","","","","","","","","","","","","","","",""
"null","","image-button-response","205","1549710","0.0-204.0","A1HDD2B9I6D33I","img_art/30.jpg","null","","","","","","","","","","","","","","","","","","","","","","","","",""
"1247","","image-button-response","206","1550959","0.0-205.0","A1HDD2B9I6D33I","img_art/30.jpg","0","","","","","","","","","","","","","","","","","","","","","","","","",""
"4503","","image-button-response","207","1555463","0.0-206.0-0.0","A1HDD2B9I6D33I","img_art/30.jpg","3","","","","","","","","","","","","","","","","","","","","","","","","",""
"2483","","image-button-response","208","1557947","0.0-207.0-0.0","A1HDD2B9I6D33I","img_art/30.jpg","4","","","","","","","","","","","","","","","","","","","","","","","","",""
"null","","html-keyboard-response","209","1559449","0.0-208.0","A1HDD2B9I6D33I","<p style=""font-size: 48px;"">+</p>","","","","","null","allTrialResponses","1500","1","23","img_art/30.jpg","11","In an odd way this one is just mood. I like the background colors and brush strokes.","Christian,Dustin,Christopher,Tyler,Luke,Jake","don't know but it somehow speaks to me,29,140,20","Soothing color palette, but doesn't look like anything. All I see are random brush strokes.,1,20,20","looks simple, I can't see a lot of care going into this,-33,160,20","Interesting brushstroke work, but not particularly memorable.,21,320,20","the lines and colors look purposeful,18,20,20","This is just simple and ugly.,-2,360,20","Christian","don't know but it somehow speaks to me,29,140,20","Tyler","Interesting brushstroke work, but not particularly memorable.,21,320,20","Luke","the lines and colors look purposeful,18,20,20","2"
"35287","","survey-text","210","1594740","0.0-209.0-0.0","A1HDD2B9I6D33I","","","","{""Q0"":""This look like a standard impressionistic work, but the piece speaks to me. Thy shapes and colors work.""}","","","","","","","","","","","","","","","","","","","","","","",""
"3380","","image-slider-response","211","1598121","0.0-210.0","A1HDD2B9I6D33I","","","","","17","","","","","","","","","","","","","","","","","","","","","",""
"null","","image-button-response","212","1603123","0.0-211.0","A1HDD2B9I6D33I","img_art/12.jpg","null","","","","","","","","","","","","","","","","","","","","","","","","",""
"8013","","image-button-response","213","1611138","0.0-212.0","A1HDD2B9I6D33I","img_art/12.jpg","3","","","","","","","","","","","","","","","","","","","","","","","","",""
"6168","","image-button-response","214","1617308","0.0-213.0-0.0","A1HDD2B9I6D33I","img_art/12.jpg","1","","","","","","","","","","","","","","","","","","","","","","","","",""
"1430","","image-button-response","215","1618740","0.0-214.0-0.0","A1HDD2B9I6D33I","img_art/12.jpg","0","","","","","","","","","","","","","","","","","","","","","","","","",""
"null","","html-keyboard-response","216","1619741","0.0-215.0","A1HDD2B9I6D33I","<p style=""font-size: 48px;"">+</p>","","","","","null","allTrialResponses","1000","1","24","img_art/12.jpg","17","This look like a standard impressionistic work, but the piece speaks to me. Thy shapes and colors work.","Christian,Dylan,Ian,Tyler,Luke,Mason","so many different available interpretations for this, would love to closer.,24,140,20","I like the pattern of this picture, but the colors could be nicer,11,40,20","This is like going to a really old mcdoanlds in a tiny town and it's never been renovated so it's breaking down,-31,260,20","Different enough to be memorable. The gradient of hues is appealing and appeasing.,32,320,20","don't feel a lot but it seems very simple,-6,20,20","it's ok, but blocky, looks old.,3,100,20","Tyler","Different enough to be memorable. The gradient of hues is appealing and appeasing.,32,320,20","Dylan","I like the pattern of this picture, but the colors could be nicer,11,40,20","Christian","so many different available interpretations for this, would love to closer.,24,140,20","2"
"30104","","survey-text","217","1649850","0.0-216.0-0.0","A1HDD2B9I6D33I","","","","{""Q0"":""This looks like bodies on the field of battle the next day. Only middling feelings in me.""}","","","","","","","","","","","","","","","","","","","","","","",""
"2554.600000023842","","image-slider-response","218","1652406","0.0-217.0","A1HDD2B9I6D33I","","","","","3","","","","","","","","","","","","","","","","","","","","","",""
"4587","","image-button-response","219","1657407","0.0-218.0","A1HDD2B9I6D33I","img_art/7.jpg","2","","","","","","","","","","","","","","","","","","","","","","","","",""
"496","","image-button-response","220","1657905","0.0-219.0","A1HDD2B9I6D33I","img_art/7.jpg","2","","","","","","","","","","","","","","","","","","","","","","","","",""
"5525","","image-button-response","221","1663432","0.0-220.0-0.0","A1HDD2B9I6D33I","img_art/7.jpg","4","","","","","","","","","","","","","","","","","","","","","","","","",""
"9118","","image-button-response","222","1672552","0.0-221.0-0.0","A1HDD2B9I6D33I","img_art/7.jpg","3","","","","","","","","","","","","","","","","","","","","","","","","",""
"null","","html-keyboard-response","223","1673553","0.0-222.0","A1HDD2B9I6D33I","<p style=""font-size: 48px;"">+</p>","","","","","null","allTrialResponses","1000","1","25","img_art/7.jpg","3","This looks like bodies on the field of battle the next day. Only middling feelings in me.","Christian,Dylan,Jack,Tyler,Travis,Jared","would love to take a closer look at the texture,15,140,20","I do not like the boring colors in this.,-20,40,20","reminds me of a desert from far above,23,320,20","Is this a painting, really? Very compelling if so, the texture work is incredible.,15,320,20","Just neutral...looks like sand at the beach.,3,260,20","it looks like a dog ran through some wet cement,-22,400,20","Jack","reminds me of a desert from far above,23,320,20","Travis","Just neutral...looks like sand at the beach.,3,260,20","Tyler","Is this a painting, really? Very compelling if so, the texture work is incredible.,15,320,20","2"
"5069","","survey-text","224","1678629","0.0-223.0-0.0","A1HDD2B9I6D33I","","","","{""Q0"":""table""}","","","","","","","","","","","","","","","","","","","","","","",""
"27992","","survey-text","225","1706623","0.0-224.0-0.0","A1HDD2B9I6D33I","","","","{""Q0"":""Middle of the road city scene (or living room) either way, middle of the road.""}","","","","","","","","","","","","","","","","","","","","","","",""
"3074.899999976158","","image-slider-response","226","1709699","0.0-225.0","A1HDD2B9I6D33I","","","","","2","","","","","","","","","","","","","","","","","","","","","",""
"3930","","image-button-response","227","1714700","0.0-226.0","A1HDD2B9I6D33I","img_art/26.jpg","0","","","","","","","","","","","","","","","","","","","","","","","","",""
"2119","","image-button-response","228","1716821","0.0-227.0","A1HDD2B9I6D33I","img_art/26.jpg","4","","","","","","","","","","","","","","","","","","","","","","","","",""
"5948","","image-button-response","229","1722770","0.0-228.0-0.0","A1HDD2B9I6D33I","img_art/26.jpg","1","","","","","","","","","","","","","","","","","","","","","","","","",""
"1684","","image-button-response","230","1724456","0.0-229.0-0.0","A1HDD2B9I6D33I","img_art/26.jpg","0","","","","","","","","","","","","","","","","","","","","","","","","",""
"null","","html-keyboard-response","231","1725966","0.0-230.0","A1HDD2B9I6D33I","<p style=""font-size: 48px;"">+</p>","","","","","null","allTrialResponses","1500","1","26","img_art/26.jpg","2","Middle of the road city scene (or living room) either way, middle of the road.","Richard,Adam,Jack,Tyler,Travis,Derek","subtle use of colors, city street view?,8,340,20","pretty colors, but sketch style isn't for me,10,40,20","soft colors & brush work. very easy to look at. makes me happy.,50,320,20","Colors look glum; photograph is not properly contrasted and does not reflect the appropriate amount of natural light.,-10,320,20","Neutral...nothing to say.,3,260,20","Looks messy and like it was painted by a small child,-48,360,20","Travis","Neutral...nothing to say.,3,260,20","Adam","pretty colors, but sketch style isn't for me,10,40,20","Richard","subtle use of colors, city street view?,8,340,20","2"
"27399","","survey-text","232","1753369","0.0-231.0-0.0","A1HDD2B9I6D33I","","","","{""Q0"":""Is it a boat, a highway, a guitar. I see chaos and intensity. I like it.""}","","","","","","","","","","","","","","","","","","","","","","",""
"3140.600000023842","","image-slider-response","233","1756511","0.0-232.0","A1HDD2B9I6D33I","","","","","23","","","","","","","","","","","","","","","","","","","","","",""
"4889","","image-button-response","234","1761514","0.0-233.0","A1HDD2B9I6D33I","img_art/10.jpg","0","","","","","","","","","","","","","","","","","","","","","","","","",""
"782","","image-button-response","235","1762298","0.0-234.0","A1HDD2B9I6D33I","img_art/10.jpg","0","","","","","","","","","","","","","","","","","","","","","","","","",""
"5457","","image-button-response","236","1767757","0.0-235.0-0.0","A1HDD2B9I6D33I","img_art/10.jpg","4","","","","","","","","","","","","","","","","","","","","","","","","",""
"3673","","image-button-response","237","1771431","0.0-236.0-0.0","A1HDD2B9I6D33I","img_art/10.jpg","5","","","","","","","","","","","","","","","","","","","","","","","","",""
"null","","html-keyboard-response","238","1772934","0.0-237.0","A1HDD2B9I6D33I","<p style=""font-size: 48px;"">+</p>","","","","","null","allTrialResponses","1500","1","27","img_art/10.jpg","23","Is it a boat, a highway, a guitar. I see chaos and intensity. I like it.","Richard,Adam,Carlos,Bryce,Travis,Jacob","interesting portrayal of a violin?,10,340,20","I like the contrast,10,40,20","The colors and shapes are soothing but also disconcerting.,21,80,20","Kinda creepy not my favorite,-26,20,20","I liked it...it looked somewhat like a guitar.,32,260,20","I feel like this has a cool concept behind it.,11,340,20","Richard","interesting portrayal of a violin?,10,340,20","Travis","I liked it...it looked somewhat like a guitar.,32,260,20","Jacob","I feel like this has a cool concept behind it.,11,340,20","2"
"17071","","survey-text","239","1790009","0.0-238.0-0.0","A1HDD2B9I6D33I","","","","{""Q0"":""It two people in chaos, I like it.""}","","","","","","","","","","","","","","","","","","","","","","",""
"3148.5","","image-slider-response","240","1793159","0.0-239.0","A1HDD2B9I6D33I","","","","","11","","","","","","","","","","","","","","","","","","","","","",""
"4858","","image-button-response","241","1798163","0.0-240.0","A1HDD2B9I6D33I","img_art/28.jpg","0","","","","","","","","","","","","","","","","","","","","","","","","",""
"4357","","image-button-response","242","1802522","0.0-241.0","A1HDD2B9I6D33I","img_art/28.jpg","5","","","","","","","","","","","","","","","","","","","","","","","","",""
"1395","","image-button-response","243","1803919","0.0-242.0-0.0","A1HDD2B9I6D33I","img_art/28.jpg","0","","","","","","","","","","","","","","","","","","","","","","","","",""
"4641","","image-button-response","244","1808562","0.0-243.0-0.0","A1HDD2B9I6D33I","img_art/28.jpg","3","","","","","","","","","","","","","","","","","","","","","","","","",""
"null","","html-keyboard-response","245","1810072","0.0-244.0","A1HDD2B9I6D33I","<p style=""font-size: 48px;"">+</p>","","","","","null","allTrialResponses","1500","1","28","img_art/28.jpg","11","It two people in chaos, I like it.","Richard,Joshua,Paul,Brian,Travis,Jacob","bland coloring but pattern interesting,2,340,20","The colors are drab and a little depressing.,-20,240,20","The dark colors make it look dirty and the shapes make me uncomfortable,-50,300,20","the people kind of scare me in this one,-15,380,20","Hate it...brown and drab,-37,260,20","I can't tell what's going on but it looks a little bit more lively at least,7,340,20","Jacob","I can't tell what's going on but it looks a little bit more lively at least,7,340,20","Richard","bland coloring but pattern interesting,2,340,20","Brian","the people kind of scare me in this one,-15,380,20","2"
"28464","","survey-text","246","1838543","0.0-245.0-0.0","A1HDD2B9I6D33I","","","","{""Q0"":""Standard blast of blurry colors. It evokes a mood in me without showing me anything.""}","","","","","","","","","","","","","","","","","","","","","","",""
"2039.5","","image-slider-response","247","1840584","0.0-246.0","A1HDD2B9I6D33I","","","","","5","","","","","","","","","","","","","","","","","","","","","",""
"2204","","image-button-response","248","1845586","0.0-247.0","A1HDD2B9I6D33I","img_art/1.jpg","1","","","","","","","","","","","","","","","","","","","","","","","","",""
"7604","","image-button-response","249","1853191","0.0-248.0","A1HDD2B9I6D33I","img_art/1.jpg","2","","","","","","","","","","","","","","","","","","","","","","","","",""
"1861","","image-button-response","250","1855053","0.0-249.0-0.0","A1HDD2B9I6D33I","img_art/1.jpg","1","","","","","","","","","","","","","","","","","","","","","","","","",""
"2226","","image-button-response","251","1857281","0.0-250.0-0.0","A1HDD2B9I6D33I","img_art/1.jpg","0","","","","","","","","","","","","","","","","","","","","","","","","",""
"null","","html-keyboard-response","252","1858282","0.0-251.0","A1HDD2B9I6D33I","<p style=""font-size: 48px;"">+</p>","","","","","null","allTrialResponses","1000","1","29","img_art/1.jpg","5","Standard blast of blurry colors. It evokes a mood in me without showing me anything.","Richard,Jordan,Scott,Brian,Peter,Jacob","nice piece, fall like,31,340,20","I like the warmth of the picture,21,160,20","good colors and contrast,31,20,20","I don't feel like much is happening in this painting,-25,380,20","Nothing whatsoever,2,320,20","Looks like the same thing as the last piece shown to me,10,340,20","Scott","good colors and contrast,31,20,20","Jordan","I like the warmth of the picture,21,160,20","Richard","nice piece, fall like,31,340,20","2"
"16807","","survey-text","253","1875092","0.0-252.0-0.0","A1HDD2B9I6D33I","","","","{""Q0"":""To sparse, I don't like the colors or the patterns. ""}","","","","","","","","","","","","","","","","","","","","","","",""
"3596.1999999284744","","image-slider-response","254","1878690","0.0-253.0","A1HDD2B9I6D33I","","","","","-18","","","","","","","","","","","","","","","","","","","","","",""
"null","","image-button-response","255","1883700","0.0-254.0","A1HDD2B9I6D33I","img_art/4.jpg","null","","","","","","","","","","","","","","","","","","","","","","","","",""
"3681","","image-button-response","256","1887382","0.0-255.0","A1HDD2B9I6D33I","img_art/4.jpg","0","","","","","","","","","","","","","","","","","","","","","","","","",""
"1228","","image-button-response","257","1888612","0.0-256.0-0.0","A1HDD2B9I6D33I","img_art/4.jpg","4","","","","","","","","","","","","","","","","","","","","","","","","",""
"6828","","image-button-response","258","1895442","0.0-257.0-0.0","A1HDD2B9I6D33I","img_art/4.jpg","1","","","","","","","","","","","","","","","","","","","","","","","","",""
"null","","html-keyboard-response","259","1896952","0.0-258.0","A1HDD2B9I6D33I","<p style=""font-size: 48px;"">+</p>","","","","","null","allTrialResponses","1500","1","30","img_art/4.jpg","-18","To sparse, I don't like the colors or the patterns. ","Richard,Jordan,Scott,Michael,William,Jonathan","too childish, not really art in my world,-50,340,20","A hand reaching for something it cannot obtain,-9,160,20","feels free flowing and relaxed,21,20,20","Looks like a child did it.,-42,140,20","dont like the colors,-31,380,20","Mcdonald's french fries :(,-40,140,20","Richard","too childish, not really art in my world,-50,340,20","William","dont like the colors,-31,380,20","Jordan","A hand reaching for something it cannot obtain,-9,160,20","2"
"4178","","image-button-response_instructions","260","1901134","0.0-259.0","A1HDD2B9I6D33I","","0","instructions","","","","","","","","","","","","","","","","","","","","","","","",""
"1470","","image-button-response","261","1902608","0.0-260.0","A1HDD2B9I6D33I","","0","","","","","","","","","","","","","","","","","","","","","","","","",""
