"rt","url","trial_type","trial_index","time_elapsed","internal_node_id","participant_id","stimulus","button_pressed","Name","responses","response","key_press","variableName","fixationTime","condition","trial","photo","subjectRating","subjectResponse","agentsNames","agent_1_Response","agent_2_Response","agent_3_Response","agent_4_Response","agent_5_Response","agent_6_Response","kept_1_name","kept_1_response","kept_2_name","kept_2_response","kept_3_name","kept_3_response","errorCounter"
"17127","external_page_harvard.html","external-html","0","17226","0.0-0.0","A1IOE79K3G3VQD","","","","","","","","","","","","","","","","","","","","","","","","","","",""
"2124","","image-button-response","1","19355","0.0-1.0","A1IOE79K3G3VQD","","1","","","","","","","","","","","","","","","","","","","","","","","","",""
"2943","","image-button-response","2","22306","0.0-2.0-0.0","A1IOE79K3G3VQD","","1","phone","","","","","","","","","","","","","","","","","","","","","","","",""
"9430","","survey-text","3","31739","0.0-3.0-0.0","A1IOE79K3G3VQD","","","","{""Q0"":""A1IOE79K3G3VQD""}","","","","","","","","","","","","","","","","","","","","","","",""
"4862","","image-button-response_instructions","4","36604","0.0-4.0","A1IOE79K3G3VQD","","0","instructions","","","","","","","","","","","","","","","","","","","","","","","",""
"7766","","image-button-response_instructions","5","44372","0.0-5.0","A1IOE79K3G3VQD","img_art/ins/popularity/ins1.png","0","instructions","","","","","","","","","","","","","","","","","","","","","","","",""
"3780","","image-button-response_instructions","6","48156","0.0-6.0","A1IOE79K3G3VQD","img_art/ins/popularity/ins2.png","0","instructions","","","","","","","","","","","","","","","","","","","","","","","",""
"4813","","image-button-response_instructions","7","52972","0.0-7.0","A1IOE79K3G3VQD","img_art/ins/popularity/ins2Extreme.png","0","instructions","","","","","","","","","","","","","","","","","","","","","","","",""
"3997","","image-button-response_instructions","8","56973","0.0-8.0","A1IOE79K3G3VQD","img_art/ins/popularity/ins3KEEPpop.PNG","0","instructions","","","","","","","","","","","","","","","","","","","","","","","",""
"7364","","image-button-response_instructions","9","64340","0.0-9.0","A1IOE79K3G3VQD","img_art/ins/popularity/ins3ANamepop.PNG","0","instructions","","","","","","","","","","","","","","","","","","","","","","","",""
"2845","","image-button-response_instructions","10","67187","0.0-10.0","A1IOE79K3G3VQD","img_art/ins/popularity/ins3ARatingpop.png","0","instructions","","","","","","","","","","","","","","","","","","","","","","","",""
"2498","","image-button-response_instructions","11","69688","0.0-11.0","A1IOE79K3G3VQD","img_art/ins/popularity/ins3ATextpop.png","0","instructions","","","","","","","","","","","","","","","","","","","","","","","",""
"3529","","image-button-response_instructions","12","73221","0.0-12.0","A1IOE79K3G3VQD","img_art/ins/popularity/ins3ALikespop.png","0","instructions","","","","","","","","","","","","","","","","","","","","","","","",""
"3967","","image-button-response_instructions","13","77192","0.0-13.0","A1IOE79K3G3VQD","img_art/ins/popularity/ins3KEEPpop.PNG","0","instructions","","","","","","","","","","","","","","","","","","","","","","","",""
"7828","","image-button-response_instructions","14","85021","0.0-14.0","A1IOE79K3G3VQD","img_art/ins/popularity/ins3_5RED.png","0","instructions","","","","","","","","","","","","","","","","","","","","","","","",""
"5633","","image-button-response_instructions","15","90656","0.0-15.0","A1IOE79K3G3VQD","img_art/ins/popularity/ins3KEEPpop.PNG","0","instructions","","","","","","","","","","","","","","","","","","","","","","","",""
"5112","","image-button-response_instructions","16","95770","0.0-16.0","A1IOE79K3G3VQD","img_art/ins/popularity/ins4KEEPpop.PNG","0","instructions","","","","","","","","","","","","","","","","","","","","","","","",""
"10964","","image-button-response_instructions","17","106736","0.0-17.0","A1IOE79K3G3VQD","img_art/ins/popularity/ins5KEEPpop.PNG","0","instructions","","","","","","","","","","","","","","","","","","","","","","","",""
"3732","","image-button-response_instructions","18","110470","0.0-18.0","A1IOE79K3G3VQD","","0","instructions","","","","","","","","","","","","","","","","","","","","","","","",""
"25761","","survey-text","19","136260","0.0-19.0-0.0","A1IOE79K3G3VQD","","","","{""Q0"":""but""}","","","","","","","","","","","","","","","","","","","","","","",""
"10929","","survey-text","20","147191","0.0-20.0-0.0","A1IOE79K3G3VQD","","","","{""Q0"":""The colors flow really well together.""}","","","","","","","","","","","","","","","","","","","","","","",""
"2729.5","","image-slider-response","21","149923","0.0-21.0","A1IOE79K3G3VQD","","","","","16","","","","","","","","","","","","","","","","","","","","","",""
"null","","image-button-response","22","154934","0.0-22.0","A1IOE79K3G3VQD","img_art/ins/1.jpg","null","","","","","","","","","","","","","","","","","","","","","","","","",""
"21","","image-button-response","23","154959","0.0-23.0","A1IOE79K3G3VQD","img_art/ins/1.jpg","5","","","","","","","","","","","","","","","","","","","","","","","","",""
"5709","","image-button-response","24","160671","0.0-24.0-0.0","A1IOE79K3G3VQD","img_art/ins/1.jpg","0","","","","","","","","","","","","","","","","","","","","","","","","",""
"3847","","image-button-response","25","164524","0.0-25.0-0.0","A1IOE79K3G3VQD","img_art/ins/1.jpg","4","","","","","","","","","","","","","","","","","","","","","","","","",""
"null","","html-keyboard-response","26","165529","0.0-26.0","A1IOE79K3G3VQD","<p style=""font-size: 48px;"">+</p>","","","","","null","allTrialResponses","1000","1","-2","img_art/ins/1.jpg","16","The colors flow really well together.","Allison,Ashley,Beth,Dora,Erika,Jen","looks like a lot of things going on in the mist,20,20,20","I just don't get why these type of art would be popular,-32,40,20","This color reminds me of poo,-46,60,20","looks like what my niece in 3rd grade did this afternoon,-50,80,20","I like the sophisticated brushwork,40,100,20","It reminds me of a candy land dream I had,36,120,20","Jen","It reminds me of a candy land dream I had,36,120,20","Allison","looks like a lot of things going on in the mist,20,20,20","Erika","I like the sophisticated brushwork,40,100,20","0"
"12505","","survey-text","27","178040","0.0-27.0-0.0","A1IOE79K3G3VQD","","","","{""Q0"":""I like the blockiness of the painting""}","","","","","","","","","","","","","","","","","","","","","","",""
"2813.4000000059605","","image-slider-response","28","180856","0.0-28.0","A1IOE79K3G3VQD","","","","","26","","","","","","","","","","","","","","","","","","","","","",""
"3429","","image-button-response","29","185861","0.0-29.0","A1IOE79K3G3VQD","img_art/ins/2.jpg","1","","","","","","","","","","","","","","","","","","","","","","","","",""
"391","","image-button-response","30","186256","0.0-30.0","A1IOE79K3G3VQD","img_art/ins/2.jpg","0","","","","","","","","","","","","","","","","","","","","","","","","",""
"945","","image-button-response","31","187204","0.0-31.0-0.0","A1IOE79K3G3VQD","img_art/ins/2.jpg","1","","","","","","","","","","","","","","","","","","","","","","","","",""
"2882","","image-button-response","32","190089","0.0-32.0-0.0","A1IOE79K3G3VQD","img_art/ins/2.jpg","4","","","","","","","","","","","","","","","","","","","","","","","","",""
"null","","html-keyboard-response","33","190592","0.0-33.0","A1IOE79K3G3VQD","<p style=""font-size: 48px;"">+</p>","","","","","null","allTrialResponses","500","1","-1","img_art/ins/2.jpg","26","I like the blockiness of the painting","Allison,Kara,Katie,Jenna,Erika,Jen","I don't have strong feelings about this,10,20,20","I like the blocks of color arrangements,30,160,20","too much color!,-28,180,20","One of my pet peevs,-48,140,20","I would never be able to compose a sophisticated pallete like this,48,100,20","It reminds me of a fireplace,36,120,20","Allison","I don't have strong feelings about this,10,20,20","Kara","I like the blocks of color arrangements,30,160,20","Erika","I would never be able to compose a sophisticated pallete like this,48,100,20","0"
"8455","","survey-text","34","199055","0.0-34.0-0.0","A1IOE79K3G3VQD","","","","{""Q0"":""I like the chunks of color""}","","","","","","","","","","","","","","","","","","","","","","",""
"4066","","image-slider-response","35","203123","0.0-35.0","A1IOE79K3G3VQD","","","","","27","","","","","","","","","","","","","","","","","","","","","",""
"1996","","image-button-response","36","208128","0.0-36.0","A1IOE79K3G3VQD","img_art/ins/3.jpg","4","","","","","","","","","","","","","","","","","","","","","","","","",""
"771","","image-button-response","37","208903","0.0-37.0","A1IOE79K3G3VQD","img_art/ins/3.jpg","2","","","","","","","","","","","","","","","","","","","","","","","","",""
"1915","","image-button-response","38","210822","0.0-38.0-0.0","A1IOE79K3G3VQD","img_art/ins/3.jpg","3","","","","","","","","","","","","","","","","","","","","","","","","",""
"3281","","image-button-response","39","214107","0.0-39.0-0.0","A1IOE79K3G3VQD","img_art/ins/3.jpg","5","","","","","","","","","","","","","","","","","","","","","","","","",""
"null","","html-keyboard-response","40","214610","0.0-40.0","A1IOE79K3G3VQD","<p style=""font-size: 48px;"">+</p>","","","","","null","allTrialResponses","500","1","0","img_art/ins/3.jpg","27","I like the chunks of color","Allison,Kara,Mary,Leslie,Erika,Rose","enjoy the different shades of blue,22,20,20","calming blue is very nice,36,160,20","I like the overlapping of brushes,41,220,20","It's an alright work,15,200,20","I feel connected to the artist,40,100,20","My daily routine, it's depressing,-20,240,20","Mary","I like the overlapping of brushes,41,220,20","Leslie","It's an alright work,15,200,20","Rose","My daily routine, it's depressing,-20,240,20","0"
"8054","","image-button-response_instructions","41","222673","0.0-41.0","A1IOE79K3G3VQD","","0","instructions","","","","","","","","","","","","","","","","","","","","","","","",""
"11498","","survey-likert","42","234173","0.0-42.0-0.0","A1IOE79K3G3VQD","","","","{""Q0"":"""",""Q1"":0,""Q2"":1}","","","","","","","","","","","","","","","","","","","","","","",""
"4457","","survey-text","43","238638","0.0-43.0-0.0","A1IOE79K3G3VQD","","","","{""Q0"":""rock""}","","","","","","","","","","","","","","","","","","","","","","",""
"13916","","survey-text","44","252556","0.0-44.0-0.0","A1IOE79K3G3VQD","","","","{""Q0"":""I like the mess of colors and the arrangement.""}","","","","","","","","","","","","","","","","","","","","","","",""
"3130.1000000089407","","image-slider-response","45","255689","0.0-45.0","A1IOE79K3G3VQD","","","","","31","","","","","","","","","","","","","","","","","","","","","",""
"4422","","image-button-response","46","260717","0.0-46.0","A1IOE79K3G3VQD","img_art/9.jpg","2","","","","","","","","","","","","","","","","","","","","","","","","",""
"635","","image-button-response","47","261356","0.0-47.0","A1IOE79K3G3VQD","img_art/9.jpg","1","","","","","","","","","","","","","","","","","","","","","","","","",""
"1546","","image-button-response","48","262907","0.0-48.0-0.0","A1IOE79K3G3VQD","img_art/9.jpg","4","","","","","","","","","","","","","","","","","","","","","","","","",""
"1312","","image-button-response","49","264223","0.0-49.0-0.0","A1IOE79K3G3VQD","img_art/9.jpg","5","","","","","","","","","","","","","","","","","","","","","","","","",""
"null","","html-keyboard-response","50","264727","0.0-50.0","A1IOE79K3G3VQD","<p style=""font-size: 48px;"">+</p>","","","","","null","allTrialResponses","500","1","1","img_art/9.jpg","31","I like the mess of colors and the arrangement.","Briana,Danielle,Elizabeth,Alexandra,Maria,Megan","I see a foot. Idk colors are pleasant,12,400,20","Looks like a child's drawing,-40,340,20","Love the uniqueness,21,20,20","This picture is too busy and ugly,-20,60,20","while I don't dispute the art, it feels childish,-20,120,20","A troubled painter was influenced by anger and mad at the woman in the middle, color not bad,-32,200,20","Danielle","Looks like a child's drawing,-40,340,20","Maria","while I don't dispute the art, it feels childish,-20,120,20","Megan","A troubled painter was influenced by anger and mad at the woman in the middle, color not bad,-32,200,20","0"
"19821","","survey-text","51","284556","0.0-51.0-0.0","A1IOE79K3G3VQD","","","","{""Q0"":""Its messy and looks like a child painted it.""}","","","","","","","","","","","","","","","","","","","","","","",""
"4063.699999988079","","image-slider-response","52","288622","0.0-52.0","A1IOE79K3G3VQD","","","","","-38","","","","","","","","","","","","","","","","","","","","","",""
"4813","","image-button-response","53","293631","0.0-53.0","A1IOE79K3G3VQD","img_art/30.jpg","2","","","","","","","","","","","","","","","","","","","","","","","","",""
"1220","","image-button-response","54","294856","0.0-54.0","A1IOE79K3G3VQD","img_art/30.jpg","5","","","","","","","","","","","","","","","","","","","","","","","","",""
"897","","image-button-response","55","295757","0.0-55.0-0.0","A1IOE79K3G3VQD","img_art/30.jpg","4","","","","","","","","","","","","","","","","","","","","","","","","",""
"676","","image-button-response","56","296437","0.0-56.0-0.0","A1IOE79K3G3VQD","img_art/30.jpg","3","","","","","","","","","","","","","","","","","","","","","","","","",""
"null","","html-keyboard-response","57","297439","0.0-57.0","A1IOE79K3G3VQD","<p style=""font-size: 48px;"">+</p>","","","","","null","allTrialResponses","1000","1","2","img_art/30.jpg","-38","Its messy and looks like a child painted it.","Isabella,Danielle,Emily,Brooke,Maria,Megan","I like the back but the red lines in the front distress me,-7,280,20","It's okay. It should either have stuck to the grey-blue, or added more red. Seems unorganized (maybe that's the point?),-9,340,20","It looks like a child did it. There is nothing talented or special about it.,-16,40,20","Like the color and style,31,60,20","uplifted and yet calmed,15,120,20","10 year old 10 minute project ""Fun with Painting"",-42,200,20","Megan","10 year old 10 minute project ""Fun with Painting"",-42,200,20","Maria","uplifted and yet calmed,15,120,20","Brooke","Like the color and style,31,60,20","0"
"17395","","survey-text","58","314841","0.0-58.0-0.0","A1IOE79K3G3VQD","","","","{""Q0"":""I like the colors and the simplicity that make the figure pop out of the painting.""}","","","","","","","","","","","","","","","","","","","","","","",""
"2730.9000000059605","","image-slider-response","59","317574","0.0-59.0","A1IOE79K3G3VQD","","","","","30","","","","","","","","","","","","","","","","","","","","","",""
"4929","","image-button-response","60","322583","0.0-60.0","A1IOE79K3G3VQD","img_art/25.jpg","4","","","","","","","","","","","","","","","","","","","","","","","","",""
"720","","image-button-response","61","323306","0.0-61.0","A1IOE79K3G3VQD","img_art/25.jpg","5","","","","","","","","","","","","","","","","","","","","","","","","",""
"1296","","image-button-response","62","324606","0.0-62.0-0.0","A1IOE79K3G3VQD","img_art/25.jpg","0","","","","","","","","","","","","","","","","","","","","","","","","",""
"1028","","image-button-response","63","325637","0.0-63.0-0.0","A1IOE79K3G3VQD","img_art/25.jpg","1","","","","","","","","","","","","","","","","","","","","","","","","",""
"null","","html-keyboard-response","64","327142","0.0-64.0","A1IOE79K3G3VQD","<p style=""font-size: 48px;"">+</p>","","","","","null","allTrialResponses","1500","1","3","img_art/25.jpg","30","I like the colors and the simplicity that make the figure pop out of the painting.","Breanna,Cynthia,Julia,Brooke,Maria,Megan","Makes me feel intrigued,13,380,20","Somewhat feel protected by a messenger,33,320,20","the color is pleasing and draws out the contrast of the lines,10,40,20","Like the color, but what is that thing.,-10,60,20","I find it enjoyable - mainly because it is not art I ever expected to see,16,120,20","Beautiful color with an interesting otherworldly figure,29,200,20","Megan","Beautiful color with an interesting otherworldly figure,29,200,20","Breanna","Makes me feel intrigued,13,380,20","Cynthia","Somewhat feel protected by a messenger,33,320,20","0"
"21243","","survey-text","65","348391","0.0-65.0-0.0","A1IOE79K3G3VQD","","","","{""Q0"":""I like the openness of this painting and the scragginess of the still life.""}","","","","","","","","","","","","","","","","","","","","","","",""
"3114.5999999940395","","image-slider-response","66","351508","0.0-66.0","A1IOE79K3G3VQD","","","","","31","","","","","","","","","","","","","","","","","","","","","",""
"4497","","image-button-response","67","356513","0.0-67.0","A1IOE79K3G3VQD","img_art/14.jpg","4","","","","","","","","","","","","","","","","","","","","","","","","",""
"224","","image-button-response","68","356742","0.0-68.0","A1IOE79K3G3VQD","img_art/14.jpg","5","","","","","","","","","","","","","","","","","","","","","","","","",""
"1425","","image-button-response","69","358173","0.0-69.0-0.0","A1IOE79K3G3VQD","img_art/14.jpg","2","","","","","","","","","","","","","","","","","","","","","","","","",""
"962","","image-button-response","70","359140","0.0-70.0-0.0","A1IOE79K3G3VQD","img_art/14.jpg","1","","","","","","","","","","","","","","","","","","","","","","","","",""
"null","","html-keyboard-response","71","359643","0.0-71.0","A1IOE79K3G3VQD","<p style=""font-size: 48px;"">+</p>","","","","","null","allTrialResponses","500","1","4","img_art/14.jpg","31","I like the openness of this painting and the scragginess of the still life.","Breanna,Cynthia,Crystal,Rebecca,Jennifer,Megan","Makes me feel good,30,380,20","unsure and dull feeling,-1,320,20","It looks like a tree but the bleeding water colors lack borders and makes it hard to appreciate the message.,-41,300,20","medium recalls back to an oriental style,16,100,20","This piece is average compared to the others.,1,380,20","Baby's room palette with tree confusion in a more confused substrate.,-15,200,20","Megan","Baby's room palette with tree confusion in a more confused substrate.,-15,200,20","Crystal","It looks like a tree but the bleeding water colors lack borders and makes it hard to appreciate the message.,-41,300,20","Cynthia","unsure and dull feeling,-1,320,20","0"
"14038","","survey-text","72","373690","0.0-72.0-0.0","A1IOE79K3G3VQD","","","","{""Q0"":""I like the chaos and the color choices. It looks sophisticated.""}","","","","","","","","","","","","","","","","","","","","","","",""
"2763.1000000089407","","image-slider-response","73","376456","0.0-73.0","A1IOE79K3G3VQD","","","","","28","","","","","","","","","","","","","","","","","","","","","",""
"4393","","image-button-response","74","381461","0.0-74.0","A1IOE79K3G3VQD","img_art/28.jpg","2","","","","","","","","","","","","","","","","","","","","","","","","",""
"607","","image-button-response","75","382072","0.0-75.0","A1IOE79K3G3VQD","img_art/28.jpg","5","","","","","","","","","","","","","","","","","","","","","","","","",""
"1146","","image-button-response","76","383222","0.0-76.0-0.0","A1IOE79K3G3VQD","img_art/28.jpg","4","","","","","","","","","","","","","","","","","","","","","","","","",""
"980","","image-button-response","77","384206","0.0-77.0-0.0","A1IOE79K3G3VQD","img_art/28.jpg","3","","","","","","","","","","","","","","","","","","","","","","","","",""
"null","","html-keyboard-response","78","385208","0.0-78.0","A1IOE79K3G3VQD","<p style=""font-size: 48px;"">+</p>","","","","","null","allTrialResponses","1000","1","5","img_art/28.jpg","28","I like the chaos and the color choices. It looks sophisticated.","Gabriela,Cynthia,Crystal,Kathryn,Sydney,Megan","The brown and green colors used look dull and unappealing,-30,140,20","nostalgic from a memory,11,320,20","I like the flow and abstract nature of what seems to be humans,40,300,20","My immediate reaction was to think of smog. It recalls choking on dirty air.,-20,140,20","I enjoy the colors.,25,320,20","Compact grey mess lack negative space,-10,200,20","Megan","Compact grey mess lack negative space,-10,200,20","Sydney","I enjoy the colors.,25,320,20","Kathryn","My immediate reaction was to think of smog. It recalls choking on dirty air.,-20,140,20","0"
"3868","","survey-text","79","389088","0.0-79.0-0.0","A1IOE79K3G3VQD","","","","{""Q0"":""sky""}","","","","","","","","","","","","","","","","","","","","","","",""
"16983","","survey-text","80","406072","0.0-80.0-0.0","A1IOE79K3G3VQD","","","","{""Q0"":""I like the angles and the blocks of color.""}","","","","","","","","","","","","","","","","","","","","","","",""
"10296.199999988079","","image-slider-response","81","416373","0.0-81.0","A1IOE79K3G3VQD","","","","","25","","","","","","","","","","","","","","","","","","","","","",""
"4860","","image-button-response","82","421382","0.0-82.0","A1IOE79K3G3VQD","img_art/8.jpg","2","","","","","","","","","","","","","","","","","","","","","","","","",""
"1304","","image-button-response","83","422691","0.0-83.0","A1IOE79K3G3VQD","img_art/8.jpg","5","","","","","","","","","","","","","","","","","","","","","","","","",""
"763","","image-button-response","84","423457","0.0-84.0-0.0","A1IOE79K3G3VQD","img_art/8.jpg","4","","","","","","","","","","","","","","","","","","","","","","","","",""
"810","","image-button-response","85","424272","0.0-85.0-0.0","A1IOE79K3G3VQD","img_art/8.jpg","3","","","","","","","","","","","","","","","","","","","","","","","","",""
"null","","html-keyboard-response","86","425275","0.0-86.0","A1IOE79K3G3VQD","<p style=""font-size: 48px;"">+</p>","","","","","null","allTrialResponses","1000","1","6","img_art/8.jpg","25","I like the angles and the blocks of color.","Katherine,Makayla,Natalie,Kathryn,Sydney,Megan","This is really cool, I love the fragments of faces,38,120,20","I see water and structures that resemble Ancient Rome,15,80,20","looks nice, like the details,25,400,20","The angle makes it kind of disorienting but I enjoy the fantastical colors and imagery. It's like a dream.,10,140,20","I love the colors in this piece.,25,320,20","Cortez's influence with fair color choices,10,200,20","Megan","Cortez's influence with fair color choices,10,200,20","Sydney","I love the colors in this piece.,25,320,20","Kathryn","The angle makes it kind of disorienting but I enjoy the fantastical colors and imagery. It's like a dream.,10,140,20","0"
"11057","","survey-text","87","436338","0.0-87.0-0.0","A1IOE79K3G3VQD","","","","{""Q0"":""I like the collage and the color of the bear.""}","","","","","","","","","","","","","","","","","","","","","","",""
"3947","","image-slider-response","88","440287","0.0-88.0","A1IOE79K3G3VQD","","","","","33","","","","","","","","","","","","","","","","","","","","","",""
"4598","","image-button-response","89","445292","0.0-89.0","A1IOE79K3G3VQD","img_art/16.jpg","1","","","","","","","","","","","","","","","","","","","","","","","","",""
"811","","image-button-response","90","446106","0.0-90.0","A1IOE79K3G3VQD","img_art/16.jpg","0","","","","","","","","","","","","","","","","","","","","","","","","",""
"780","","image-button-response","91","446889","0.0-91.0-0.0","A1IOE79K3G3VQD","img_art/16.jpg","1","","","","","","","","","","","","","","","","","","","","","","","","",""
"1295","","image-button-response","92","448188","0.0-92.0-0.0","A1IOE79K3G3VQD","img_art/16.jpg","4","","","","","","","","","","","","","","","","","","","","","","","","",""
"null","","html-keyboard-response","93","449692","0.0-93.0","A1IOE79K3G3VQD","<p style=""font-size: 48px;"">+</p>","","","","","null","allTrialResponses","1500","1","7","img_art/16.jpg","33","I like the collage and the color of the bear.","Shelby,Hailey,Kaitlyn,Kathryn,Sydney,Megan","This feels like images of a painful childhood,-50,240,20","cute and warm. i like the bear,15,200,20","The bear is a weird choice,-22,80,20","I see something that is supposed to be comforting but it's been discarded and lost.,-20,140,20","This piece is unusual but unique.,5,320,20","Ugly, broken up and mismatched,-50,200,20","Shelby","This feels like images of a painful childhood,-50,240,20","Hailey","cute and warm. i like the bear,15,200,20","Sydney","This piece is unusual but unique.,5,320,20","0"
"12956","","survey-text","94","462655","0.0-94.0-0.0","A1IOE79K3G3VQD","","","","{""Q0"":""I like the colors used and the wash that is applied to the background.""}","","","","","","","","","","","","","","","","","","","","","","",""
"2813.5","","image-slider-response","95","465472","0.0-95.0","A1IOE79K3G3VQD","","","","","30","","","","","","","","","","","","","","","","","","","","","",""
"2110","","image-button-response","96","470477","0.0-96.0","A1IOE79K3G3VQD","img_art/19.jpg","1","","","","","","","","","","","","","","","","","","","","","","","","",""
"1575","","image-button-response","97","472056","0.0-97.0","A1IOE79K3G3VQD","img_art/19.jpg","1","","","","","","","","","","","","","","","","","","","","","","","","",""
"1310","","image-button-response","98","473371","0.0-98.0-0.0","A1IOE79K3G3VQD","img_art/19.jpg","3","","","","","","","","","","","","","","","","","","","","","","","","",""
"677","","image-button-response","99","474054","0.0-99.0-0.0","A1IOE79K3G3VQD","img_art/19.jpg","4","","","","","","","","","","","","","","","","","","","","","","","","",""
"null","","html-keyboard-response","100","474558","0.0-100.0","A1IOE79K3G3VQD","<p style=""font-size: 48px;"">+</p>","","","","","null","allTrialResponses","500","1","8","img_art/19.jpg","30","I like the colors used and the wash that is applied to the background.","Shelby,Hailey,Hannah,Erika,Sydney,Angelica","Something weird is going on in this painting,-20,240,20","an old cityfrom many years ago. its ok,6,200,20","Just don't like this one.,-9,240,20","Very dreamlike,26,100,20","I like the color and the mix of sketches along with paint.,30,320,20","This is like an ugly version of a Basquiat.,-24,280,20","Hailey","an old cityfrom many years ago. its ok,6,200,20","Erika","Very dreamlike,26,100,20","Sydney","I like the color and the mix of sketches along with paint.,30,320,20","0"
"17906","","survey-text","101","492474","0.0-101.0-0.0","A1IOE79K3G3VQD","","","","{""Q0"":""I like the softness of the colors and the wispiness of the strokes.""}","","","","","","","","","","","","","","","","","","","","","","",""
"2861.0999999940395","","image-slider-response","102","495338","0.0-102.0","A1IOE79K3G3VQD","","","","","31","","","","","","","","","","","","","","","","","","","","","",""
"1598","","image-button-response","103","500342","0.0-103.0","A1IOE79K3G3VQD","img_art/17.jpg","1","","","","","","","","","","","","","","","","","","","","","","","","",""
"576","","image-button-response","104","500923","0.0-104.0","A1IOE79K3G3VQD","img_art/17.jpg","0","","","","","","","","","","","","","","","","","","","","","","","","",""
"713","","image-button-response","105","501639","0.0-105.0-0.0","A1IOE79K3G3VQD","img_art/17.jpg","1","","","","","","","","","","","","","","","","","","","","","","","","",""
"711","","image-button-response","106","502354","0.0-106.0-0.0","A1IOE79K3G3VQD","img_art/17.jpg","2","","","","","","","","","","","","","","","","","","","","","","","","",""
"null","","html-keyboard-response","107","502856","0.0-107.0","A1IOE79K3G3VQD","<p style=""font-size: 48px;"">+</p>","","","","","null","allTrialResponses","500","1","9","img_art/17.jpg","31","I like the softness of the colors and the wispiness of the strokes.","Amy,Hailey,Kaylee,Erika,Sydney,Brianna","peaceful. contemplative. balanced. old,10,220,20","soft and warm light colors are relaxing,12,200,20","colorful tree really cool,27,200,20","I love vague, dreamlike styles,50,100,20","This picture is calming to me, and I love the colors.,45,320,20","It's nice and realistic looking.,12,20,20","Amy","peaceful. contemplative. balanced. old,10,220,20","Hailey","soft and warm light colors are relaxing,12,200,20","Kaylee","colorful tree really cool,27,200,20","0"
"11590","","survey-text","108","514455","0.0-108.0-0.0","A1IOE79K3G3VQD","","","","{""Q0"":""I like the gradient and the color choices.""}","","","","","","","","","","","","","","","","","","","","","","",""
"3145.2999999970198","","image-slider-response","109","517604","0.0-109.0","A1IOE79K3G3VQD","","","","","36","","","","","","","","","","","","","","","","","","","","","",""
"3315","","image-button-response","110","522609","0.0-110.0","A1IOE79K3G3VQD","img_art/12.jpg","5","","","","","","","","","","","","","","","","","","","","","","","","",""
"644","","image-button-response","111","523258","0.0-111.0","A1IOE79K3G3VQD","img_art/12.jpg","4","","","","","","","","","","","","","","","","","","","","","","","","",""
"827","","image-button-response","112","524090","0.0-112.0-0.0","A1IOE79K3G3VQD","img_art/12.jpg","5","","","","","","","","","","","","","","","","","","","","","","","","",""
"1078","","image-button-response","113","525172","0.0-113.0-0.0","A1IOE79K3G3VQD","img_art/12.jpg","0","","","","","","","","","","","","","","","","","","","","","","","","",""
"null","","html-keyboard-response","114","526175","0.0-114.0","A1IOE79K3G3VQD","<p style=""font-size: 48px;"">+</p>","","","","","null","allTrialResponses","1000","1","10","img_art/12.jpg","36","I like the gradient and the color choices.","Amy,Hailey,Kaylee,Sarah,Claire,Amber","Quite lovely with depth and possibility.,21,220,20","negative feelings with these blocks,-20,200,20","wtf is that i dont get it,-50,200,20","i think it's a good piece but it doesn't appeal to me,-18,180,20","i like the repetition,30,260,20","Like how all the colors seem to blend together.,15,200,20","Claire","i like the repetition,30,260,20","Amber","Like how all the colors seem to blend together.,15,200,20","Amy","Quite lovely with depth and possibility.,21,220,20","0"
"4574","","survey-text","115","530758","0.0-115.0-0.0","A1IOE79K3G3VQD","","","","{""Q0"":""our""}","","","","","","","","","","","","","","","","","","","","","","",""
"17080","","survey-text","116","547839","0.0-116.0-0.0","A1IOE79K3G3VQD","","","","{""Q0"":""I like the minimalistic sense used in the depiction of the broom.""}","","","","","","","","","","","","","","","","","","","","","","",""
"3182.5","","image-slider-response","117","551024","0.0-117.0","A1IOE79K3G3VQD","","","","","35","","","","","","","","","","","","","","","","","","","","","",""
"3444","","image-button-response","118","556030","0.0-118.0","A1IOE79K3G3VQD","img_art/5.jpg","1","","","","","","","","","","","","","","","","","","","","","","","","",""
"539","","image-button-response","119","556574","0.0-119.0","A1IOE79K3G3VQD","img_art/5.jpg","2","","","","","","","","","","","","","","","","","","","","","","","","",""
"1027","","image-button-response","120","557605","0.0-120.0-0.0","A1IOE79K3G3VQD","img_art/5.jpg","1","","","","","","","","","","","","","","","","","","","","","","","","",""
"1446","","image-button-response","121","559055","0.0-121.0-0.0","A1IOE79K3G3VQD","img_art/5.jpg","4","","","","","","","","","","","","","","","","","","","","","","","","",""
"null","","html-keyboard-response","122","560558","0.0-122.0","A1IOE79K3G3VQD","<p style=""font-size: 48px;"">+</p>","","","","","null","allTrialResponses","1500","1","11","img_art/5.jpg","35","I like the minimalistic sense used in the depiction of the broom.","Amy,Lauren,Kimberly,Molly,Claire,Amber","Nearly white background gives a lack of context. Questionable skills,-45,220,20","I like the simplicity of the design, but I can't tell what the image is trying to depict.,10,340,20","It feels positive and kind of uplifting,24,260,20","Very non-dynamic painting, dislike it.,-10,340,20","I like the strokes and colors used,20,260,20","Missing something,-5,200,20","Kimberly","It feels positive and kind of uplifting,24,260,20","Lauren","I like the simplicity of the design, but I can't tell what the image is trying to depict.,10,340,20","Claire","I like the strokes and colors used,20,260,20","0"
"15289","","survey-text","123","575855","0.0-123.0-0.0","A1IOE79K3G3VQD","","","","{""Q0"":""I like the disorganization and the bold colors.""}","","","","","","","","","","","","","","","","","","","","","","",""
"3197.5","","image-slider-response","124","579056","0.0-124.0","A1IOE79K3G3VQD","","","","","33","","","","","","","","","","","","","","","","","","","","","",""
"1779","","image-button-response","125","584060","0.0-125.0","A1IOE79K3G3VQD","img_art/3.jpg","2","","","","","","","","","","","","","","","","","","","","","","","","",""
"639","","image-button-response","126","584703","0.0-126.0","A1IOE79K3G3VQD","img_art/3.jpg","2","","","","","","","","","","","","","","","","","","","","","","","","",""
"1617","","image-button-response","127","586322","0.0-127.0-0.0","A1IOE79K3G3VQD","img_art/3.jpg","5","","","","","","","","","","","","","","","","","","","","","","","","",""
"1727","","image-button-response","128","588053","0.0-128.0-0.0","A1IOE79K3G3VQD","img_art/3.jpg","1","","","","","","","","","","","","","","","","","","","","","","","","",""
"null","","html-keyboard-response","129","589056","0.0-129.0","A1IOE79K3G3VQD","<p style=""font-size: 48px;"">+</p>","","","","","null","allTrialResponses","1000","1","12","img_art/3.jpg","33","I like the disorganization and the bold colors.","Alexa,Lauren,Kimberly,Rachel,Claire,Chloe","Looks messy and too much for my eyes,-35,40,20","No clue what I'm looking. This just looks a series of scribbles in a box.,-20,340,20","I like that it feels kind of simple but still chaotic,6,260,20","Too red and chaotic. Not calming.,-41,80,20","looks like a kid scribbled with crayon,-35,260,20","Powerful lines but seems incomplete,-10,220,20","Kimberly","I like that it feels kind of simple but still chaotic,6,260,20","Chloe","Powerful lines but seems incomplete,-10,220,20","Lauren","No clue what I'm looking. This just looks a series of scribbles in a box.,-20,340,20","0"
"19857","","survey-text","130","608921","0.0-130.0-0.0","A1IOE79K3G3VQD","","","","{""Q0"":""I like the messiness of the paint that has been flung at the well executed background.""}","","","","","","","","","","","","","","","","","","","","","","",""
"3065","","image-slider-response","131","611988","0.0-131.0","A1IOE79K3G3VQD","","","","","34","","","","","","","","","","","","","","","","","","","","","",""
"1729","","image-button-response","132","616994","0.0-132.0","A1IOE79K3G3VQD","img_art/13.jpg","2","","","","","","","","","","","","","","","","","","","","","","","","",""
"989","","image-button-response","133","617988","0.0-133.0","A1IOE79K3G3VQD","img_art/13.jpg","2","","","","","","","","","","","","","","","","","","","","","","","","",""
"1380","","image-button-response","134","619372","0.0-134.0-0.0","A1IOE79K3G3VQD","img_art/13.jpg","3","","","","","","","","","","","","","","","","","","","","","","","","",""
"962","","image-button-response","135","620337","0.0-135.0-0.0","A1IOE79K3G3VQD","img_art/13.jpg","4","","","","","","","","","","","","","","","","","","","","","","","","",""
"null","","html-keyboard-response","136","621842","0.0-136.0","A1IOE79K3G3VQD","<p style=""font-size: 48px;"">+</p>","","","","","null","allTrialResponses","1500","1","13","img_art/13.jpg","34","I like the messiness of the paint that has been flung at the well executed background.","Brittany,Lauren,Kimberly,Samantha,Michaela,Chloe","Not really a fan of ""splash"" art.,-20,40,20","I like the color coordination between the foreground and background.,10,340,20","It's like a pattern on a bus seat,10,260,20","Nice colors. beautiful blue,50,140,20","The colors are really pretty together,39,260,20","Industrial Jackson Pollock knock-off,-20,220,20","Kimberly","It's like a pattern on a bus seat,10,260,20","Samantha","Nice colors. beautiful blue,50,140,20","Michaela","The colors are really pretty together,39,260,20","0"
"23755","","survey-text","137","645606","0.0-137.0-0.0","A1IOE79K3G3VQD","","","","{""Q0"":""I like the haphazardness of the color blocks and the way that they are linked with more precise strokes.""}","","","","","","","","","","","","","","","","","","","","","","",""
"2948.4000000059605","","image-slider-response","138","648556","0.0-138.0","A1IOE79K3G3VQD","","","","","31","","","","","","","","","","","","","","","","","","","","","",""
"1713","","image-button-response","139","653564","0.0-139.0","A1IOE79K3G3VQD","img_art/27.jpg","4","","","","","","","","","","","","","","","","","","","","","","","","",""
"687","","image-button-response","140","654256","0.0-140.0","A1IOE79K3G3VQD","img_art/27.jpg","4","","","","","","","","","","","","","","","","","","","","","","","","",""
"960","","image-button-response","141","655221","0.0-141.0-0.0","A1IOE79K3G3VQD","img_art/27.jpg","3","","","","","","","","","","","","","","","","","","","","","","","","",""
"2298","","image-button-response","142","657523","0.0-142.0-0.0","A1IOE79K3G3VQD","img_art/27.jpg","1","","","","","","","","","","","","","","","","","","","","","","","","",""
"null","","html-keyboard-response","143","659030","0.0-143.0","A1IOE79K3G3VQD","<p style=""font-size: 48px;"">+</p>","","","","","null","allTrialResponses","1500","1","14","img_art/27.jpg","31","I like the haphazardness of the color blocks and the way that they are linked with more precise strokes.","Miranda,Jacqueline,Kimberly,Samantha,Michaela,Cassandra","I'm not a fan. It looks like something my nephews (1 and 2) would make,-8,320,20","I don't really see anything to this art.,-5,300,20","Nothing stands out,-23,260,20","I like all it has going but i wouldnt put it in my house unless my child did it,25,140,20","It looks like a kid colored a picture and an adult added to it,19,260,20","I don't like any of it...just scibbles.,-37,120,20","Michaela","It looks like a kid colored a picture and an adult added to it,19,260,20","Samantha","I like all it has going but i wouldnt put it in my house unless my child did it,25,140,20","Jacqueline","I don't really see anything to this art.,-5,300,20","0"
"18135","","survey-text","144","677173","0.0-144.0-0.0","A1IOE79K3G3VQD","","","","{""Q0"":""I like the minimalness of the figure and the loneliness that it portrays.""}","","","","","","","","","","","","","","","","","","","","","","",""
"3729.9000000059605","","image-slider-response","145","680905","0.0-145.0","A1IOE79K3G3VQD","","","","","33","","","","","","","","","","","","","","","","","","","","","",""
"3529","","image-button-response","146","685910","0.0-146.0","A1IOE79K3G3VQD","img_art/6.jpg","1","","","","","","","","","","","","","","","","","","","","","","","","",""
"608","","image-button-response","147","686523","0.0-147.0","A1IOE79K3G3VQD","img_art/6.jpg","1","","","","","","","","","","","","","","","","","","","","","","","","",""
"1443","","image-button-response","148","687970","0.0-148.0-0.0","A1IOE79K3G3VQD","img_art/6.jpg","4","","","","","","","","","","","","","","","","","","","","","","","","",""
"1049","","image-button-response","149","689022","0.0-149.0-0.0","A1IOE79K3G3VQD","img_art/6.jpg","5","","","","","","","","","","","","","","","","","","","","","","","","",""
"null","","html-keyboard-response","150","690026","0.0-150.0","A1IOE79K3G3VQD","<p style=""font-size: 48px;"">+</p>","","","","","null","allTrialResponses","1000","1","15","img_art/6.jpg","33","I like the minimalness of the figure and the loneliness that it portrays.","Destiny,Jacqueline,Paige,Samantha,Michaela,Erica","boring. don't really like birds,1,360,20","It's a bit bland, but looks like a bird standing.,11,300,20","Kind of boring. I don't care for many abstracts,1,60,20","It isnt bad but sort of too bland,0,140,20","It looks like a bird looking away,32,260,20","positive because of bright colours and a bird,20,80,20","Jacqueline","It's a bit bland, but looks like a bird standing.,11,300,20","Michaela","It looks like a bird looking away,32,260,20","Erica","positive because of bright colours and a bird,20,80,20","0"
"5450","","survey-text","151","695488","0.0-151.0-0.0","A1IOE79K3G3VQD","","","","{""Q0"":""course""}","","","","","","","","","","","","","","","","","","","","","","",""
"17797","","survey-text","152","713289","0.0-152.0-0.0","A1IOE79K3G3VQD","","","","{""Q0"":""I like the texture that is made out of the paint and the shadows that the ridges cast.""}","","","","","","","","","","","","","","","","","","","","","","",""
"3317.1000000089407","","image-slider-response","153","716609","0.0-153.0","A1IOE79K3G3VQD","","","","","31","","","","","","","","","","","","","","","","","","","","","",""
"2260","","image-button-response","154","721613","0.0-154.0","A1IOE79K3G3VQD","img_art/7.jpg","0","","","","","","","","","","","","","","","","","","","","","","","","",""
"972","","image-button-response","155","722589","0.0-155.0","A1IOE79K3G3VQD","img_art/7.jpg","0","","","","","","","","","","","","","","","","","","","","","","","","",""
"2277","","image-button-response","156","724871","0.0-156.0-0.0","A1IOE79K3G3VQD","img_art/7.jpg","4","","","","","","","","","","","","","","","","","","","","","","","","",""
"1197","","image-button-response","157","726071","0.0-157.0-0.0","A1IOE79K3G3VQD","img_art/7.jpg","5","","","","","","","","","","","","","","","","","","","","","","","","",""
"null","","html-keyboard-response","158","726575","0.0-158.0","A1IOE79K3G3VQD","<p style=""font-size: 48px;"">+</p>","","","","","null","allTrialResponses","500","1","16","img_art/7.jpg","31","I like the texture that is made out of the paint and the shadows that the ridges cast.","Taylor,Jacqueline,Abigail,Erin,Michaela,Erica","It makes me think of new archaeology discoveries,15,340,20","Just looks like rocks or some kind of mineral.,0,300,20","Looks like a skin disease,-31,20,20","Color is bland and looks damaged,-37,120,20","It looks like maybe some seeds?,14,260,20","No not cause many emotions,1,80,20","Taylor","It makes me think of new archaeology discoveries,15,340,20","Michaela","It looks like maybe some seeds?,14,260,20","Erica","No not cause many emotions,1,80,20","0"
"15437","","survey-text","159","742021","0.0-159.0-0.0","A1IOE79K3G3VQD","","","","{""Q0"":""I like the blending of the colors to make all of the secondary colors.""}","","","","","","","","","","","","","","","","","","","","","","",""
"3446.4000000059605","","image-slider-response","160","745471","0.0-160.0","A1IOE79K3G3VQD","","","","","36","","","","","","","","","","","","","","","","","","","","","",""
"2246","","image-button-response","161","750480","0.0-161.0","A1IOE79K3G3VQD","img_art/22.jpg","5","","","","","","","","","","","","","","","","","","","","","","","","",""
"1770","","image-button-response","162","752255","0.0-162.0","A1IOE79K3G3VQD","img_art/22.jpg","5","","","","","","","","","","","","","","","","","","","","","","","","",""
"1146","","image-button-response","163","753404","0.0-163.0-0.0","A1IOE79K3G3VQD","img_art/22.jpg","4","","","","","","","","","","","","","","","","","","","","","","","","",""
"1680","","image-button-response","164","755087","0.0-164.0-0.0","A1IOE79K3G3VQD","img_art/22.jpg","2","","","","","","","","","","","","","","","","","","","","","","","","",""
"null","","html-keyboard-response","165","755591","0.0-165.0","A1IOE79K3G3VQD","<p style=""font-size: 48px;"">+</p>","","","","","null","allTrialResponses","500","1","17","img_art/22.jpg","36","I like the blending of the colors to make all of the secondary colors.","Taylor,Jamie,Jenna,Alexis,Michaela,Erica","Doesn't make me feel anything,-4,340,20","Like the mix of warm and cool colors,15,320,20","beautiful. love the bright colors & soft brush strokes, and the imprint of the key is genius.,50,360,20","Don't like this type of abstract work,-39,100,20","I like the use of primary colors in an interesting way,29,260,20","Picture is very relaxing,32,80,20","Erica","Picture is very relaxing,32,80,20","Michaela","I like the use of primary colors in an interesting way,29,260,20","Jenna","beautiful. love the bright colors & soft brush strokes, and the imprint of the key is genius.,50,360,20","0"
"25422","","survey-text","166","781022","0.0-166.0-0.0","A1IOE79K3G3VQD","","","","{""Q0"":""I like the blockiness of the painting and how it is laid out with primary colors.""}","","","","","","","","","","","","","","","","","","","","","","",""
"2730.2999999970198","","image-slider-response","167","783755","0.0-167.0","A1IOE79K3G3VQD","","","","","10","","","","","","","","","","","","","","","","","","","","","",""
"3612","","image-button-response","168","788763","0.0-168.0","A1IOE79K3G3VQD","img_art/2.jpg","4","","","","","","","","","","","","","","","","","","","","","","","","",""
"436","","image-button-response","169","789204","0.0-169.0","A1IOE79K3G3VQD","img_art/2.jpg","4","","","","","","","","","","","","","","","","","","","","","","","","",""
"864","","image-button-response","170","790072","0.0-170.0-0.0","A1IOE79K3G3VQD","img_art/2.jpg","5","","","","","","","","","","","","","","","","","","","","","","","","",""
"1879","","image-button-response","171","791955","0.0-171.0-0.0","A1IOE79K3G3VQD","img_art/2.jpg","2","","","","","","","","","","","","","","","","","","","","","","","","",""
"null","","html-keyboard-response","172","792957","0.0-172.0","A1IOE79K3G3VQD","<p style=""font-size: 48px;"">+</p>","","","","","null","allTrialResponses","1000","1","18","img_art/2.jpg","10","I like the blockiness of the painting and how it is laid out with primary colors.","Vanessa,Kaitlin,Jenna,Mackenzie,Michaela,Erica","I don't like the abstract nature of this painting or the colors used.,-50,380,20","another confusing piece of art,-12,60,20","the colors are a bit odd, and the squiggly line at the top is distracting,0,360,20","Muted green is overpowering,-10,20,20","My immediate reaction was it looked like a class but then I saw a smile in the middle,11,260,20","positive, seems like someone really happy and colourful is looking at me,22,80,20","Michaela","My immediate reaction was it looked like a class but then I saw a smile in the middle,11,260,20","Erica","positive, seems like someone really happy and colourful is looking at me,22,80,20","Jenna","the colors are a bit odd, and the squiggly line at the top is distracting,0,360,20","0"
"22472","","survey-text","173","815439","0.0-173.0-0.0","A1IOE79K3G3VQD","","","","{""Q0"":""I like the pops of blue in the black vines. Makes the viewer scan the image more.""}","","","","","","","","","","","","","","","","","","","","","","",""
"4095.800000011921","","image-slider-response","174","819539","0.0-174.0","A1IOE79K3G3VQD","","","","","30","","","","","","","","","","","","","","","","","","","","","",""
"1814","","image-button-response","175","824548","0.0-175.0","A1IOE79K3G3VQD","img_art/15.jpg","4","","","","","","","","","","","","","","","","","","","","","","","","",""
"570","","image-button-response","176","825123","0.0-176.0","A1IOE79K3G3VQD","img_art/15.jpg","4","","","","","","","","","","","","","","","","","","","","","","","","",""
"2163","","image-button-response","177","827288","0.0-177.0-0.0","A1IOE79K3G3VQD","img_art/15.jpg","1","","","","","","","","","","","","","","","","","","","","","","","","",""
"1546","","image-button-response","178","828838","0.0-178.0-0.0","A1IOE79K3G3VQD","img_art/15.jpg","2","","","","","","","","","","","","","","","","","","","","","","","","",""
"null","","html-keyboard-response","179","830341","0.0-179.0","A1IOE79K3G3VQD","<p style=""font-size: 48px;"">+</p>","","","","","null","allTrialResponses","1500","1","19","img_art/15.jpg","30","I like the pops of blue in the black vines. Makes the viewer scan the image more.","Jordan,Sophia,Jenna,Cheyenne,Michaela,Erica","I'm just not into it,-5,20,20","I feel like there's ski jumping going on here.,2,280,20","interesting technique. the blue is very pretty,18,360,20","I like how the black and blue clash.,14,200,20","Reminds me of lilacs,26,260,20","dark and I can not see a meaning behind it,-31,80,20","Michaela","Reminds me of lilacs,26,260,20","Sophia","I feel like there's ski jumping going on here.,2,280,20","Jenna","interesting technique. the blue is very pretty,18,360,20","0"
"10836","","survey-text","180","841187","0.0-180.0-0.0","A1IOE79K3G3VQD","","","","{""Q0"":""This is a messy painting and makes little sense.""}","","","","","","","","","","","","","","","","","","","","","","",""
"2697.5999999940395","","image-slider-response","181","843888","0.0-181.0","A1IOE79K3G3VQD","","","","","-27","","","","","","","","","","","","","","","","","","","","","",""
"1429","","image-button-response","182","848897","0.0-182.0","A1IOE79K3G3VQD","img_art/1.jpg","4","","","","","","","","","","","","","","","","","","","","","","","","",""
"923","","image-button-response","183","849823","0.0-183.0","A1IOE79K3G3VQD","img_art/1.jpg","4","","","","","","","","","","","","","","","","","","","","","","","","",""
"1363","","image-button-response","184","851188","0.0-184.0-0.0","A1IOE79K3G3VQD","img_art/1.jpg","1","","","","","","","","","","","","","","","","","","","","","","","","",""
"980","","image-button-response","185","852172","0.0-185.0-0.0","A1IOE79K3G3VQD","img_art/1.jpg","2","","","","","","","","","","","","","","","","","","","","","","","","",""
"null","","html-keyboard-response","186","853679","0.0-186.0","A1IOE79K3G3VQD","<p style=""font-size: 48px;"">+</p>","","","","","null","allTrialResponses","1500","1","20","img_art/1.jpg","-27","This is a messy painting and makes little sense.","Mikayla,Sophia,Jenna,Mary,Michaela,Catherine","Again kind a boring.,-38,300,20","This is a great piece that has a lot more going on the longer you look at it. I like it!,30,280,20","beautiful colors and brush strokes,47,360,20","This piece feels soft and romantic to me. I do not care for so much orange though.,3,180,20","That one piece in the middle gives it depth and it's really neat,21,260,20","confused,animal like brain fog,0,160,20","Michaela","That one piece in the middle gives it depth and it's really neat,21,260,20","Sophia","This is a great piece that has a lot more going on the longer you look at it. I like it!,30,280,20","Jenna","beautiful colors and brush strokes,47,360,20","0"
"3895","","survey-text","187","857588","0.0-187.0-0.0","A1IOE79K3G3VQD","","","","{""Q0"":""we""}","","","","","","","","","","","","","","","","","","","","","","",""
"11431","","survey-text","188","869023","0.0-188.0-0.0","A1IOE79K3G3VQD","","","","{""Q0"":""I like the yellow used in this painting.""}","","","","","","","","","","","","","","","","","","","","","","",""
"2862","","image-slider-response","189","871888","0.0-189.0","A1IOE79K3G3VQD","","","","","24","","","","","","","","","","","","","","","","","","","","","",""
"2313","","image-button-response","190","876898","0.0-190.0","A1IOE79K3G3VQD","img_art/4.jpg","2","","","","","","","","","","","","","","","","","","","","","","","","",""
"636","","image-button-response","191","877539","0.0-191.0","A1IOE79K3G3VQD","img_art/4.jpg","2","","","","","","","","","","","","","","","","","","","","","","","","",""
"1896","","image-button-response","192","879438","0.0-192.0-0.0","A1IOE79K3G3VQD","img_art/4.jpg","4","","","","","","","","","","","","","","","","","","","","","","","","",""
"10264","","image-button-response","193","889705","0.0-193.0-0.0","A1IOE79K3G3VQD","img_art/4.jpg","3","","","","","","","","","","","","","","","","","","","","","","","","",""
"null","","html-keyboard-response","194","890208","0.0-194.0","A1IOE79K3G3VQD","<p style=""font-size: 48px;"">+</p>","","","","","null","allTrialResponses","500","1","21","img_art/4.jpg","24","I like the yellow used in this painting.","Alexandria,Sophia,Jenna,Margaret,Michaela,Victoria","it looks like a simple finger painting, yet i liked the color choices,-12,80,20","This looks like what happens when someone steps on a mustard packet.,-7,280,20","creepy, looks like a deformed hand, but the background is pretty,5,360,20","doesn't do anything for me,-4,100,20","It reminds me of something a kid would make for their parents,13,260,20","dont like the colors,-31,400,20","Jenna","creepy, looks like a deformed hand, but the background is pretty,5,360,20","Michaela","It reminds me of something a kid would make for their parents,13,260,20","Margaret","doesn't do anything for me,-4,100,20","0"
"10484","","survey-text","195","900703","0.0-195.0-0.0","A1IOE79K3G3VQD","","","","{""Q0"":""This is poorly constructed.""}","","","","","","","","","","","","","","","","","","","","","","",""
"2967.4000000059605","","image-slider-response","196","903672","0.0-196.0","A1IOE79K3G3VQD","","","","","-30","","","","","","","","","","","","","","","","","","","","","",""
"1497","","image-button-response","197","908681","0.0-197.0","A1IOE79K3G3VQD","img_art/26.jpg","2","","","","","","","","","","","","","","","","","","","","","","","","",""
"684","","image-button-response","198","909370","0.0-198.0","A1IOE79K3G3VQD","img_art/26.jpg","4","","","","","","","","","","","","","","","","","","","","","","","","",""
"997","","image-button-response","199","910372","0.0-199.0-0.0","A1IOE79K3G3VQD","img_art/26.jpg","3","","","","","","","","","","","","","","","","","","","","","","","","",""
"2144","","image-button-response","200","912520","0.0-200.0-0.0","A1IOE79K3G3VQD","img_art/26.jpg","2","","","","","","","","","","","","","","","","","","","","","","","","",""
"null","","html-keyboard-response","201","913023","0.0-201.0","A1IOE79K3G3VQD","<p style=""font-size: 48px;"">+</p>","","","","","null","allTrialResponses","500","1","22","img_art/26.jpg","-30","This is poorly constructed.","Shannon,Sierra,Jenna,Margaret,Michaela,Laura","I like that it looks like an actual picture and isn't just random colors.,25,220,20","soothing and subtle,1,260,20","soft colors & brush work. very easy to look at. makes me happy.,50,360,20","its boring and i dont like the color palette,3,100,20","Elevator art but the watercolors are good,29,260,20","juvenile, faint and weak,-41,320,20","Michaela","Elevator art but the watercolors are good,29,260,20","Margaret","its boring and i dont like the color palette,3,100,20","Jenna","soft colors & brush work. very easy to look at. makes me happy.,50,360,20","0"
"18354","","survey-text","202","931385","0.0-202.0-0.0","A1IOE79K3G3VQD","","","","{""Q0"":""This looks like it was painted by a elementary school student.""}","","","","","","","","","","","","","","","","","","","","","","",""
"3803.2000000029802","","image-slider-response","203","935190","0.0-203.0","A1IOE79K3G3VQD","","","","","32","","","","","","","","","","","","","","","","","","","","","",""
"1609","","image-button-response","204","940199","0.0-204.0","A1IOE79K3G3VQD","img_art/29.jpg","2","","","","","","","","","","","","","","","","","","","","","","","","",""
"1216","","image-button-response","205","941419","0.0-205.0","A1IOE79K3G3VQD","img_art/29.jpg","2","","","","","","","","","","","","","","","","","","","","","","","","",""
"1616","","image-button-response","206","943039","0.0-206.0-0.0","A1IOE79K3G3VQD","img_art/29.jpg","4","","","","","","","","","","","","","","","","","","","","","","","","",""
"4897","","image-button-response","207","947940","0.0-207.0-0.0","A1IOE79K3G3VQD","img_art/29.jpg","1","","","","","","","","","","","","","","","","","","","","","","","","",""
"null","","html-keyboard-response","208","948442","0.0-208.0","A1IOE79K3G3VQD","<p style=""font-size: 48px;"">+</p>","","","","","null","allTrialResponses","500","1","23","img_art/29.jpg","32","This looks like it was painted by a elementary school student.","Christina,Mariah,Jenna,Margaret,Michaela,Kylie","It's too on trend with the gray and doesn't look like a lasting piece,-4,240,20","It feels like looking through layers of frustration.,19,140,20","risks well taken. the brush is hilarious. feels like an artist's frustration, which is relatable.,50,360,20","this does nothing for me. hate the colors. hate the design,-50,100,20","Like a crime scene. It's neat and different,30,260,20","Reminds me of graffitti gone wrong,15,300,20","Jenna","risks well taken. the brush is hilarious. feels like an artist's frustration, which is relatable.,50,360,20","Michaela","Like a crime scene. It's neat and different,30,260,20","Mariah","It feels like looking through layers of frustration.,19,140,20","0"
"18103","","survey-text","209","966555","0.0-209.0-0.0","A1IOE79K3G3VQD","","","","{""Q0"":""I like the negative space. The colors surrounding it are awesome.""}","","","","","","","","","","","","","","","","","","","","","","",""
"2665.4000000059605","","image-slider-response","210","969223","0.0-210.0","A1IOE79K3G3VQD","","","","","29","","","","","","","","","","","","","","","","","","","","","",""
"2745","","image-button-response","211","974232","0.0-211.0","A1IOE79K3G3VQD","img_art/23.jpg","2","","","","","","","","","","","","","","","","","","","","","","","","",""
"550","","image-button-response","212","974787","0.0-212.0","A1IOE79K3G3VQD","img_art/23.jpg","2","","","","","","","","","","","","","","","","","","","","","","","","",""
"1031","","image-button-response","213","975822","0.0-213.0-0.0","A1IOE79K3G3VQD","img_art/23.jpg","1","","","","","","","","","","","","","","","","","","","","","","","","",""
"1746","","image-button-response","214","977572","0.0-214.0-0.0","A1IOE79K3G3VQD","img_art/23.jpg","5","","","","","","","","","","","","","","","","","","","","","","","","",""
"null","","html-keyboard-response","215","979075","0.0-215.0","A1IOE79K3G3VQD","<p style=""font-size: 48px;"">+</p>","","","","","null","allTrialResponses","1500","1","24","img_art/23.jpg","29","I like the negative space. The colors surrounding it are awesome.","Caitlin,Mariah,Jenna,Savannah,Michaela,Amanda","SOME thought was put into this one.,5,80,20","It feels active and vibrant.,20,140,20","awesome colors. love the white drawing the eye to the center. oddly comforting.,50,360,20","Very colorful. Nice contrasts.,26,200,20","This would make a great mural,37,260,20","One of my favorites, love the colors and how the white looks like humans,50,180,20","Jenna","awesome colors. love the white drawing the eye to the center. oddly comforting.,50,360,20","Mariah","It feels active and vibrant.,20,140,20","Amanda","One of my favorites, love the colors and how the white looks like humans,50,180,20","0"
"11587","","survey-text","216","990672","0.0-216.0-0.0","A1IOE79K3G3VQD","","","","{""Q0"":""The pastels are very pleasing to look at""}","","","","","","","","","","","","","","","","","","","","","","",""
"3114.0999999940395","","image-slider-response","217","993789","0.0-217.0","A1IOE79K3G3VQD","","","","","26","","","","","","","","","","","","","","","","","","","","","",""
"1880","","image-button-response","218","998797","0.0-218.0","A1IOE79K3G3VQD","img_art/21.jpg","2","","","","","","","","","","","","","","","","","","","","","","","","",""
"637","","image-button-response","219","999438","0.0-219.0","A1IOE79K3G3VQD","img_art/21.jpg","2","","","","","","","","","","","","","","","","","","","","","","","","",""
"1311","","image-button-response","220","1000753","0.0-220.0-0.0","A1IOE79K3G3VQD","img_art/21.jpg","0","","","","","","","","","","","","","","","","","","","","","","","","",""
"1295","","image-button-response","221","1002053","0.0-221.0-0.0","A1IOE79K3G3VQD","img_art/21.jpg","5","","","","","","","","","","","","","","","","","","","","","","","","",""
"null","","html-keyboard-response","222","1003557","0.0-222.0","A1IOE79K3G3VQD","<p style=""font-size: 48px;"">+</p>","","","","","null","allTrialResponses","1500","1","25","img_art/21.jpg","26","The pastels are very pleasing to look at","Meghan,Mariah,Jenna,Allison,Sara,Amanda","looks like a sunrise, great colors,40,220,20","Motion, the light marks in the lower right corner are very appealing.,15,140,20","beautiful. reminds me of a storm brewing over sea. i love the white dots.,45,360,20","I like color mix here,15,140,20","It looks confusing,-21,160,20","Very calming and nice to look at,30,180,20","Jenna","beautiful. reminds me of a storm brewing over sea. i love the white dots.,45,360,20","Meghan","looks like a sunrise, great colors,40,220,20","Amanda","Very calming and nice to look at,30,180,20","0"
"4285","","survey-text","223","1007855","0.0-223.0-0.0","A1IOE79K3G3VQD","","","","{""Q0"":""table""}","","","","","","","","","","","","","","","","","","","","","","",""
"13698","","survey-text","224","1021555","0.0-224.0-0.0","A1IOE79K3G3VQD","","","","{""Q0"":""This is a mess and looks like a pour acrylic failure.""}","","","","","","","","","","","","","","","","","","","","","","",""
"3683","","image-slider-response","225","1025241","0.0-225.0","A1IOE79K3G3VQD","","","","","28","","","","","","","","","","","","","","","","","","","","","",""
"1761","","image-button-response","226","1030246","0.0-226.0","A1IOE79K3G3VQD","img_art/18.jpg","2","","","","","","","","","","","","","","","","","","","","","","","","",""
"687","","image-button-response","227","1030937","0.0-227.0","A1IOE79K3G3VQD","img_art/18.jpg","2","","","","","","","","","","","","","","","","","","","","","","","","",""
"1198","","image-button-response","228","1032139","0.0-228.0-0.0","A1IOE79K3G3VQD","img_art/18.jpg","1","","","","","","","","","","","","","","","","","","","","","","","","",""
"1167","","image-button-response","229","1033308","0.0-229.0-0.0","A1IOE79K3G3VQD","img_art/18.jpg","0","","","","","","","","","","","","","","","","","","","","","","","","",""
"null","","html-keyboard-response","230","1033813","0.0-230.0","A1IOE79K3G3VQD","<p style=""font-size: 48px;"">+</p>","","","","","null","allTrialResponses","500","1","26","img_art/18.jpg","28","This is a mess and looks like a pour acrylic failure.","Meghan,Cassidy,Jenna,Tiffany,Kelsey,Amanda","reminds me of sailors on a boat,17,220,20","nice balance of color. The different sizes and types of strokes give a lot to look at,18,140,20","hauntingly beautiful. more things revealed the longer you look. love the spirit-like figure in the top left.,47,360,20","I'm mildly disgusted by the colors, and can't piece together the story the figures are trying to tell.,-10,360,20","its messy, it seems angry,-21,240,20","Too political, not my cup of tea,-50,180,20","Jenna","hauntingly beautiful. more things revealed the longer you look. love the spirit-like figure in the top left.,47,360,20","Cassidy","nice balance of color. The different sizes and types of strokes give a lot to look at,18,140,20","Meghan","reminds me of sailors on a boat,17,220,20","0"
"10265","","survey-text","231","1044088","0.0-231.0-0.0","A1IOE79K3G3VQD","","","","{""Q0"":""I like the waves in this painting.""}","","","","","","","","","","","","","","","","","","","","","","",""
"2812.5","","image-slider-response","232","1046904","0.0-232.0","A1IOE79K3G3VQD","","","","","20","","","","","","","","","","","","","","","","","","","","","",""
"4063","","image-button-response","233","1051914","0.0-233.0","A1IOE79K3G3VQD","img_art/11.jpg","2","","","","","","","","","","","","","","","","","","","","","","","","",""
"2754","","image-button-response","234","1054671","0.0-234.0","A1IOE79K3G3VQD","img_art/11.jpg","3","","","","","","","","","","","","","","","","","","","","","","","","",""
"1397","","image-button-response","235","1056072","0.0-235.0-0.0","A1IOE79K3G3VQD","img_art/11.jpg","1","","","","","","","","","","","","","","","","","","","","","","","","",""
"943","","image-button-response","236","1057019","0.0-236.0-0.0","A1IOE79K3G3VQD","img_art/11.jpg","2","","","","","","","","","","","","","","","","","","","","","","","","",""
"null","","html-keyboard-response","237","1058024","0.0-237.0","A1IOE79K3G3VQD","<p style=""font-size: 48px;"">+</p>","","","","","null","allTrialResponses","1000","1","27","img_art/11.jpg","20","I like the waves in this painting.","Meghan,Cassidy,Jenna,Kristen,Marissa,Courtney","makes me feel dizzy,-37,220,20","Love the colors against the black and gray. The lines are calming.,22,140,20","makes me think of city highways & bridges on a rainy, foggy day. I like the melancholy it evokes.,43,360,20","small town, friendly. calm,35,280,20","I dislike how dark this is,-21,160,20","Thats a creepy old rollercoasters abandoned,-2,280,20","Kristen","small town, friendly. calm,35,280,20","Cassidy","Love the colors against the black and gray. The lines are calming.,22,140,20","Jenna","makes me think of city highways & bridges on a rainy, foggy day. I like the melancholy it evokes.,43,360,20","0"
"14086","","survey-text","238","1072120","0.0-238.0-0.0","A1IOE79K3G3VQD","","","","{""Q0"":""This is messy and I cant tell what is in the painting.""}","","","","","","","","","","","","","","","","","","","","","","",""
"2733","","image-slider-response","239","1074855","0.0-239.0","A1IOE79K3G3VQD","","","","","25","","","","","","","","","","","","","","","","","","","","","",""
"4378","","image-button-response","240","1079860","0.0-240.0","A1IOE79K3G3VQD","img_art/24.jpg","2","","","","","","","","","","","","","","","","","","","","","","","","",""
"1076","","image-button-response","241","1080940","0.0-241.0","A1IOE79K3G3VQD","img_art/24.jpg","2","","","","","","","","","","","","","","","","","","","","","","","","",""
"1076","","image-button-response","242","1082020","0.0-242.0-0.0","A1IOE79K3G3VQD","img_art/24.jpg","0","","","","","","","","","","","","","","","","","","","","","","","","",""
"1830","","image-button-response","243","1083854","0.0-243.0-0.0","A1IOE79K3G3VQD","img_art/24.jpg","0","","","","","","","","","","","","","","","","","","","","","","","","",""
"1266","","image-button-response","244","1089489","0.0-243.1-0.1","A1IOE79K3G3VQD","img_art/24.jpg","3","","","","","","","","","","","","","","","","","","","","","","","","",""
"null","","html-keyboard-response","245","1090491","0.0-244.0","A1IOE79K3G3VQD","<p style=""font-size: 48px;"">+</p>","","","","","null","allTrialResponses","1000","1","28","img_art/24.jpg","25","This is messy and I cant tell what is in the painting.","Ashley,Cassidy,Jenna,Kristen,Emma,Angela","NOt quite Bob Ross, but still good.,30,320,20","I don't even know. It's just kind of meh,1,140,20","colors are a bit cramped together. really unique take on a waterfall though.,32,360,20","calm, nature, safe, happy place,,50,280,20","Beautiful, good colors, love water,50,60,20","Love the colors in this work, and the sense of motion in the water,36,260,20","Jenna","colors are a bit cramped together. really unique take on a waterfall though.,32,360,20","Ashley","NOt quite Bob Ross, but still good.,30,320,20","Kristen","calm, nature, safe, happy place,,50,280,20","2"
"8788","","survey-text","246","1099289","0.0-245.0-0.0","A1IOE79K3G3VQD","","","","{""Q0"":""This looks messy and half hearted.""}","","","","","","","","","","","","","","","","","","","","","","",""
"2962.8999999910593","","image-slider-response","247","1102254","0.0-246.0","A1IOE79K3G3VQD","","","","","30","","","","","","","","","","","","","","","","","","","","","",""
"2994","","image-button-response","248","1107259","0.0-247.0","A1IOE79K3G3VQD","img_art/10.jpg","0","","","","","","","","","","","","","","","","","","","","","","","","",""
"2975","","image-button-response","249","1110239","0.0-248.0","A1IOE79K3G3VQD","img_art/10.jpg","0","","","","","","","","","","","","","","","","","","","","","","","","",""
"1096","","image-button-response","250","1111339","0.0-249.0-0.0","A1IOE79K3G3VQD","img_art/10.jpg","2","","","","","","","","","","","","","","","","","","","","","","","","",""
"1776","","image-button-response","251","1113119","0.0-250.0-0.0","A1IOE79K3G3VQD","img_art/10.jpg","4","","","","","","","","","","","","","","","","","","","","","","","","",""
"null","","html-keyboard-response","252","1114122","0.0-251.0","A1IOE79K3G3VQD","<p style=""font-size: 48px;"">+</p>","","","","","null","allTrialResponses","1000","1","29","img_art/10.jpg","30","This looks messy and half hearted.","Ashley,Madison,Jenna,Kristen,Andrea,Alicia","AWESOME VIOLIN!`,26,320,20","In proper lighting I might enjoy this,11,60,20","this piece is okay. I wish it was more colorful, but it is certainly intriguing.,23,360,20","music, serenity, love,33,280,20","Kraken, and I love it.,39,240,20","It's art. (for some),7,120,20","Ashley","AWESOME VIOLIN!`,26,320,20","Jenna","this piece is okay. I wish it was more colorful, but it is certainly intriguing.,23,360,20","Andrea","Kraken, and I love it.,39,240,20","2"
"8157","","survey-text","253","1122287","0.0-252.0-0.0","A1IOE79K3G3VQD","","","","{""Q0"":""I like the cool colors in this painting.""}","","","","","","","","","","","","","","","","","","","","","","",""
"2729.6000000089407","","image-slider-response","254","1125020","0.0-253.0","A1IOE79K3G3VQD","","","","","26","","","","","","","","","","","","","","","","","","","","","",""
"1664","","image-button-response","255","1130025","0.0-254.0","A1IOE79K3G3VQD","img_art/20.jpg","2","","","","","","","","","","","","","","","","","","","","","","","","",""
"442","","image-button-response","256","1130471","0.0-255.0","A1IOE79K3G3VQD","img_art/20.jpg","2","","","","","","","","","","","","","","","","","","","","","","","","",""
"1645","","image-button-response","257","1132120","0.0-256.0-0.0","A1IOE79K3G3VQD","img_art/20.jpg","4","","","","","","","","","","","","","","","","","","","","","","","","",""
"1513","","image-button-response","258","1133637","0.0-257.0-0.0","A1IOE79K3G3VQD","img_art/20.jpg","0","","","","","","","","","","","","","","","","","","","","","","","","",""
"null","","html-keyboard-response","259","1134641","0.0-258.0","A1IOE79K3G3VQD","<p style=""font-size: 48px;"">+</p>","","","","","null","allTrialResponses","1000","1","30","img_art/20.jpg","26","I like the cool colors in this painting.","Ashley,Melissa,Jenna,Bailey,Andrea,Katelyn","Painting within a painting, abstract.,32,320,20","feels underdeveloped,-11,240,20","could look for hours. love the brush work. color choices look like a desert.,50,360,20","A bit hectic, but it does have a bit of coolness to it,6,360,20","Reminds me of persistance of time (a favorite of mine).,30,240,20","I do at least like the dark colors blending,6,100,20","Jenna","could look for hours. love the brush work. color choices look like a desert.,50,360,20","Andrea","Reminds me of persistance of time (a favorite of mine).,30,240,20","Ashley","Painting within a painting, abstract.,32,320,20","2"
"3151","","image-button-response_instructions","260","1137802","0.0-259.0","A1IOE79K3G3VQD","","0","instructions","","","","","","","","","","","","","","","","","","","","","","","",""
"1407","","image-button-response","261","1139220","0.0-260.0","A1IOE79K3G3VQD","","0","","","","","","","","","","","","","","","","","","","","","","","","",""
