"rt","url","trial_type","trial_index","time_elapsed","internal_node_id","participant_id","stimulus","button_pressed","Name","responses","response","key_press","variableName","fixationTime","condition","trial","photo","subjectRating","subjectResponse","agentsNames","agent_1_Response","agent_2_Response","agent_3_Response","agent_4_Response","agent_5_Response","agent_6_Response","kept_1_name","kept_1_response","kept_2_name","kept_2_response","kept_3_name","kept_3_response","errorCounter"
"5056","external_page_harvard.html","external-html","0","5203","0.0-0.0","A1IS0218RVG60K","","","","","","","","","","","","","","","","","","","","","","","","","","",""
"1591","","image-button-response","1","6801","0.0-1.0","A1IS0218RVG60K","","0","","","","","","","","","","","","","","","","","","","","","","","","",""
"7598","","image-button-response","2","14418","0.0-2.0-0.0","A1IS0218RVG60K","","1","phone","","","","","","","","","","","","","","","","","","","","","","","",""
"5303","","survey-text","3","19725","0.0-3.0-0.0","A1IS0218RVG60K","","","","{""Q0"":""A1IS0218RVG60K""}","","","","","","","","","","","","","","","","","","","","","","",""
"27376","","image-button-response_instructions","4","47106","0.0-4.0","A1IS0218RVG60K","","0","instructions","","","","","","","","","","","","","","","","","","","","","","","",""
"4244","","image-button-response_instructions","5","51354","0.0-5.0","A1IS0218RVG60K","img_art/ins/popularity/ins1.png","0","instructions","","","","","","","","","","","","","","","","","","","","","","","",""
"2033","","image-button-response_instructions","6","53391","0.0-6.0","A1IS0218RVG60K","img_art/ins/popularity/ins2.png","0","instructions","","","","","","","","","","","","","","","","","","","","","","","",""
"2073","","image-button-response_instructions","7","55468","0.0-7.0","A1IS0218RVG60K","img_art/ins/popularity/ins2Extreme.png","0","instructions","","","","","","","","","","","","","","","","","","","","","","","",""
"9394","","image-button-response_instructions","8","64866","0.0-8.0","A1IS0218RVG60K","img_art/ins/popularity/ins3KEEPpop.PNG","0","instructions","","","","","","","","","","","","","","","","","","","","","","","",""
"1558","","image-button-response_instructions","9","66430","0.0-9.0","A1IS0218RVG60K","img_art/ins/popularity/ins3ANamepop.PNG","0","instructions","","","","","","","","","","","","","","","","","","","","","","","",""
"1133","","image-button-response_instructions","10","67566","0.0-10.0","A1IS0218RVG60K","img_art/ins/popularity/ins3ARatingpop.png","0","instructions","","","","","","","","","","","","","","","","","","","","","","","",""
"1465","","image-button-response_instructions","11","69034","0.0-11.0","A1IS0218RVG60K","img_art/ins/popularity/ins3ATextpop.png","0","instructions","","","","","","","","","","","","","","","","","","","","","","","",""
"7079","","image-button-response_instructions","12","76116","0.0-12.0","A1IS0218RVG60K","img_art/ins/popularity/ins3ALikespop.png","0","instructions","","","","","","","","","","","","","","","","","","","","","","","",""
"6284","","image-button-response_instructions","13","82404","0.0-13.0","A1IS0218RVG60K","img_art/ins/popularity/ins3KEEPpop.PNG","0","instructions","","","","","","","","","","","","","","","","","","","","","","","",""
"7065","","image-button-response_instructions","14","89472","0.0-14.0","A1IS0218RVG60K","img_art/ins/popularity/ins3_5RED.png","0","instructions","","","","","","","","","","","","","","","","","","","","","","","",""
"1883","","image-button-response_instructions","15","91359","0.0-15.0","A1IS0218RVG60K","img_art/ins/popularity/ins3KEEPpop.PNG","0","instructions","","","","","","","","","","","","","","","","","","","","","","","",""
"7599","","image-button-response_instructions","16","98962","0.0-16.0","A1IS0218RVG60K","img_art/ins/popularity/ins4KEEPpop.PNG","0","instructions","","","","","","","","","","","","","","","","","","","","","","","",""
"2256","","image-button-response_instructions","17","101222","0.0-17.0","A1IS0218RVG60K","img_art/ins/popularity/ins5KEEPpop.PNG","0","instructions","","","","","","","","","","","","","","","","","","","","","","","",""
"1510","","image-button-response_instructions","18","102735","0.0-18.0","A1IS0218RVG60K","","0","instructions","","","","","","","","","","","","","","","","","","","","","","","",""
"8218","","survey-text","19","111015","0.0-19.0-0.0","A1IS0218RVG60K","","","","{""Q0"":""but""}","","","","","","","","","","","","","","","","","","","","","","",""
"19985","","survey-text","20","131005","0.0-20.0-0.0","A1IS0218RVG60K","","","","{""Q0"":""I like the color palette""}","","","","","","","","","","","","","","","","","","","","","","",""
"5151.5","","image-slider-response","21","136165","0.0-21.0","A1IS0218RVG60K","","","","","11","","","","","","","","","","","","","","","","","","","","","",""
"null","","image-button-response","22","141173","0.0-22.0","A1IS0218RVG60K","img_art/ins/1.jpg","null","","","","","","","","","","","","","","","","","","","","","","","","",""
"7086","","image-button-response","23","148264","0.0-23.0","A1IS0218RVG60K","img_art/ins/1.jpg","0","","","","","","","","","","","","","","","","","","","","","","","","",""
"8363","","image-button-response","24","156633","0.0-24.0-0.0","A1IS0218RVG60K","img_art/ins/1.jpg","5","","","","","","","","","","","","","","","","","","","","","","","","",""
"4667","","image-button-response","25","161306","0.0-25.0-0.0","A1IS0218RVG60K","img_art/ins/1.jpg","0","","","","","","","","","","","","","","","","","","","","","","","","",""
"3385","","image-button-response","26","168433","0.0-25.1-0.1","A1IS0218RVG60K","img_art/ins/1.jpg","1","","","","","","","","","","","","","","","","","","","","","","","","",""
"null","","html-keyboard-response","27","169437","0.0-26.0","A1IS0218RVG60K","<p style=""font-size: 48px;"">+</p>","","","","","null","allTrialResponses","1000","1","-2","img_art/ins/1.jpg","11","I like the color palette","Adam,Alex,Ben,Carl,Daniel,Jack","Seems like doodles,-20,20,20","very creative work.,36,40,20","This color reminds me of poo,-46,60,20","very calming artwork,42,80,20","It looks like a murder scene.,-48,100,20","I like the sophisticated brushwork,40,120,20","Adam","Seems like doodles,-20,20,20","Jack","I like the sophisticated brushwork,40,120,20","Alex","very creative work.,36,40,20","2"
"11103","","survey-text","28","180554","0.0-27.0-0.0","A1IS0218RVG60K","","","","{""Q0"":""Feels rather oppressive to me""}","","","","","","","","","","","","","","","","","","","","","","",""
"2944.5999999996275","","image-slider-response","29","183503","0.0-28.0","A1IS0218RVG60K","","","","","-20","","","","","","","","","","","","","","","","","","","","","",""
"null","","image-button-response","30","188509","0.0-29.0","A1IS0218RVG60K","img_art/ins/2.jpg","null","","","","","","","","","","","","","","","","","","","","","","","","",""
"3146","","image-button-response","31","191660","0.0-30.0","A1IS0218RVG60K","img_art/ins/2.jpg","3","","","","","","","","","","","","","","","","","","","","","","","","",""
"2040","","image-button-response","32","193706","0.0-31.0-0.0","A1IS0218RVG60K","img_art/ins/2.jpg","0","","","","","","","","","","","","","","","","","","","","","","","","",""
"2259","","image-button-response","33","195971","0.0-32.0-0.0","A1IS0218RVG60K","img_art/ins/2.jpg","2","","","","","","","","","","","","","","","","","","","","","","","","",""
"null","","html-keyboard-response","34","197475","0.0-33.0","A1IS0218RVG60K","<p style=""font-size: 48px;"">+</p>","","","","","null","allTrialResponses","1500","1","-1","img_art/ins/2.jpg","-20","Feels rather oppressive to me","Adam,Alex,Kyle,James,John,Jack","too much color,-18,20,20","I like the blocks of color arrangements,30,40,20","Idk, it is just annoying,-32,180,20","looks too angry,-50,140,20","love the texture of paint,48,160,20","I would never be able to compose a sophisticated pallete like this,48,120,20","James","looks too angry,-50,140,20","Adam","too much color,-18,20,20","Kyle","Idk, it is just annoying,-32,180,20","2"
"16377","","survey-text","35","213863","0.0-34.0-0.0","A1IS0218RVG60K","","","","{""Q0"":""It feels like a cold temperature, sort of nice""}","","","","","","","","","","","","","","","","","","","","","","",""
"3564","","image-slider-response","36","217433","0.0-35.0","A1IS0218RVG60K","","","","","6","","","","","","","","","","","","","","","","","","","","","",""
"3168","","image-button-response","37","222441","0.0-36.0","A1IS0218RVG60K","img_art/ins/3.jpg","1","","","","","","","","","","","","","","","","","","","","","","","","",""
"1626","","image-button-response","38","224073","0.0-37.0","A1IS0218RVG60K","img_art/ins/3.jpg","5","","","","","","","","","","","","","","","","","","","","","","","","",""
"4458","","image-button-response","39","228535","0.0-38.0-0.0","A1IS0218RVG60K","img_art/ins/3.jpg","0","","","","","","","","","","","","","","","","","","","","","","","","",""
"2087","","image-button-response","40","230627","0.0-39.0-0.0","A1IS0218RVG60K","img_art/ins/3.jpg","1","","","","","","","","","","","","","","","","","","","","","","","","",""
"null","","html-keyboard-response","41","231130","0.0-40.0","A1IS0218RVG60K","<p style=""font-size: 48px;"">+</p>","","","","","null","allTrialResponses","500","1","0","img_art/ins/3.jpg","6","It feels like a cold temperature, sort of nice","Adam,Mike,Kyle,James,Ron,Sam","My daily routine, it's depressing,-20,20,20","enjoy the different shades of blue,22,200,20","It looks like a playground for bats,-36,180,20","My worst nightmare,-42,140,20","It looks depressing,-26,220,20","I can feel a rainy day from this painting,18,240,20","Sam","I can feel a rainy day from this painting,18,240,20","Adam","My daily routine, it's depressing,-20,20,20","Mike","enjoy the different shades of blue,22,200,20","2"
"2883","","image-button-response_instructions","42","234029","0.0-41.0","A1IS0218RVG60K","","0","instructions","","","","","","","","","","","","","","","","","","","","","","","",""
"44060","","survey-likert","43","278095","0.0-42.0-0.0","A1IS0218RVG60K","","","","{""Q0"":"""",""Q1"":0,""Q2"":1}","","","","","","","","","","","","","","","","","","","","","","",""
"5674","","survey-text","44","283783","0.0-43.0-0.0","A1IS0218RVG60K","","","","{""Q0"":""rock""}","","","","","","","","","","","","","","","","","","","","","","",""
"21346","","survey-text","45","305134","0.0-44.0-0.0","A1IS0218RVG60K","","","","{""Q0"":""I like how it is sort of a room or architecture""}","","","","","","","","","","","","","","","","","","","","","","",""
"2898.0999999996275","","image-slider-response","46","308038","0.0-45.0","A1IS0218RVG60K","","","","","7","","","","","","","","","","","","","","","","","","","","","",""
"null","","image-button-response","47","313083","0.0-46.0","A1IS0218RVG60K","img_art/29.jpg","null","","","","","","","","","","","","","","","","","","","","","","","","",""
"15184","","image-button-response","48","328273","0.0-47.0","A1IS0218RVG60K","img_art/29.jpg","1","","","","","","","","","","","","","","","","","","","","","","","","",""
"1454","","image-button-response","49","329736","0.0-48.0-0.0","A1IS0218RVG60K","img_art/29.jpg","2","","","","","","","","","","","","","","","","","","","","","","","","",""
"2140","","image-button-response","50","331882","0.0-49.0-0.0","A1IS0218RVG60K","img_art/29.jpg","5","","","","","","","","","","","","","","","","","","","","","","","","",""
"null","","html-keyboard-response","51","333386","0.0-50.0","A1IS0218RVG60K","<p style=""font-size: 48px;"">+</p>","","","","","null","allTrialResponses","1500","1","1","img_art/29.jpg","7","I like how it is sort of a room or architecture","Michael,Ian,Victor,Isaiah,Derek,Logan","Looks literally like garbage.,-45,140,20","This feels chaotic and I like the energy that it gives off.,21,260,20","I like the colors but it looks very amateur,1,340,20","I feel a little disgust. There is something off-putting about the smooth shapes and dark colors.,-43,300,20","Very wild and I like it,20,360,20","is this supposed to be edgy,-21,360,20","Ian","This feels chaotic and I like the energy that it gives off.,21,260,20","Victor","I like the colors but it looks very amateur,1,340,20","Logan","is this supposed to be edgy,-21,360,20","2"
"16400","","survey-text","52","349800","0.0-51.0-0.0","A1IS0218RVG60K","","","","{""Q0"":""The feathery look is quite nice""}","","","","","","","","","","","","","","","","","","","","","","",""
"3357.0999999996275","","image-slider-response","53","353163","0.0-52.0","A1IS0218RVG60K","","","","","20","","","","","","","","","","","","","","","","","","","","","",""
"2890","","image-button-response","54","358169","0.0-53.0","A1IS0218RVG60K","img_art/17.jpg","1","","","","","","","","","","","","","","","","","","","","","","","","",""
"1327","","image-button-response","55","359503","0.0-54.0","A1IS0218RVG60K","img_art/17.jpg","5","","","","","","","","","","","","","","","","","","","","","","","","",""
"2078","","image-button-response","56","361588","0.0-55.0-0.0","A1IS0218RVG60K","img_art/17.jpg","1","","","","","","","","","","","","","","","","","","","","","","","","",""
"3211","","image-button-response","57","364805","0.0-56.0-0.0","A1IS0218RVG60K","img_art/17.jpg","0","","","","","","","","","","","","","","","","","","","","","","","","",""
"null","","html-keyboard-response","58","365810","0.0-57.0","A1IS0218RVG60K","<p style=""font-size: 48px;"">+</p>","","","","","null","allTrialResponses","1000","1","2","img_art/17.jpg","20","The feathery look is quite nice","Brian,Ian,Victor,Colton,Shawn,Logan","I'm not into paintings of trees,-18,380,20","It seems a little dark but it is very beautiful,28,260,20","cool. Sharp and blocky below, light and flowing on top. Overall pleasing to look at,32,340,20","its whimsical and light,50,220,20","Pretty but a little cheesy,-10,100,20","similar to last one, still pretty cool but I liked arrangement of last one better,13,360,20","Logan","similar to last one, still pretty cool but I liked arrangement of last one better,13,360,20","Ian","It seems a little dark but it is very beautiful,28,260,20","Brian","I'm not into paintings of trees,-18,380,20","2"
"6124","","survey-text","59","371942","0.0-58.0-0.0","A1IS0218RVG60K","","","","{""Q0"":""I think it is ugly""}","","","","","","","","","","","","","","","","","","","","","","",""
"2695.5","","image-slider-response","60","374643","0.0-59.0","A1IS0218RVG60K","","","","","-33","","","","","","","","","","","","","","","","","","","","","",""
"3132","","image-button-response","61","379648","0.0-60.0","A1IS0218RVG60K","img_art/4.jpg","1","","","","","","","","","","","","","","","","","","","","","","","","",""
"92","","image-button-response","62","379746","0.0-61.0","A1IS0218RVG60K","img_art/4.jpg","4","","","","","","","","","","","","","","","","","","","","","","","","",""
"2293","","image-button-response","63","382044","0.0-62.0-0.0","A1IS0218RVG60K","img_art/4.jpg","0","","","","","","","","","","","","","","","","","","","","","","","","",""
"1162","","image-button-response","64","383211","0.0-63.0-0.0","A1IS0218RVG60K","img_art/4.jpg","1","","","","","","","","","","","","","","","","","","","","","","","","",""
"null","","html-keyboard-response","65","384716","0.0-64.0","A1IS0218RVG60K","<p style=""font-size: 48px;"">+</p>","","","","","null","allTrialResponses","1500","1","3","img_art/4.jpg","-33","I think it is ugly","Brian,Ian,Connor,Alexis,Caleb,Logan","it reminds me of McDonalds, and not in a good way.,-34,380,20","I just don't understand this one at all, I do not like it,-43,260,20","Seems simplistic,-8,240,20","The bold colors are exciting. It looks like a statue on someone's mantle.,18,140,20","Colors are horrendous, look like bodily fluids have been smeared.,-50,40,20","it looks like a preschooler just dragged his fingers around,-36,360,20","Caleb","Colors are horrendous, look like bodily fluids have been smeared.,-50,40,20","Brian","it reminds me of McDonalds, and not in a good way.,-34,380,20","Ian","I just don't understand this one at all, I do not like it,-43,260,20","2"
"10276","","survey-text","66","395007","0.0-65.0-0.0","A1IS0218RVG60K","","","","{""Q0"":""It looks like an unfinished piece""}","","","","","","","","","","","","","","","","","","","","","","",""
"3346.4000000003725","","image-slider-response","67","398360","0.0-66.0","A1IS0218RVG60K","","","","","-24","","","","","","","","","","","","","","","","","","","","","",""
"4213","","image-button-response","68","403363","0.0-67.0","A1IS0218RVG60K","img_art/15.jpg","5","","","","","","","","","","","","","","","","","","","","","","","","",""
"1405","","image-button-response","69","404777","0.0-68.0","A1IS0218RVG60K","img_art/15.jpg","5","","","","","","","","","","","","","","","","","","","","","","","","",""
"2094","","image-button-response","70","406879","0.0-69.0-0.0","A1IS0218RVG60K","img_art/15.jpg","2","","","","","","","","","","","","","","","","","","","","","","","","",""
"1819","","image-button-response","71","408706","0.0-70.0-0.0","A1IS0218RVG60K","img_art/15.jpg","1","","","","","","","","","","","","","","","","","","","","","","","","",""
"null","","html-keyboard-response","72","409210","0.0-71.0","A1IS0218RVG60K","<p style=""font-size: 48px;"">+</p>","","","","","null","allTrialResponses","500","1","4","img_art/15.jpg","-24","It looks like an unfinished piece","Brian,Ian,Jake,Richard,Caleb,Chase","This is simply too ""old-school"",-27,380,20","This gives a skin crawling feeling. Like something that you could see under a mircoscope,10,260,20","This looks odd and was not well executed.,-3,360,20","dark and provoking,-50,340,20","Love the accent colors in this piece!,20,40,20","I don't like how the black dots are aligned.,-20,120,20","Chase","I don't like how the black dots are aligned.,-20,120,20","Jake","This looks odd and was not well executed.,-3,360,20","Ian","This gives a skin crawling feeling. Like something that you could see under a mircoscope,10,260,20","2"
"10142","","survey-text","73","419366","0.0-72.0-0.0","A1IS0218RVG60K","","","","{""Q0"":""The primary colors are garish""}","","","","","","","","","","","","","","","","","","","","","","",""
"5001.800000000745","","image-slider-response","74","424377","0.0-73.0","A1IS0218RVG60K","","","","","-36","","","","","","","","","","","","","","","","","","","","","",""
"3128","","image-button-response","75","429384","0.0-74.0","A1IS0218RVG60K","img_art/22.jpg","2","","","","","","","","","","","","","","","","","","","","","","","","",""
"3034","","image-button-response","76","432425","0.0-75.0","A1IS0218RVG60K","img_art/22.jpg","2","","","","","","","","","","","","","","","","","","","","","","","","",""
"2268","","image-button-response","77","434701","0.0-76.0-0.0","A1IS0218RVG60K","img_art/22.jpg","5","","","","","","","","","","","","","","","","","","","","","","","","",""
"1172","","image-button-response","78","435880","0.0-77.0-0.0","A1IS0218RVG60K","img_art/22.jpg","3","","","","","","","","","","","","","","","","","","","","","","","","",""
"null","","html-keyboard-response","79","436384","0.0-78.0","A1IS0218RVG60K","<p style=""font-size: 48px;"">+</p>","","","","","null","allTrialResponses","500","1","5","img_art/22.jpg","-36","The primary colors are garish","Timothy,Ian,Jake,Robert,Bryce,Chase","This painting has a very nostalgic feel,20,240,20","Its very warm, it reminds of someone not liking their painting so they destoryed it,26,260,20","It's bland and ugly.,-21,360,20","I don't get much of a reaction.,11,360,20","So colorful i love it!,22,20,20","I feel like I've seen this one already.,-9,120,20","Jake","It's bland and ugly.,-21,360,20","Chase","I feel like I've seen this one already.,-9,120,20","Robert","I don't get much of a reaction.,11,360,20","2"
"3704","","survey-text","80","440110","0.0-79.0-0.0","A1IS0218RVG60K","","","","{""Q0"":""sky""}","","","","","","","","","","","","","","","","","","","","","","",""
"12325","","survey-text","81","452440","0.0-80.0-0.0","A1IS0218RVG60K","","","","{""Q0"":""This is too chaotic for me""}","","","","","","","","","","","","","","","","","","","","","","",""
"12160","","image-slider-response","82","464607","0.0-81.0","A1IS0218RVG60K","","","","","-9","","","","","","","","","","","","","","","","","","","","","",""
"null","","image-button-response","83","469610","0.0-82.0","A1IS0218RVG60K","img_art/23.jpg","null","","","","","","","","","","","","","","","","","","","","","","","","",""
"857","","image-button-response","84","470473","0.0-83.0","A1IS0218RVG60K","img_art/23.jpg","2","","","","","","","","","","","","","","","","","","","","","","","","",""
"2290","","image-button-response","85","472767","0.0-84.0-0.0","A1IS0218RVG60K","img_art/23.jpg","0","","","","","","","","","","","","","","","","","","","","","","","","",""
"6172","","image-button-response","86","478944","0.0-85.0-0.0","A1IS0218RVG60K","img_art/23.jpg","4","","","","","","","","","","","","","","","","","","","","","","","","",""
"null","","html-keyboard-response","87","479446","0.0-86.0","A1IS0218RVG60K","<p style=""font-size: 48px;"">+</p>","","","","","null","allTrialResponses","500","1","6","img_art/23.jpg","-9","This is too chaotic for me","Jeremy,David,Jake,Robert,Bradley,Chase","Does not incite any emotional response,1,60,20","I like the symmetrical design and how it portrays the liveliness of a musical environment.,30,340,20","This looks like hotel room art, it's ugly and odd.,-2,360,20","This makes me think of an orchestra playing a forth of july song,12,360,20","I like the contrast and the bright colors in this one.,6,300,20","It's kind of neat with the white slash marks.,13,120,20","Jake","This looks like hotel room art, it's ugly and odd.,-2,360,20","Jeremy","Does not incite any emotional response,1,60,20","Bradley","I like the contrast and the bright colors in this one.,6,300,20","2"
"8199","","survey-text","88","487657","0.0-87.0-0.0","A1IS0218RVG60K","","","","{""Q0"":""It is blurry and nasty looking""}","","","","","","","","","","","","","","","","","","","","","","",""
"2784.300000000745","","image-slider-response","89","490447","0.0-88.0","A1IS0218RVG60K","","","","","-37","","","","","","","","","","","","","","","","","","","","","",""
"3545","","image-button-response","90","495453","0.0-89.0","A1IS0218RVG60K","img_art/21.jpg","0","","","","","","","","","","","","","","","","","","","","","","","","",""
"620","","image-button-response","91","496078","0.0-90.0","A1IS0218RVG60K","img_art/21.jpg","0","","","","","","","","","","","","","","","","","","","","","","","","",""
"1511","","image-button-response","92","497596","0.0-91.0-0.0","A1IS0218RVG60K","img_art/21.jpg","4","","","","","","","","","","","","","","","","","","","","","","","","",""
"3174","","image-button-response","93","500779","0.0-92.0-0.0","A1IS0218RVG60K","img_art/21.jpg","3","","","","","","","","","","","","","","","","","","","","","","","","",""
"null","","html-keyboard-response","94","502284","0.0-93.0","A1IS0218RVG60K","<p style=""font-size: 48px;"">+</p>","","","","","null","allTrialResponses","1500","1","7","img_art/21.jpg","-37","It is blurry and nasty looking","Jeremy,Jack,Jake,Dakota,Bradley,Scott","the picture is boring,1,60,20","beautiful. reminds me of a storm brewing over sea. i love the white dots.,45,320,20","It looks epic and is nice to look at in terms of colors/style.,23,360,20","a serene, calm and eloquent storm,9,280,20","Indifferent toward this one.,6,300,20","looks like a sunrise, great colors,40,20,20","Jeremy","the picture is boring,1,60,20","Bradley","Indifferent toward this one.,6,300,20","Dakota","a serene, calm and eloquent storm,9,280,20","2"
"16264","","survey-text","95","518564","0.0-94.0-0.0","A1IS0218RVG60K","","","","{""Q0"":""It is disharmonious looking""}","","","","","","","","","","","","","","","","","","","","","","",""
"3154.300000000745","","image-slider-response","96","521723","0.0-95.0","A1IS0218RVG60K","","","","","-43","","","","","","","","","","","","","","","","","","","","","",""
"3954","","image-button-response","97","526728","0.0-96.0","A1IS0218RVG60K","img_art/27.jpg","1","","","","","","","","","","","","","","","","","","","","","","","","",""
"564","","image-button-response","98","527298","0.0-97.0","A1IS0218RVG60K","img_art/27.jpg","4","","","","","","","","","","","","","","","","","","","","","","","","",""
"2400","","image-button-response","99","529705","0.0-98.0-0.0","A1IS0218RVG60K","img_art/27.jpg","3","","","","","","","","","","","","","","","","","","","","","","","","",""
"1474","","image-button-response","100","531185","0.0-99.0-0.0","A1IS0218RVG60K","img_art/27.jpg","1","","","","","","","","","","","","","","","","","","","","","","","","",""
"null","","html-keyboard-response","101","532689","0.0-100.0","A1IS0218RVG60K","<p style=""font-size: 48px;"">+</p>","","","","","null","allTrialResponses","1500","1","8","img_art/27.jpg","-43","It is disharmonious looking","Jeremy,John,Jose,Dakota,Bradley,Andrew","Pleased. Reminds me of a child drawing,46,60,20","Looks as if a toddler painted it,-20,120,20","it's like a weird version of heaven,16,200,20","feels like a bar scene, tucked away in the corner of a small town,-40,280,20","Yikes. I think I made this in kindergarten.,-20,300,20","Reminds me of a town on fire,-15,160,20","Bradley","Yikes. I think I made this in kindergarten.,-20,300,20","Dakota","feels like a bar scene, tucked away in the corner of a small town,-40,280,20","John","Looks as if a toddler painted it,-20,120,20","2"
"8826","","survey-text","102","541528","0.0-101.0-0.0","A1IS0218RVG60K","","","","{""Q0"":""The texture of the paint looks nice""}","","","","","","","","","","","","","","","","","","","","","","",""
"2982.0999999996275","","image-slider-response","103","544516","0.0-102.0","A1IS0218RVG60K","","","","","15","","","","","","","","","","","","","","","","","","","","","",""
"3755","","image-button-response","104","549520","0.0-103.0","A1IS0218RVG60K","img_art/30.jpg","5","","","","","","","","","","","","","","","","","","","","","","","","",""
"1301","","image-button-response","105","550828","0.0-104.0","A1IS0218RVG60K","img_art/30.jpg","5","","","","","","","","","","","","","","","","","","","","","","","","",""
"3329","","image-button-response","106","554162","0.0-105.0-0.0","A1IS0218RVG60K","img_art/30.jpg","0","","","","","","","","","","","","","","","","","","","","","","","","",""
"2761","","image-button-response","107","556929","0.0-106.0-0.0","A1IS0218RVG60K","img_art/30.jpg","4","","","","","","","","","","","","","","","","","","","","","","","","",""
"null","","html-keyboard-response","108","557431","0.0-107.0","A1IS0218RVG60K","<p style=""font-size: 48px;"">+</p>","","","","","null","allTrialResponses","500","1","9","img_art/30.jpg","15","The texture of the paint looks nice","Jonathan,John,William,Dakota,Bradley,Aaron","I like the softness of this but it doesn't make me feel that nice,5,140,20","ugly nasty colors,-10,120,20","to dark and dreary,-28,380,20","sloppy, unintentional,-20,280,20","Hmmm. I think the artist is trying to direct me to a spreadsheet?  (s/s),-10,300,20","It looks like a pretty but unremarkable painting in a doctors office,15,20,20","Aaron","It looks like a pretty but unremarkable painting in a doctors office,15,20,20","Jonathan","I like the softness of this but it doesn't make me feel that nice,5,140,20","Bradley","Hmmm. I think the artist is trying to direct me to a spreadsheet?  (s/s),-10,300,20","2"
"12663","","survey-text","109","570112","0.0-108.0-0.0","A1IS0218RVG60K","","","","{""Q0"":""It looks horrendous""}","","","","","","","","","","","","","","","","","","","","","","",""
"2715.800000000745","","image-slider-response","110","572832","0.0-109.0","A1IS0218RVG60K","","","","","-45","","","","","","","","","","","","","","","","","","","","","",""
"null","","image-button-response","111","577837","0.0-110.0","A1IS0218RVG60K","img_art/10.jpg","null","","","","","","","","","","","","","","","","","","","","","","","","",""
"811","","image-button-response","112","578653","0.0-111.0","A1IS0218RVG60K","img_art/10.jpg","0","","","","","","","","","","","","","","","","","","","","","","","","",""
"2070","","image-button-response","113","580728","0.0-112.0-0.0","A1IS0218RVG60K","img_art/10.jpg","0","","","","","","","","","","","","","","","","","","","","","","","","",""
"1324","","image-button-response","114","584939","0.0-112.1-0.1","A1IS0218RVG60K","img_art/10.jpg","3","","","","","","","","","","","","","","","","","","","","","","","","",""
"755","","image-button-response","115","585702","0.0-113.0-0.0","A1IS0218RVG60K","img_art/10.jpg","4","","","","","","","","","","","","","","","","","","","","","","","","",""
"null","","html-keyboard-response","116","586704","0.0-114.0","A1IS0218RVG60K","<p style=""font-size: 48px;"">+</p>","","","","","null","allTrialResponses","1000","1","10","img_art/10.jpg","-45","It looks horrendous","Jonathan,Vincent,Tristan,Stephen,Bradley,Aaron","Too much negative space makes it feel unfinished,-25,140,20","A very conversational piece could be of many different ideas,38,360,20","Highly abstract and yet the shapes and colors provide an emotional accessibility for me.,20,300,20","Very nice painting, would like it more with different color choice.,6,140,20","This piece is very intriguing to me.,3,300,20","I like how simple but intricate it is.,30,20,20","Jonathan","Too much negative space makes it feel unfinished,-25,140,20","Stephen","Very nice painting, would like it more with different color choice.,6,140,20","Bradley","This piece is very intriguing to me.,3,300,20","4"
"2921","","survey-text","117","589648","0.0-115.0-0.0","A1IS0218RVG60K","","","","{""Q0"":""our""}","","","","","","","","","","","","","","","","","","","","","","",""
"10056","","survey-text","118","599711","0.0-116.0-0.0","A1IS0218RVG60K","","","","{""Q0"":""This just looks totally awful""}","","","","","","","","","","","","","","","","","","","","","","",""
"3517","","image-slider-response","119","603233","0.0-117.0","A1IS0218RVG60K","","","","","-44","","","","","","","","","","","","","","","","","","","","","",""
"4274","","image-button-response","120","608238","0.0-118.0","A1IS0218RVG60K","img_art/28.jpg","0","","","","","","","","","","","","","","","","","","","","","","","","",""
"905","","image-button-response","121","609171","0.0-119.0","A1IS0218RVG60K","img_art/28.jpg","4","","","","","","","","","","","","","","","","","","","","","","","","",""
"1154","","image-button-response","122","610330","0.0-120.0-0.0","A1IS0218RVG60K","img_art/28.jpg","2","","","","","","","","","","","","","","","","","","","","","","","","",""
"930","","image-button-response","123","611266","0.0-121.0-0.0","A1IS0218RVG60K","img_art/28.jpg","0","","","","","","","","","","","","","","","","","","","","","","","","",""
"null","","html-keyboard-response","124","611769","0.0-122.0","A1IS0218RVG60K","<p style=""font-size: 48px;"">+</p>","","","","","null","allTrialResponses","500","1","11","img_art/28.jpg","-44","This just looks totally awful","Jonathan,Christopher,Noah,Stephen,Bradley,Brandon","The lack of color variance leaves it looking ugly even if I like the brush strokes,-10,140,20","something about all the off-greys is pretty interesting,5,160,20","I want to like it, but I'm not really sure what to make of it,2,260,20","Good use of shapes.,7,140,20","I think this may have to do with humpty dumpty?,-7,300,20","Interesting. I like the ""old woman"" on the left. Lots of different entities to look at,21,320,20","Bradley","I think this may have to do with humpty dumpty?,-7,300,20","Noah","I want to like it, but I'm not really sure what to make of it,2,260,20","Jonathan","The lack of color variance leaves it looking ugly even if I like the brush strokes,-10,140,20","4"
"11868","","survey-text","125","623649","0.0-123.0-0.0","A1IS0218RVG60K","","","","{""Q0"":""I don't like the primary colors""}","","","","","","","","","","","","","","","","","","","","","","",""
"5071.699999999255","","image-slider-response","126","628727","0.0-124.0","A1IS0218RVG60K","","","","","-21","","","","","","","","","","","","","","","","","","","","","",""
"3457","","image-button-response","127","633733","0.0-125.0","A1IS0218RVG60K","img_art/1.jpg","2","","","","","","","","","","","","","","","","","","","","","","","","",""
"100","","image-button-response","128","633842","0.0-126.0","A1IS0218RVG60K","img_art/1.jpg","3","","","","","","","","","","","","","","","","","","","","","","","","",""
"1148","","image-button-response","129","634996","0.0-127.0-0.0","A1IS0218RVG60K","img_art/1.jpg","5","","","","","","","","","","","","","","","","","","","","","","","","",""
"1062","","image-button-response","130","636065","0.0-128.0-0.0","A1IS0218RVG60K","img_art/1.jpg","2","","","","","","","","","","","","","","","","","","","","","","","","",""
"null","","html-keyboard-response","131","637067","0.0-129.0","A1IS0218RVG60K","<p style=""font-size: 48px;"">+</p>","","","","","null","allTrialResponses","1000","1","12","img_art/1.jpg","-21","I don't like the primary colors","Jonathan,Evan,Noah,Miguel,Bradley,Samuel","I love the colors but it's too intense sometimes,22,140,20","It is beautiful, I really enjoy the colors,32,140,20","the bright colours evoke the 90s, and not their best part,-10,260,20","Doesn't represent anything in particular.,-47,160,20","This is a great piece that has a lot more going on the longer you look at it. I like it!,30,300,20","feels like there is meaning,9,400,20","Miguel","Doesn't represent anything in particular.,-47,160,20","Samuel","feels like there is meaning,9,400,20","Noah","the bright colours evoke the 90s, and not their best part,-10,260,20","4"
"14622","","survey-text","132","651704","0.0-130.0-0.0","A1IS0218RVG60K","","","","{""Q0"":""I think I recognize a chair, that looks cool""}","","","","","","","","","","","","","","","","","","","","","","",""
"3490.9000000003725","","image-slider-response","133","655202","0.0-131.0","A1IS0218RVG60K","","","","","4","","","","","","","","","","","","","","","","","","","","","",""
"null","","image-button-response","134","660209","0.0-132.0","A1IS0218RVG60K","img_art/19.jpg","null","","","","","","","","","","","","","","","","","","","","","","","","",""
"1373","","image-button-response","135","661588","0.0-133.0","A1IS0218RVG60K","img_art/19.jpg","1","","","","","","","","","","","","","","","","","","","","","","","","",""
"1198","","image-button-response","136","662793","0.0-134.0-0.0","A1IS0218RVG60K","img_art/19.jpg","3","","","","","","","","","","","","","","","","","","","","","","","","",""
"1053","","image-button-response","137","663852","0.0-135.0-0.0","A1IS0218RVG60K","img_art/19.jpg","4","","","","","","","","","","","","","","","","","","","","","","","","",""
"null","","html-keyboard-response","138","664855","0.0-136.0","A1IS0218RVG60K","<p style=""font-size: 48px;"">+</p>","","","","","null","allTrialResponses","1000","1","13","img_art/19.jpg","4","I think I recognize a chair, that looks cool","Cody,Zachary,Noah,Miguel,Travis,Samuel","Interesting, leaves you wondering what it is,40,180,20","Reminds me of a busy town. Chaotic in nature.,-11,400,20","the way the landscape is portrayed captivates me - I enjoy studying the structure,32,260,20","Messy and kid like.,-36,160,20","Nuetral...can't think of anything to say,4,260,20","city life energy,8,400,20","Zachary","Reminds me of a busy town. Chaotic in nature.,-11,400,20","Miguel","Messy and kid like.,-36,160,20","Travis","Nuetral...can't think of anything to say,4,260,20","4"
"10776","","survey-text","139","675646","0.0-137.0-0.0","A1IS0218RVG60K","","","","{""Q0"":""I like how it looks like a real texture""}","","","","","","","","","","","","","","","","","","","","","","",""
"2582.0999999996275","","image-slider-response","140","678234","0.0-138.0","A1IS0218RVG60K","","","","","11","","","","","","","","","","","","","","","","","","","","","",""
"4383","","image-button-response","141","683239","0.0-139.0","A1IS0218RVG60K","img_art/7.jpg","4","","","","","","","","","","","","","","","","","","","","","","","","",""
"536","","image-button-response","142","683782","0.0-140.0","A1IS0218RVG60K","img_art/7.jpg","1","","","","","","","","","","","","","","","","","","","","","","","","",""
"1042","","image-button-response","143","684829","0.0-141.0-0.0","A1IS0218RVG60K","img_art/7.jpg","4","","","","","","","","","","","","","","","","","","","","","","","","",""
"1223","","image-button-response","144","686057","0.0-142.0-0.0","A1IS0218RVG60K","img_art/7.jpg","3","","","","","","","","","","","","","","","","","","","","","","","","",""
"null","","html-keyboard-response","145","686559","0.0-143.0","A1IS0218RVG60K","<p style=""font-size: 48px;"">+</p>","","","","","null","allTrialResponses","500","1","14","img_art/7.jpg","11","I like how it looks like a real texture","Justin,Zachary,Mason,Miguel,Travis,Thomas","It looks like a wall, not really something I'd enjoy looking at.,-12,280,20","Looks like a desert or another planet. While the color choices are narrow, it's still interesting because it is very natural.,12,400,20","I don't get it. looks like a picture of the ground.,-42,100,20","Well done minimalism.,35,160,20","Just neutral...looks like sand at the beach.,3,260,20","Confusion, mild aversion,-36,220,20","Zachary","Looks like a desert or another planet. While the color choices are narrow, it's still interesting because it is very natural.,12,400,20","Travis","Just neutral...looks like sand at the beach.,3,260,20","Miguel","Well done minimalism.,35,160,20","4"
"14861","","survey-text","146","701432","0.0-144.0-0.0","A1IS0218RVG60K","","","","{""Q0"":""I like how this is a street scene""}","","","","","","","","","","","","","","","","","","","","","","",""
"2849.2000000011176","","image-slider-response","147","704286","0.0-145.0","A1IS0218RVG60K","","","","","21","","","","","","","","","","","","","","","","","","","","","",""
"4378","","image-button-response","148","709291","0.0-146.0","A1IS0218RVG60K","img_art/26.jpg","2","","","","","","","","","","","","","","","","","","","","","","","","",""
"569","","image-button-response","149","709866","0.0-147.0","A1IS0218RVG60K","img_art/26.jpg","1","","","","","","","","","","","","","","","","","","","","","","","","",""
"758","","image-button-response","150","710630","0.0-148.0-0.0","A1IS0218RVG60K","img_art/26.jpg","2","","","","","","","","","","","","","","","","","","","","","","","","",""
"1616","","image-button-response","151","712250","0.0-149.0-0.0","A1IS0218RVG60K","img_art/26.jpg","0","","","","","","","","","","","","","","","","","","","","","","","","",""
"null","","html-keyboard-response","152","712753","0.0-150.0","A1IS0218RVG60K","<p style=""font-size: 48px;"">+</p>","","","","","null","allTrialResponses","500","1","15","img_art/26.jpg","21","I like how this is a street scene","Alexander,Zachary,Ryan,Miguel,Travis,Sean","Confusing park picture.,8,120,20","Pretty trees and bushes around fancy brown stones. I like the soft nature.,20,400,20","Pleasant to look at,28,380,20","Murky, messy, kid like.,-45,160,20","Neutral...nothing to say.,3,260,20","picture looks alright,1,40,20","Zachary","Pretty trees and bushes around fancy brown stones. I like the soft nature.,20,400,20","Ryan","Pleasant to look at,28,380,20","Alexander","Confusing park picture.,8,120,20","4"
"4528","","survey-text","153","717301","0.0-151.0-0.0","A1IS0218RVG60K","","","","{""Q0"":""course""}","","","","","","","","","","","","","","","","","","","","","","",""
"29949","","survey-text","154","747257","0.0-152.0-0.0","A1IS0218RVG60K","","","","{""Q0"":""I don't like the indistinct face""}","","","","","","","","","","","","","","","","","","","","","","",""
"2418.300000000745","","image-slider-response","155","749683","0.0-153.0","A1IS0218RVG60K","","","","","-13","","","","","","","","","","","","","","","","","","","","","",""
"null","","image-button-response","156","754689","0.0-154.0","A1IS0218RVG60K","img_art/9.jpg","null","","","","","","","","","","","","","","","","","","","","","","","","",""
"69","","image-button-response","157","754764","0.0-155.0","A1IS0218RVG60K","img_art/9.jpg","5","","","","","","","","","","","","","","","","","","","","","","","","",""
"1626","","image-button-response","158","756397","0.0-156.0-0.0","A1IS0218RVG60K","img_art/9.jpg","0","","","","","","","","","","","","","","","","","","","","","","","","",""
"817","","image-button-response","159","757221","0.0-157.0-0.0","A1IS0218RVG60K","img_art/9.jpg","2","","","","","","","","","","","","","","","","","","","","","","","","",""
"null","","html-keyboard-response","160","758224","0.0-158.0","A1IS0218RVG60K","<p style=""font-size: 48px;"">+</p>","","","","","null","allTrialResponses","1000","1","16","img_art/9.jpg","-13","I don't like the indistinct face","Alexander,Zachary,Ryan,Matthew,Tanner,Nicholas","The mouth of an ugly beast.,-25,120,20","It looks like a lady taking a peaceful nap on a blanket in the grass.,41,400,20","Makes me feel angry, its not very clear,-50,380,20","Similar to the tohers, but not as clear.,11,120,20","sleep, calm, safe,12,180,20","Some nice colors but i do not like it,-18,240,20","Nicholas","Some nice colors but i do not like it,-18,240,20","Alexander","The mouth of an ugly beast.,-25,120,20","Ryan","Makes me feel angry, its not very clear,-50,380,20","4"
"7739","","survey-text","161","765977","0.0-159.0-0.0","A1IS0218RVG60K","","","","{""Q0"":""Too simple, not attractive""}","","","","","","","","","","","","","","","","","","","","","","",""
"2628.5","","image-slider-response","162","768610","0.0-160.0","A1IS0218RVG60K","","","","","-14","","","","","","","","","","","","","","","","","","","","","",""
"null","","image-button-response","163","773615","0.0-161.0","A1IS0218RVG60K","img_art/6.jpg","null","","","","","","","","","","","","","","","","","","","","","","","","",""
"457","","image-button-response","164","774075","0.0-162.0","A1IS0218RVG60K","img_art/6.jpg","0","","","","","","","","","","","","","","","","","","","","","","","","",""
"982","","image-button-response","165","775061","0.0-163.0-0.0","A1IS0218RVG60K","img_art/6.jpg","2","","","","","","","","","","","","","","","","","","","","","","","","",""
"1235","","image-button-response","166","776303","0.0-164.0-0.0","A1IS0218RVG60K","img_art/6.jpg","3","","","","","","","","","","","","","","","","","","","","","","","","",""
"null","","html-keyboard-response","167","777306","0.0-165.0","A1IS0218RVG60K","<p style=""font-size: 48px;"">+</p>","","","","","null","allTrialResponses","1000","1","17","img_art/6.jpg","-14","Too simple, not attractive","Alexander,Alex,Ryan,Jacob,Eric,Nicholas","Desert that's too simple.,-15,120,20","Definitely belongs at a doctor's office, I think it's a crow or a tree?,-3,100,20","Makes me feel lonely,-22,380,20","Is this a leaf?,4,340,20","This piece reminds me of the lorax.,5,100,20","It isnt bad but sort of too bland,0,240,20","Alexander","Desert that's too simple.,-15,120,20","Ryan","Makes me feel lonely,-22,380,20","Jacob","Is this a leaf?,4,340,20","4"
"7978","","survey-text","168","785296","0.0-166.0-0.0","A1IS0218RVG60K","","","","{""Q0"":""Simply appalling composition""}","","","","","","","","","","","","","","","","","","","","","","",""
"2414.9000000003725","","image-slider-response","169","787716","0.0-167.0","A1IS0218RVG60K","","","","","-35","","","","","","","","","","","","","","","","","","","","","",""
"3998","","image-button-response","170","792721","0.0-168.0","A1IS0218RVG60K","img_art/5.jpg","5","","","","","","","","","","","","","","","","","","","","","","","","",""
"566","","image-button-response","171","793294","0.0-169.0","A1IS0218RVG60K","img_art/5.jpg","5","","","","","","","","","","","","","","","","","","","","","","","","",""
"1762","","image-button-response","172","795062","0.0-170.0-0.0","A1IS0218RVG60K","img_art/5.jpg","1","","","","","","","","","","","","","","","","","","","","","","","","",""
"1008","","image-button-response","173","796077","0.0-171.0-0.0","A1IS0218RVG60K","img_art/5.jpg","3","","","","","","","","","","","","","","","","","","","","","","","","",""
"null","","html-keyboard-response","174","797580","0.0-172.0","A1IS0218RVG60K","<p style=""font-size: 48px;"">+</p>","","","","","null","allTrialResponses","1500","1","18","img_art/5.jpg","-35","Simply appalling composition","Alexander,Taylor,Ryan,Jacob,Austin,Dustin","Dull pyramid that says nothing.,7,120,20","More kindergarten art class. Who buys this stuff?,-45,200,20","Very good color coordination,41,380,20","Don't really know the point of this one.,-11,340,20","Perfect for art exhibition,39,240,20","I don't get it at all. But, maybe it is the top portion of a piece of fruit.,-50,20,20","Dustin","I don't get it at all. But, maybe it is the top portion of a piece of fruit.,-50,20,20","Taylor","More kindergarten art class. Who buys this stuff?,-45,200,20","Jacob","Don't really know the point of this one.,-11,340,20","4"
"10691","","survey-text","175","808285","0.0-173.0-0.0","A1IS0218RVG60K","","","","{""Q0"":""Indistinct and ugly looking""}","","","","","","","","","","","","","","","","","","","","","","",""
"2728.4000000003725","","image-slider-response","176","811020","0.0-174.0","A1IS0218RVG60K","","","","","-24","","","","","","","","","","","","","","","","","","","","","",""
"null","","image-button-response","177","816025","0.0-175.0","A1IS0218RVG60K","img_art/14.jpg","null","","","","","","","","","","","","","","","","","","","","","","","","",""
"590","","image-button-response","178","816620","0.0-176.0","A1IS0218RVG60K","img_art/14.jpg","2","","","","","","","","","","","","","","","","","","","","","","","","",""
"1046","","image-button-response","179","817676","0.0-177.0-0.0","A1IS0218RVG60K","img_art/14.jpg","1","","","","","","","","","","","","","","","","","","","","","","","","",""
"1464","","image-button-response","180","819147","0.0-178.0-0.0","A1IS0218RVG60K","img_art/14.jpg","3","","","","","","","","","","","","","","","","","","","","","","","","",""
"null","","html-keyboard-response","181","820650","0.0-179.0","A1IS0218RVG60K","<p style=""font-size: 48px;"">+</p>","","","","","null","allTrialResponses","1500","1","19","img_art/14.jpg","-24","Indistinct and ugly looking","Jordan,Taylor,Angel,Jacob,Jesse,Dustin","Reminds me of art class,22,160,20","Are they blowing up a tree?,-5,200,20","This reminds me of a tree but the tree is sickly, and poorly cared for.,-10,180,20","I kind of like it!,6,340,20","Its cute. Not striking but i would keep it in my home.,10,80,20","It represents growth. I see a plant/tree growing out of the ground. I like the rainbow of color in the painting.,31,20,20","Angel","This reminds me of a tree but the tree is sickly, and poorly cared for.,-10,180,20","Taylor","Are they blowing up a tree?,-5,200,20","Jacob","I kind of like it!,6,340,20","4"
"18753","","survey-text","182","839423","0.0-180.0-0.0","A1IS0218RVG60K","","","","{""Q0"":""Sort of looks like music soundwaves""}","","","","","","","","","","","","","","","","","","","","","","",""
"3009.699999999255","","image-slider-response","183","842438","0.0-181.0","A1IS0218RVG60K","","","","","-7","","","","","","","","","","","","","","","","","","","","","",""
"5002","","image-button-response","184","847447","0.0-182.0","A1IS0218RVG60K","img_art/11.jpg","1","","","","","","","","","","","","","","","","","","","","","","","","",""
"930","","image-button-response","185","848382","0.0-183.0","A1IS0218RVG60K","img_art/11.jpg","1","","","","","","","","","","","","","","","","","","","","","","","","",""
"2526","","image-button-response","186","850913","0.0-184.0-0.0","A1IS0218RVG60K","img_art/11.jpg","5","","","","","","","","","","","","","","","","","","","","","","","","",""
"1203","","image-button-response","187","852122","0.0-185.0-0.0","A1IS0218RVG60K","img_art/11.jpg","0","","","","","","","","","","","","","","","","","","","","","","","","",""
"null","","html-keyboard-response","188","853627","0.0-186.0","A1IS0218RVG60K","<p style=""font-size: 48px;"">+</p>","","","","","null","allTrialResponses","1500","1","20","img_art/11.jpg","-7","Sort of looks like music soundwaves","Anthony,Taylor,Angel,Jacob,Luis,Edward","The narrow groups of lines in the center make me feel uneasy for some reason,-31,200,20","Busy, busy oceanside city.,-10,200,20","This is disorienting, like motion sickness.,-20,180,20","This looks cool, and definitely comes to life in a way,36,340,20","I love the city chaos from this,50,400,20","Reminds me of a city and how chaotic it can be,22,60,20","Taylor","Busy, busy oceanside city.,-10,200,20","Edward","Reminds me of a city and how chaotic it can be,22,60,20","Anthony","The narrow groups of lines in the center make me feel uneasy for some reason,-31,200,20","4"
"3039","","survey-text","189","856690","0.0-187.0-0.0","A1IS0218RVG60K","","","","{""Q0"":""we""}","","","","","","","","","","","","","","","","","","","","","","",""
"11327","","survey-text","190","868020","0.0-188.0-0.0","A1IS0218RVG60K","","","","{""Q0"":""Too busy and unappealing""}","","","","","","","","","","","","","","","","","","","","","","",""
"2757.5","","image-slider-response","191","870782","0.0-189.0","A1IS0218RVG60K","","","","","-33","","","","","","","","","","","","","","","","","","","","","",""
"4225","","image-button-response","192","875787","0.0-190.0","A1IS0218RVG60K","img_art/18.jpg","1","","","","","","","","","","","","","","","","","","","","","","","","",""
"1514","","image-button-response","193","877308","0.0-191.0","A1IS0218RVG60K","img_art/18.jpg","2","","","","","","","","","","","","","","","","","","","","","","","","",""
"893","","image-button-response","194","878206","0.0-192.0-0.0","A1IS0218RVG60K","img_art/18.jpg","1","","","","","","","","","","","","","","","","","","","","","","","","",""
"937","","image-button-response","195","879149","0.0-193.0-0.0","A1IS0218RVG60K","img_art/18.jpg","0","","","","","","","","","","","","","","","","","","","","","","","","",""
"null","","html-keyboard-response","196","880152","0.0-194.0","A1IS0218RVG60K","<p style=""font-size: 48px;"">+</p>","","","","","null","allTrialResponses","1000","1","21","img_art/18.jpg","-33","Too busy and unappealing","Anthony,Taylor,Dylan,Cole,Jared,Edward","I have no strong feelings about this image,1,200,20","Bad guys are after the good guy.,-10,200,20","Ugly, too much is going on,-40,40,20","Two people fighting with one watching,17,200,20","it looks like people,9,400,20","Reminds me of the four horsemen of the apocalypse,29,60,20","Dylan","Ugly, too much is going on,-40,40,20","Taylor","Bad guys are after the good guy.,-10,200,20","Anthony","I have no strong feelings about this image,1,200,20","4"
"10964","","survey-text","197","891132","0.0-195.0-0.0","A1IS0218RVG60K","","","","{""Q0"":""Just a bunch of red scribbles""}","","","","","","","","","","","","","","","","","","","","","","",""
"3382.10000000149","","image-slider-response","198","894520","0.0-196.0","A1IS0218RVG60K","","","","","-27","","","","","","","","","","","","","","","","","","","","","",""
"4718","","image-button-response","199","899525","0.0-197.0","A1IS0218RVG60K","img_art/3.jpg","3","","","","","","","","","","","","","","","","","","","","","","","","",""
"444","","image-button-response","200","899974","0.0-198.0","A1IS0218RVG60K","img_art/3.jpg","3","","","","","","","","","","","","","","","","","","","","","","","","",""
"1801","","image-button-response","201","901782","0.0-199.0-0.0","A1IS0218RVG60K","img_art/3.jpg","1","","","","","","","","","","","","","","","","","","","","","","","","",""
"1169","","image-button-response","202","902958","0.0-200.0-0.0","A1IS0218RVG60K","img_art/3.jpg","2","","","","","","","","","","","","","","","","","","","","","","","","",""
"null","","html-keyboard-response","203","904460","0.0-201.0","A1IS0218RVG60K","<p style=""font-size: 48px;"">+</p>","","","","","null","allTrialResponses","1500","1","22","img_art/3.jpg","-27","Just a bunch of red scribbles","Anthony,Taylor,Dylan,Benjamin,Ethan,Joseph","This looks like something a child created in 5 minutes.,-50,200,20","Why kids with color crayons is called art is beyond me. People pay for this???,-40,200,20","I could scribble on paper and mimic this,-48,40,20","seems to be a lot of angry scribble.,-20,260,20","I usually don't like red. Red in this angry piece is very fitting.,19,120,20","Really have no idea what I'm looking at.,1,220,20","Benjamin","seems to be a lot of angry scribble.,-20,260,20","Taylor","Why kids with color crayons is called art is beyond me. People pay for this???,-40,200,20","Dylan","I could scribble on paper and mimic this,-48,40,20","4"
"16503","","survey-text","204","920979","0.0-202.0-0.0","A1IS0218RVG60K","","","","{""Q0"":""Almost like a collage of sorts""}","","","","","","","","","","","","","","","","","","","","","","",""
"2940.5999999996275","","image-slider-response","205","923925","0.0-203.0","A1IS0218RVG60K","","","","","13","","","","","","","","","","","","","","","","","","","","","",""
"4534","","image-button-response","206","928930","0.0-204.0","A1IS0218RVG60K","img_art/12.jpg","4","","","","","","","","","","","","","","","","","","","","","","","","",""
"959","","image-button-response","207","929895","0.0-205.0","A1IS0218RVG60K","img_art/12.jpg","4","","","","","","","","","","","","","","","","","","","","","","","","",""
"3743","","image-button-response","208","933643","0.0-206.0-0.0","A1IS0218RVG60K","img_art/12.jpg","1","","","","","","","","","","","","","","","","","","","","","","","","",""
"886","","image-button-response","209","934533","0.0-207.0-0.0","A1IS0218RVG60K","img_art/12.jpg","0","","","","","","","","","","","","","","","","","","","","","","","","",""
"null","","html-keyboard-response","210","936037","0.0-208.0","A1IS0218RVG60K","<p style=""font-size: 48px;"">+</p>","","","","","null","allTrialResponses","1500","1","23","img_art/12.jpg","13","Almost like a collage of sorts","Jorge,Taylor,Dylan,Benjamin,Marcus,Jason","Windows to a different story,6,180,20","Just wish it was more colorful.,20,200,20","I like the pattern of this picture, but the colors could be nicer,11,40,20","Like how all the colors seem to blend together.,15,260,20","I like the colors in the bottom half of the painting,10,60,20","The shapes present in the picture make it very interesting,17,20,20","Marcus","I like the colors in the bottom half of the painting,10,60,20","Taylor","Just wish it was more colorful.,20,200,20","Jorge","Windows to a different story,6,180,20","4"
"18161","","survey-text","211","954214","0.0-209.0-0.0","A1IS0218RVG60K","","","","{""Q0"":""This reminds me of death or bones""}","","","","","","","","","","","","","","","","","","","","","","",""
"2759.7999999988824","","image-slider-response","212","956980","0.0-210.0","A1IS0218RVG60K","","","","","-17","","","","","","","","","","","","","","","","","","","","","",""
"null","","image-button-response","213","961984","0.0-211.0","A1IS0218RVG60K","img_art/25.jpg","null","","","","","","","","","","","","","","","","","","","","","","","","",""
"120","","image-button-response","214","962110","0.0-212.0","A1IS0218RVG60K","img_art/25.jpg","4","","","","","","","","","","","","","","","","","","","","","","","","",""
"1862","","image-button-response","215","963979","0.0-213.0-0.0","A1IS0218RVG60K","img_art/25.jpg","2","","","","","","","","","","","","","","","","","","","","","","","","",""
"814","","image-button-response","216","964798","0.0-214.0-0.0","A1IS0218RVG60K","img_art/25.jpg","1","","","","","","","","","","","","","","","","","","","","","","","","",""
"null","","html-keyboard-response","217","965300","0.0-215.0","A1IS0218RVG60K","<p style=""font-size: 48px;"">+</p>","","","","","null","allTrialResponses","500","1","24","img_art/25.jpg","-17","This reminds me of death or bones","Jorge,Taylor,Devon,Patrick,Marcus,Daniel","Somewhat feel protected by a messenger,33,180,20","Wish I was that thin.,-5,200,20","i feel a bit dull, a bit scared,-20,400,20","Green color is not my thing,-29,280,20","Ugly green color and don't like it at all,-30,60,20","Beautiful color with an interesting otherworldly figure,29,320,20","Marcus","Ugly green color and don't like it at all,-30,60,20","Devon","i feel a bit dull, a bit scared,-20,400,20","Taylor","Wish I was that thin.,-5,200,20","4"
"16795","","survey-text","218","982108","0.0-216.0-0.0","A1IS0218RVG60K","","","","{""Q0"":""I like how it suggests a pueblo""}","","","","","","","","","","","","","","","","","","","","","","",""
"2598.5999999996275","","image-slider-response","219","984712","0.0-217.0","A1IS0218RVG60K","","","","","23","","","","","","","","","","","","","","","","","","","","","",""
"null","","image-button-response","220","989715","0.0-218.0","A1IS0218RVG60K","img_art/20.jpg","null","","","","","","","","","","","","","","","","","","","","","","","","",""
"464","","image-button-response","221","990183","0.0-219.0","A1IS0218RVG60K","img_art/20.jpg","1","","","","","","","","","","","","","","","","","","","","","","","","",""
"1639","","image-button-response","222","991828","0.0-220.0-0.0","A1IS0218RVG60K","img_art/20.jpg","4","","","","","","","","","","","","","","","","","","","","","","","","",""
"1318","","image-button-response","223","993152","0.0-221.0-0.0","A1IS0218RVG60K","img_art/20.jpg","0","","","","","","","","","","","","","","","","","","","","","","","","",""
"null","","html-keyboard-response","224","994157","0.0-222.0","A1IS0218RVG60K","<p style=""font-size: 48px;"">+</p>","","","","","null","allTrialResponses","1000","1","25","img_art/20.jpg","23","I like how it suggests a pueblo","Bryan,Taylor,Devon,Nathaniel,Marcus,Grant","Reminds me of Georgia O'Keefe.,11,400,20","Not bad for all the southwestern people.,15,200,20","i can feel the intensity in this,11,400,20","A bit hectic, but it does have a bit of coolness to it,6,220,20","I like the blues, and the sense of foreboding it makes me feel.,20,60,20","This elicits no reaction in me.,0,200,20","Taylor","Not bad for all the southwestern people.,15,200,20","Marcus","I like the blues, and the sense of foreboding it makes me feel.,20,60,20","Bryan","Reminds me of Georgia O'Keefe.,11,400,20","4"
"3332","","survey-text","225","997515","0.0-223.0-0.0","A1IS0218RVG60K","","","","{""Q0"":""table""}","","","","","","","","","","","","","","","","","","","","","","",""
"11351","","survey-text","226","1008871","0.0-224.0-0.0","A1IS0218RVG60K","","","","{""Q0"":""I like the small details and surrealism""}","","","","","","","","","","","","","","","","","","","","","","",""
"2843.699999999255","","image-slider-response","227","1011721","0.0-225.0","A1IS0218RVG60K","","","","","36","","","","","","","","","","","","","","","","","","","","","",""
"4904","","image-button-response","228","1016725","0.0-226.0","A1IS0218RVG60K","img_art/8.jpg","5","","","","","","","","","","","","","","","","","","","","","","","","",""
"789","","image-button-response","229","1017523","0.0-227.0","A1IS0218RVG60K","img_art/8.jpg","5","","","","","","","","","","","","","","","","","","","","","","","","",""
"1181","","image-button-response","230","1018709","0.0-228.0-0.0","A1IS0218RVG60K","img_art/8.jpg","0","","","","","","","","","","","","","","","","","","","","","","","","",""
"823","","image-button-response","231","1019539","0.0-229.0-0.0","A1IS0218RVG60K","img_art/8.jpg","1","","","","","","","","","","","","","","","","","","","","","","","","",""
"null","","html-keyboard-response","232","1020542","0.0-230.0","A1IS0218RVG60K","<p style=""font-size: 48px;"">+</p>","","","","","null","allTrialResponses","1000","1","26","img_art/8.jpg","36","I like the small details and surrealism","Bryan,Taylor,Carlos,Blake,Marcus,Christian","Like the colors & the imagery - old city, native peoples maybe.,20,400,20","And I'll huff and I'll puff and I'll blow your town down!!,20,200,20","Clean and stark. The colors are pleasant.,15,80,20","cold city controlled by evil gods,-17,280,20","Like the colors and the energy, but the face feels jarring to me,13,60,20","gives off inception vibes <3,50,140,20","Christian","gives off inception vibes <3,50,140,20","Bryan","Like the colors & the imagery - old city, native peoples maybe.,20,400,20","Taylor","And I'll huff and I'll puff and I'll blow your town down!!,20,200,20","4"
"13367","","survey-text","233","1033924","0.0-231.0-0.0","A1IS0218RVG60K","","","","{""Q0"":""I think it is dumb and generic""}","","","","","","","","","","","","","","","","","","","","","","",""
"3115.699999999255","","image-slider-response","234","1037045","0.0-232.0","A1IS0218RVG60K","","","","","-33","","","","","","","","","","","","","","","","","","","","","",""
"null","","image-button-response","235","1042049","0.0-233.0","A1IS0218RVG60K","img_art/16.jpg","null","","","","","","","","","","","","","","","","","","","","","","","","",""
"400","","image-button-response","236","1042456","0.0-234.0","A1IS0218RVG60K","img_art/16.jpg","1","","","","","","","","","","","","","","","","","","","","","","","","",""
"4679","","image-button-response","237","1047140","0.0-235.0-0.0","A1IS0218RVG60K","img_art/16.jpg","5","","","","","","","","","","","","","","","","","","","","","","","","",""
"1084","","image-button-response","238","1048230","0.0-236.0-0.0","A1IS0218RVG60K","img_art/16.jpg","2","","","","","","","","","","","","","","","","","","","","","","","","",""
"null","","html-keyboard-response","239","1049233","0.0-237.0","A1IS0218RVG60K","<p style=""font-size: 48px;"">+</p>","","","","","null","allTrialResponses","1000","1","27","img_art/16.jpg","-33","I think it is dumb and generic","Bryan,Taylor,Adam,Gregory,Luke,Christian","Something terrible happened. Either the figure on the right is the victim or another shredded toy.,-49,400,20","It is sick to put a teddy bear and a gun on the same piece of canvas.,-40,200,20","Hard contrast, but no emotions towards any of the objects.,-6,40,20","Weird and funny,40,220,20","while simple, it seems to have a deeper meaning on childhood,33,20,20","don't know how to feel, I mean I respect it but I honestly don't know about this,-12,140,20","Taylor","It is sick to put a teddy bear and a gun on the same piece of canvas.,-40,200,20","Christian","don't know how to feel, I mean I respect it but I honestly don't know about this,-12,140,20","Adam","Hard contrast, but no emotions towards any of the objects.,-6,40,20","4"
"12213","","survey-text","240","1061466","0.0-238.0-0.0","A1IS0218RVG60K","","","","{""Q0"":""Feels pointless and chaotic""}","","","","","","","","","","","","","","","","","","","","","","",""
"2726.800000000745","","image-slider-response","241","1064198","0.0-239.0","A1IS0218RVG60K","","","","","-18","","","","","","","","","","","","","","","","","","","","","",""
"null","","image-button-response","242","1069203","0.0-240.0","A1IS0218RVG60K","img_art/13.jpg","null","","","","","","","","","","","","","","","","","","","","","","","","",""
"95","","image-button-response","243","1069305","0.0-241.0","A1IS0218RVG60K","img_art/13.jpg","4","","","","","","","","","","","","","","","","","","","","","","","","",""
"995","","image-button-response","244","1070304","0.0-242.0-0.0","A1IS0218RVG60K","img_art/13.jpg","3","","","","","","","","","","","","","","","","","","","","","","","","",""
"853","","image-button-response","245","1071166","0.0-243.0-0.0","A1IS0218RVG60K","img_art/13.jpg","2","","","","","","","","","","","","","","","","","","","","","","","","",""
"null","","html-keyboard-response","246","1072169","0.0-244.0","A1IS0218RVG60K","<p style=""font-size: 48px;"">+</p>","","","","","null","allTrialResponses","1000","1","28","img_art/13.jpg","-18","Feels pointless and chaotic","Brett,Taylor,Adam,Steven,Paul,Christian","Very abstract and soothing,40,360,20","Simple and in my favorite color. I actually like this one.,40,200,20","Generic mix of colors. Cool and messy.,10,40,20","It's just paint splatter, no real meaning to me,-50,160,20","It's like any other splatter paint art piece, nothing special,1,300,20","love the style but not very novel,9,140,20","Paul","It's like any other splatter paint art piece, nothing special,1,300,20","Steven","It's just paint splatter, no real meaning to me,-50,160,20","Adam","Generic mix of colors. Cool and messy.,10,40,20","4"
"9004","","survey-text","247","1081194","0.0-245.0-0.0","A1IS0218RVG60K","","","","{""Q0"":""Hideous and boring""}","","","","","","","","","","","","","","","","","","","","","","",""
"2686.5999999996275","","image-slider-response","248","1083885","0.0-246.0","A1IS0218RVG60K","","","","","-38","","","","","","","","","","","","","","","","","","","","","",""
"2956","","image-button-response","249","1088889","0.0-247.0","A1IS0218RVG60K","img_art/2.jpg","2","","","","","","","","","","","","","","","","","","","","","","","","",""
"482","","image-button-response","250","1089379","0.0-248.0","A1IS0218RVG60K","img_art/2.jpg","2","","","","","","","","","","","","","","","","","","","","","","","","",""
"853","","image-button-response","251","1090237","0.0-249.0-0.0","A1IS0218RVG60K","img_art/2.jpg","1","","","","","","","","","","","","","","","","","","","","","","","","",""
"980","","image-button-response","252","1091225","0.0-250.0-0.0","A1IS0218RVG60K","img_art/2.jpg","3","","","","","","","","","","","","","","","","","","","","","","","","",""
"null","","html-keyboard-response","253","1092228","0.0-251.0","A1IS0218RVG60K","<p style=""font-size: 48px;"">+</p>","","","","","null","allTrialResponses","1000","1","29","img_art/2.jpg","-38","Hideous and boring","Isaac,Spencer,Adam,Steven,Paul,Peter","Not sure what is happening. I'm not a big fan of the colors but they don't bother me either.,1,280,20","Kind of looks upside down, I need a focal point,-29,120,20","Hate the vomit green.,-31,40,20","I can't get past the fact that it looks like someone wearing a mask,-46,160,20","I like the blue color in the center but that's it, the green is a gross color,-3,300,20","I don't feel indifferent,4,320,20","Adam","Hate the vomit green.,-31,40,20","Spencer","Kind of looks upside down, I need a focal point,-29,120,20","Steven","I can't get past the fact that it looks like someone wearing a mask,-46,160,20","4"
"16389","","survey-text","254","1108633","0.0-252.0-0.0","A1IS0218RVG60K","","","","{""Q0"":""I like the way the waterfall is depicted""}","","","","","","","","","","","","","","","","","","","","","","",""
"2581.0999999996275","","image-slider-response","255","1111218","0.0-253.0","A1IS0218RVG60K","","","","","15","","","","","","","","","","","","","","","","","","","","","",""
"3728","","image-button-response","256","1116223","0.0-254.0","A1IS0218RVG60K","img_art/24.jpg","4","","","","","","","","","","","","","","","","","","","","","","","","",""
"467","","image-button-response","257","1116695","0.0-255.0","A1IS0218RVG60K","img_art/24.jpg","4","","","","","","","","","","","","","","","","","","","","","","","","",""
"1683","","image-button-response","258","1118383","0.0-256.0-0.0","A1IS0218RVG60K","img_art/24.jpg","5","","","","","","","","","","","","","","","","","","","","","","","","",""
"1165","","image-button-response","259","1119553","0.0-257.0-0.0","A1IS0218RVG60K","img_art/24.jpg","2","","","","","","","","","","","","","","","","","","","","","","","","",""
"null","","html-keyboard-response","260","1120558","0.0-258.0","A1IS0218RVG60K","<p style=""font-size: 48px;"">+</p>","","","","","null","allTrialResponses","1000","1","30","img_art/24.jpg","15","I like the way the waterfall is depicted","Gabriel,Spencer,Adam,Steven,Lucas,Hunter","this one is just a bit too harsh,-13,160,20","Happy, the forest as I would love to see it,50,120,20","I appreciate the earth tones. Soothing.,5,40,20","It's beautiful! I love it! I see a waterfall, and they are my favorite things in the world,50,160,20","Extraordinary and unusual.,30,380,20","feels overdone, but still executed well,0,240,20","Lucas","Extraordinary and unusual.,30,380,20","Hunter","feels overdone, but still executed well,0,240,20","Adam","I appreciate the earth tones. Soothing.,5,40,20","4"
"1986","","image-button-response_instructions","261","1122562","0.0-259.0","A1IS0218RVG60K","","0","instructions","","","","","","","","","","","","","","","","","","","","","","","",""
"1033","","image-button-response","262","1123608","0.0-260.0","A1IS0218RVG60K","","0","","","","","","","","","","","","","","","","","","","","","","","","",""
