"rt","url","trial_type","trial_index","time_elapsed","internal_node_id","participant_id","stimulus","button_pressed","Name","responses","response","key_press","variableName","fixationTime","condition","trial","photo","subjectRating","subjectResponse","agentsNames","agent_1_Response","agent_2_Response","agent_3_Response","agent_4_Response","agent_5_Response","agent_6_Response","kept_1_name","kept_1_response","kept_2_name","kept_2_response","kept_3_name","kept_3_response","errorCounter"
"24382","external_page_harvard.html","external-html","0","24480","0.0-0.0","A1K581IY10MNC0","","","","","","","","","","","","","","","","","","","","","","","","","","",""
"1778","","image-button-response","1","26262","0.0-1.0","A1K581IY10MNC0","","0","","","","","","","","","","","","","","","","","","","","","","","","",""
"3312","","image-button-response","2","29582","0.0-2.0-0.0","A1K581IY10MNC0","","1","phone","","","","","","","","","","","","","","","","","","","","","","","",""
"6046","","survey-text","3","35630","0.0-3.0-0.0","A1K581IY10MNC0","","","","{""Q0"":""A1K581IY10MNC0""}","","","","","","","","","","","","","","","","","","","","","","",""
"6597","","image-button-response_instructions","4","42230","0.0-4.0","A1K581IY10MNC0","","0","instructions","","","","","","","","","","","","","","","","","","","","","","","",""
"29854","","image-button-response_instructions","5","72087","0.0-5.0","A1K581IY10MNC0","img_art/ins/popularity/ins1.png","0","instructions","","","","","","","","","","","","","","","","","","","","","","","",""
"21621","","image-button-response_instructions","6","93709","0.0-6.0","A1K581IY10MNC0","img_art/ins/popularity/ins2.png","0","instructions","","","","","","","","","","","","","","","","","","","","","","","",""
"13389","","image-button-response_instructions","7","107102","0.0-7.0","A1K581IY10MNC0","img_art/ins/popularity/ins2Extreme.png","0","instructions","","","","","","","","","","","","","","","","","","","","","","","",""
"35238","","image-button-response_instructions","8","142343","0.0-8.0","A1K581IY10MNC0","img_art/ins/popularity/ins3KEEPpop.PNG","0","instructions","","","","","","","","","","","","","","","","","","","","","","","",""
"8525","","image-button-response_instructions","9","150871","0.0-9.0","A1K581IY10MNC0","img_art/ins/popularity/ins3ANamepop.PNG","0","instructions","","","","","","","","","","","","","","","","","","","","","","","",""
"9390","","image-button-response_instructions","10","160262","0.0-10.0","A1K581IY10MNC0","img_art/ins/popularity/ins3ARatingpop.png","0","instructions","","","","","","","","","","","","","","","","","","","","","","","",""
"9525","","image-button-response_instructions","11","169790","0.0-11.0","A1K581IY10MNC0","img_art/ins/popularity/ins3ATextpop.png","0","instructions","","","","","","","","","","","","","","","","","","","","","","","",""
"14949","","image-button-response_instructions","12","184742","0.0-12.0","A1K581IY10MNC0","img_art/ins/popularity/ins3ALikespop.png","0","instructions","","","","","","","","","","","","","","","","","","","","","","","",""
"17886","","image-button-response_instructions","13","202630","0.0-13.0","A1K581IY10MNC0","img_art/ins/popularity/ins3KEEPpop.PNG","0","instructions","","","","","","","","","","","","","","","","","","","","","","","",""
"17717","","image-button-response_instructions","14","220349","0.0-14.0","A1K581IY10MNC0","img_art/ins/popularity/ins3_5RED.png","0","instructions","","","","","","","","","","","","","","","","","","","","","","","",""
"9414","","image-button-response_instructions","15","229766","0.0-15.0","A1K581IY10MNC0","img_art/ins/popularity/ins3KEEPpop.PNG","0","instructions","","","","","","","","","","","","","","","","","","","","","","","",""
"11990","","image-button-response_instructions","16","241758","0.0-16.0","A1K581IY10MNC0","img_art/ins/popularity/ins4KEEPpop.PNG","0","instructions","","","","","","","","","","","","","","","","","","","","","","","",""
"8879","","image-button-response_instructions","17","250639","0.0-17.0","A1K581IY10MNC0","img_art/ins/popularity/ins5KEEPpop.PNG","0","instructions","","","","","","","","","","","","","","","","","","","","","","","",""
"7719","","image-button-response_instructions","18","258358","0.0-18.0","A1K581IY10MNC0","","0","instructions","","","","","","","","","","","","","","","","","","","","","","","",""
"12290","","survey-text","19","270686","0.0-19.0-0.0","A1K581IY10MNC0","","","","{""Q0"":""but""}","","","","","","","","","","","","","","","","","","","","","","",""
"18783","","survey-text","20","289470","0.0-20.0-0.0","A1K581IY10MNC0","","","","{""Q0"":""Not a pretty blend of colors""}","","","","","","","","","","","","","","","","","","","","","","",""
"7336","","image-slider-response","21","296814","0.0-21.0","A1K581IY10MNC0","","","","","-44","","","","","","","","","","","","","","","","","","","","","",""
"null","","image-button-response","22","301820","0.0-22.0","A1K581IY10MNC0","img_art/ins/1.jpg","null","","","","","","","","","","","","","","","","","","","","","","","","",""
"21265","","image-button-response","23","323086","0.0-23.0","A1K581IY10MNC0","img_art/ins/1.jpg","2","","","","","","","","","","","","","","","","","","","","","","","","",""
"8141","","image-button-response","24","331231","0.0-24.0-0.0","A1K581IY10MNC0","img_art/ins/1.jpg","4","","","","","","","","","","","","","","","","","","","","","","","","",""
"4829","","image-button-response","25","336063","0.0-25.0-0.0","A1K581IY10MNC0","img_art/ins/1.jpg","0","","","","","","","","","","","","","","","","","","","","","","","","",""
"null","","html-keyboard-response","26","336568","0.0-26.0","A1K581IY10MNC0","<p style=""font-size: 48px;"">+</p>","","","","","null","allTrialResponses","500","1","-2","img_art/ins/1.jpg","-44","Not a pretty blend of colors","Adam,Alex,Ben,Carl,Daniel,Jack","Seems like doodles,-20,20,20","very creative work.,36,40,20","This color reminds me of poo,-46,60,20","very calming artwork,42,80,20","It looks like a murder scene.,-48,100,20","I like the sophisticated brushwork,40,120,20","Ben","This color reminds me of poo,-46,60,20","Daniel","It looks like a murder scene.,-48,100,20","Adam","Seems like doodles,-20,20,20","0"
"33620","","survey-text","27","370205","0.0-27.0-0.0","A1K581IY10MNC0","","","","{""Q0"":""Ugly group of colors""}","","","","","","","","","","","","","","","","","","","","","","",""
"7478","","image-slider-response","28","377686","0.0-28.0","A1K581IY10MNC0","","","","","-48","","","","","","","","","","","","","","","","","","","","","",""
"null","","image-button-response","29","382693","0.0-29.0","A1K581IY10MNC0","img_art/ins/2.jpg","null","","","","","","","","","","","","","","","","","","","","","","","","",""
"383","","image-button-response","30","383078","0.0-30.0","A1K581IY10MNC0","img_art/ins/2.jpg","2","","","","","","","","","","","","","","","","","","","","","","","","",""
"9726","","image-button-response","31","392807","0.0-31.0-0.0","A1K581IY10MNC0","img_art/ins/2.jpg","5","","","","","","","","","","","","","","","","","","","","","","","","",""
"4725","","image-button-response","32","397533","0.0-32.0-0.0","A1K581IY10MNC0","img_art/ins/2.jpg","3","","","","","","","","","","","","","","","","","","","","","","","","",""
"null","","html-keyboard-response","33","399040","0.0-33.0","A1K581IY10MNC0","<p style=""font-size: 48px;"">+</p>","","","","","null","allTrialResponses","1500","1","-1","img_art/ins/2.jpg","-48","Ugly group of colors","Adam,John,Ben,James,Daniel,Kyle","too much color,-18,20,20","love the texture of paint,48,160,20","meaningless painting,-45,60,20","looks too angry,-50,140,20","One of my pet peevs,-48,100,20","Idk, it is just annoying,-32,180,20","Ben","meaningless painting,-45,60,20","Kyle","Idk, it is just annoying,-32,180,20","James","looks too angry,-50,140,20","0"
"26840","","survey-text","34","425893","0.0-34.0-0.0","A1K581IY10MNC0","","","","{""Q0"":""Vibrant blend of blue colors""}","","","","","","","","","","","","","","","","","","","","","","",""
"5614","","image-slider-response","35","431510","0.0-35.0","A1K581IY10MNC0","","","","","38","","","","","","","","","","","","","","","","","","","","","",""
"null","","image-button-response","36","436521","0.0-36.0","A1K581IY10MNC0","img_art/ins/3.jpg","null","","","","","","","","","","","","","","","","","","","","","","","","",""
"419","","image-button-response","37","436942","0.0-37.0","A1K581IY10MNC0","img_art/ins/3.jpg","1","","","","","","","","","","","","","","","","","","","","","","","","",""
"12710","","image-button-response","38","449654","0.0-38.0-0.0","A1K581IY10MNC0","img_art/ins/3.jpg","0","","","","","","","","","","","","","","","","","","","","","","","","",""
"2031","","image-button-response","39","451686","0.0-39.0-0.0","A1K581IY10MNC0","img_art/ins/3.jpg","0","","","","","","","","","","","","","","","","","","","","","","","","",""
"8439","","image-button-response","40","465127","0.0-39.1-0.1","A1K581IY10MNC0","img_art/ins/3.jpg","5","","","","","","","","","","","","","","","","","","","","","","","","",""
"null","","html-keyboard-response","41","466139","0.0-40.0","A1K581IY10MNC0","<p style=""font-size: 48px;"">+</p>","","","","","null","allTrialResponses","1000","1","0","img_art/ins/3.jpg","38","Vibrant blend of blue colors","Sam,Mike,Ben,James,Ron,Kyle","I can feel a rainy day from this painting,18,240,20","enjoy the different shades of blue,22,200,20","This thing gives me anxiety,-41,60,20","My worst nightmare,-42,140,20","It looks depressing,-26,220,20","It looks like a playground for bats,-36,180,20","Mike","enjoy the different shades of blue,22,200,20","Sam","I can feel a rainy day from this painting,18,240,20","Kyle","It looks like a playground for bats,-36,180,20","2"
"14356","","image-button-response_instructions","42","480510","0.0-41.0","A1K581IY10MNC0","","0","instructions","","","","","","","","","","","","","","","","","","","","","","","",""
"137426","","survey-likert","43","617938","0.0-42.0-0.0","A1K581IY10MNC0","","","","{""Q0"":"""",""Q1"":0,""Q2"":1}","","","","","","","","","","","","","","","","","","","","","","",""
"7326","","survey-text","44","625269","0.0-43.0-0.0","A1K581IY10MNC0","","","","{""Q0"":""rock""}","","","","","","","","","","","","","","","","","","","","","","",""
"111607","","survey-text","45","736878","0.0-44.0-0.0","A1K581IY10MNC0","","","","{""Q0"":""This is a dreary painting to look at""}","","","","","","","","","","","","","","","","","","","","","","",""
"9310","","image-slider-response","46","746190","0.0-45.0","A1K581IY10MNC0","","","","","-37","","","","","","","","","","","","","","","","","","","","","",""
"null","","image-button-response","47","751213","0.0-46.0","A1K581IY10MNC0","img_art/15.jpg","null","","","","","","","","","","","","","","","","","","","","","","","","",""
"14807","","image-button-response","48","766022","0.0-47.0","A1K581IY10MNC0","img_art/15.jpg","0","","","","","","","","","","","","","","","","","","","","","","","","",""
"6006","","image-button-response","49","772030","0.0-48.0-0.0","A1K581IY10MNC0","img_art/15.jpg","1","","","","","","","","","","","","","","","","","","","","","","","","",""
"13846","","image-button-response","50","785878","0.0-49.0-0.0","A1K581IY10MNC0","img_art/15.jpg","5","","","","","","","","","","","","","","","","","","","","","","","","",""
"null","","html-keyboard-response","51","786383","0.0-50.0","A1K581IY10MNC0","<p style=""font-size: 48px;"">+</p>","","","","","null","allTrialResponses","500","1","1","img_art/15.jpg","-37","This is a dreary painting to look at","Chase,Jacob,Miguel,Trevor,Gabriel,Isaac","I don't like how the black dots are aligned.,-20,120,20","I think it's trying to execute a cool idea, but unfortunately it doesn't appeal,5,340,20","Simple but not good,-34,160,20","I really like the colors,14,280,20","i kinda like this one but wouldnt buy it for myself,17,160,20","The colors are too busy.,-39,280,20","Chase","I don't like how the black dots are aligned.,-20,120,20","Jacob","I think it's trying to execute a cool idea, but unfortunately it doesn't appeal,5,340,20","Isaac","The colors are too busy.,-39,280,20","2"
"46379","","survey-text","52","832767","0.0-51.0-0.0","A1K581IY10MNC0","","","","{""Q0"":""Ugly blend of colors""}","","","","","","","","","","","","","","","","","","","","","","",""
"5742","","image-slider-response","53","838510","0.0-52.0","A1K581IY10MNC0","","","","","-47","","","","","","","","","","","","","","","","","","","","","",""
"null","","image-button-response","54","843521","0.0-53.0","A1K581IY10MNC0","img_art/21.jpg","null","","","","","","","","","","","","","","","","","","","","","","","","",""
"5804","","image-button-response","55","849327","0.0-54.0","A1K581IY10MNC0","img_art/21.jpg","3","","","","","","","","","","","","","","","","","","","","","","","","",""
"7037","","image-button-response","56","856367","0.0-55.0-0.0","A1K581IY10MNC0","img_art/21.jpg","0","","","","","","","","","","","","","","","","","","","","","","","","",""
"6132","","image-button-response","57","862502","0.0-56.0-0.0","A1K581IY10MNC0","img_art/21.jpg","2","","","","","","","","","","","","","","","","","","","","","","","","",""
"null","","html-keyboard-response","58","864009","0.0-57.0","A1K581IY10MNC0","<p style=""font-size: 48px;"">+</p>","","","","","null","allTrialResponses","1500","1","2","img_art/21.jpg","-47","Ugly blend of colors","Chase,Jacob,Samuel,Shane,Dakota,Isaac","Kind of looks like a sky with a storm or tornado.,10,120,20","I like how the colors blend together like a beautiful sunset.,25,340,20","feels like a wave coming into light,9,400,20","It reminds me of war, red blood and dark blue reminds me of an army,-20,80,20","a serene, calm and eloquent storm,9,280,20","I like the colors. It looks dramatic.,5,280,20","Shane","It reminds me of war, red blood and dark blue reminds me of an army,-20,80,20","Chase","Kind of looks like a sky with a storm or tornado.,10,120,20","Samuel","feels like a wave coming into light,9,400,20","2"
"34130","","survey-text","59","898150","0.0-58.0-0.0","A1K581IY10MNC0","","","","{""Q0"":""Like the blend of colors like something coming alive""}","","","","","","","","","","","","","","","","","","","","","","",""
"4365","","image-slider-response","60","902518","0.0-59.0","A1K581IY10MNC0","","","","","41","","","","","","","","","","","","","","","","","","","","","",""
"4165","","image-button-response","61","907535","0.0-60.0","A1K581IY10MNC0","img_art/17.jpg","1","","","","","","","","","","","","","","","","","","","","","","","","",""
"139","","image-button-response","62","907678","0.0-61.0","A1K581IY10MNC0","img_art/17.jpg","1","","","","","","","","","","","","","","","","","","","","","","","","",""
"8461","","image-button-response","63","916143","0.0-62.0-0.0","A1K581IY10MNC0","img_art/17.jpg","4","","","","","","","","","","","","","","","","","","","","","","","","",""
"3604","","image-button-response","64","919750","0.0-63.0-0.0","A1K581IY10MNC0","img_art/17.jpg","5","","","","","","","","","","","","","","","","","","","","","","","","",""
"null","","html-keyboard-response","65","921258","0.0-64.0","A1K581IY10MNC0","<p style=""font-size: 48px;"">+</p>","","","","","null","allTrialResponses","1500","1","3","img_art/17.jpg","41","Like the blend of colors like something coming alive","Chase,James,Samuel,Shane,Bradley,Seth","It's okay, I just don't see much too it.,7,120,20","It's nice and realistic looking.,12,380,20","muted tones brings me down,-13,400,20","Pleasant fall to winter day,22,80,20","It kind of pulls you in to float away with it.,9,300,20","I really enjoyed this piece, it's a play on bringing the outside indoors.,32,60,20","James","It's nice and realistic looking.,12,380,20","Bradley","It kind of pulls you in to float away with it.,9,300,20","Seth","I really enjoyed this piece, it's a play on bringing the outside indoors.,32,60,20","2"
"28888","","survey-text","66","950158","0.0-65.0-0.0","A1K581IY10MNC0","","","","{""Q0"":""Seems like things are falling apart""}","","","","","","","","","","","","","","","","","","","","","","",""
"7503","","image-slider-response","67","957663","0.0-66.0","A1K581IY10MNC0","","","","","-26","","","","","","","","","","","","","","","","","","","","","",""
"null","","image-button-response","68","962681","0.0-67.0","A1K581IY10MNC0","img_art/14.jpg","null","","","","","","","","","","","","","","","","","","","","","","","","",""
"18596","","image-button-response","69","981278","0.0-68.0","A1K581IY10MNC0","img_art/14.jpg","1","","","","","","","","","","","","","","","","","","","","","","","","",""
"16286","","image-button-response","70","997566","0.0-69.0-0.0","A1K581IY10MNC0","img_art/14.jpg","5","","","","","","","","","","","","","","","","","","","","","","","","",""
"9597","","image-button-response","71","1007167","0.0-70.0-0.0","A1K581IY10MNC0","img_art/14.jpg","0","","","","","","","","","","","","","","","","","","","","","","","","",""
"null","","html-keyboard-response","72","1008680","0.0-71.0","A1K581IY10MNC0","<p style=""font-size: 48px;"">+</p>","","","","","null","allTrialResponses","1500","1","4","img_art/14.jpg","-26","Seems like things are falling apart","Kyle,James,Dalton,Ryan,Bradley,Seth","The colors are nice and it reminds me of a shrub or tree,10,340,20","It uses interesting techniques on this picture, but I have no feelings for or against.,1,380,20","nice simple art piece,2,300,20","Gorgeous use of water color,50,380,20","I don't know why, but this piece makes me happy.,20,300,20","This piece feels inviting. It's like opening up the pages of your favorite book for the first time.,26,60,20","James","It uses interesting techniques on this picture, but I have no feelings for or against.,1,380,20","Seth","This piece feels inviting. It's like opening up the pages of your favorite book for the first time.,26,60,20","Kyle","The colors are nice and it reminds me of a shrub or tree,10,340,20","2"
"24682","","survey-text","73","1033374","0.0-72.0-0.0","A1K581IY10MNC0","","","","{""Q0"":""Dull group of colors""}","","","","","","","","","","","","","","","","","","","","","","",""
"6741","","image-slider-response","74","1040118","0.0-73.0","A1K581IY10MNC0","","","","","-31","","","","","","","","","","","","","","","","","","","","","",""
"4079","","image-button-response","75","1045121","0.0-74.0","A1K581IY10MNC0","img_art/28.jpg","0","","","","","","","","","","","","","","","","","","","","","","","","",""
"8851","","image-button-response","76","1053975","0.0-75.0","A1K581IY10MNC0","img_art/28.jpg","1","","","","","","","","","","","","","","","","","","","","","","","","",""
"2526","","image-button-response","77","1056503","0.0-76.0-0.0","A1K581IY10MNC0","img_art/28.jpg","0","","","","","","","","","","","","","","","","","","","","","","","","",""
"12676","","image-button-response","78","1069182","0.0-77.0-0.0","A1K581IY10MNC0","img_art/28.jpg","3","","","","","","","","","","","","","","","","","","","","","","","","",""
"null","","html-keyboard-response","79","1069695","0.0-78.0","A1K581IY10MNC0","<p style=""font-size: 48px;"">+</p>","","","","","null","allTrialResponses","500","1","5","img_art/28.jpg","-31","Dull group of colors","Kyle,James,Brian,Cameron,Nathan,Seth","Colors too dull for me,-10,340,20","My grandparents would like this, maybe my great grandparents. It's not my style.,-30,380,20","the people kind of scare me in this one,-15,380,20","dislike the colors. it looks like a bike, but misshapen wheels like it was wrecked.,-10,60,20","I enjoy the color themes, they seem gloomy and mysterious, and content in their own way, which I love.,20,200,20","I think this piece is interesting. I love the faces drawn into it.,29,60,20","James","My grandparents would like this, maybe my great grandparents. It's not my style.,-30,380,20","Kyle","Colors too dull for me,-10,340,20","Cameron","dislike the colors. it looks like a bike, but misshapen wheels like it was wrecked.,-10,60,20","2"
"4996","","survey-text","80","1074702","0.0-79.0-0.0","A1K581IY10MNC0","","","","{""Q0"":""sky""}","","","","","","","","","","","","","","","","","","","","","","",""
"55591","","survey-text","81","1130294","0.0-80.0-0.0","A1K581IY10MNC0","","","","{""Q0"":""It looks like a flame of a candle spreading""}","","","","","","","","","","","","","","","","","","","","","","",""
"11628","","image-slider-response","82","1141927","0.0-81.0","A1K581IY10MNC0","","","","","37","","","","","","","","","","","","","","","","","","","","","",""
"null","","image-button-response","83","1146931","0.0-82.0","A1K581IY10MNC0","img_art/4.jpg","null","","","","","","","","","","","","","","","","","","","","","","","","",""
"15034","","image-button-response","84","1161966","0.0-83.0","A1K581IY10MNC0","img_art/4.jpg","5","","","","","","","","","","","","","","","","","","","","","","","","",""
"10869","","image-button-response","85","1172838","0.0-84.0-0.0","A1K581IY10MNC0","img_art/4.jpg","3","","","","","","","","","","","","","","","","","","","","","","","","",""
"56685","","image-button-response","86","1229527","0.0-85.0-0.0","A1K581IY10MNC0","img_art/4.jpg","0","","","","","","","","","","","","","","","","","","","","","","","","",""
"null","","html-keyboard-response","87","1230038","0.0-86.0","A1K581IY10MNC0","<p style=""font-size: 48px;"">+</p>","","","","","null","allTrialResponses","500","1","6","img_art/4.jpg","37","It looks like a flame of a candle spreading","Kyle,James,Justin,Cameron,Dustin,David","It's quite meh to me,0,340,20","Really don't care for the yellowish brown color in the center.,-19,380,20","Rather boring design and colors.,-21,280,20","Looks like the roomba got into dog poop,-30,60,20","Warm colors, but too random. I feel like I'm seeing something mangled. It is unpleasant.,-30,20,20","I like the design. It can be interpreted in various ways, such as a hand of horror or still piece.,15,340,20","David","I like the design. It can be interpreted in various ways, such as a hand of horror or still piece.,15,340,20","Cameron","Looks like the roomba got into dog poop,-30,60,20","Kyle","It's quite meh to me,0,340,20","2"
"89950","","survey-text","88","1319998","0.0-87.0-0.0","A1K581IY10MNC0","","","","{""Q0"":""Nothing really special about this art.""}","","","","","","","","","","","","","","","","","","","","","","",""
"7189","","image-slider-response","89","1327191","0.0-88.0","A1K581IY10MNC0","","","","","-7","","","","","","","","","","","","","","","","","","","","","",""
"null","","image-button-response","90","1332194","0.0-89.0","A1K581IY10MNC0","img_art/5.jpg","null","","","","","","","","","","","","","","","","","","","","","","","","",""
"14130","","image-button-response","91","1346326","0.0-90.0","A1K581IY10MNC0","img_art/5.jpg","5","","","","","","","","","","","","","","","","","","","","","","","","",""
"5390","","image-button-response","92","1351719","0.0-91.0-0.0","A1K581IY10MNC0","img_art/5.jpg","0","","","","","","","","","","","","","","","","","","","","","","","","",""
"5333","","image-button-response","93","1357054","0.0-92.0-0.0","A1K581IY10MNC0","img_art/5.jpg","1","","","","","","","","","","","","","","","","","","","","","","","","",""
"null","","html-keyboard-response","94","1358558","0.0-93.0","A1K581IY10MNC0","<p style=""font-size: 48px;"">+</p>","","","","","null","allTrialResponses","1500","1","7","img_art/5.jpg","-7","Nothing really special about this art.","Kyle,Paul,Grant,Cameron,Antonio,David","Not sure what to say about this piece honestly. It's okay I guess.,0,340,20","I like how simple it is and the pink brushstrokes are nice,27,300,20","This elicits no reaction in me.,0,200,20","No. What even is this? A mop?,-35,60,20","Too much angular things happening, makes me think of stabbing something which makes me uncomfortable,-50,220,20","I like the simplicity of the design, but I can't tell what the image is trying to depict.,10,340,20","David","I like the simplicity of the design, but I can't tell what the image is trying to depict.,10,340,20","Kyle","Not sure what to say about this piece honestly. It's okay I guess.,0,340,20","Paul","I like how simple it is and the pink brushstrokes are nice,27,300,20","2"
"36338","","survey-text","95","1394903","0.0-94.0-0.0","A1K581IY10MNC0","","","","{""Q0"":""Looks like people coming out of a war""}","","","","","","","","","","","","","","","","","","","","","","",""
"5302","","image-slider-response","96","1400207","0.0-95.0","A1K581IY10MNC0","","","","","23","","","","","","","","","","","","","","","","","","","","","",""
"null","","image-button-response","97","1405211","0.0-96.0","A1K581IY10MNC0","img_art/18.jpg","null","","","","","","","","","","","","","","","","","","","","","","","","",""
"7226","","image-button-response","98","1412438","0.0-97.0","A1K581IY10MNC0","img_art/18.jpg","3","","","","","","","","","","","","","","","","","","","","","","","","",""
"4718","","image-button-response","99","1417159","0.0-98.0-0.0","A1K581IY10MNC0","img_art/18.jpg","5","","","","","","","","","","","","","","","","","","","","","","","","",""
"7164","","image-button-response","100","1424326","0.0-99.0-0.0","A1K581IY10MNC0","img_art/18.jpg","4","","","","","","","","","","","","","","","","","","","","","","","","",""
"null","","html-keyboard-response","101","1425334","0.0-100.0","A1K581IY10MNC0","<p style=""font-size: 48px;"">+</p>","","","","","null","allTrialResponses","1000","1","8","img_art/18.jpg","23","Looks like people coming out of a war","Kyle,Paul,Logan,Jesse,Caleb,David","I feel indifferent about this one,0,340,20","It doesn't look like much, the colors are dark and it doesn't really make me feel anything.,-2,300,20","Can't tell if I love it or hate it. That response warranted more than neutral so I gave it 20 but not sure,21,360,20","It reminds me of ghosts on a boat. Makes me nervous.,-27,80,20","Accents make this piece.,21,40,20","I like how the image gives off an impression of bravery.,25,340,20","Jesse","It reminds me of ghosts on a boat. Makes me nervous.,-27,80,20","David","I like how the image gives off an impression of bravery.,25,340,20","Caleb","Accents make this piece.,21,40,20","2"
"30573","","survey-text","102","1455919","0.0-101.0-0.0","A1K581IY10MNC0","","","","{""Q0"":""Like the water flowing thru the rocks""}","","","","","","","","","","","","","","","","","","","","","","",""
"3558","","image-slider-response","103","1459479","0.0-102.0","A1K581IY10MNC0","","","","","38","","","","","","","","","","","","","","","","","","","","","",""
"2974","","image-button-response","104","1464489","0.0-103.0","A1K581IY10MNC0","img_art/24.jpg","0","","","","","","","","","","","","","","","","","","","","","","","","",""
"8003","","image-button-response","105","1472494","0.0-104.0","A1K581IY10MNC0","img_art/24.jpg","2","","","","","","","","","","","","","","","","","","","","","","","","",""
"2621","","image-button-response","106","1475118","0.0-105.0-0.0","A1K581IY10MNC0","img_art/24.jpg","3","","","","","","","","","","","","","","","","","","","","","","","","",""
"10111","","image-button-response","107","1485231","0.0-106.0-0.0","A1K581IY10MNC0","img_art/24.jpg","5","","","","","","","","","","","","","","","","","","","","","","","","",""
"null","","html-keyboard-response","108","1485734","0.0-107.0","A1K581IY10MNC0","<p style=""font-size: 48px;"">+</p>","","","","","null","allTrialResponses","500","1","9","img_art/24.jpg","38","Like the water flowing thru the rocks","Jose,Tristan,Daniel,Jesse,Caleb,David","The combination of nature / realism with abstract colors is unique.,39,200,20","The contorted angles of the flowing water upset the harmony,-20,300,20","Classic palette lacks real world 3d construction,19,320,20","Love the colors and contrast. Feels peaceful.,33,80,20","This is gorgeous. Strong, saturated colors and clear meaning.,50,40,20","Invokes a strong sense of nature, since the piece can interpreted as a stream or an abstracted bird.,40,340,20","Daniel","Classic palette lacks real world 3d construction,19,320,20","Jesse","Love the colors and contrast. Feels peaceful.,33,80,20","David","Invokes a strong sense of nature, since the piece can interpreted as a stream or an abstracted bird.,40,340,20","2"
"49586","","survey-text","109","1535326","0.0-108.0-0.0","A1K581IY10MNC0","","","","{""Q0"":""Looks like a war zone""}","","","","","","","","","","","","","","","","","","","","","","",""
"9398","","image-slider-response","110","1544727","0.0-109.0","A1K581IY10MNC0","","","","","-11","","","","","","","","","","","","","","","","","","","","","",""
"null","","image-button-response","111","1549741","0.0-110.0","A1K581IY10MNC0","img_art/20.jpg","null","","","","","","","","","","","","","","","","","","","","","","","","",""
"6673","","image-button-response","112","1556416","0.0-111.0","A1K581IY10MNC0","img_art/20.jpg","2","","","","","","","","","","","","","","","","","","","","","","","","",""
"5949","","image-button-response","113","1562366","0.0-112.0-0.0","A1K581IY10MNC0","img_art/20.jpg","4","","","","","","","","","","","","","","","","","","","","","","","","",""
"9990","","image-button-response","114","1572358","0.0-113.0-0.0","A1K581IY10MNC0","img_art/20.jpg","1","","","","","","","","","","","","","","","","","","","","","","","","",""
"null","","html-keyboard-response","115","1572874","0.0-114.0","A1K581IY10MNC0","<p style=""font-size: 48px;"">+</p>","","","","","null","allTrialResponses","500","1","10","img_art/20.jpg","-11","Looks like a war zone","Angel,Sean,Daniel,Jesse,Tanner,David","This looks like a ruin of what was once a thriving city.,-9,180,20","I like the detail on it, although I get a sad vibe to it,19,40,20","Fails to capture what similar styles do,-12,320,20","I do at least like the dark colors blending,6,80,20","danger, car crash, stressful,-12,180,20","I like how the image is depicting a scene.,10,340,20","Daniel","Fails to capture what similar styles do,-12,320,20","Tanner","danger, car crash, stressful,-12,180,20","Sean","I like the detail on it, although I get a sad vibe to it,19,40,20","2"
"4427","","survey-text","116","1577318","0.0-115.0-0.0","A1K581IY10MNC0","","","","{""Q0"":""our""}","","","","","","","","","","","","","","","","","","","","","","",""
"34398","","survey-text","117","1611718","0.0-116.0-0.0","A1K581IY10MNC0","","","","{""Q0"":""Love the roller coaster feeling""}","","","","","","","","","","","","","","","","","","","","","","",""
"3742","","image-slider-response","118","1615463","0.0-117.0","A1K581IY10MNC0","","","","","41","","","","","","","","","","","","","","","","","","","","","",""
"4503","","image-button-response","119","1620477","0.0-118.0","A1K581IY10MNC0","img_art/30.jpg","1","","","","","","","","","","","","","","","","","","","","","","","","",""
"1343","","image-button-response","120","1621822","0.0-119.0","A1K581IY10MNC0","img_art/30.jpg","1","","","","","","","","","","","","","","","","","","","","","","","","",""
"17792","","image-button-response","121","1639615","0.0-120.0-0.0","A1K581IY10MNC0","img_art/30.jpg","0","","","","","","","","","","","","","","","","","","","","","","","","",""
"8829","","image-button-response","122","1648447","0.0-121.0-0.0","A1K581IY10MNC0","img_art/30.jpg","2","","","","","","","","","","","","","","","","","","","","","","","","",""
"null","","html-keyboard-response","123","1649952","0.0-122.0","A1K581IY10MNC0","<p style=""font-size: 48px;"">+</p>","","","","","null","allTrialResponses","1500","1","11","img_art/30.jpg","41","Love the roller coaster feeling","Spencer,Sean,Daniel,Adrian,Tanner,Isaiah","Interesting, almost an underworld of plant life,11,120,20","the colors look nice,19,40,20","10 year old 10 minute project ""Fun with Painting"",-42,320,20","Interesting. Not sure what I'm seeing but it makes me want to figure it out.,5,60,20","makes me think of a tunnel filled with graffiti,19,180,20","The painting doesn't elicit any response from me.,0,300,20","Sean","the colors look nice,19,40,20","Spencer","Interesting, almost an underworld of plant life,11,120,20","Daniel","10 year old 10 minute project ""Fun with Painting"",-42,320,20","2"
"45940","","survey-text","124","1695903","0.0-123.0-0.0","A1K581IY10MNC0","","","","{""Q0"":""Looks like paint splattered all over""}","","","","","","","","","","","","","","","","","","","","","","",""
"4366","","image-slider-response","125","1700270","0.0-124.0","A1K581IY10MNC0","","","","","-11","","","","","","","","","","","","","","","","","","","","","",""
"null","","image-button-response","126","1705279","0.0-125.0","A1K581IY10MNC0","img_art/13.jpg","null","","","","","","","","","","","","","","","","","","","","","","","","",""
"7447","","image-button-response","127","1712727","0.0-126.0","A1K581IY10MNC0","img_art/13.jpg","3","","","","","","","","","","","","","","","","","","","","","","","","",""
"2022","","image-button-response","128","1714750","0.0-127.0-0.0","A1K581IY10MNC0","img_art/13.jpg","5","","","","","","","","","","","","","","","","","","","","","","","","",""
"3686","","image-button-response","129","1718439","0.0-128.0-0.0","A1K581IY10MNC0","img_art/13.jpg","2","","","","","","","","","","","","","","","","","","","","","","","","",""
"null","","html-keyboard-response","130","1718947","0.0-129.0","A1K581IY10MNC0","<p style=""font-size: 48px;"">+</p>","","","","","null","allTrialResponses","500","1","12","img_art/13.jpg","-11","Looks like paint splattered all over","Spencer,Sean,Daniel,Jorge,Joshua,Steven","Like it a lot, reminds me of rainy day on glass,43,120,20","I like the colors,7,40,20","Average overly symmetrical safe,-26,320,20","It reminds me of rain,11,180,20","Like this a lot and would hang in my house.,27,240,20","It's just paint splatter, no real meaning to me,-50,160,20","Jorge","It reminds me of rain,11,180,20","Steven","It's just paint splatter, no real meaning to me,-50,160,20","Daniel","Average overly symmetrical safe,-26,320,20","2"
"48327","","survey-text","131","1767287","0.0-130.0-0.0","A1K581IY10MNC0","","","","{""Q0"":""Peaceful scene with lady resting""}","","","","","","","","","","","","","","","","","","","","","","",""
"7436","","image-slider-response","132","1774727","0.0-131.0","A1K581IY10MNC0","","","","","30","","","","","","","","","","","","","","","","","","","","","",""
"null","","image-button-response","133","1779731","0.0-132.0","A1K581IY10MNC0","img_art/9.jpg","null","","","","","","","","","","","","","","","","","","","","","","","","",""
"18658","","image-button-response","134","1798391","0.0-133.0","A1K581IY10MNC0","img_art/9.jpg","4","","","","","","","","","","","","","","","","","","","","","","","","",""
"4422","","image-button-response","135","1802815","0.0-134.0-0.0","A1K581IY10MNC0","img_art/9.jpg","3","","","","","","","","","","","","","","","","","","","","","","","","",""
"11541","","image-button-response","136","1814359","0.0-135.0-0.0","A1K581IY10MNC0","img_art/9.jpg","0","","","","","","","","","","","","","","","","","","","","","","","","",""
"null","","html-keyboard-response","137","1815366","0.0-136.0","A1K581IY10MNC0","<p style=""font-size: 48px;"">+</p>","","","","","null","allTrialResponses","1000","1","13","img_art/9.jpg","30","Peaceful scene with lady resting","Richard,Elijah,Daniel,Jorge,Ian,Steven","looks like an imitation of a real piece of art, reclining lady,-1,340,20","It's a mix of paint splash and scribbling,-33,80,20","A troubled painter was influenced by anger and mad at the woman in the middle, color not bad,-32,320,20","curious and unsure,12,180,20","It looks like someone gave a kid a coloring book page but the colors are soothing and look put together and elegant,27,260,20","I just dont like it, no reaction from me at all,-50,160,20","Ian","It looks like someone gave a kid a coloring book page but the colors are soothing and look put together and elegant,27,260,20","Jorge","curious and unsure,12,180,20","Richard","looks like an imitation of a real piece of art, reclining lady,-1,340,20","2"
"76942","","survey-text","138","1892311","0.0-137.0-0.0","A1K581IY10MNC0","","","","{""Q0"":""Good blend of colors that create a vivid scene""}","","","","","","","","","","","","","","","","","","","","","","",""
"10126","","image-slider-response","139","1902439","0.0-138.0","A1K581IY10MNC0","","","","","20","","","","","","","","","","","","","","","","","","","","","",""
"4263","","image-button-response","140","1907443","0.0-139.0","A1K581IY10MNC0","img_art/12.jpg","3","","","","","","","","","","","","","","","","","","","","","","","","",""
"1223","","image-button-response","141","1908670","0.0-140.0","A1K581IY10MNC0","img_art/12.jpg","3","","","","","","","","","","","","","","","","","","","","","","","","",""
"10295","","image-button-response","142","1918968","0.0-141.0-0.0","A1K581IY10MNC0","img_art/12.jpg","5","","","","","","","","","","","","","","","","","","","","","","","","",""
"6926","","image-button-response","143","1925895","0.0-142.0-0.0","A1K581IY10MNC0","img_art/12.jpg","1","","","","","","","","","","","","","","","","","","","","","","","","",""
"null","","html-keyboard-response","144","1927401","0.0-143.0","A1K581IY10MNC0","<p style=""font-size: 48px;"">+</p>","","","","","null","allTrialResponses","1500","1","14","img_art/12.jpg","20","Good blend of colors that create a vivid scene","Richard,Gregory,Michael,Jorge,Ian,Marcus","seems too dark on top and too common on the bottom,-19,340,20","Black and white contrast with color looks nice,15,220,20","Not quite my style but there more of a pattern and it is interesting to look at.,15,140,20","Windows to a different story,6,180,20","This is like going to a really old mcdoanlds in a tiny town and it's never been renovated so it's breaking down,-31,260,20","I like the colors in the bottom half of the painting,10,60,20","Jorge","Windows to a different story,6,180,20","Marcus","I like the colors in the bottom half of the painting,10,60,20","Gregory","Black and white contrast with color looks nice,15,220,20","2"
"42162","","survey-text","145","1969567","0.0-144.0-0.0","A1K581IY10MNC0","","","","{""Q0"":""Looks like a storm passed thru""}","","","","","","","","","","","","","","","","","","","","","","",""
"14182","","image-slider-response","146","1983750","0.0-145.0","A1K581IY10MNC0","","","","","10","","","","","","","","","","","","","","","","","","","","","",""
"null","","image-button-response","147","1988754","0.0-146.0","A1K581IY10MNC0","img_art/27.jpg","null","","","","","","","","","","","","","","","","","","","","","","","","",""
"3676","","image-button-response","148","1992430","0.0-147.0","A1K581IY10MNC0","img_art/27.jpg","4","","","","","","","","","","","","","","","","","","","","","","","","",""
"4790","","image-button-response","149","1997223","0.0-148.0-0.0","A1K581IY10MNC0","img_art/27.jpg","0","","","","","","","","","","","","","","","","","","","","","","","","",""
"7734","","image-button-response","150","2004959","0.0-149.0-0.0","A1K581IY10MNC0","img_art/27.jpg","5","","","","","","","","","","","","","","","","","","","","","","","","",""
"null","","html-keyboard-response","151","2005467","0.0-150.0","A1K581IY10MNC0","<p style=""font-size: 48px;"">+</p>","","","","","null","allTrialResponses","500","1","15","img_art/27.jpg","10","Looks like a storm passed thru","Hunter,Gregory,Scott,Jorge,Benjamin,Marcus","reminds me of kandinsky,10,240,20","Don't like the mix of green with the warmer colors,-15,220,20","again looks like childrens artwork,-40,20,20","dirty and misunderstood,-47,180,20","I like the colors.,6,260,20","It's okay. Not really interesting to me.,-10,60,20","Benjamin","I like the colors.,6,260,20","Hunter","reminds me of kandinsky,10,240,20","Marcus","It's okay. Not really interesting to me.,-10,60,20","2"
"6527","","survey-text","152","2012015","0.0-151.0-0.0","A1K581IY10MNC0","","","","{""Q0"":""course""}","","","","","","","","","","","","","","","","","","","","","","",""
"49047","","survey-text","153","2061063","0.0-152.0-0.0","A1K581IY10MNC0","","","","{""Q0"":""A headless bird resting for a moment""}","","","","","","","","","","","","","","","","","","","","","","",""
"11982","","image-slider-response","154","2073048","0.0-153.0","A1K581IY10MNC0","","","","","5","","","","","","","","","","","","","","","","","","","","","",""
"2398","","image-button-response","155","2078053","0.0-154.0","A1K581IY10MNC0","img_art/6.jpg","0","","","","","","","","","","","","","","","","","","","","","","","","",""
"999","","image-button-response","156","2079055","0.0-155.0","A1K581IY10MNC0","img_art/6.jpg","0","","","","","","","","","","","","","","","","","","","","","","","","",""
"678","","image-button-response","157","2079736","0.0-156.0-0.0","A1K581IY10MNC0","img_art/6.jpg","1","","","","","","","","","","","","","","","","","","","","","","","","",""
"1470","","image-button-response","158","2081207","0.0-157.0-0.0","A1K581IY10MNC0","img_art/6.jpg","0","","","","","","","","","","","","","","","","","","","","","","","","",""
"18402","","image-button-response","159","2102711","0.0-157.1-0.1","A1K581IY10MNC0","img_art/6.jpg","2","","","","","","","","","","","","","","","","","","","","","","","","",""
"null","","html-keyboard-response","160","2104216","0.0-158.0","A1K581IY10MNC0","<p style=""font-size: 48px;"">+</p>","","","","","null","allTrialResponses","1500","1","16","img_art/6.jpg","5","A headless bird resting for a moment","Hunter,Kenneth,Carlos,Mark,Benjamin,Marcus","composition is engaging,28,240,20","Simple and pretty.,18,300,20","Clean and simple, a pleasant resting place for the eyes.,21,80,20","So forlorn, and beauty amid desolation.,25,80,20","Something very simplistic about it. The colors mesh well.,10,260,20","I like the orange color, and I don't know why but I like this piece.,22,60,20","Hunter","composition is engaging,28,240,20","Kenneth","Simple and pretty.,18,300,20","Carlos","Clean and simple, a pleasant resting place for the eyes.,21,80,20","4"
"57096","","survey-text","161","2161326","0.0-159.0-0.0","A1K581IY10MNC0","","","","{""Q0"":""Nice blend of colors like a new planet emerging""}","","","","","","","","","","","","","","","","","","","","","","",""
"7996","","image-slider-response","162","2169327","0.0-160.0","A1K581IY10MNC0","","","","","30","","","","","","","","","","","","","","","","","","","","","",""
"null","","image-button-response","163","2174338","0.0-161.0","A1K581IY10MNC0","img_art/22.jpg","null","","","","","","","","","","","","","","","","","","","","","","","","",""
"2219","","image-button-response","164","2176559","0.0-162.0","A1K581IY10MNC0","img_art/22.jpg","1","","","","","","","","","","","","","","","","","","","","","","","","",""
"1366","","image-button-response","165","2177928","0.0-163.0-0.0","A1K581IY10MNC0","img_art/22.jpg","2","","","","","","","","","","","","","","","","","","","","","","","","",""
"2262","","image-button-response","166","2180191","0.0-164.0-0.0","A1K581IY10MNC0","img_art/22.jpg","0","","","","","","","","","","","","","","","","","","","","","","","","",""
"null","","html-keyboard-response","167","2181697","0.0-165.0","A1K581IY10MNC0","<p style=""font-size: 48px;"">+</p>","","","","","null","allTrialResponses","1500","1","17","img_art/22.jpg","30","Nice blend of colors like a new planet emerging","Hunter,Kenneth,Carlos,Andrew,Peter,John","strong blending skills,7,240,20","I really enjoy the blended colors.,20,300,20","The colors are pleasant, the shapes are inviting.,21,80,20","Doesn't make me feel anything,-4,160,20","Just neutral no feelings,2,320,20","Its okay,it doesnt make me feel any sort of strong emotion,1,120,20","Kenneth","I really enjoy the blended colors.,20,300,20","Carlos","The colors are pleasant, the shapes are inviting.,21,80,20","Hunter","strong blending skills,7,240,20","4"
"65311","","survey-text","168","2247023","0.0-166.0-0.0","A1K581IY10MNC0","","","","{""Q0"":""Looks like something emerging out of the water""}","","","","","","","","","","","","","","","","","","","","","","",""
"6045","","image-slider-response","169","2253072","0.0-167.0","A1K581IY10MNC0","","","","","15","","","","","","","","","","","","","","","","","","","","","",""
"3854","","image-button-response","170","2258078","0.0-168.0","A1K581IY10MNC0","img_art/10.jpg","0","","","","","","","","","","","","","","","","","","","","","","","","",""
"1165","","image-button-response","171","2259246","0.0-169.0","A1K581IY10MNC0","img_art/10.jpg","0","","","","","","","","","","","","","","","","","","","","","","","","",""
"3863","","image-button-response","172","2263111","0.0-170.0-0.0","A1K581IY10MNC0","img_art/10.jpg","1","","","","","","","","","","","","","","","","","","","","","","","","",""
"14142","","image-button-response","173","2277255","0.0-171.0-0.0","A1K581IY10MNC0","img_art/10.jpg","4","","","","","","","","","","","","","","","","","","","","","","","","",""
"null","","html-keyboard-response","174","2278261","0.0-172.0","A1K581IY10MNC0","<p style=""font-size: 48px;"">+</p>","","","","","null","allTrialResponses","1000","1","18","img_art/10.jpg","15","Looks like something emerging out of the water","Hunter,Kenneth,Carlos,Jared,Lucas,Jack","shapes are appealing/relationship between the beige square and the black lines,24,240,20","I cant tell what this is supposed to be, but I enjoy the simplicity of it.,28,300,20","The colors and shapes are soothing but also disconcerting.,21,80,20","it just doesnt appeal to me.,-10,400,20","For me, it looks like a giant ship on the sea and it's astonishing.,30,380,20","this piece is okay. I wish it was more colorful, but it is certainly intriguing.,23,320,20","Hunter","shapes are appealing/relationship between the beige square and the black lines,24,240,20","Kenneth","I cant tell what this is supposed to be, but I enjoy the simplicity of it.,28,300,20","Lucas","For me, it looks like a giant ship on the sea and it's astonishing.,30,380,20","4"
"27932","","survey-text","175","2306206","0.0-173.0-0.0","A1K581IY10MNC0","","","","{""Q0"":""Excellent blend of colors wiht a new world coming alive""}","","","","","","","","","","","","","","","","","","","","","","",""
"8286","","image-slider-response","176","2314494","0.0-174.0","A1K581IY10MNC0","","","","","40","","","","","","","","","","","","","","","","","","","","","",""
"null","","image-button-response","177","2319508","0.0-175.0","A1K581IY10MNC0","img_art/8.jpg","null","","","","","","","","","","","","","","","","","","","","","","","","",""
"4250","","image-button-response","178","2323759","0.0-176.0","A1K581IY10MNC0","img_art/8.jpg","1","","","","","","","","","","","","","","","","","","","","","","","","",""
"10398","","image-button-response","179","2334159","0.0-177.0-0.0","A1K581IY10MNC0","img_art/8.jpg","4","","","","","","","","","","","","","","","","","","","","","","","","",""
"3166","","image-button-response","180","2337327","0.0-178.0-0.0","A1K581IY10MNC0","img_art/8.jpg","0","","","","","","","","","","","","","","","","","","","","","","","","",""
"null","","html-keyboard-response","181","2337837","0.0-179.0","A1K581IY10MNC0","<p style=""font-size: 48px;"">+</p>","","","","","null","allTrialResponses","500","1","19","img_art/8.jpg","40","Excellent blend of colors wiht a new world coming alive","Hunter,Kenneth,Timothy,Blake,Lucas,Jake","crisp shapes, find more things the longer you look,17,240,20","Interesting, i really like the face and the moon. Realy detailed and you see something new with each look.,11,300,20","Too much going on, too many colors, makes me feel uneasy,-20,240,20","cold city controlled by evil gods,-17,280,20","Different styles make this picture outstanding.,20,380,20","It's a poor rendition of an MC Escher inspired piece.,-25,360,20","Kenneth","Interesting, i really like the face and the moon. Realy detailed and you see something new with each look.,11,300,20","Lucas","Different styles make this picture outstanding.,20,380,20","Hunter","crisp shapes, find more things the longer you look,17,240,20","4"
"30851","","survey-text","182","2368696","0.0-180.0-0.0","A1K581IY10MNC0","","","","{""Q0"":""Bland colors create a sad scene""}","","","","","","","","","","","","","","","","","","","","","","",""
"8061","","image-slider-response","183","2376759","0.0-181.0","A1K581IY10MNC0","","","","","-30","","","","","","","","","","","","","","","","","","","","","",""
"2669","","image-button-response","184","2381774","0.0-182.0","A1K581IY10MNC0","img_art/29.jpg","0","","","","","","","","","","","","","","","","","","","","","","","","",""
"676","","image-button-response","185","2382455","0.0-183.0","A1K581IY10MNC0","img_art/29.jpg","0","","","","","","","","","","","","","","","","","","","","","","","","",""
"4558","","image-button-response","186","2387015","0.0-184.0-0.0","A1K581IY10MNC0","img_art/29.jpg","1","","","","","","","","","","","","","","","","","","","","","","","","",""
"12357","","image-button-response","187","2399376","0.0-185.0-0.0","A1K581IY10MNC0","img_art/29.jpg","5","","","","","","","","","","","","","","","","","","","","","","","","",""
"null","","html-keyboard-response","188","2399881","0.0-186.0","A1K581IY10MNC0","<p style=""font-size: 48px;"">+</p>","","","","","null","allTrialResponses","500","1","20","img_art/29.jpg","-30","Bland colors create a sad scene","Hunter,Kenneth,Jordan,Jeremy,Lucas,Patrick","abrasive and grotesque textures,-36,240,20","Too much going on, and I don't like the colors. It looks like a crime scene.,-50,300,20","Messy and disorganized, to odark,-31,160,20","unhappy. Looking at this all the time would depress me.,-11,60,20","Looks kinda scary.,25,380,20","I don't like the black,-50,280,20","Hunter","abrasive and grotesque textures,-36,240,20","Kenneth","Too much going on, and I don't like the colors. It looks like a crime scene.,-50,300,20","Patrick","I don't like the black,-50,280,20","4"
"4497","","survey-text","189","2404398","0.0-187.0-0.0","A1K581IY10MNC0","","","","{""Q0"":""we""}","","","","","","","","","","","","","","","","","","","","","","",""
"33512","","survey-text","190","2437912","0.0-188.0-0.0","A1K581IY10MNC0","","","","{""Q0"":""Colors are not vibrant in this scene of nature""}","","","","","","","","","","","","","","","","","","","","","","",""
"8244","","image-slider-response","191","2446158","0.0-189.0","A1K581IY10MNC0","","","","","-16","","","","","","","","","","","","","","","","","","","","","",""
"2526","","image-button-response","192","2451172","0.0-190.0","A1K581IY10MNC0","img_art/26.jpg","0","","","","","","","","","","","","","","","","","","","","","","","","",""
"1018","","image-button-response","193","2452192","0.0-191.0","A1K581IY10MNC0","img_art/26.jpg","0","","","","","","","","","","","","","","","","","","","","","","","","",""
"6486","","image-button-response","194","2458679","0.0-192.0-0.0","A1K581IY10MNC0","img_art/26.jpg","3","","","","","","","","","","","","","","","","","","","","","","","","",""
"5389","","image-button-response","195","2464071","0.0-193.0-0.0","A1K581IY10MNC0","img_art/26.jpg","1","","","","","","","","","","","","","","","","","","","","","","","","",""
"null","","html-keyboard-response","196","2465577","0.0-194.0","A1K581IY10MNC0","<p style=""font-size: 48px;"">+</p>","","","","","null","allTrialResponses","1500","1","21","img_art/26.jpg","-16","Colors are not vibrant in this scene of nature","Hunter,Kenneth,Connor,Alejandro,Alexis,Patrick","feels incomplete,-50,240,20","Very subdued, but wouldn't give it a 2nd notice.,4,300,20","City scene in a park,23,240,20","Do not like water colors at all,-50,80,20","it makes me feel normal and calm, I like the busy city street,10,140,20","I can somewhat city a city in this drawing,11,280,20","Hunter","feels incomplete,-50,240,20","Alejandro","Do not like water colors at all,-50,80,20","Kenneth","Very subdued, but wouldn't give it a 2nd notice.,4,300,20","4"
"46095","","survey-text","197","2511678","0.0-195.0-0.0","A1K581IY10MNC0","","","","{""Q0"":""Looks like kid artwork with red doodles""}","","","","","","","","","","","","","","","","","","","","","","",""
"10085","","image-slider-response","198","2521767","0.0-196.0","A1K581IY10MNC0","","","","","-20","","","","","","","","","","","","","","","","","","","","","",""
"4717","","image-button-response","199","2526769","0.0-197.0","A1K581IY10MNC0","img_art/3.jpg","1","","","","","","","","","","","","","","","","","","","","","","","","",""
"2139","","image-button-response","200","2528910","0.0-198.0","A1K581IY10MNC0","img_art/3.jpg","1","","","","","","","","","","","","","","","","","","","","","","","","",""
"5470","","image-button-response","201","2534383","0.0-199.0-0.0","A1K581IY10MNC0","img_art/3.jpg","2","","","","","","","","","","","","","","","","","","","","","","","","",""
"6373","","image-button-response","202","2540759","0.0-200.0-0.0","A1K581IY10MNC0","img_art/3.jpg","4","","","","","","","","","","","","","","","","","","","","","","","","",""
"null","","html-keyboard-response","203","2541262","0.0-201.0","A1K581IY10MNC0","<p style=""font-size: 48px;"">+</p>","","","","","null","allTrialResponses","500","1","22","img_art/3.jpg","-20","Looks like kid artwork with red doodles","Hunter,Kenneth,Bryan,Alejandro,Edward,William","strong color, interesting negative shapes,21,240,20","Reminds me of blood.,-28,300,20","Just no. I love red but this looks like blood splatter on a wall from a horrific killing.,-45,400,20","I like the abstract flowing lines. It lacks hard rigid marks and flow nicely into a piece of calamity.,32,80,20","It looks like someone took a red sharpie and just scribbled angrily,-20,60,20","makes me think of anger,-33,380,20","Kenneth","Reminds me of blood.,-28,300,20","Bryan","Just no. I love red but this looks like blood splatter on a wall from a horrific killing.,-45,400,20","Edward","It looks like someone took a red sharpie and just scribbled angrily,-20,60,20","4"
"23296","","survey-text","204","2564568","0.0-202.0-0.0","A1K581IY10MNC0","","","","{""Q0"":""Looks like a good city that is connected""}","","","","","","","","","","","","","","","","","","","","","","",""
"9101","","image-slider-response","205","2573670","0.0-203.0","A1K581IY10MNC0","","","","","10","","","","","","","","","","","","","","","","","","","","","",""
"null","","image-button-response","206","2578676","0.0-204.0","A1K581IY10MNC0","img_art/11.jpg","null","","","","","","","","","","","","","","","","","","","","","","","","",""
"2752","","image-button-response","207","2581432","0.0-205.0","A1K581IY10MNC0","img_art/11.jpg","5","","","","","","","","","","","","","","","","","","","","","","","","",""
"5398","","image-button-response","208","2586831","0.0-206.0-0.0","A1K581IY10MNC0","img_art/11.jpg","2","","","","","","","","","","","","","","","","","","","","","","","","",""
"2829","","image-button-response","209","2589663","0.0-207.0-0.0","A1K581IY10MNC0","img_art/11.jpg","4","","","","","","","","","","","","","","","","","","","","","","","","",""
"null","","html-keyboard-response","210","2591169","0.0-208.0","A1K581IY10MNC0","<p style=""font-size: 48px;"">+</p>","","","","","null","allTrialResponses","1500","1","23","img_art/11.jpg","10","Looks like a good city that is connected","Devon,Kenneth,Bryan,Evan,Edward,Dylan","a beautiful piece of art,33,400,20","Its a little psychedelic.,10,300,20","Rainy asian city scape.,31,400,20","I dislike how dark this is,-21,140,20","Reminds me of a city and how chaotic it can be,22,60,20","I normally would not like this photo, but the design is nice.,21,40,20","Dylan","I normally would not like this photo, but the design is nice.,21,40,20","Bryan","Rainy asian city scape.,31,400,20","Edward","Reminds me of a city and how chaotic it can be,22,60,20","4"
"36549","","survey-text","211","2627735","0.0-209.0-0.0","A1K581IY10MNC0","","","","{""Q0"":""Lacks vibrancy and looks kind of dull""}","","","","","","","","","","","","","","","","","","","","","","",""
"5453","","image-slider-response","212","2633191","0.0-210.0","A1K581IY10MNC0","","","","","-30","","","","","","","","","","","","","","","","","","","","","",""
"null","","image-button-response","213","2638204","0.0-211.0","A1K581IY10MNC0","img_art/19.jpg","null","","","","","","","","","","","","","","","","","","","","","","","","",""
"538","","image-button-response","214","2638744","0.0-212.0","A1K581IY10MNC0","img_art/19.jpg","1","","","","","","","","","","","","","","","","","","","","","","","","",""
"3527","","image-button-response","215","2642272","0.0-213.0-0.0","A1K581IY10MNC0","img_art/19.jpg","3","","","","","","","","","","","","","","","","","","","","","","","","",""
"3294","","image-button-response","216","2645567","0.0-214.0-0.0","A1K581IY10MNC0","img_art/19.jpg","5","","","","","","","","","","","","","","","","","","","","","","","","",""
"null","","html-keyboard-response","217","2646574","0.0-215.0","A1K581IY10MNC0","<p style=""font-size: 48px;"">+</p>","","","","","null","allTrialResponses","1000","1","24","img_art/19.jpg","-30","Lacks vibrancy and looks kind of dull","Luke,Corey,Bryan,Thomas,Edward,Dylan","it draws my eye and my mind fills in the spaces,14,20,20","i think it is ugly and hate the colors,-35,260,20","Looks like a child's rendering of a city street but not too sure.,0,400,20","I like this as a whole, but the longer I look at it, the less it pleases me,-10,220,20","It's ok but it's nothing I would hang on my wall,11,60,20","This photo has too much going on.,-19,40,20","Corey","i think it is ugly and hate the colors,-35,260,20","Thomas","I like this as a whole, but the longer I look at it, the less it pleases me,-10,220,20","Dylan","This photo has too much going on.,-19,40,20","4"
"36736","","survey-text","218","2683319","0.0-216.0-0.0","A1K581IY10MNC0","","","","{""Q0"":""Like the blend of colors with people at a party""}","","","","","","","","","","","","","","","","","","","","","","",""
"4854","","image-slider-response","219","2688175","0.0-217.0","A1K581IY10MNC0","","","","","30","","","","","","","","","","","","","","","","","","","","","",""
"3957","","image-button-response","220","2693181","0.0-218.0","A1K581IY10MNC0","img_art/23.jpg","0","","","","","","","","","","","","","","","","","","","","","","","","",""
"640","","image-button-response","221","2693824","0.0-219.0","A1K581IY10MNC0","img_art/23.jpg","0","","","","","","","","","","","","","","","","","","","","","","","","",""
"6790","","image-button-response","222","2700615","0.0-220.0-0.0","A1K581IY10MNC0","img_art/23.jpg","3","","","","","","","","","","","","","","","","","","","","","","","","",""
"5670","","image-button-response","223","2706288","0.0-221.0-0.0","A1K581IY10MNC0","img_art/23.jpg","4","","","","","","","","","","","","","","","","","","","","","","","","",""
"null","","html-keyboard-response","224","2707792","0.0-222.0","A1K581IY10MNC0","<p style=""font-size: 48px;"">+</p>","","","","","null","allTrialResponses","1500","1","25","img_art/23.jpg","30","Like the blend of colors with people at a party","Nicholas,Corey,Taylor,Thomas,Brandon,Dylan","The more i look at it the more i like it  the dots of color and very interesting,50,240,20","white reminds me of screamo music band tshirts when they have their name in the unreadable lettering,-9,260,20","SOME thought was put into this one.,5,200,20","Beautiful. Very detailed and colorful. I enjoy looking at it.,50,220,20","Pretty cool. I love the white, reminds me of people lined up.,28,320,20","This is my favorite of them all. I love the colors.,41,40,20","Nicholas","The more i look at it the more i like it  the dots of color and very interesting,50,240,20","Thomas","Beautiful. Very detailed and colorful. I enjoy looking at it.,50,220,20","Brandon","Pretty cool. I love the white, reminds me of people lined up.,28,320,20","4"
"4087","","survey-text","225","2711912","0.0-223.0-0.0","A1K581IY10MNC0","","","","{""Q0"":""table""}","","","","","","","","","","","","","","","","","","","","","","",""
"21390","","survey-text","226","2733303","0.0-224.0-0.0","A1K581IY10MNC0","","","","{""Q0"":""Looks like a random blob of colors""}","","","","","","","","","","","","","","","","","","","","","","",""
"8861","","image-slider-response","227","2742167","0.0-225.0","A1K581IY10MNC0","","","","","-20","","","","","","","","","","","","","","","","","","","","","",""
"3782","","image-button-response","228","2747173","0.0-226.0","A1K581IY10MNC0","img_art/2.jpg","2","","","","","","","","","","","","","","","","","","","","","","","","",""
"1922","","image-button-response","229","2749095","0.0-227.0","A1K581IY10MNC0","img_art/2.jpg","2","","","","","","","","","","","","","","","","","","","","","","","","",""
"3240","","image-button-response","230","2752336","0.0-228.0-0.0","A1K581IY10MNC0","img_art/2.jpg","4","","","","","","","","","","","","","","","","","","","","","","","","",""
"6021","","image-button-response","231","2758360","0.0-229.0-0.0","A1K581IY10MNC0","img_art/2.jpg","3","","","","","","","","","","","","","","","","","","","","","","","","",""
"null","","html-keyboard-response","232","2759365","0.0-230.0","A1K581IY10MNC0","<p style=""font-size: 48px;"">+</p>","","","","","null","allTrialResponses","1000","1","26","img_art/2.jpg","-20","Looks like a random blob of colors","Nicholas,Charles,Devin,Thomas,Brandon,Derek","Cute and happy,22,240,20","I like the green,13,100,20","I don't really like this style,-5,380,20","My first thought was that it looks like a children's art project,-30,220,20","Do not like this type of abstract work,-50,320,20","Not my favorite but I can see this being hung in a art museum,25,360,20","Devin","I don't really like this style,-5,380,20","Brandon","Do not like this type of abstract work,-50,320,20","Thomas","My first thought was that it looks like a children's art project,-30,220,20","4"
"32121","","survey-text","233","2791504","0.0-231.0-0.0","A1K581IY10MNC0","","","","{""Q0"":""Ugly blend of colors that is depressing to look at""}","","","","","","","","","","","","","","","","","","","","","","",""
"4310","","image-slider-response","234","2795815","0.0-232.0","A1K581IY10MNC0","","","","","-40","","","","","","","","","","","","","","","","","","","","","",""
"3990","","image-button-response","235","2800825","0.0-233.0","A1K581IY10MNC0","img_art/1.jpg","1","","","","","","","","","","","","","","","","","","","","","","","","",""
"1244","","image-button-response","236","2802071","0.0-234.0","A1K581IY10MNC0","img_art/1.jpg","1","","","","","","","","","","","","","","","","","","","","","","","","",""
"1871","","image-button-response","237","2803944","0.0-235.0-0.0","A1K581IY10MNC0","img_art/1.jpg","2","","","","","","","","","","","","","","","","","","","","","","","","",""
"7757","","image-button-response","238","2811704","0.0-236.0-0.0","A1K581IY10MNC0","img_art/1.jpg","4","","","","","","","","","","","","","","","","","","","","","","","","",""
"null","","html-keyboard-response","239","2813214","0.0-237.0","A1K581IY10MNC0","<p style=""font-size: 48px;"">+</p>","","","","","null","allTrialResponses","1500","1","27","img_art/1.jpg","-40","Ugly blend of colors that is depressing to look at","Austin,Travis,Devin,Thomas,Brandon,Jonathan","Absolutely love this painting,50,240,20","I didn't like this too much...I didn't like the red and the jaggedness to it.,-29,260,20","Quite messy looking,-22,380,20","Pleasant, but a tad too monochromatic in some areas for my taste,7,220,20","Taco Bell wallpaper. Doesn't really make me feel anything,3,320,20","I love the colors but it's too intense sometimes,22,140,20","Travis","I didn't like this too much...I didn't like the red and the jaggedness to it.,-29,260,20","Devin","Quite messy looking,-22,380,20","Brandon","Taco Bell wallpaper. Doesn't really make me feel anything,3,320,20","4"
"28085","","survey-text","240","2841318","0.0-238.0-0.0","A1K581IY10MNC0","","","","{""Q0"":""The teddy bear creates a warm & peaceful scene""}","","","","","","","","","","","","","","","","","","","","","","",""
"11932","","image-slider-response","241","2853255","0.0-239.0","A1K581IY10MNC0","","","","","35","","","","","","","","","","","","","","","","","","","","","",""
"3942","","image-button-response","242","2858273","0.0-240.0","A1K581IY10MNC0","img_art/16.jpg","1","","","","","","","","","","","","","","","","","","","","","","","","",""
"7874","","image-button-response","243","2866151","0.0-241.0","A1K581IY10MNC0","img_art/16.jpg","0","","","","","","","","","","","","","","","","","","","","","","","","",""
"2846","","image-button-response","244","2868999","0.0-242.0-0.0","A1K581IY10MNC0","img_art/16.jpg","1","","","","","","","","","","","","","","","","","","","","","","","","",""
"10095","","image-button-response","245","2879095","0.0-243.0-0.0","A1K581IY10MNC0","img_art/16.jpg","2","","","","","","","","","","","","","","","","","","","","","","","","",""
"null","","html-keyboard-response","246","2880600","0.0-244.0","A1K581IY10MNC0","<p style=""font-size: 48px;"">+</p>","","","","","null","allTrialResponses","1500","1","28","img_art/16.jpg","35","The teddy bear creates a warm & peaceful scene","Kevin,Travis,Devin,Mason,Brandon,Garrett","Hmm i don't know what going on here.,1,320,20","I like the teddy bear,but a neutral feeling,5,260,20","That bear looks unfitting!,-8,380,20","Don't get it. Hate it. ugly.,-44,100,20","Don't like this technique. Too serial killer.,-50,320,20","I think this picture is weird and the colors are very boring.,-50,180,20","Kevin","Hmm i don't know what going on here.,1,320,20","Travis","I like the teddy bear,but a neutral feeling,5,260,20","Devin","That bear looks unfitting!,-8,380,20","4"
"27820","","survey-text","247","2908440","0.0-245.0-0.0","A1K581IY10MNC0","","","","{""Q0"":""Sad scene with bland looking colors""}","","","","","","","","","","","","","","","","","","","","","","",""
"6485","","image-slider-response","248","2914927","0.0-246.0","A1K581IY10MNC0","","","","","-20","","","","","","","","","","","","","","","","","","","","","",""
"null","","image-button-response","249","2919933","0.0-247.0","A1K581IY10MNC0","img_art/7.jpg","null","","","","","","","","","","","","","","","","","","","","","","","","",""
"369","","image-button-response","250","2920304","0.0-248.0","A1K581IY10MNC0","img_art/7.jpg","2","","","","","","","","","","","","","","","","","","","","","","","","",""
"3494","","image-button-response","251","2923799","0.0-249.0-0.0","A1K581IY10MNC0","img_art/7.jpg","3","","","","","","","","","","","","","","","","","","","","","","","","",""
"7206","","image-button-response","252","2931008","0.0-250.0-0.0","A1K581IY10MNC0","img_art/7.jpg","1","","","","","","","","","","","","","","","","","","","","","","","","",""
"null","","html-keyboard-response","253","2932517","0.0-251.0","A1K581IY10MNC0","<p style=""font-size: 48px;"">+</p>","","","","","null","allTrialResponses","1500","1","29","img_art/7.jpg","-20","Sad scene with bland looking colors","Kevin,Travis,Devin,Colton,Jeffrey,Brendan","That a desert floor,16,320,20","Just neutral...looks like sand at the beach.,3,260,20","Not very big on the sameness here,-20,380,20","reminds me of a cave wall,-21,220,20","No not cause many emotions,1,40,20","some rocks on a mars?,7,340,20","Devin","Not very big on the sameness here,-20,380,20","Colton","reminds me of a cave wall,-21,220,20","Travis","Just neutral...looks like sand at the beach.,3,260,20","4"
"41072","","survey-text","254","2973608","0.0-252.0-0.0","A1K581IY10MNC0","","","","{""Q0"":""Evil ruler making speaking to a crowd""}","","","","","","","","","","","","","","","","","","","","","","",""
"15893","","image-slider-response","255","2989504","0.0-253.0","A1K581IY10MNC0","","","","","-25","","","","","","","","","","","","","","","","","","","","","",""
"2422","","image-button-response","256","2994510","0.0-254.0","A1K581IY10MNC0","img_art/25.jpg","1","","","","","","","","","","","","","","","","","","","","","","","","",""
"465","","image-button-response","257","2994976","0.0-255.0","A1K581IY10MNC0","img_art/25.jpg","1","","","","","","","","","","","","","","","","","","","","","","","","",""
"2190","","image-button-response","258","2997168","0.0-256.0-0.0","A1K581IY10MNC0","img_art/25.jpg","2","","","","","","","","","","","","","","","","","","","","","","","","",""
"5326","","image-button-response","259","3002496","0.0-257.0-0.0","A1K581IY10MNC0","img_art/25.jpg","0","","","","","","","","","","","","","","","","","","","","","","","","",""
"null","","html-keyboard-response","260","3003505","0.0-258.0","A1K581IY10MNC0","<p style=""font-size: 48px;"">+</p>","","","","","null","allTrialResponses","1000","1","30","img_art/25.jpg","-25","Evil ruler making speaking to a crowd","Vincent,Travis,Devin,Colton,Victor,Eric","Iike this picture; it speaks to me on a personal level. But seems to scare the ones around me.,7,360,20","I hate the colors and the scene,-46,260,20","It looks a bit strange to me, neck too long,-19,380,20","the colors are pretty,11,220,20","Love the colors, and how it's simple yet complex,25,340,20","This piece gives me a lot of questions which I kind of like.,10,100,20","Travis","I hate the colors and the scene,-46,260,20","Devin","It looks a bit strange to me, neck too long,-19,380,20","Vincent","Iike this picture; it speaks to me on a personal level. But seems to scare the ones around me.,7,360,20","4"
"5517","","image-button-response_instructions","261","3009039","0.0-259.0","A1K581IY10MNC0","","0","instructions","","","","","","","","","","","","","","","","","","","","","","","",""
