"rt","url","trial_type","trial_index","time_elapsed","internal_node_id","participant_id","stimulus","button_pressed","Name","responses","response","key_press","variableName","fixationTime","condition","trial","photo","subjectRating","subjectResponse","agentsNames","agent_1_Response","agent_2_Response","agent_3_Response","agent_4_Response","agent_5_Response","agent_6_Response","kept_1_name","kept_1_response","kept_2_name","kept_2_response","kept_3_name","kept_3_response","errorCounter"
"7690","external_page_harvard.html","external-html","0","8129","0.0-0.0","A1LXVV3UW6H7","","","","","","","","","","","","","","","","","","","","","","","","","","",""
"18788","","image-button-response","1","26923","0.0-1.0","A1LXVV3UW6H7","","0","","","","","","","","","","","","","","","","","","","","","","","","",""
"1585","","image-button-response","2","28522","0.0-2.0-0.0","A1LXVV3UW6H7","","1","phone","","","","","","","","","","","","","","","","","","","","","","","",""
"23254","","survey-text","3","51786","0.0-3.0-0.0","A1LXVV3UW6H7","","","","{""Q0"":""A1LXVV3UW6H7""}","","","","","","","","","","","","","","","","","","","","","","",""
"2643","","image-button-response_instructions","4","54433","0.0-4.0","A1LXVV3UW6H7","","0","instructions","","","","","","","","","","","","","","","","","","","","","","","",""
"43479","","image-button-response_instructions","5","97915","0.0-5.0","A1LXVV3UW6H7","img_art/ins/popularity/ins1.png","0","instructions","","","","","","","","","","","","","","","","","","","","","","","",""
"5941","","image-button-response_instructions","6","103860","0.0-6.0","A1LXVV3UW6H7","img_art/ins/popularity/ins2.png","0","instructions","","","","","","","","","","","","","","","","","","","","","","","",""
"3630","","image-button-response_instructions","7","107493","0.0-7.0","A1LXVV3UW6H7","img_art/ins/popularity/ins2Extreme.png","0","instructions","","","","","","","","","","","","","","","","","","","","","","","",""
"2282","","image-button-response_instructions","8","109787","0.0-8.0","A1LXVV3UW6H7","img_art/ins/popularity/ins3KEEPpop.PNG","0","instructions","","","","","","","","","","","","","","","","","","","","","","","",""
"1906","","image-button-response_instructions","9","111697","0.0-9.0","A1LXVV3UW6H7","img_art/ins/popularity/ins3ANamepop.PNG","0","instructions","","","","","","","","","","","","","","","","","","","","","","","",""
"1696","","image-button-response_instructions","10","113396","0.0-10.0","A1LXVV3UW6H7","img_art/ins/popularity/ins3ARatingpop.png","0","instructions","","","","","","","","","","","","","","","","","","","","","","","",""
"1618","","image-button-response_instructions","11","115015","0.0-11.0","A1LXVV3UW6H7","img_art/ins/popularity/ins3ATextpop.png","0","instructions","","","","","","","","","","","","","","","","","","","","","","","",""
"1576","","image-button-response_instructions","12","116594","0.0-12.0","A1LXVV3UW6H7","img_art/ins/popularity/ins3ALikespop.png","0","instructions","","","","","","","","","","","","","","","","","","","","","","","",""
"1640","","image-button-response_instructions","13","118237","0.0-13.0","A1LXVV3UW6H7","img_art/ins/popularity/ins3KEEPpop.PNG","0","instructions","","","","","","","","","","","","","","","","","","","","","","","",""
"2395","","image-button-response_instructions","14","120635","0.0-14.0","A1LXVV3UW6H7","img_art/ins/popularity/ins3_5RED.png","0","instructions","","","","","","","","","","","","","","","","","","","","","","","",""
"1857","","image-button-response_instructions","15","122497","0.0-15.0","A1LXVV3UW6H7","img_art/ins/popularity/ins3KEEPpop.PNG","0","instructions","","","","","","","","","","","","","","","","","","","","","","","",""
"4757","","image-button-response_instructions","16","127256","0.0-16.0","A1LXVV3UW6H7","img_art/ins/popularity/ins4KEEPpop.PNG","0","instructions","","","","","","","","","","","","","","","","","","","","","","","",""
"1662","","image-button-response_instructions","17","128921","0.0-17.0","A1LXVV3UW6H7","img_art/ins/popularity/ins5KEEPpop.PNG","0","instructions","","","","","","","","","","","","","","","","","","","","","","","",""
"1705","","image-button-response_instructions","18","130628","0.0-18.0","A1LXVV3UW6H7","","0","instructions","","","","","","","","","","","","","","","","","","","","","","","",""
"10124","","survey-text","19","140795","0.0-19.0-0.0","A1LXVV3UW6H7","","","","{""Q0"":""but""}","","","","","","","","","","","","","","","","","","","","","","",""
"10754","","survey-text","20","151554","0.0-20.0-0.0","A1LXVV3UW6H7","","","","{""Q0"":""Like""}","","","","","","","","","","","","","","","","","","","","","","",""
"12051","","survey-text","21","165576","0.0-20.1-0.1","A1LXVV3UW6H7","","","","{""Q0"":""To the very like the art""}","","","","","","","","","","","","","","","","","","","","","","",""
"2938","","image-slider-response","22","168520","0.0-21.0","A1LXVV3UW6H7","","","","","29","","","","","","","","","","","","","","","","","","","","","",""
"1791","","image-button-response","23","173530","0.0-22.0","A1LXVV3UW6H7","img_art/ins/1.jpg","4","","","","","","","","","","","","","","","","","","","","","","","","",""
"125","","image-button-response","24","173659","0.0-23.0","A1LXVV3UW6H7","img_art/ins/1.jpg","2","","","","","","","","","","","","","","","","","","","","","","","","",""
"265","","image-button-response","25","173929","0.0-24.0-0.0","A1LXVV3UW6H7","img_art/ins/1.jpg","1","","","","","","","","","","","","","","","","","","","","","","","","",""
"3505","","image-button-response","26","177441","0.0-25.0-0.0","A1LXVV3UW6H7","img_art/ins/1.jpg","2","","","","","","","","","","","","","","","","","","","","","","","","",""
"925","","image-button-response","27","181502","0.0-25.1-0.1","A1LXVV3UW6H7","img_art/ins/1.jpg","0","","","","","","","","","","","","","","","","","","","","","","","","",""
"null","","html-keyboard-response","28","183008","0.0-26.0","A1LXVV3UW6H7","<p style=""font-size: 48px;"">+</p>","","","","","null","allTrialResponses","1500","1","-2","img_art/ins/1.jpg","29","To the very like the art","Adam,Alex,Ben,Carl,Daniel,Jack","Seems like doodles,-20,20,20","very creative work.,36,40,20","This color reminds me of poo,-46,60,20","very calming artwork,42,80,20","It looks like a murder scene.,-48,100,20","I like the sophisticated brushwork,40,120,20","Ben","This color reminds me of poo,-46,60,20","Alex","very creative work.,36,40,20","Adam","Seems like doodles,-20,20,20","2"
"9093","","survey-text","29","192118","0.0-27.0-0.0","A1LXVV3UW6H7","","","","{""Q0"":""There are most well""}","","","","","","","","","","","","","","","","","","","","","","",""
"2937","","image-slider-response","30","195060","0.0-28.0","A1LXVV3UW6H7","","","","","40","","","","","","","","","","","","","","","","","","","","","",""
"3094","","image-button-response","31","200067","0.0-29.0","A1LXVV3UW6H7","img_art/ins/2.jpg","1","","","","","","","","","","","","","","","","","","","","","","","","",""
"1390","","image-button-response","32","201463","0.0-30.0","A1LXVV3UW6H7","img_art/ins/2.jpg","5","","","","","","","","","","","","","","","","","","","","","","","","",""
"1628","","image-button-response","33","203101","0.0-31.0-0.0","A1LXVV3UW6H7","img_art/ins/2.jpg","2","","","","","","","","","","","","","","","","","","","","","","","","",""
"1393","","image-button-response","34","204500","0.0-32.0-0.0","A1LXVV3UW6H7","img_art/ins/2.jpg","0","","","","","","","","","","","","","","","","","","","","","","","","",""
"null","","html-keyboard-response","35","205504","0.0-33.0","A1LXVV3UW6H7","<p style=""font-size: 48px;"">+</p>","","","","","null","allTrialResponses","1000","1","-1","img_art/ins/2.jpg","40","There are most well","Adam,Alex,Ben,James,John,Kyle","too much color,-18,20,20","I like the blocks of color arrangements,30,40,20","meaningless painting,-45,60,20","looks too angry,-50,140,20","love the texture of paint,48,160,20","Idk, it is just annoying,-32,180,20","Kyle","Idk, it is just annoying,-32,180,20","Ben","meaningless painting,-45,60,20","Adam","too much color,-18,20,20","2"
"19733","","survey-text","36","225248","0.0-34.0-0.0","A1LXVV3UW6H7","","","","{""Q0"":""The color is blue""}","","","","","","","","","","","","","","","","","","","","","","",""
"3017","","image-slider-response","37","228276","0.0-35.0","A1LXVV3UW6H7","","","","","35","","","","","","","","","","","","","","","","","","","","","",""
"2216","","image-button-response","38","233285","0.0-36.0","A1LXVV3UW6H7","img_art/ins/3.jpg","3","","","","","","","","","","","","","","","","","","","","","","","","",""
"1565","","image-button-response","39","234858","0.0-37.0","A1LXVV3UW6H7","img_art/ins/3.jpg","1","","","","","","","","","","","","","","","","","","","","","","","","",""
"4655","","image-button-response","40","239518","0.0-38.0-0.0","A1LXVV3UW6H7","img_art/ins/3.jpg","3","","","","","","","","","","","","","","","","","","","","","","","","",""
"4874","","image-button-response","41","244401","0.0-39.0-0.0","A1LXVV3UW6H7","img_art/ins/3.jpg","0","","","","","","","","","","","","","","","","","","","","","","","","",""
"null","","html-keyboard-response","42","245910","0.0-40.0","A1LXVV3UW6H7","<p style=""font-size: 48px;"">+</p>","","","","","null","allTrialResponses","1500","1","0","img_art/ins/3.jpg","35","The color is blue","Adam,Sam,Ben,Mike,Ron,Kyle","My daily routine, it's depressing,-20,20,20","I can feel a rainy day from this painting,18,240,20","This thing gives me anxiety,-41,60,20","enjoy the different shades of blue,22,200,20","It looks depressing,-26,220,20","It looks like a playground for bats,-36,180,20","Sam","I can feel a rainy day from this painting,18,240,20","Mike","enjoy the different shades of blue,22,200,20","Adam","My daily routine, it's depressing,-20,20,20","2"
"4176","","image-button-response_instructions","43","250095","0.0-41.0","A1LXVV3UW6H7","","0","instructions","","","","","","","","","","","","","","","","","","","","","","","",""
"5340","","survey-likert","44","255441","0.0-42.0-0.0","A1LXVV3UW6H7","","","","{""Q0"":"""",""Q1"":1,""Q2"":0}","","","","","","","","","","","","","","","","","","","","","","",""
"4034","","survey-likert","45","260714","0.0-42.1-0.1","A1LXVV3UW6H7","","","","{""Q0"":"""",""Q1"":1,""Q2"":1}","","","","","","","","","","","","","","","","","","","","","","",""
"3608","","survey-likert","46","265578","0.0-42.2-0.2","A1LXVV3UW6H7","","","","{""Q0"":"""",""Q1"":0,""Q2"":1}","","","","","","","","","","","","","","","","","","","","","","",""
"13608","","survey-text","47","279216","0.0-43.0-0.0","A1LXVV3UW6H7","","","","{""Q0"":""ROCK""}","","","","","","","","","","","","","","","","","","","","","","",""
"5839","","survey-text","48","287555","0.0-43.1-0.1","A1LXVV3UW6H7","","","","{""Q0"":""rock""}","","","","","","","","","","","","","","","","","","","","","","",""
"14445","","survey-text","49","302003","0.0-44.0-0.0","A1LXVV3UW6H7","","","","{""Q0"":""The are very like""}","","","","","","","","","","","","","","","","","","","","","","",""
"5775","","image-slider-response","50","307796","0.0-45.0","A1LXVV3UW6H7","","","","","39","","","","","","","","","","","","","","","","","","","","","",""
"2922","","image-button-response","51","312830","0.0-46.0","A1LXVV3UW6H7","img_art/7.jpg","2","","","","","","","","","","","","","","","","","","","","","","","","",""
"1643","","image-button-response","52","314481","0.0-47.0","A1LXVV3UW6H7","img_art/7.jpg","2","","","","","","","","","","","","","","","","","","","","","","","","",""
"1748","","image-button-response","53","316234","0.0-48.0-0.0","A1LXVV3UW6H7","img_art/7.jpg","4","","","","","","","","","","","","","","","","","","","","","","","","",""
"1923","","image-button-response","54","318166","0.0-49.0-0.0","A1LXVV3UW6H7","img_art/7.jpg","1","","","","","","","","","","","","","","","","","","","","","","","","",""
"null","","html-keyboard-response","55","319674","0.0-50.0","A1LXVV3UW6H7","<p style=""font-size: 48px;"">+</p>","","","","","null","allTrialResponses","1500","1","1","img_art/7.jpg","39","The are very like","Isaiah,Alex,Miguel,Luke,Stephen,Richard","I feel relaxed and a little nostalgic, like I'm exploring the wall of a very old building.,18,300,20","Hmm interesting, looks like mars or something terrestrial. Too abstract for me and too much brown,4,100,20","Well done minimalism.,35,160,20","reminds me of the desert,-20,20,20","Nice realistic feel but nothing stands out.,4,140,20","looks like wallpaper,-6,340,20","Miguel","Well done minimalism.,35,160,20","Stephen","Nice realistic feel but nothing stands out.,4,140,20","Alex","Hmm interesting, looks like mars or something terrestrial. Too abstract for me and too much brown,4,100,20","5"
"23877","","survey-text","56","343564","0.0-51.0-0.0","A1LXVV3UW6H7","","","","{""Q0"":""lot the picture""}","","","","","","","","","","","","","","","","","","","","","","",""
"3134","","image-slider-response","57","346715","0.0-52.0","A1LXVV3UW6H7","","","","","33","","","","","","","","","","","","","","","","","","","","","",""
"null","","image-button-response","58","351730","0.0-53.0","A1LXVV3UW6H7","img_art/23.jpg","null","","","","","","","","","","","","","","","","","","","","","","","","",""
"723","","image-button-response","59","352456","0.0-54.0","A1LXVV3UW6H7","img_art/23.jpg","2","","","","","","","","","","","","","","","","","","","","","","","","",""
"1236","","image-button-response","60","353696","0.0-55.0-0.0","A1LXVV3UW6H7","img_art/23.jpg","1","","","","","","","","","","","","","","","","","","","","","","","","",""
"4732","","image-button-response","61","358437","0.0-56.0-0.0","A1LXVV3UW6H7","img_art/23.jpg","5","","","","","","","","","","","","","","","","","","","","","","","","",""
"null","","html-keyboard-response","62","359943","0.0-57.0","A1LXVV3UW6H7","<p style=""font-size: 48px;"">+</p>","","","","","null","allTrialResponses","1500","1","2","img_art/23.jpg","33","lot the picture","Justin,Alex,Miguel,Hunter,Stephen,Cody","The white paint through the middle really draws the eye.,30,280,20","This is nice, the colorful background is fun and the white looks like dancing figures,5,100,20","Awesome abstraction love it.,30,160,20","do not like color splatters or sharp silhouettes, feels tacky,-34,240,20","Solid colors but the white throws it off for me.,4,140,20","Love the use of colors and light,50,180,20","Miguel","Awesome abstraction love it.,30,160,20","Alex","This is nice, the colorful background is fun and the white looks like dancing figures,5,100,20","Cody","Love the use of colors and light,50,180,20","5"
"38680","","survey-text","63","398634","0.0-58.0-0.0","A1LXVV3UW6H7","","","","{""Q0"":""the art is men on the street""}","","","","","","","","","","","","","","","","","","","","","","",""
"2980","","image-slider-response","64","401618","0.0-59.0","A1LXVV3UW6H7","","","","","45","","","","","","","","","","","","","","","","","","","","","",""
"4130","","image-button-response","65","406628","0.0-60.0","A1LXVV3UW6H7","img_art/19.jpg","5","","","","","","","","","","","","","","","","","","","","","","","","",""
"1226","","image-button-response","66","407860","0.0-61.0","A1LXVV3UW6H7","img_art/19.jpg","5","","","","","","","","","","","","","","","","","","","","","","","","",""
"1591","","image-button-response","67","409456","0.0-62.0-0.0","A1LXVV3UW6H7","img_art/19.jpg","1","","","","","","","","","","","","","","","","","","","","","","","","",""
"2087","","image-button-response","68","411556","0.0-63.0-0.0","A1LXVV3UW6H7","img_art/19.jpg","4","","","","","","","","","","","","","","","","","","","","","","","","",""
"null","","html-keyboard-response","69","413081","0.0-64.0","A1LXVV3UW6H7","<p style=""font-size: 48px;"">+</p>","","","","","null","allTrialResponses","1500","1","3","img_art/19.jpg","45","the art is men on the street","Nathaniel,Alex,Miguel,Jordan,Devin,Cody","Horrible. Squiggly lines everywhere.,-50,220,20","I like the water but again, the small lines with no detail are irritating,3,100,20","Messy and kid like.,-36,160,20","I dont like the gray shadows, ruins it,-7,160,20","Looks a bit too loose,-2,380,20","Interesting, leaves you wondering what it is,40,180,20","Cody","Interesting, leaves you wondering what it is,40,180,20","Alex","I like the water but again, the small lines with no detail are irritating,3,100,20","Devin","Looks a bit too loose,-2,380,20","5"
"14197","","survey-text","70","427286","0.0-65.0-0.0","A1LXVV3UW6H7","","","","{""Q0"":""The very well""}","","","","","","","","","","","","","","","","","","","","","","",""
"3646","","image-slider-response","71","430938","0.0-66.0","A1LXVV3UW6H7","","","","","30","","","","","","","","","","","","","","","","","","","","","",""
"3293","","image-button-response","72","435959","0.0-67.0","A1LXVV3UW6H7","img_art/5.jpg","2","","","","","","","","","","","","","","","","","","","","","","","","",""
"975","","image-button-response","73","436940","0.0-68.0","A1LXVV3UW6H7","img_art/5.jpg","2","","","","","","","","","","","","","","","","","","","","","","","","",""
"778","","image-button-response","74","437721","0.0-69.0-0.0","A1LXVV3UW6H7","img_art/5.jpg","1","","","","","","","","","","","","","","","","","","","","","","","","",""
"1188","","image-button-response","75","438918","0.0-70.0-0.0","A1LXVV3UW6H7","img_art/5.jpg","4","","","","","","","","","","","","","","","","","","","","","","","","",""
"null","","html-keyboard-response","76","439921","0.0-71.0","A1LXVV3UW6H7","<p style=""font-size: 48px;"">+</p>","","","","","null","allTrialResponses","1000","1","4","img_art/5.jpg","30","The very well","Jesus,Alex,John,Benjamin,Devin,Cody","Overpowering colors.,-26,100,20","What is this? It looks like no effort was put into this work,-2,100,20","It has a sense of vague familiarity that i like.Like a stick starting a fire at a campsite.,30,120,20","Missing something,-5,260,20","A bit too messy in my eyes,-4,380,20","Kind of ugly ....,-21,180,20","John","It has a sense of vague familiarity that i like.Like a stick starting a fire at a campsite.,30,120,20","Alex","What is this? It looks like no effort was put into this work,-2,100,20","Devin","A bit too messy in my eyes,-4,380,20","5"
"17446","","survey-text","77","457375","0.0-72.0-0.0","A1LXVV3UW6H7","","","","{""Q0"":""To the most  like the art""}","","","","","","","","","","","","","","","","","","","","","","",""
"3110","","image-slider-response","78","460498","0.0-73.0","A1LXVV3UW6H7","","","","","42","","","","","","","","","","","","","","","","","","","","","",""
"4091","","image-button-response","79","465505","0.0-74.0","A1LXVV3UW6H7","img_art/28.jpg","5","","","","","","","","","","","","","","","","","","","","","","","","",""
"1117","","image-button-response","80","466627","0.0-75.0","A1LXVV3UW6H7","img_art/28.jpg","0","","","","","","","","","","","","","","","","","","","","","","","","",""
"858","","image-button-response","81","467488","0.0-76.0-0.0","A1LXVV3UW6H7","img_art/28.jpg","5","","","","","","","","","","","","","","","","","","","","","","","","",""
"1396","","image-button-response","82","468899","0.0-77.0-0.0","A1LXVV3UW6H7","img_art/28.jpg","0","","","","","","","","","","","","","","","","","","","","","","","","",""
"2007","","image-button-response","83","474097","0.0-77.1-0.1","A1LXVV3UW6H7","img_art/28.jpg","1","","","","","","","","","","","","","","","","","","","","","","","","",""
"null","","html-keyboard-response","84","475112","0.0-78.0","A1LXVV3UW6H7","<p style=""font-size: 48px;"">+</p>","","","","","null","allTrialResponses","1000","1","5","img_art/28.jpg","42","To the most  like the art","Lucas,Alex,John,Chase,Devin,Jeremy","This painting is mysterious, it makes me curious.,5,380,20","This piece is depressing to me, reminds me of German paintings,-6,100,20","Not a fan of the bleak and dreary colors,-10,120,20","I don't like the washed out colors.,-15,120,20","It is a bit drab,-10,380,20","I just don't like it. It makes no sense to me,1,60,20","Lucas","This painting is mysterious, it makes me curious.,5,380,20","Jeremy","I just don't like it. It makes no sense to me,1,60,20","Alex","This piece is depressing to me, reminds me of German paintings,-6,100,20","7"
"15102","","survey-text","85","490237","0.0-79.0-0.0","A1LXVV3UW6H7","","","","{""Q0"":""SKY""}","","","","","","","","","","","","","","","","","","","","","","",""
"3584","","survey-text","86","498277","0.0-79.1-0.1","A1LXVV3UW6H7","","","","{""Q0"":""sky""}","","","","","","","","","","","","","","","","","","","","","","",""
"11255","","survey-text","87","509536","0.0-80.0-0.0","A1LXVV3UW6H7","","","","{""Q0"":""like the picture""}","","","","","","","","","","","","","","","","","","","","","","",""
"6177","","image-slider-response","88","515721","0.0-81.0","A1LXVV3UW6H7","","","","","34","","","","","","","","","","","","","","","","","","","","","",""
"null","","image-button-response","89","520727","0.0-82.0","A1LXVV3UW6H7","img_art/21.jpg","null","","","","","","","","","","","","","","","","","","","","","","","","",""
"1268","","image-button-response","90","521998","0.0-83.0","A1LXVV3UW6H7","img_art/21.jpg","3","","","","","","","","","","","","","","","","","","","","","","","","",""
"934","","image-button-response","91","522937","0.0-84.0-0.0","A1LXVV3UW6H7","img_art/21.jpg","4","","","","","","","","","","","","","","","","","","","","","","","","",""
"2795","","image-button-response","92","525740","0.0-85.0-0.0","A1LXVV3UW6H7","img_art/21.jpg","0","","","","","","","","","","","","","","","","","","","","","","","","",""
"null","","html-keyboard-response","93","527242","0.0-86.0","A1LXVV3UW6H7","<p style=""font-size: 48px;"">+</p>","","","","","null","allTrialResponses","1500","1","6","img_art/21.jpg","34","like the picture","Lucas,Alex,Brian,Dylan,Vincent,Jeremy","Looks like a war. Many things happening on the painting, really enjoy it.,30,380,20","The colors are very nice. I like the dots because they remind me of pearls,5,100,20","there's not enough fine detail in this one,-27,380,20","This one is nice, it reminds me of the sky,42,40,20","Love the colors have to say this is my favorite above all,37,360,20","the picture is boring,1,60,20","Dylan","This one is nice, it reminds me of the sky,42,40,20","Vincent","Love the colors have to say this is my favorite above all,37,360,20","Lucas","Looks like a war. Many things happening on the painting, really enjoy it.,30,380,20","8"
"23114","","survey-text","94","550366","0.0-87.0-0.0","A1LXVV3UW6H7","","","","{""Q0"":""They are like""}","","","","","","","","","","","","","","","","","","","","","","",""
"3205","","image-slider-response","95","553576","0.0-88.0","A1LXVV3UW6H7","","","","","19","","","","","","","","","","","","","","","","","","","","","",""
"4888","","image-button-response","96","558588","0.0-89.0","A1LXVV3UW6H7","img_art/29.jpg","0","","","","","","","","","","","","","","","","","","","","","","","","",""
"1161","","image-button-response","97","559756","0.0-90.0","A1LXVV3UW6H7","img_art/29.jpg","4","","","","","","","","","","","","","","","","","","","","","","","","",""
"858","","image-button-response","98","560617","0.0-91.0-0.0","A1LXVV3UW6H7","img_art/29.jpg","0","","","","","","","","","","","","","","","","","","","","","","","","",""
"1375","","image-button-response","99","561996","0.0-92.0-0.0","A1LXVV3UW6H7","img_art/29.jpg","0","","","","","","","","","","","","","","","","","","","","","","","","",""
"1424","","image-button-response","100","567032","0.0-92.1-0.1","A1LXVV3UW6H7","img_art/29.jpg","5","","","","","","","","","","","","","","","","","","","","","","","","",""
"null","","html-keyboard-response","101","567537","0.0-93.0","A1LXVV3UW6H7","<p style=""font-size: 48px;"">+</p>","","","","","null","allTrialResponses","500","1","7","img_art/29.jpg","19","They are like","Lucas,Joseph,James,Dylan,Vincent,Jacob","Looks kinda scary.,25,380,20","It looks like graffiti in a subway tunnel- destruction.,-20,220,20","It has a red X on there, and x's mean bad in my perspective,-29,380,20","I don't like this. It is ugly and dark,-29,40,20","Another great work of art and very conversational piece,33,360,20","It looks cool but I don't really get what's going on, it looks too busy,0,340,20","Vincent","Another great work of art and very conversational piece,33,360,20","Lucas","Looks kinda scary.,25,380,20","Jacob","It looks cool but I don't really get what's going on, it looks too busy,0,340,20","10"
"18012","","survey-text","102","585566","0.0-94.0-0.0","A1LXVV3UW6H7","","","","{""Q0"":""To the stack""}","","","","","","","","","","","","","","","","","","","","","","",""
"6834","","image-slider-response","103","592403","0.0-95.0","A1LXVV3UW6H7","","","","","38","","","","","","","","","","","","","","","","","","","","","",""
"null","","image-button-response","104","597414","0.0-96.0","A1LXVV3UW6H7","img_art/6.jpg","null","","","","","","","","","","","","","","","","","","","","","","","","",""
"1912","","image-button-response","105","599330","0.0-97.0","A1LXVV3UW6H7","img_art/6.jpg","4","","","","","","","","","","","","","","","","","","","","","","","","",""
"1078","","image-button-response","106","600413","0.0-98.0-0.0","A1LXVV3UW6H7","img_art/6.jpg","3","","","","","","","","","","","","","","","","","","","","","","","","",""
"1574","","image-button-response","107","601992","0.0-99.0-0.0","A1LXVV3UW6H7","img_art/6.jpg","2","","","","","","","","","","","","","","","","","","","","","","","","",""
"null","","html-keyboard-response","108","603504","0.0-100.0","A1LXVV3UW6H7","<p style=""font-size: 48px;"">+</p>","","","","","null","allTrialResponses","1500","1","8","img_art/6.jpg","38","To the stack","Lucas,Gregory,Edward,Andrew,Vincent,Jacob","Nothing special.,-20,380,20","Tree growing in a desert. Gives me feelings of hope,5,220,20","It looks like a bird looking away,32,60,20","Reminds me of my friend's bird,21,160,20","Calm and catching,30,360,20","Is this a leaf?,4,340,20","Vincent","Calm and catching,30,360,20","Andrew","Reminds me of my friend's bird,21,160,20","Edward","It looks like a bird looking away,32,60,20","10"
"8255","","survey-text","109","611770","0.0-101.0-0.0","A1LXVV3UW6H7","","","","{""Q0"":""nothing""}","","","","","","","","","","","","","","","","","","","","","","",""
"2616","","image-slider-response","110","614394","0.0-102.0","A1LXVV3UW6H7","","","","","40","","","","","","","","","","","","","","","","","","","","","",""
"4977","","image-button-response","111","619403","0.0-103.0","A1LXVV3UW6H7","img_art/18.jpg","4","","","","","","","","","","","","","","","","","","","","","","","","",""
"2229","","image-button-response","112","621639","0.0-104.0","A1LXVV3UW6H7","img_art/18.jpg","2","","","","","","","","","","","","","","","","","","","","","","","","",""
"638","","image-button-response","113","622281","0.0-105.0-0.0","A1LXVV3UW6H7","img_art/18.jpg","0","","","","","","","","","","","","","","","","","","","","","","","","",""
"1528","","image-button-response","114","623813","0.0-106.0-0.0","A1LXVV3UW6H7","img_art/18.jpg","4","","","","","","","","","","","","","","","","","","","","","","","","",""
"null","","html-keyboard-response","115","624818","0.0-107.0","A1LXVV3UW6H7","<p style=""font-size: 48px;"">+</p>","","","","","null","allTrialResponses","1000","1","9","img_art/18.jpg","40","nothing","Colton,Evan,Edward,Andrew,Vincent,Blake","reminds me of greek mythology,22,220,20","This brings to mind the four horsemen of the apocalypse,8,140,20","Reminds me of the four horsemen of the apocalypse,29,60,20","Another ominous painting,-10,160,20","Very conversational and can see many different looks and feels from this .,34,360,20","i like the colors. outerspace,21,280,20","Edward","Reminds me of the four horsemen of the apocalypse,29,60,20","Colton","reminds me of greek mythology,22,220,20","Vincent","Very conversational and can see many different looks and feels from this .,34,360,20","10"
"21855","","survey-text","116","646687","0.0-108.0-0.0","A1LXVV3UW6H7","","","","{""Q0"":""To the men to picture""}","","","","","","","","","","","","","","","","","","","","","","",""
"4089","","image-slider-response","117","650784","0.0-109.0","A1LXVV3UW6H7","","","","","38","","","","","","","","","","","","","","","","","","","","","",""
"2949","","image-button-response","118","655803","0.0-110.0","A1LXVV3UW6H7","img_art/25.jpg","3","","","","","","","","","","","","","","","","","","","","","","","","",""
"1071","","image-button-response","119","656882","0.0-111.0","A1LXVV3UW6H7","img_art/25.jpg","5","","","","","","","","","","","","","","","","","","","","","","","","",""
"1131","","image-button-response","120","658018","0.0-112.0-0.0","A1LXVV3UW6H7","img_art/25.jpg","4","","","","","","","","","","","","","","","","","","","","","","","","",""
"1360","","image-button-response","121","659383","0.0-113.0-0.0","A1LXVV3UW6H7","img_art/25.jpg","1","","","","","","","","","","","","","","","","","","","","","","","","",""
"null","","html-keyboard-response","122","660886","0.0-114.0","A1LXVV3UW6H7","<p style=""font-size: 48px;"">+</p>","","","","","null","allTrialResponses","1500","1","10","img_art/25.jpg","38","To the men to picture","Colton,Luis,Edward,Adam,Vincent,Matthew","the colors are pretty,11,220,20","New life, rising from your personal battles,50,400,20","It looks like people worshipping a statue,33,60,20","high contrast draws attention to the image, but I'm not sure what I'm seeing,-5,40,20","Iike this picture; it speaks to me on a personal level. But seems to scare the ones around me.,7,360,20","haunting, a lovely impression.,50,120,20","Matthew","haunting, a lovely impression.,50,120,20","Vincent","Iike this picture; it speaks to me on a personal level. But seems to scare the ones around me.,7,360,20","Luis","New life, rising from your personal battles,50,400,20","10"
"5296","","survey-text","123","666203","0.0-115.0-0.0","A1LXVV3UW6H7","","","","{""Q0"":""our""}","","","","","","","","","","","","","","","","","","","","","","",""
"4876","","survey-text","124","671082","0.0-116.0-0.0","A1LXVV3UW6H7","","","","{""Q0"":""nothing""}","","","","","","","","","","","","","","","","","","","","","","",""
"3463","","image-slider-response","125","674551","0.0-117.0","A1LXVV3UW6H7","","","","","38","","","","","","","","","","","","","","","","","","","","","",""
"null","","image-button-response","126","680484","0.0-118.0","A1LXVV3UW6H7","img_art/26.jpg","null","","","","","","","","","","","","","","","","","","","","","","","","",""
"11279","","image-button-response","127","691770","0.0-119.0","A1LXVV3UW6H7","img_art/26.jpg","4","","","","","","","","","","","","","","","","","","","","","","","","",""
"448","","image-button-response","128","692223","0.0-120.0-0.0","A1LXVV3UW6H7","img_art/26.jpg","5","","","","","","","","","","","","","","","","","","","","","","","","",""
"2384","","image-button-response","129","694614","0.0-121.0-0.0","A1LXVV3UW6H7","img_art/26.jpg","2","","","","","","","","","","","","","","","","","","","","","","","","",""
"null","","html-keyboard-response","130","696120","0.0-122.0","A1LXVV3UW6H7","<p style=""font-size: 48px;"">+</p>","","","","","null","allTrialResponses","1500","1","11","img_art/26.jpg","38","nothing","Joshua,Luis,William,Dakota,Vincent,Matthew","This is boring.,-15,240,20","I dont see any expression,-29,400,20","feels a tad old,30,380,20","juvenile, faint and weak,-41,280,20","Small town and home feel on A nice day.,28,360,20","Telented watercolor artist or second grader.,18,120,20","Vincent","Small town and home feel on A nice day.,28,360,20","Matthew","Telented watercolor artist or second grader.,18,120,20","William","feels a tad old,30,380,20","10"
"8509","","survey-text","131","704652","0.0-123.0-0.0","A1LXVV3UW6H7","","","","{""Q0"":""To the nice""}","","","","","","","","","","","","","","","","","","","","","","",""
"5066","","image-slider-response","132","709722","0.0-124.0","A1LXVV3UW6H7","","","","","42","","","","","","","","","","","","","","","","","","","","","",""
"null","","image-button-response","133","715484","0.0-125.0","A1LXVV3UW6H7","img_art/13.jpg","null","","","","","","","","","","","","","","","","","","","","","","","","",""
"6883","","image-button-response","134","722375","0.0-126.0","A1LXVV3UW6H7","img_art/13.jpg","5","","","","","","","","","","","","","","","","","","","","","","","","",""
"563","","image-button-response","135","722943","0.0-127.0-0.0","A1LXVV3UW6H7","img_art/13.jpg","4","","","","","","","","","","","","","","","","","","","","","","","","",""
"2387","","image-button-response","136","725335","0.0-128.0-0.0","A1LXVV3UW6H7","img_art/13.jpg","2","","","","","","","","","","","","","","","","","","","","","","","","",""
"null","","html-keyboard-response","137","726860","0.0-129.0","A1LXVV3UW6H7","<p style=""font-size: 48px;"">+</p>","","","","","null","allTrialResponses","1500","1","12","img_art/13.jpg","42","To the nice","Ethan,Jorge,William,Kenneth,Vincent,Matthew","I do not care for the colors in this art. it doesnt go well at all.,-15,120,20","It reminds me of rain,11,180,20","reminds me of rain,36,380,20","I would hang this photo in my room.,21,300,20","I love the colors reminds me of a rainy day..it's calm and relaxing,32,360,20","AWESOME! Pollack but with more direction.,32,120,20","Matthew","AWESOME! Pollack but with more direction.,32,120,20","Vincent","I love the colors reminds me of a rainy day..it's calm and relaxing,32,360,20","William","reminds me of rain,36,380,20","10"
"15020","","survey-text","138","741890","0.0-130.0-0.0","A1LXVV3UW6H7","","","","{""Q0"":""To the well""}","","","","","","","","","","","","","","","","","","","","","","",""
"3768","","image-slider-response","139","745663","0.0-131.0","A1LXVV3UW6H7","","","","","28","","","","","","","","","","","","","","","","","","","","","",""
"null","","image-button-response","140","751481","0.0-132.0","A1LXVV3UW6H7","img_art/1.jpg","null","","","","","","","","","","","","","","","","","","","","","","","","",""
"50319","","image-button-response","141","801803","0.0-133.0","A1LXVV3UW6H7","img_art/1.jpg","4","","","","","","","","","","","","","","","","","","","","","","","","",""
"891","","image-button-response","142","802701","0.0-134.0-0.0","A1LXVV3UW6H7","img_art/1.jpg","5","","","","","","","","","","","","","","","","","","","","","","","","",""
"815","","image-button-response","143","803520","0.0-135.0-0.0","A1LXVV3UW6H7","img_art/1.jpg","3","","","","","","","","","","","","","","","","","","","","","","","","",""
"null","","html-keyboard-response","144","804025","0.0-136.0","A1LXVV3UW6H7","<p style=""font-size: 48px;"">+</p>","","","","","null","allTrialResponses","500","1","13","img_art/1.jpg","28","To the well","Jose,Mitchell,William,Cole,Vincent,Matthew","Blurry but that's how emotions are a lot of the time.,27,200,20","confused,animal like brain fog,0,180,20","love how the colors blend,42,380,20","I like the colors. But it doesnt look like anything,27,200,20","I love the detail and colors like a beautiful autumn day,35,360,20","More passable, colorful, abstract.,13,120,20","Vincent","I love the detail and colors like a beautiful autumn day,35,360,20","Matthew","More passable, colorful, abstract.,13,120,20","Cole","I like the colors. But it doesnt look like anything,27,200,20","10"
"41586","","survey-text","145","845619","0.0-137.0-0.0","A1LXVV3UW6H7","","","","{""Q0"":""well picture""}","","","","","","","","","","","","","","","","","","","","","","",""
"3625","","image-slider-response","146","849244","0.0-138.0","A1LXVV3UW6H7","","","","","42","","","","","","","","","","","","","","","","","","","","","",""
"4994","","image-button-response","147","854262","0.0-139.0","A1LXVV3UW6H7","img_art/27.jpg","4","","","","","","","","","","","","","","","","","","","","","","","","",""
"1210","","image-button-response","148","855475","0.0-140.0","A1LXVV3UW6H7","img_art/27.jpg","5","","","","","","","","","","","","","","","","","","","","","","","","",""
"662","","image-button-response","149","856141","0.0-141.0-0.0","A1LXVV3UW6H7","img_art/27.jpg","4","","","","","","","","","","","","","","","","","","","","","","","","",""
"2478","","image-button-response","150","858623","0.0-142.0-0.0","A1LXVV3UW6H7","img_art/27.jpg","0","","","","","","","","","","","","","","","","","","","","","","","","",""
"null","","html-keyboard-response","151","860129","0.0-143.0","A1LXVV3UW6H7","<p style=""font-size: 48px;"">+</p>","","","","","null","allTrialResponses","1500","1","14","img_art/27.jpg","42","well picture","Cameron,Jared,Noah,Cole,Vincent,Matthew","Like it, autumn colors, trees and foliage scene.,25,60,20","meh. it is neutral to me.,1,400,20","I generally enjoy the style, but I'm finding the green lines grating,-9,260,20","Unfinished something?,-30,200,20","A beautiful day full of Hope and Inspiritation. The warmth of hot cocoa with the family gathering around,33,360,20","Lots of activity, layers, imagination at work here.,29,120,20","Matthew","Lots of activity, layers, imagination at work here.,29,120,20","Vincent","A beautiful day full of Hope and Inspiritation. The warmth of hot cocoa with the family gathering around,33,360,20","Cameron","Like it, autumn colors, trees and foliage scene.,25,60,20","10"
"10094","","survey-text","152","870232","0.0-144.0-0.0","A1LXVV3UW6H7","","","","{""Q0"":""nothing""}","","","","","","","","","","","","","","","","","","","","","","",""
"2558","","image-slider-response","153","872795","0.0-145.0","A1LXVV3UW6H7","","","","","33","","","","","","","","","","","","","","","","","","","","","",""
"null","","image-button-response","154","878483","0.0-146.0","A1LXVV3UW6H7","img_art/12.jpg","null","","","","","","","","","","","","","","","","","","","","","","","","",""
"21054","","image-button-response","155","899540","0.0-147.0","A1LXVV3UW6H7","img_art/12.jpg","4","","","","","","","","","","","","","","","","","","","","","","","","",""
"1293","","image-button-response","156","900840","0.0-148.0-0.0","A1LXVV3UW6H7","img_art/12.jpg","3","","","","","","","","","","","","","","","","","","","","","","","","",""
"665","","image-button-response","157","901517","0.0-149.0-0.0","A1LXVV3UW6H7","img_art/12.jpg","5","","","","","","","","","","","","","","","","","","","","","","","","",""
"null","","html-keyboard-response","158","902021","0.0-150.0","A1LXVV3UW6H7","<p style=""font-size: 48px;"">+</p>","","","","","null","allTrialResponses","500","1","15","img_art/12.jpg","33","nothing","Cameron,Nicholas,Christian,Austin,Vincent,Matthew","Dislike the style, the sharp rectangular pattern very jarring.,-20,60,20","It is interesting but seems like some cheap painting from like walmart,24,240,20","so many different available interpretations for this, would love to closer.,24,140,20","Explosion of texture,31,240,20","I have seen some like this before very popular and full of life,42,360,20","It's boxy, cubist immpressionism? Very ncie.,32,120,20","Vincent","I have seen some like this before very popular and full of life,42,360,20","Austin","Explosion of texture,31,240,20","Matthew","It's boxy, cubist immpressionism? Very ncie.,32,120,20","10"
"38982","","survey-text","159","941026","0.0-151.0-0.0","A1LXVV3UW6H7","","","","{""Q0"":""course""}","","","","","","","","","","","","","","","","","","","","","","",""
"7910","","survey-text","160","948941","0.0-152.0-0.0","A1LXVV3UW6H7","","","","{""Q0"":""very nice""}","","","","","","","","","","","","","","","","","","","","","","",""
"2600","","image-slider-response","161","951547","0.0-153.0","A1LXVV3UW6H7","","","","","41","","","","","","","","","","","","","","","","","","","","","",""
"null","","image-button-response","162","957499","0.0-154.0","A1LXVV3UW6H7","img_art/11.jpg","null","","","","","","","","","","","","","","","","","","","","","","","","",""
"17466","","image-button-response","163","974984","0.0-155.0","A1LXVV3UW6H7","img_art/11.jpg","4","","","","","","","","","","","","","","","","","","","","","","","","",""
"898","","image-button-response","164","975886","0.0-156.0-0.0","A1LXVV3UW6H7","img_art/11.jpg","3","","","","","","","","","","","","","","","","","","","","","","","","",""
"796","","image-button-response","165","976687","0.0-157.0-0.0","A1LXVV3UW6H7","img_art/11.jpg","5","","","","","","","","","","","","","","","","","","","","","","","","",""
"null","","html-keyboard-response","166","978481","0.0-158.0","A1LXVV3UW6H7","<p style=""font-size: 48px;"">+</p>","","","","","null","allTrialResponses","1500","1","16","img_art/11.jpg","41","very nice","Jake,Dalton,Scott,Austin,Vincent,Matthew","This is very unappealing.,-11,360,20","looks like highways and homes and lives intertwining.,27,300,20","makes me feel dizzy,-37,20,20","Very unique piece of art,50,240,20","Looks like a familiar area,31,360,20","Dark but bright, city but ocean, musical scales.,50,120,20","Vincent","Looks like a familiar area,31,360,20","Austin","Very unique piece of art,50,240,20","Matthew","Dark but bright, city but ocean, musical scales.,50,120,20","10"
"17859","","survey-text","167","996341","0.0-159.0-0.0","A1LXVV3UW6H7","","","","{""Q0"":""very nice""}","","","","","","","","","","","","","","","","","","","","","","",""
"7136","","image-slider-response","168","1003479","0.0-160.0","A1LXVV3UW6H7","","","","","39","","","","","","","","","","","","","","","","","","","","","",""
"null","","image-button-response","169","1009492","0.0-161.0","A1LXVV3UW6H7","img_art/9.jpg","null","","","","","","","","","","","","","","","","","","","","","","","","",""
"5404","","image-button-response","170","1014901","0.0-162.0","A1LXVV3UW6H7","img_art/9.jpg","4","","","","","","","","","","","","","","","","","","","","","","","","",""
"1185","","image-button-response","171","1016091","0.0-163.0-0.0","A1LXVV3UW6H7","img_art/9.jpg","3","","","","","","","","","","","","","","","","","","","","","","","","",""
"2409","","image-button-response","172","1018506","0.0-164.0-0.0","A1LXVV3UW6H7","img_art/9.jpg","5","","","","","","","","","","","","","","","","","","","","","","","","",""
"null","","html-keyboard-response","173","1020480","0.0-165.0","A1LXVV3UW6H7","<p style=""font-size: 48px;"">+</p>","","","","","null","allTrialResponses","1500","1","17","img_art/9.jpg","39","very nice","Jeffrey,Thomas,Shane,Austin,Vincent,Matthew","Looks very relaxing; someone laying in a meadow,13,40,20","I don't like the picture, but it wouldn't surprise me if someone did,-20,220,20","Angry beast mouth,-37,80,20","Love the uniqueness,21,240,20","This speaks to me like a personalities and sides and not all are nice,19,360,20","Similar to the tohers, but not as clear.,11,120,20","Vincent","This speaks to me like a personalities and sides and not all are nice,19,360,20","Austin","Love the uniqueness,21,240,20","Matthew","Similar to the tohers, but not as clear.,11,120,20","10"
"8967","","survey-text","174","1029458","0.0-166.0-0.0","A1LXVV3UW6H7","","","","{""Q0"":""very like""}","","","","","","","","","","","","","","","","","","","","","","",""
"3623","","image-slider-response","175","1033091","0.0-167.0","A1LXVV3UW6H7","","","","","32","","","","","","","","","","","","","","","","","","","","","",""
"1453","","image-button-response","176","1038114","0.0-168.0","A1LXVV3UW6H7","img_art/30.jpg","4","","","","","","","","","","","","","","","","","","","","","","","","",""
"689","","image-button-response","177","1038807","0.0-169.0","A1LXVV3UW6H7","img_art/30.jpg","4","","","","","","","","","","","","","","","","","","","","","","","","",""
"387","","image-button-response","178","1039199","0.0-170.0-0.0","A1LXVV3UW6H7","img_art/30.jpg","3","","","","","","","","","","","","","","","","","","","","","","","","",""
"3274","","image-button-response","179","1042480","0.0-171.0-0.0","A1LXVV3UW6H7","img_art/30.jpg","0","","","","","","","","","","","","","","","","","","","","","","","","",""
"null","","html-keyboard-response","180","1043985","0.0-172.0","A1LXVV3UW6H7","<p style=""font-size: 48px;"">+</p>","","","","","null","allTrialResponses","1500","1","18","img_art/30.jpg","32","very like","Eric,Garrett,Tyler,Austin,Vincent,Matthew","I love the colors, the style, and the uniqueness in this piece. I love everything.,50,100,20","I feel like the colors are too repetitive and not very eyecatching.,-20,180,20","Interesting brushstroke work, but not particularly memorable.,21,320,20","Love the bold brush strokes and the illusion it creates,50,240,20","Personal , calming conservative signature business ideal.,32,360,20","Decent abstract art, ncie colors.,23,120,20","Vincent","Personal , calming conservative signature business ideal.,32,360,20","Austin","Love the bold brush strokes and the illusion it creates,50,240,20","Eric","I love the colors, the style, and the uniqueness in this piece. I love everything.,50,100,20","10"
"100408","","survey-text","181","1144408","0.0-173.0-0.0","A1LXVV3UW6H7","","","","{""Q0"":""very well""}","","","","","","","","","","","","","","","","","","","","","","",""
"3339","","image-slider-response","182","1147750","0.0-174.0","A1LXVV3UW6H7","","","","","32","","","","","","","","","","","","","","","","","","","","","",""
"null","","image-button-response","183","1153492","0.0-175.0","A1LXVV3UW6H7","img_art/3.jpg","null","","","","","","","","","","","","","","","","","","","","","","","","",""
"40589","","image-button-response","184","1194086","0.0-176.0","A1LXVV3UW6H7","img_art/3.jpg","4","","","","","","","","","","","","","","","","","","","","","","","","",""
"1776","","image-button-response","185","1195872","0.0-177.0-0.0","A1LXVV3UW6H7","img_art/3.jpg","1","","","","","","","","","","","","","","","","","","","","","","","","",""
"424","","image-button-response","186","1196299","0.0-178.0-0.0","A1LXVV3UW6H7","img_art/3.jpg","0","","","","","","","","","","","","","","","","","","","","","","","","",""
"null","","html-keyboard-response","187","1198628","0.0-179.0","A1LXVV3UW6H7","<p style=""font-size: 48px;"">+</p>","","","","","null","allTrialResponses","1500","1","19","img_art/3.jpg","32","very well","Eric,Alexander,Jesse,Austin,Vincent,Derek","This piece makes me think it has a backstory or a reason which I like.,5,100,20","Somewhere between a child's art and a poorly drawn battle map.,8,120,20","No substance or feeling to it,-20,80,20","It doesn't invoke any excitement,-21,240,20","Iike this one it's a piece that I need to spend more time with to understand how i feel about it,20,360,20","Looks messy and too much for my eyes,-35,360,20","Vincent","Iike this one it's a piece that I need to spend more time with to understand how i feel about it,20,360,20","Alexander","Somewhere between a child's art and a poorly drawn battle map.,8,120,20","Eric","This piece makes me think it has a backstory or a reason which I like.,5,100,20","10"
"30625","","survey-text","188","1229266","0.0-180.0-0.0","A1LXVV3UW6H7","","","","{""Q0"":""very nice""}","","","","","","","","","","","","","","","","","","","","","","",""
"3980","","image-slider-response","189","1233252","0.0-181.0","A1LXVV3UW6H7","","","","","30","","","","","","","","","","","","","","","","","","","","","",""
"null","","image-button-response","190","1238270","0.0-182.0","A1LXVV3UW6H7","img_art/20.jpg","null","","","","","","","","","","","","","","","","","","","","","","","","",""
"908","","image-button-response","191","1239181","0.0-183.0","A1LXVV3UW6H7","img_art/20.jpg","4","","","","","","","","","","","","","","","","","","","","","","","","",""
"1015","","image-button-response","192","1240199","0.0-184.0-0.0","A1LXVV3UW6H7","img_art/20.jpg","5","","","","","","","","","","","","","","","","","","","","","","","","",""
"1549","","image-button-response","193","1241760","0.0-185.0-0.0","A1LXVV3UW6H7","img_art/20.jpg","0","","","","","","","","","","","","","","","","","","","","","","","","",""
"null","","html-keyboard-response","194","1243268","0.0-186.0","A1LXVV3UW6H7","<p style=""font-size: 48px;"">+</p>","","","","","null","allTrialResponses","1500","1","20","img_art/20.jpg","30","very nice","Eric,Alexander,Isaac,Antonio,Vincent,Seth","I love the color choice.,25,100,20","The beach and industry.,12,120,20","It is abstract but it looks neat.,15,280,20","Makes me feel weary,21,220,20","I love the colors and coukd spend alot of time with the picture,33,360,20","I'm not sure why this reminds me of surrealism. It might be the colors used.,16,60,20","Vincent","I love the colors and coukd spend alot of time with the picture,33,360,20","Seth","I'm not sure why this reminds me of surrealism. It might be the colors used.,16,60,20","Eric","I love the color choice.,25,100,20","10"
"4393","","survey-text","195","1247685","0.0-187.0-0.0","A1LXVV3UW6H7","","","","{""Q0"":""we""}","","","","","","","","","","","","","","","","","","","","","","",""
"15495","","survey-text","196","1263190","0.0-188.0-0.0","A1LXVV3UW6H7","","","","{""Q0"":""To the picture like beer""}","","","","","","","","","","","","","","","","","","","","","","",""
"5128","","image-slider-response","197","1268324","0.0-189.0","A1LXVV3UW6H7","","","","","37","","","","","","","","","","","","","","","","","","","","","",""
"null","","image-button-response","198","1273339","0.0-190.0","A1LXVV3UW6H7","img_art/16.jpg","null","","","","","","","","","","","","","","","","","","","","","","","","",""
"6197","","image-button-response","199","1279540","0.0-191.0","A1LXVV3UW6H7","img_art/16.jpg","1","","","","","","","","","","","","","","","","","","","","","","","","",""
"1156","","image-button-response","200","1280701","0.0-192.0-0.0","A1LXVV3UW6H7","img_art/16.jpg","4","","","","","","","","","","","","","","","","","","","","","","","","",""
"2151","","image-button-response","201","1282856","0.0-193.0-0.0","A1LXVV3UW6H7","img_art/16.jpg","0","","","","","","","","","","","","","","","","","","","","","","","","",""
"null","","html-keyboard-response","202","1283360","0.0-194.0","A1LXVV3UW6H7","<p style=""font-size: 48px;"">+</p>","","","","","null","allTrialResponses","500","1","21","img_art/16.jpg","37","To the picture like beer","Eric,Grant,Robert,Dustin,Vincent,Seth","This piece is unusual but unique.,5,100,20","This is making me feel nervous in an enjoyable way.,20,200,20","It looks violent.,-30,360,20","Upsetting and disturbing. Random bear and indistinguishable objects. None of it goes together. Too chaotic and random,-50,20,20","Toys toys toys. Happy playful free spirit,30,360,20","This one isn't for me. It came off as strange but not in a good way.,-44,60,20","Grant","This is making me feel nervous in an enjoyable way.,20,200,20","Vincent","Toys toys toys. Happy playful free spirit,30,360,20","Eric","This piece is unusual but unique.,5,100,20","10"
"23358","","survey-text","203","1306737","0.0-195.0-0.0","A1LXVV3UW6H7","","","","{""Q0"":""To the very nice the picture of black""}","","","","","","","","","","","","","","","","","","","","","","",""
"3860","","image-slider-response","204","1310602","0.0-196.0","A1LXVV3UW6H7","","","","","37","","","","","","","","","","","","","","","","","","","","","",""
"null","","image-button-response","205","1315610","0.0-197.0","A1LXVV3UW6H7","img_art/15.jpg","null","","","","","","","","","","","","","","","","","","","","","","","","",""
"945","","image-button-response","206","1316557","0.0-198.0","A1LXVV3UW6H7","img_art/15.jpg","2","","","","","","","","","","","","","","","","","","","","","","","","",""
"1464","","image-button-response","207","1318024","0.0-199.0-0.0","A1LXVV3UW6H7","img_art/15.jpg","4","","","","","","","","","","","","","","","","","","","","","","","","",""
"1061","","image-button-response","208","1319091","0.0-200.0-0.0","A1LXVV3UW6H7","img_art/15.jpg","3","","","","","","","","","","","","","","","","","","","","","","","","",""
"null","","html-keyboard-response","209","1320094","0.0-201.0","A1LXVV3UW6H7","<p style=""font-size: 48px;"">+</p>","","","","","null","allTrialResponses","1000","1","22","img_art/15.jpg","37","To the very nice the picture of black","Eric,Grant,Mark,Jack,Vincent,Adrian","This picture is too confusing for me. I wouldn't want to stare at it to figure it out.,-10,100,20","This elicits no reaction in me.,0,200,20","Chameleons on reeds. Nice but doesn't really make me feel anything.,11,80,20","interesting technique. the blue is very pretty,18,320,20","I like the colors and the different style This brings,7,360,20","Not a fan. This piece would only go with very specific decor in a modern home.,-35,60,20","Mark","Chameleons on reeds. Nice but doesn't really make me feel anything.,11,80,20","Vincent","I like the colors and the different style This brings,7,360,20","Jack","interesting technique. the blue is very pretty,18,320,20","10"
"8516","","survey-text","210","1328625","0.0-202.0-0.0","A1LXVV3UW6H7","","","","{""Q0"":""Nothing""}","","","","","","","","","","","","","","","","","","","","","","",""
"3066","","image-slider-response","211","1331696","0.0-203.0","A1LXVV3UW6H7","","","","","31","","","","","","","","","","","","","","","","","","","","","",""
"3651","","image-button-response","212","1336701","0.0-204.0","A1LXVV3UW6H7","img_art/8.jpg","5","","","","","","","","","","","","","","","","","","","","","","","","",""
"837","","image-button-response","213","1337541","0.0-205.0","A1LXVV3UW6H7","img_art/8.jpg","4","","","","","","","","","","","","","","","","","","","","","","","","",""
"762","","image-button-response","214","1338307","0.0-206.0-0.0","A1LXVV3UW6H7","img_art/8.jpg","3","","","","","","","","","","","","","","","","","","","","","","","","",""
"761","","image-button-response","215","1339073","0.0-207.0-0.0","A1LXVV3UW6H7","img_art/8.jpg","5","","","","","","","","","","","","","","","","","","","","","","","","",""
"null","","html-keyboard-response","216","1340588","0.0-208.0","A1LXVV3UW6H7","<p style=""font-size: 48px;"">+</p>","","","","","null","allTrialResponses","1500","1","23","img_art/8.jpg","31","Nothing","Caleb,Kevin,Mark,Jack,Vincent,Aaron","Despite the detail, this picture is very abstract!,31,40,20","Now that one is wild. Looks like maybe mother nature isnt happy.,28,320,20","The face makes me think its a statement of the almighty of big brother watching us. onfuCsion limits my enjoyment.,6,80,20","beautiful colors & details. love the surrealism & strange angle. the faces are interesting.,50,320,20","This speaks volumes to me and is another favorite I'm sure by many,40,360,20","The shapes and colors work well together.,40,20,20","Vincent","This speaks volumes to me and is another favorite I'm sure by many,40,360,20","Jack","beautiful colors & details. love the surrealism & strange angle. the faces are interesting.,50,320,20","Aaron","The shapes and colors work well together.,40,20,20","10"
"9721","","survey-text","217","1350320","0.0-209.0-0.0","A1LXVV3UW6H7","","","","{""Q0"":""nothing""}","","","","","","","","","","","","","","","","","","","","","","",""
"4177","","image-slider-response","218","1354501","0.0-210.0","A1LXVV3UW6H7","","","","","32","","","","","","","","","","","","","","","","","","","","","",""
"null","","image-button-response","219","1359523","0.0-211.0","A1LXVV3UW6H7","img_art/17.jpg","null","","","","","","","","","","","","","","","","","","","","","","","","",""
"947","","image-button-response","220","1360473","0.0-212.0","A1LXVV3UW6H7","img_art/17.jpg","3","","","","","","","","","","","","","","","","","","","","","","","","",""
"757","","image-button-response","221","1361233","0.0-213.0-0.0","A1LXVV3UW6H7","img_art/17.jpg","4","","","","","","","","","","","","","","","","","","","","","","","","",""
"624","","image-button-response","222","1361861","0.0-214.0-0.0","A1LXVV3UW6H7","img_art/17.jpg","5","","","","","","","","","","","","","","","","","","","","","","","","",""
"null","","html-keyboard-response","223","1363365","0.0-215.0","A1LXVV3UW6H7","<p style=""font-size: 48px;"">+</p>","","","","","null","allTrialResponses","1500","1","24","img_art/17.jpg","32","nothing","Paul,Samuel,Marcus,Jack,Vincent,Aaron","The colors remind me of a sunset and give a bittersweet feeling. It looks unfinished but not terrible.,6,300,20","muted tones brings me down,-13,400,20","I like this, but it's a bit bland.,10,60,20","stunning. makes me feel happy, hopeful, serene, and a little wistful.,50,320,20","Another favorite a relaxing day with nature a day to take it all In,34,360,20","it brings a clear picture to my minds eye:,45,20,20","Jack","stunning. makes me feel happy, hopeful, serene, and a little wistful.,50,320,20","Vincent","Another favorite a relaxing day with nature a day to take it all In,34,360,20","Aaron","it brings a clear picture to my minds eye:,45,20,20","10"
"11580","","survey-text","224","1374964","0.0-216.0-0.0","A1LXVV3UW6H7","","","","{""Q0"":""To the very nice the pictutre""}","","","","","","","","","","","","","","","","","","","","","","",""
"2503","","image-slider-response","225","1377472","0.0-217.0","A1LXVV3UW6H7","","","","","37","","","","","","","","","","","","","","","","","","","","","",""
"null","","image-button-response","226","1382489","0.0-218.0","A1LXVV3UW6H7","img_art/14.jpg","null","","","","","","","","","","","","","","","","","","","","","","","","",""
"2300","","image-button-response","227","1384793","0.0-219.0","A1LXVV3UW6H7","img_art/14.jpg","4","","","","","","","","","","","","","","","","","","","","","","","","",""
"1205","","image-button-response","228","1386003","0.0-220.0-0.0","A1LXVV3UW6H7","img_art/14.jpg","3","","","","","","","","","","","","","","","","","","","","","","","","",""
"2894","","image-button-response","229","1388906","0.0-221.0-0.0","A1LXVV3UW6H7","img_art/14.jpg","2","","","","","","","","","","","","","","","","","","","","","","","","",""
"null","","html-keyboard-response","230","1390423","0.0-222.0","A1LXVV3UW6H7","<p style=""font-size: 48px;"">+</p>","","","","","null","allTrialResponses","1500","1","25","img_art/14.jpg","37","To the very nice the pictutre","Sean,Travis,Brendan,Jack,Vincent,Aaron","my reaction is that the picture is wierd,-14,40,20","I kind of like it...I like the white back ground,11,260,20","it looks like a tree on desert,23,340,20","love the colors. despite their brightness it seems sad somehow.,41,320,20","Reminds me of the old days with my family and my grandma,41,360,20","It reminds me of a tree in the desert.,15,20,20","Vincent","Reminds me of the old days with my family and my grandma,41,360,20","Jack","love the colors. despite their brightness it seems sad somehow.,41,320,20","Brendan","it looks like a tree on desert,23,340,20","10"
"7078","","survey-text","231","1397519","0.0-223.0-0.0","A1LXVV3UW6H7","","","","{""Q0"":""table""}","","","","","","","","","","","","","","","","","","","","","","",""
"17144","","survey-text","232","1414666","0.0-224.0-0.0","A1LXVV3UW6H7","","","","{""Q0"":""very like the art of hand""}","","","","","","","","","","","","","","","","","","","","","","",""
"3079","","image-slider-response","233","1417751","0.0-225.0","A1LXVV3UW6H7","","","","","29","","","","","","","","","","","","","","","","","","","","","",""
"null","","image-button-response","234","1422774","0.0-226.0","A1LXVV3UW6H7","img_art/4.jpg","null","","","","","","","","","","","","","","","","","","","","","","","","",""
"2616","","image-button-response","235","1425395","0.0-227.0","A1LXVV3UW6H7","img_art/4.jpg","3","","","","","","","","","","","","","","","","","","","","","","","","",""
"714","","image-button-response","236","1426113","0.0-228.0-0.0","A1LXVV3UW6H7","img_art/4.jpg","4","","","","","","","","","","","","","","","","","","","","","","","","",""
"2589","","image-button-response","237","1428707","0.0-229.0-0.0","A1LXVV3UW6H7","img_art/4.jpg","1","","","","","","","","","","","","","","","","","","","","","","","","",""
"null","","html-keyboard-response","238","1429211","0.0-230.0","A1LXVV3UW6H7","<p style=""font-size: 48px;"">+</p>","","","","","null","allTrialResponses","500","1","26","img_art/4.jpg","29","very like the art of hand","Michael,Corey,Brendan,Jack,Vincent,Logan","Looks like a child did it.,-42,140,20","doesn't do anything for me,-4,260,20","just a scuffed hand,-15,340,20","creepy, looks like a deformed hand, but the background is pretty,5,320,20","I like it not sure much of how I feel about it,7,360,20","it looks like a preschooler just dragged his fingers around,-36,360,20","Jack","creepy, looks like a deformed hand, but the background is pretty,5,320,20","Vincent","I like it not sure much of how I feel about it,7,360,20","Corey","doesn't do anything for me,-4,260,20","10"
"13243","","survey-text","239","1442489","0.0-231.0-0.0","A1LXVV3UW6H7","","","","{""Q0"":""There are very nice""}","","","","","","","","","","","","","","","","","","","","","","",""
"4957","","image-slider-response","240","1447449","0.0-232.0","A1LXVV3UW6H7","","","","","36","","","","","","","","","","","","","","","","","","","","","",""
"null","","image-button-response","241","1452460","0.0-233.0","A1LXVV3UW6H7","img_art/22.jpg","null","","","","","","","","","","","","","","","","","","","","","","","","",""
"2856","","image-button-response","242","1455320","0.0-234.0","A1LXVV3UW6H7","img_art/22.jpg","3","","","","","","","","","","","","","","","","","","","","","","","","",""
"545","","image-button-response","243","1455869","0.0-235.0-0.0","A1LXVV3UW6H7","img_art/22.jpg","4","","","","","","","","","","","","","","","","","","","","","","","","",""
"485","","image-button-response","244","1456358","0.0-236.0-0.0","A1LXVV3UW6H7","img_art/22.jpg","5","","","","","","","","","","","","","","","","","","","","","","","","",""
"null","","html-keyboard-response","245","1456864","0.0-237.0","A1LXVV3UW6H7","<p style=""font-size: 48px;"">+</p>","","","","","null","allTrialResponses","500","1","27","img_art/22.jpg","36","There are very nice","Connor,Corey,Spencer,Jack,Vincent,Kyle","Seems dated with geometic forms,-20,240,20","i feel like this is a a basic art piece that a school would have on the wall,-24,260,20","Pretty colors but too blocky for me,-19,120,20","beautiful. love the bright colors & soft brush strokes, and the imprint of the key is genius.,50,320,20","Can fit with anyone. And in any home a great piece of art,35,360,20","I appreciate the artistic effort but it's not for me,0,340,20","Jack","beautiful. love the bright colors & soft brush strokes, and the imprint of the key is genius.,50,320,20","Vincent","Can fit with anyone. And in any home a great piece of art,35,360,20","Kyle","I appreciate the artistic effort but it's not for me,0,340,20","10"
"21818","","survey-text","246","1478700","0.0-238.0-0.0","A1LXVV3UW6H7","","","","{""Q0"":""Art in the fall""}","","","","","","","","","","","","","","","","","","","","","","",""
"4308","","image-slider-response","247","1483014","0.0-239.0","A1LXVV3UW6H7","","","","","37","","","","","","","","","","","","","","","","","","","","","",""
"null","","image-button-response","248","1488037","0.0-240.0","A1LXVV3UW6H7","img_art/24.jpg","null","","","","","","","","","","","","","","","","","","","","","","","","",""
"2637","","image-button-response","249","1490679","0.0-241.0","A1LXVV3UW6H7","img_art/24.jpg","1","","","","","","","","","","","","","","","","","","","","","","","","",""
"504","","image-button-response","250","1491188","0.0-242.0-0.0","A1LXVV3UW6H7","img_art/24.jpg","0","","","","","","","","","","","","","","","","","","","","","","","","",""
"3276","","image-button-response","251","1494471","0.0-243.0-0.0","A1LXVV3UW6H7","img_art/24.jpg","3","","","","","","","","","","","","","","","","","","","","","","","","",""
"null","","html-keyboard-response","252","1495988","0.0-244.0","A1LXVV3UW6H7","<p style=""font-size: 48px;"">+</p>","","","","","null","allTrialResponses","1500","1","28","img_art/24.jpg","37","Art in the fall","Ryan,Timothy,Alejandro,Jack,Vincent,Kyle","Beautiful,  peaceful,50,380,20","Earthy wonderful, love everything about it,50,240,20","I don't like this painting because of its blottedness. It lacks conviction, direction and purpose.,-31,80,20","colors are a bit cramped together. really unique take on a waterfall though.,32,320,20","Spending a day in nature,21,360,20","This one is nice because it reminds me of nature,18,340,20","Timothy","Earthy wonderful, love everything about it,50,240,20","Ryan","Beautiful,  peaceful,50,380,20","Jack","colors are a bit cramped together. really unique take on a waterfall though.,32,320,20","10"
"6078","","survey-text","253","1502089","0.0-245.0-0.0","A1LXVV3UW6H7","","","","{""Q0"":""most well""}","","","","","","","","","","","","","","","","","","","","","","",""
"4189","","image-slider-response","254","1506285","0.0-246.0","A1LXVV3UW6H7","","","","","37","","","","","","","","","","","","","","","","","","","","","",""
"3038","","image-button-response","255","1511295","0.0-247.0","A1LXVV3UW6H7","img_art/2.jpg","0","","","","","","","","","","","","","","","","","","","","","","","","",""
"3053","","image-button-response","256","1514351","0.0-248.0","A1LXVV3UW6H7","img_art/2.jpg","0","","","","","","","","","","","","","","","","","","","","","","","","",""
"3609","","image-button-response","257","1517967","0.0-249.0-0.0","A1LXVV3UW6H7","img_art/2.jpg","2","","","","","","","","","","","","","","","","","","","","","","","","",""
"761","","image-button-response","258","1518736","0.0-250.0-0.0","A1LXVV3UW6H7","img_art/2.jpg","5","","","","","","","","","","","","","","","","","","","","","","","","",""
"null","","html-keyboard-response","259","1519240","0.0-251.0","A1LXVV3UW6H7","<p style=""font-size: 48px;"">+</p>","","","","","null","allTrialResponses","500","1","29","img_art/2.jpg","37","most well","Ryan,Timothy,Daniel,Jack,Christopher,Trevor","Very simple and childish,40,380,20","The contrasting colors are a bit harsh,-10,240,20","Colors and space work but the top scribbled killed it.,11,320,20","the colors are a bit odd, and the squiggly line at the top is distracting,0,320,20","nope. just looks like a mess,-28,160,20","It looks like a little kids primary color picture,3,280,20","Ryan","Very simple and childish,40,380,20","Daniel","Colors and space work but the top scribbled killed it.,11,320,20","Trevor","It looks like a little kids primary color picture,3,280,20","10"
"15872","","survey-text","260","1535130","0.0-252.0-0.0","A1LXVV3UW6H7","","","","{""Q0"":""nice the like""}","","","","","","","","","","","","","","","","","","","","","","",""
"3802","","image-slider-response","261","1538939","0.0-253.0","A1LXVV3UW6H7","","","","","32","","","","","","","","","","","","","","","","","","","","","",""
"null","","image-button-response","262","1543953","0.0-254.0","A1LXVV3UW6H7","img_art/10.jpg","null","","","","","","","","","","","","","","","","","","","","","","","","",""
"478","","image-button-response","263","1544433","0.0-255.0","A1LXVV3UW6H7","img_art/10.jpg","2","","","","","","","","","","","","","","","","","","","","","","","","",""
"705","","image-button-response","264","1545141","0.0-256.0-0.0","A1LXVV3UW6H7","img_art/10.jpg","0","","","","","","","","","","","","","","","","","","","","","","","","",""
"1395","","image-button-response","265","1546540","0.0-257.0-0.0","A1LXVV3UW6H7","img_art/10.jpg","4","","","","","","","","","","","","","","","","","","","","","","","","",""
"null","","html-keyboard-response","266","1547554","0.0-258.0","A1LXVV3UW6H7","<p style=""font-size: 48px;"">+</p>","","","","","null","allTrialResponses","1000","1","30","img_art/10.jpg","32","nice the like","Ryan,Brandon,Daniel,Steven,Alexis,Trevor","Reminds me of a beautiful ship wreck,36,380,20","Too abstract and it doesn't really remind me of anything,-40,320,20","Music visualized with subtle color,17,320,20","I dont like it, there is too much going on,-19,160,20","It looks like a sea monster overtaking a ship,21,140,20","It's very dark and angry looking,-31,280,20","Daniel","Music visualized with subtle color,17,320,20","Ryan","Reminds me of a beautiful ship wreck,36,380,20","Alexis","It looks like a sea monster overtaking a ship,21,140,20","10"
"5597","","image-button-response_instructions","267","1553161","0.0-259.0","A1LXVV3UW6H7","","0","instructions","","","","","","","","","","","","","","","","","","","","","","","",""
"1392","","image-button-response","268","1554565","0.0-260.0","A1LXVV3UW6H7","","0","","","","","","","","","","","","","","","","","","","","","","","","",""
