"rt","url","trial_type","trial_index","time_elapsed","internal_node_id","participant_id","stimulus","button_pressed","Name","responses","response","key_press","variableName","fixationTime","condition","trial","photo","subjectRating","subjectResponse","agentsNames","agent_1_Response","agent_2_Response","agent_3_Response","agent_4_Response","agent_5_Response","agent_6_Response","kept_1_name","kept_1_response","kept_2_name","kept_2_response","kept_3_name","kept_3_response","errorCounter"
"15184","external_page_harvard.html","external-html","0","15236","0.0-0.0","A1M9GVOP0L2IWA","","","","","","","","","","","","","","","","","","","","","","","","","","",""
"2156","","image-button-response","1","17397","0.0-1.0","A1M9GVOP0L2IWA","","1","","","","","","","","","","","","","","","","","","","","","","","","",""
"3038","","image-button-response","2","20443","0.0-2.0-0.0","A1M9GVOP0L2IWA","","1","phone","","","","","","","","","","","","","","","","","","","","","","","",""
"10814","","survey-text","3","31261","0.0-3.0-0.0","A1M9GVOP0L2IWA","","","","{""Q0"":""A1M9GVOP0L2IWA""}","","","","","","","","","","","","","","","","","","","","","","",""
"6040","","image-button-response_instructions","4","37304","0.0-4.0","A1M9GVOP0L2IWA","","0","instructions","","","","","","","","","","","","","","","","","","","","","","","",""
"10496","","image-button-response_instructions","5","47804","0.0-5.0","A1M9GVOP0L2IWA","img_art/ins/popularity/ins1.png","0","instructions","","","","","","","","","","","","","","","","","","","","","","","",""
"6984","","image-button-response_instructions","6","54792","0.0-6.0","A1M9GVOP0L2IWA","img_art/ins/popularity/ins2.png","0","instructions","","","","","","","","","","","","","","","","","","","","","","","",""
"4685","","image-button-response_instructions","7","59480","0.0-7.0","A1M9GVOP0L2IWA","img_art/ins/popularity/ins2Extreme.png","0","instructions","","","","","","","","","","","","","","","","","","","","","","","",""
"19497","","image-button-response_instructions","8","78979","0.0-8.0","A1M9GVOP0L2IWA","img_art/ins/popularity/ins3KEEPpop.PNG","0","instructions","","","","","","","","","","","","","","","","","","","","","","","",""
"3407","","image-button-response_instructions","9","82388","0.0-9.0","A1M9GVOP0L2IWA","img_art/ins/popularity/ins3ANamepop.PNG","0","instructions","","","","","","","","","","","","","","","","","","","","","","","",""
"2516","","image-button-response_instructions","10","84906","0.0-10.0","A1M9GVOP0L2IWA","img_art/ins/popularity/ins3ARatingpop.png","0","instructions","","","","","","","","","","","","","","","","","","","","","","","",""
"2918","","image-button-response_instructions","11","87826","0.0-11.0","A1M9GVOP0L2IWA","img_art/ins/popularity/ins3ATextpop.png","0","instructions","","","","","","","","","","","","","","","","","","","","","","","",""
"3362","","image-button-response_instructions","12","91191","0.0-12.0","A1M9GVOP0L2IWA","img_art/ins/popularity/ins3ALikespop.png","0","instructions","","","","","","","","","","","","","","","","","","","","","","","",""
"6712","","image-button-response_instructions","13","97907","0.0-13.0","A1M9GVOP0L2IWA","img_art/ins/popularity/ins3KEEPpop.PNG","0","instructions","","","","","","","","","","","","","","","","","","","","","","","",""
"7571","","image-button-response_instructions","14","105479","0.0-14.0","A1M9GVOP0L2IWA","img_art/ins/popularity/ins3_5RED.png","0","instructions","","","","","","","","","","","","","","","","","","","","","","","",""
"4954","","image-button-response_instructions","15","110436","0.0-15.0","A1M9GVOP0L2IWA","img_art/ins/popularity/ins3KEEPpop.PNG","0","instructions","","","","","","","","","","","","","","","","","","","","","","","",""
"7137","","image-button-response_instructions","16","117575","0.0-16.0","A1M9GVOP0L2IWA","img_art/ins/popularity/ins4KEEPpop.PNG","0","instructions","","","","","","","","","","","","","","","","","","","","","","","",""
"369983","","image-button-response_instructions","17","487561","0.0-17.0","A1M9GVOP0L2IWA","img_art/ins/popularity/ins5KEEPpop.PNG","0","instructions","","","","","","","","","","","","","","","","","","","","","","","",""
"2092","","image-button-response_instructions","18","489655","0.0-18.0","A1M9GVOP0L2IWA","","0","instructions","","","","","","","","","","","","","","","","","","","","","","","",""
"5372","","survey-text","19","495078","0.0-19.0-0.0","A1M9GVOP0L2IWA","","","","{""Q0"":""but""}","","","","","","","","","","","","","","","","","","","","","","",""
"21317","","survey-text","20","516399","0.0-20.0-0.0","A1M9GVOP0L2IWA","","","","{""Q0"":""I love the colors, gives me a bright happy feeling""}","","","","","","","","","","","","","","","","","","","","","","",""
"6262.899999976158","","image-slider-response","21","522668","0.0-21.0","A1M9GVOP0L2IWA","","","","","23","","","","","","","","","","","","","","","","","","","","","",""
"null","","image-button-response","22","527677","0.0-22.0","A1M9GVOP0L2IWA","img_art/ins/1.jpg","null","","","","","","","","","","","","","","","","","","","","","","","","",""
"2730","","image-button-response","23","530412","0.0-23.0","A1M9GVOP0L2IWA","img_art/ins/1.jpg","5","","","","","","","","","","","","","","","","","","","","","","","","",""
"2771","","image-button-response","24","533191","0.0-24.0-0.0","A1M9GVOP0L2IWA","img_art/ins/1.jpg","4","","","","","","","","","","","","","","","","","","","","","","","","",""
"19381","","image-button-response","25","552578","0.0-25.0-0.0","A1M9GVOP0L2IWA","img_art/ins/1.jpg","3","","","","","","","","","","","","","","","","","","","","","","","","",""
"null","","html-keyboard-response","26","553584","0.0-26.0","A1M9GVOP0L2IWA","<p style=""font-size: 48px;"">+</p>","","","","","null","allTrialResponses","1000","1","-2","img_art/ins/1.jpg","23","I love the colors, gives me a bright happy feeling","Allison,Ashley,Beth,Dora,Erika,Jen","looks like a lot of things going on in the mist,20,20,20","I just don't get why these type of art would be popular,-32,40,20","This color reminds me of poo,-46,60,20","looks like what my niece in 3rd grade did this afternoon,-50,80,20","I like the sophisticated brushwork,40,100,20","It reminds me of a candy land dream I had,36,120,20","Jen","It reminds me of a candy land dream I had,36,120,20","Erika","I like the sophisticated brushwork,40,100,20","Dora","looks like what my niece in 3rd grade did this afternoon,-50,80,20","0"
"28737","","survey-text","27","582328","0.0-27.0-0.0","A1M9GVOP0L2IWA","","","","{""Q0"":""The colors in this give me an angry feeling.  The strong brush strokes seem oppressive too.""}","","","","","","","","","","","","","","","","","","","","","","",""
"8504.199999988079","","image-slider-response","28","590836","0.0-28.0","A1M9GVOP0L2IWA","","","","","-39","","","","","","","","","","","","","","","","","","","","","",""
"null","","image-button-response","29","595846","0.0-29.0","A1M9GVOP0L2IWA","img_art/ins/2.jpg","null","","","","","","","","","","","","","","","","","","","","","","","","",""
"6074","","image-button-response","30","601924","0.0-30.0","A1M9GVOP0L2IWA","img_art/ins/2.jpg","3","","","","","","","","","","","","","","","","","","","","","","","","",""
"6591","","image-button-response","31","608520","0.0-31.0-0.0","A1M9GVOP0L2IWA","img_art/ins/2.jpg","5","","","","","","","","","","","","","","","","","","","","","","","","",""
"8605","","image-button-response","32","617129","0.0-32.0-0.0","A1M9GVOP0L2IWA","img_art/ins/2.jpg","1","","","","","","","","","","","","","","","","","","","","","","","","",""
"null","","html-keyboard-response","33","618636","0.0-33.0","A1M9GVOP0L2IWA","<p style=""font-size: 48px;"">+</p>","","","","","null","allTrialResponses","1500","1","-1","img_art/ins/2.jpg","-39","The colors in this give me an angry feeling.  The strong brush strokes seem oppressive too.","Jenna,Kara,Katie,Dora,Erika,Jen","One of my pet peevs,-48,140,20","I like the blocks of color arrangements,30,160,20","too much color!,-28,180,20","looks too angry,-50,80,20","I would never be able to compose a sophisticated pallete like this,48,100,20","It reminds me of a fireplace,36,120,20","Dora","looks too angry,-50,80,20","Jen","It reminds me of a fireplace,36,120,20","Kara","I like the blocks of color arrangements,30,160,20","0"
"20685","","survey-text","34","639329","0.0-34.0-0.0","A1M9GVOP0L2IWA","","","","{""Q0"":""This makes me feel calm but just a tad melancholy.""}","","","","","","","","","","","","","","","","","","","","","","",""
"11668.599999964237","","image-slider-response","35","651001","0.0-35.0","A1M9GVOP0L2IWA","","","","","16","","","","","","","","","","","","","","","","","","","","","",""
"null","","image-button-response","36","656009","0.0-36.0","A1M9GVOP0L2IWA","img_art/ins/3.jpg","null","","","","","","","","","","","","","","","","","","","","","","","","",""
"6146","","image-button-response","37","662159","0.0-37.0","A1M9GVOP0L2IWA","img_art/ins/3.jpg","5","","","","","","","","","","","","","","","","","","","","","","","","",""
"6054","","image-button-response","38","668218","0.0-38.0-0.0","A1M9GVOP0L2IWA","img_art/ins/3.jpg","4","","","","","","","","","","","","","","","","","","","","","","","","",""
"1654","","image-button-response","39","669878","0.0-39.0-0.0","A1M9GVOP0L2IWA","img_art/ins/3.jpg","1","","","","","","","","","","","","","","","","","","","","","","","","",""
"null","","html-keyboard-response","40","670884","0.0-40.0","A1M9GVOP0L2IWA","<p style=""font-size: 48px;"">+</p>","","","","","null","allTrialResponses","1000","1","0","img_art/ins/3.jpg","16","This makes me feel calm but just a tad melancholy.","Leslie,Kara,Rose,Dora,Mary,Jen","It's an alright work,15,200,20","calming blue is very nice,36,160,20","My daily routine, it's depressing,-20,240,20","My worst nightmare,-42,80,20","I like the overlapping of brushes,41,220,20","I can feel a rainy day from this painting,18,120,20","Jen","I can feel a rainy day from this painting,18,120,20","Mary","I like the overlapping of brushes,41,220,20","Kara","calming blue is very nice,36,160,20","0"
"4467","","image-button-response_instructions","41","675358","0.0-41.0","A1M9GVOP0L2IWA","","0","instructions","","","","","","","","","","","","","","","","","","","","","","","",""
"11990","","survey-likert","42","687352","0.0-42.0-0.0","A1M9GVOP0L2IWA","","","","{""Q0"":"""",""Q1"":0,""Q2"":1}","","","","","","","","","","","","","","","","","","","","","","",""
"5410","","survey-text","43","692771","0.0-43.0-0.0","A1M9GVOP0L2IWA","","","","{""Q0"":""rock""}","","","","","","","","","","","","","","","","","","","","","","",""
"30736","","survey-text","44","723510","0.0-44.0-0.0","A1M9GVOP0L2IWA","","","","{""Q0"":""My first thought was jazz or music.  I like the warm tones.""}","","","","","","","","","","","","","","","","","","","","","","",""
"6128.099999964237","","image-slider-response","45","729641","0.0-45.0","A1M9GVOP0L2IWA","","","","","23","","","","","","","","","","","","","","","","","","","","","",""
"null","","image-button-response","46","734671","0.0-46.0","A1M9GVOP0L2IWA","img_art/28.jpg","null","","","","","","","","","","","","","","","","","","","","","","","","",""
"17891","","image-button-response","47","752565","0.0-47.0","A1M9GVOP0L2IWA","img_art/28.jpg","0","","","","","","","","","","","","","","","","","","","","","","","","",""
"12049","","image-button-response","48","764618","0.0-48.0-0.0","A1M9GVOP0L2IWA","img_art/28.jpg","5","","","","","","","","","","","","","","","","","","","","","","","","",""
"10003","","image-button-response","49","774626","0.0-49.0-0.0","A1M9GVOP0L2IWA","img_art/28.jpg","2","","","","","","","","","","","","","","","","","","","","","","","","",""
"null","","html-keyboard-response","50","775630","0.0-50.0","A1M9GVOP0L2IWA","<p style=""font-size: 48px;"">+</p>","","","","","null","allTrialResponses","1000","1","1","img_art/28.jpg","23","My first thought was jazz or music.  I like the warm tones.","Destiny,Maria,Gabrielle,Alicia,Brianna,Ashley","I wish I knew why I liked it, maybes its the pinky tones,36,360,20","I want to like it, but I'm not really sure what to make of it,2,120,20","bland coloring but pattern interesting,2,160,20","bland busy ugly,-31,120,20","My grandparents would like this, maybe my great grandparents. It's not my style.,-30,20,20","Normally don't react well to abstract art, but it looks almost like something's there.,28,320,20","Destiny","I wish I knew why I liked it, maybes its the pinky tones,36,360,20","Ashley","Normally don't react well to abstract art, but it looks almost like something's there.,28,320,20","Gabrielle","bland coloring but pattern interesting,2,160,20","0"
"29729","","survey-text","51","805368","0.0-51.0-0.0","A1M9GVOP0L2IWA","","","","{""Q0"":""The center reminds me of sun peeking through clouds.  I get an overall positive vibe.""}","","","","","","","","","","","","","","","","","","","","","","",""
"4626.600000023842","","image-slider-response","52","809999","0.0-52.0","A1M9GVOP0L2IWA","","","","","14","","","","","","","","","","","","","","","","","","","","","",""
"null","","image-button-response","53","815007","0.0-53.0","A1M9GVOP0L2IWA","img_art/27.jpg","null","","","","","","","","","","","","","","","","","","","","","","","","",""
"11824","","image-button-response","54","826835","0.0-54.0","A1M9GVOP0L2IWA","img_art/27.jpg","3","","","","","","","","","","","","","","","","","","","","","","","","",""
"5846","","image-button-response","55","832686","0.0-55.0-0.0","A1M9GVOP0L2IWA","img_art/27.jpg","5","","","","","","","","","","","","","","","","","","","","","","","","",""
"5998","","image-button-response","56","838688","0.0-56.0-0.0","A1M9GVOP0L2IWA","img_art/27.jpg","0","","","","","","","","","","","","","","","","","","","","","","","","",""
"null","","html-keyboard-response","57","839693","0.0-57.0","A1M9GVOP0L2IWA","<p style=""font-size: 48px;"">+</p>","","","","","null","allTrialResponses","1000","1","2","img_art/27.jpg","14","The center reminds me of sun peeking through clouds.  I get an overall positive vibe.","Destiny,Allison,Gabrielle,Miranda,Brittany,Ashley","demon vs angel brawl over lemon lime sprite,-10,360,20","Warn colors are pretty, but too blotchy for me.,3,140,20","like the patterns and colors all but the orange blob on the right,32,160,20","I'm not a fan. It looks like something my nephews (1 and 2) would make,-8,320,20","The colors are put together in an interesting way.,-9,40,20","Lots of activity, layers, imagination at work here.,29,320,20","Miranda","I'm not a fan. It looks like something my nephews (1 and 2) would make,-8,320,20","Ashley","Lots of activity, layers, imagination at work here.,29,320,20","Destiny","demon vs angel brawl over lemon lime sprite,-10,360,20","0"
"27805","","survey-text","58","867506","0.0-58.0-0.0","A1M9GVOP0L2IWA","","","","{""Q0"":""I like the colors but I'm not sure what to make of it.""}","","","","","","","","","","","","","","","","","","","","","","",""
"4235.799999952316","","image-slider-response","59","871745","0.0-59.0","A1M9GVOP0L2IWA","","","","","7","","","","","","","","","","","","","","","","","","","","","",""
"null","","image-button-response","60","876752","0.0-60.0","A1M9GVOP0L2IWA","img_art/14.jpg","null","","","","","","","","","","","","","","","","","","","","","","","","",""
"6235","","image-button-response","61","882990","0.0-61.0","A1M9GVOP0L2IWA","img_art/14.jpg","1","","","","","","","","","","","","","","","","","","","","","","","","",""
"4514","","image-button-response","62","887508","0.0-62.0-0.0","A1M9GVOP0L2IWA","img_art/14.jpg","3","","","","","","","","","","","","","","","","","","","","","","","","",""
"9722","","image-button-response","63","897234","0.0-63.0-0.0","A1M9GVOP0L2IWA","img_art/14.jpg","5","","","","","","","","","","","","","","","","","","","","","","","","",""
"null","","html-keyboard-response","64","897742","0.0-64.0","A1M9GVOP0L2IWA","<p style=""font-size: 48px;"">+</p>","","","","","null","allTrialResponses","500","1","3","img_art/14.jpg","7","I like the colors but I'm not sure what to make of it.","Destiny,Sara,Emily,Miranda,Emma,Ashley","I dont really vibe with the grayish color palette,-7,360,20","It uplifts my mood due to the color scheme,32,160,20","Looks like there is some skill but also at the same time parts look unskilled.,-16,40,20","This just looks like a kids watercolor painting.,-30,320,20","Don't love it.,-10,60,20","I like the color tone, it's kind of disturbing.,35,320,20","Sara","It uplifts my mood due to the color scheme,32,160,20","Miranda","This just looks like a kids watercolor painting.,-30,320,20","Ashley","I like the color tone, it's kind of disturbing.,35,320,20","0"
"37969","","survey-text","65","935719","0.0-65.0-0.0","A1M9GVOP0L2IWA","","","","{""Q0"":""Reminds me of a moon above water with reflections.  It's pretty.""}","","","","","","","","","","","","","","","","","","","","","","",""
"5798.300000011921","","image-slider-response","66","941521","0.0-66.0","A1M9GVOP0L2IWA","","","","","29","","","","","","","","","","","","","","","","","","","","","",""
"2918","","image-button-response","67","946527","0.0-67.0","A1M9GVOP0L2IWA","img_art/21.jpg","0","","","","","","","","","","","","","","","","","","","","","","","","",""
"15227","","image-button-response","68","961759","0.0-68.0","A1M9GVOP0L2IWA","img_art/21.jpg","5","","","","","","","","","","","","","","","","","","","","","","","","",""
"9344","","image-button-response","69","971109","0.0-69.0-0.0","A1M9GVOP0L2IWA","img_art/21.jpg","2","","","","","","","","","","","","","","","","","","","","","","","","",""
"870","","image-button-response","70","971983","0.0-70.0-0.0","A1M9GVOP0L2IWA","img_art/21.jpg","0","","","","","","","","","","","","","","","","","","","","","","","","",""
"null","","html-keyboard-response","71","973492","0.0-71.0","A1M9GVOP0L2IWA","<p style=""font-size: 48px;"">+</p>","","","","","null","allTrialResponses","1500","1","4","img_art/21.jpg","29","Reminds me of a moon above water with reflections.  It's pretty.","Sydney,Sara,Danielle,Miranda,Jennifer,Ashley","I love everything about this piece.,50,320,20","It looks confusing,-21,160,20","I like it. It's some of war-scene, bloodshed and battle on the left, field of dispair on the right, dark and rich,40,340,20","This looks very interesting because something is happening but I can't tell what.,28,320,20","Bland, this painting is my least favorite,-20,380,20","Disturbing, land meets ocean, lvoely really.,43,320,20","Ashley","Disturbing, land meets ocean, lvoely really.,43,320,20","Danielle","I like it. It's some of war-scene, bloodshed and battle on the left, field of dispair on the right, dark and rich,40,340,20","Sydney","I love everything about this piece.,50,320,20","0"
"30301","","survey-text","72","1003800","0.0-72.0-0.0","A1M9GVOP0L2IWA","","","","{""Q0"":""This looks like somewhere I'd want to be. Pretty dream of Italy or France.""}","","","","","","","","","","","","","","","","","","","","","","",""
"6256","","image-slider-response","73","1010060","0.0-73.0","A1M9GVOP0L2IWA","","","","","42","","","","","","","","","","","","","","","","","","","","","",""
"null","","image-button-response","74","1015068","0.0-74.0","A1M9GVOP0L2IWA","img_art/26.jpg","null","","","","","","","","","","","","","","","","","","","","","","","","",""
"15018","","image-button-response","75","1030089","0.0-75.0","A1M9GVOP0L2IWA","img_art/26.jpg","0","","","","","","","","","","","","","","","","","","","","","","","","",""
"3610","","image-button-response","76","1033702","0.0-76.0-0.0","A1M9GVOP0L2IWA","img_art/26.jpg","3","","","","","","","","","","","","","","","","","","","","","","","","",""
"10876","","image-button-response","77","1044581","0.0-77.0-0.0","A1M9GVOP0L2IWA","img_art/26.jpg","5","","","","","","","","","","","","","","","","","","","","","","","","",""
"null","","html-keyboard-response","78","1045586","0.0-78.0","A1M9GVOP0L2IWA","<p style=""font-size: 48px;"">+</p>","","","","","null","allTrialResponses","1000","1","5","img_art/26.jpg","42","This looks like somewhere I'd want to be. Pretty dream of Italy or France.","Sydney,Michaela,Danielle,Mikayla,Katelyn,Ashley","I wish there was more detail, but I really like this simple piece.,35,320,20","Elevator art but the watercolors are good,29,260,20","It's a little too yellow-y for me, I'm not a huge fan of the color schemes or setting it portrays.,-20,340,20","Love the colors in this one.,22,300,20","Looks bland and boring,-5,100,20","Telented watercolor artist or second grader.,18,320,20","Sydney","I wish there was more detail, but I really like this simple piece.,35,320,20","Mikayla","Love the colors in this one.,22,300,20","Ashley","Telented watercolor artist or second grader.,18,320,20","0"
"4662","","survey-text","79","1050261","0.0-79.0-0.0","A1M9GVOP0L2IWA","","","","{""Q0"":""sky""}","","","","","","","","","","","","","","","","","","","","","","",""
"29138","","survey-text","80","1079402","0.0-80.0-0.0","A1M9GVOP0L2IWA","","","","{""Q0"":""Looks like an oyster in the ocean filled with treasure!""}","","","","","","","","","","","","","","","","","","","","","","",""
"4964.699999988079","","image-slider-response","81","1084370","0.0-81.0","A1M9GVOP0L2IWA","","","","","10","","","","","","","","","","","","","","","","","","","","","",""
"null","","image-button-response","82","1089375","0.0-82.0","A1M9GVOP0L2IWA","img_art/9.jpg","null","","","","","","","","","","","","","","","","","","","","","","","","",""
"4582","","image-button-response","83","1093960","0.0-83.0","A1M9GVOP0L2IWA","img_art/9.jpg","0","","","","","","","","","","","","","","","","","","","","","","","","",""
"4612","","image-button-response","84","1098576","0.0-84.0-0.0","A1M9GVOP0L2IWA","img_art/9.jpg","2","","","","","","","","","","","","","","","","","","","","","","","","",""
"6097","","image-button-response","85","1104677","0.0-85.0-0.0","A1M9GVOP0L2IWA","img_art/9.jpg","4","","","","","","","","","","","","","","","","","","","","","","","","",""
"null","","html-keyboard-response","86","1105180","0.0-86.0","A1M9GVOP0L2IWA","<p style=""font-size: 48px;"">+</p>","","","","","null","allTrialResponses","500","1","6","img_art/9.jpg","10","Looks like an oyster in the ocean filled with treasure!","Sydney,Sophia,Makayla,Mikayla,Marissa,Ashley","I see some of my favorite colors which I like, but I don't like what's portrayed.,35,320,20","Yikes. I'm not sure what to make of this one.,-14,280,20","Looks like a monster's teeth , unsettling,-18,80,20","Looks like a crayon drawing.,21,300,20","It makes me think of Snow White sleeping,11,160,20","Similar to the tohers, but not as clear.,11,320,20","Sydney","I see some of my favorite colors which I like, but I don't like what's portrayed.,35,320,20","Makayla","Looks like a monster's teeth , unsettling,-18,80,20","Marissa","It makes me think of Snow White sleeping,11,160,20","0"
"46518","","survey-text","87","1151705","0.0-87.0-0.0","A1M9GVOP0L2IWA","","","","{""Q0"":""Just don't respond to this.  Just very...red.""}","","","","","","","","","","","","","","","","","","","","","","",""
"5978.899999976158","","image-slider-response","88","1157687","0.0-88.0","A1M9GVOP0L2IWA","","","","","-29","","","","","","","","","","","","","","","","","","","","","",""
"null","","image-button-response","89","1162696","0.0-89.0","A1M9GVOP0L2IWA","img_art/3.jpg","null","","","","","","","","","","","","","","","","","","","","","","","","",""
"3746","","image-button-response","90","1166445","0.0-90.0","A1M9GVOP0L2IWA","img_art/3.jpg","2","","","","","","","","","","","","","","","","","","","","","","","","",""
"7991","","image-button-response","91","1174443","0.0-91.0-0.0","A1M9GVOP0L2IWA","img_art/3.jpg","4","","","","","","","","","","","","","","","","","","","","","","","","",""
"4192","","image-button-response","92","1178640","0.0-92.0-0.0","A1M9GVOP0L2IWA","img_art/3.jpg","5","","","","","","","","","","","","","","","","","","","","","","","","",""
"null","","html-keyboard-response","93","1180147","0.0-93.0","A1M9GVOP0L2IWA","<p style=""font-size: 48px;"">+</p>","","","","","null","allTrialResponses","1500","1","7","img_art/3.jpg","-29","Just don't respond to this.  Just very...red.","Sydney,Julia,Makayla,Anna,Marissa,Kathryn","This piece makes me think it has a backstory or a reason which I like.,5,320,20","this is a very nice emotion,27,40,20","Looks like blood scribbled on walls,-20,80,20","Definition of mediocre abstract art,-12,300,20","It feels like a half assed and failed imitation of Japanese signatures on old paintings,-22,160,20","This gives me a negative feeling, like someone trying to scratch out their flaws. I see low self-esteem.,-20,140,20","Makayla","Looks like blood scribbled on walls,-20,80,20","Marissa","It feels like a half assed and failed imitation of Japanese signatures on old paintings,-22,160,20","Kathryn","This gives me a negative feeling, like someone trying to scratch out their flaws. I see low self-esteem.,-20,140,20","0"
"31965","","survey-text","94","1212121","0.0-94.0-0.0","A1M9GVOP0L2IWA","","","","{""Q0"":""Love this-looks like people dancing in a parade. Gives me joy!""}","","","","","","","","","","","","","","","","","","","","","","",""
"4620.699999988079","","image-slider-response","95","1216745","0.0-95.0","A1M9GVOP0L2IWA","","","","","19","","","","","","","","","","","","","","","","","","","","","",""
"null","","image-button-response","96","1221750","0.0-96.0","A1M9GVOP0L2IWA","img_art/23.jpg","null","","","","","","","","","","","","","","","","","","","","","","","","",""
"8117","","image-button-response","97","1229870","0.0-97.0","A1M9GVOP0L2IWA","img_art/23.jpg","4","","","","","","","","","","","","","","","","","","","","","","","","",""
"1072","","image-button-response","98","1230948","0.0-98.0-0.0","A1M9GVOP0L2IWA","img_art/23.jpg","5","","","","","","","","","","","","","","","","","","","","","","","","",""
"16945","","image-button-response","99","1247897","0.0-99.0-0.0","A1M9GVOP0L2IWA","img_art/23.jpg","2","","","","","","","","","","","","","","","","","","","","","","","","",""
"null","","html-keyboard-response","100","1248902","0.0-100.0","A1M9GVOP0L2IWA","<p style=""font-size: 48px;"">+</p>","","","","","null","allTrialResponses","1000","1","8","img_art/23.jpg","19","Love this-looks like people dancing in a parade. Gives me joy!","Mary,Cassandra,Makayla,Chloe,Marissa,Kathryn","The colors are ugly. I don't like the white. It doesn't compliment the piece at all.,-44,180,20","I had a very neutral feeling to this,no feelings at all.,1,120,20","Reminds me of disco/70's, not my favorite design,-12,80,20","Poster shop camp.,-40,220,20","It feels exciting,23,160,20","I feel positive community and comfort. Singing along at a concert, united with a bunch of strangers through shared joy.,20,140,20","Marissa","It feels exciting,23,160,20","Kathryn","I feel positive community and comfort. Singing along at a concert, united with a bunch of strangers through shared joy.,20,140,20","Makayla","Reminds me of disco/70's, not my favorite design,-12,80,20","0"
"28507","","survey-text","101","1277418","0.0-101.0-0.0","A1M9GVOP0L2IWA","","","","{""Q0"":""Odd colors but they seem to go together somehow.  Like it but not sure why.""}","","","","","","","","","","","","","","","","","","","","","","",""
"6198.400000035763","","image-slider-response","102","1283620","0.0-102.0","A1M9GVOP0L2IWA","","","","","11","","","","","","","","","","","","","","","","","","","","","",""
"null","","image-button-response","103","1288626","0.0-103.0","A1M9GVOP0L2IWA","img_art/2.jpg","null","","","","","","","","","","","","","","","","","","","","","","","","",""
"17786","","image-button-response","104","1306416","0.0-104.0","A1M9GVOP0L2IWA","img_art/2.jpg","0","","","","","","","","","","","","","","","","","","","","","","","","",""
"11366","","image-button-response","105","1317788","0.0-105.0-0.0","A1M9GVOP0L2IWA","img_art/2.jpg","5","","","","","","","","","","","","","","","","","","","","","","","","",""
"2039","","image-button-response","106","1319832","0.0-106.0-0.0","A1M9GVOP0L2IWA","img_art/2.jpg","4","","","","","","","","","","","","","","","","","","","","","","","","",""
"null","","html-keyboard-response","107","1320337","0.0-107.0","A1M9GVOP0L2IWA","<p style=""font-size: 48px;"">+</p>","","","","","null","allTrialResponses","500","1","9","img_art/2.jpg","11","Odd colors but they seem to go together somehow.  Like it but not sure why.","Alexa,Kelsey,Makayla,Sarah,Marissa,Kathryn","Not my favorite but I can see this being hung in a art museum,25,40,20","i dont like it, no thank you,-28,240,20","I don't feel indifferent,4,80,20","nope. just looks like a mess,-28,180,20","I feel bothered by the dark and dingy choice of colors,-22,160,20","I think I'm put off by the clashing colors here. It feels discombobulated and sick.,-10,140,20","Alexa","Not my favorite but I can see this being hung in a art museum,25,40,20","Kathryn","I think I'm put off by the clashing colors here. It feels discombobulated and sick.,-10,140,20","Marissa","I feel bothered by the dark and dingy choice of colors,-22,160,20","0"
"30967","","survey-text","108","1351311","0.0-108.0-0.0","A1M9GVOP0L2IWA","","","","{""Q0"":""I see a big battle with horses and angels.  I get a tense feeling.""}","","","","","","","","","","","","","","","","","","","","","","",""
"11148","","image-slider-response","109","1362462","0.0-109.0","A1M9GVOP0L2IWA","","","","","-6","","","","","","","","","","","","","","","","","","","","","",""
"3490","","image-button-response","110","1367469","0.0-110.0","A1M9GVOP0L2IWA","img_art/18.jpg","1","","","","","","","","","","","","","","","","","","","","","","","","",""
"9919","","image-button-response","111","1377391","0.0-111.0","A1M9GVOP0L2IWA","img_art/18.jpg","4","","","","","","","","","","","","","","","","","","","","","","","","",""
"2731","","image-button-response","112","1380126","0.0-112.0-0.0","A1M9GVOP0L2IWA","img_art/18.jpg","5","","","","","","","","","","","","","","","","","","","","","","","","",""
"6659","","image-button-response","113","1386790","0.0-113.0-0.0","A1M9GVOP0L2IWA","img_art/18.jpg","1","","","","","","","","","","","","","","","","","","","","","","","","",""
"null","","html-keyboard-response","114","1388294","0.0-114.0","A1M9GVOP0L2IWA","<p style=""font-size: 48px;"">+</p>","","","","","null","allTrialResponses","1500","1","10","img_art/18.jpg","-6","I see a big battle with horses and angels.  I get a tense feeling.","Alexa,Katherine,Alexis,Heather,Marissa,Kathryn","Very wild and abstract. I love it and would definitely hang this up in my home,50,40,20","Ok this is really badass. Like a warrior come to the last battle,50,120,20","Crusade-feel, but a little too abstract for my taste,23,100,20","i like the colors in the picture and can make out my own images,42,260,20","This brings to mind the four horsemen of the apocalypse,8,160,20","Like riding into battle. A sense of confidence, but also trepidation for what's coming. Could be a personification of death.,-10,140,20","Marissa","This brings to mind the four horsemen of the apocalypse,8,160,20","Kathryn","Like riding into battle. A sense of confidence, but also trepidation for what's coming. Could be a personification of death.,-10,140,20","Katherine","Ok this is really badass. Like a warrior come to the last battle,50,120,20","0"
"4863","","survey-text","115","1393169","0.0-115.0-0.0","A1M9GVOP0L2IWA","","","","{""Q0"":""our""}","","","","","","","","","","","","","","","","","","","","","","",""
"33255","","survey-text","116","1426427","0.0-116.0-0.0","A1M9GVOP0L2IWA","","","","{""Q0"":""It's ok.  No strong reaction either way.  Reminds me of birds in a bush.""}","","","","","","","","","","","","","","","","","","","","","","",""
"8902.399999976158","","image-slider-response","117","1435333","0.0-117.0","A1M9GVOP0L2IWA","","","","","2","","","","","","","","","","","","","","","","","","","","","",""
"null","","image-button-response","118","1440341","0.0-118.0","A1M9GVOP0L2IWA","img_art/15.jpg","null","","","","","","","","","","","","","","","","","","","","","","","","",""
"1114","","image-button-response","119","1441458","0.0-119.0","A1M9GVOP0L2IWA","img_art/15.jpg","2","","","","","","","","","","","","","","","","","","","","","","","","",""
"3231","","image-button-response","120","1444694","0.0-120.0-0.0","A1M9GVOP0L2IWA","img_art/15.jpg","3","","","","","","","","","","","","","","","","","","","","","","","","",""
"11662","","image-button-response","121","1456361","0.0-121.0-0.0","A1M9GVOP0L2IWA","img_art/15.jpg","5","","","","","","","","","","","","","","","","","","","","","","","","",""
"null","","html-keyboard-response","122","1457367","0.0-122.0","A1M9GVOP0L2IWA","<p style=""font-size: 48px;"">+</p>","","","","","null","allTrialResponses","1000","1","11","img_art/15.jpg","2","It's ok.  No strong reaction either way.  Reminds me of birds in a bush.","Morgan,Katherine,Rachel,Natalie,Marissa,Kathryn","Leafs spread on the ground.,27,380,20","black dots too ant-like,-25,120,20","Reminds me of blue birds in a tree at night. I love nature.,40,80,20","my response to the picture is that I dont know what I am looking at,-25,400,20","I am reminded of spring flowers swaying in the dark night's breeze,9,160,20","This is looking at a forest from above. I can see water and some pathways throughout. Nature.,20,140,20","Rachel","Reminds me of blue birds in a tree at night. I love nature.,40,80,20","Natalie","my response to the picture is that I dont know what I am looking at,-25,400,20","Kathryn","This is looking at a forest from above. I can see water and some pathways throughout. Nature.,20,140,20","0"
"47736","","survey-text","123","1505111","0.0-123.0-0.0","A1M9GVOP0L2IWA","","","","{""Q0"":""This is weird but interesting.  I can't stop looking at it.""}","","","","","","","","","","","","","","","","","","","","","","",""
"8916.700000047684","","image-slider-response","124","1514031","0.0-124.0","A1M9GVOP0L2IWA","","","","","-16","","","","","","","","","","","","","","","","","","","","","",""
"null","","image-button-response","125","1519040","0.0-125.0","A1M9GVOP0L2IWA","img_art/16.jpg","null","","","","","","","","","","","","","","","","","","","","","","","","",""
"9826","","image-button-response","126","1528869","0.0-126.0","A1M9GVOP0L2IWA","img_art/16.jpg","1","","","","","","","","","","","","","","","","","","","","","","","","",""
"4167","","image-button-response","127","1533041","0.0-127.0-0.0","A1M9GVOP0L2IWA","img_art/16.jpg","3","","","","","","","","","","","","","","","","","","","","","","","","",""
"7386","","image-button-response","128","1540434","0.0-128.0-0.0","A1M9GVOP0L2IWA","img_art/16.jpg","4","","","","","","","","","","","","","","","","","","","","","","","","",""
"null","","html-keyboard-response","129","1541442","0.0-129.0","A1M9GVOP0L2IWA","<p style=""font-size: 48px;"">+</p>","","","","","null","allTrialResponses","1000","1","12","img_art/16.jpg","-16","This is weird but interesting.  I can't stop looking at it.","Jamie,Nicole,Rachel,Natalie,Haley,Kathryn","Weird and funny,40,320,20","It's a little anxiety inducing in a good way,16,20,20","Not pleasing to the eyes. I do like that the gun is broken though.,-28,80,20","my reaction is that the picture is creepy,-19,400,20","Makes me want to know more,5,220,20","I see something that is supposed to be comforting but it's been discarded and lost.,-20,140,20","Nicole","It's a little anxiety inducing in a good way,16,20,20","Natalie","my reaction is that the picture is creepy,-19,400,20","Haley","Makes me want to know more,5,220,20","0"
"30806","","survey-text","130","1572252","0.0-130.0-0.0","A1M9GVOP0L2IWA","","","","{""Q0"":""This seems foreboding.  A place I wouldn't want to be.""}","","","","","","","","","","","","","","","","","","","","","","",""
"3745.899999976158","","image-slider-response","131","1576002","0.0-131.0","A1M9GVOP0L2IWA","","","","","-25","","","","","","","","","","","","","","","","","","","","","",""
"null","","image-button-response","132","1581011","0.0-132.0","A1M9GVOP0L2IWA","img_art/20.jpg","null","","","","","","","","","","","","","","","","","","","","","","","","",""
"6249","","image-button-response","133","1587263","0.0-133.0","A1M9GVOP0L2IWA","img_art/20.jpg","1","","","","","","","","","","","","","","","","","","","","","","","","",""
"2911","","image-button-response","134","1590178","0.0-134.0-0.0","A1M9GVOP0L2IWA","img_art/20.jpg","0","","","","","","","","","","","","","","","","","","","","","","","","",""
"19097","","image-button-response","135","1609281","0.0-135.0-0.0","A1M9GVOP0L2IWA","img_art/20.jpg","3","","","","","","","","","","","","","","","","","","","","","","","","",""
"null","","html-keyboard-response","136","1609786","0.0-136.0","A1M9GVOP0L2IWA","<p style=""font-size: 48px;"">+</p>","","","","","null","allTrialResponses","500","1","13","img_art/20.jpg","-25","This seems foreboding.  A place I wouldn't want to be.","Hannah,Nicole,Monica,Natalie,Haley,Christina","Reminds me of the Southwest; i.e. New Mexico or Arizona. It's interesting.,12,240,20","This one feels scary in a bad way,-30,20,20","It looks like a junkyard and isn't appealing,-22,360,20","I like the detail on it, although I get a sad vibe to it,19,400,20","I really enjoy the contrast of colors (blue/red/orange),30,220,20","it looks like a piccasso knock off,-23,240,20","Nicole","This one feels scary in a bad way,-30,20,20","Hannah","Reminds me of the Southwest; i.e. New Mexico or Arizona. It's interesting.,12,240,20","Natalie","I like the detail on it, although I get a sad vibe to it,19,400,20","0"
"35347","","survey-text","137","1645141","0.0-137.0-0.0","A1M9GVOP0L2IWA","","","","{""Q0"":""This reminds me of music, but sad music.  ""}","","","","","","","","","","","","","","","","","","","","","","",""
"3899.100000023842","","image-slider-response","138","1649043","0.0-138.0","A1M9GVOP0L2IWA","","","","","-18","","","","","","","","","","","","","","","","","","","","","",""
"null","","image-button-response","139","1654051","0.0-139.0","A1M9GVOP0L2IWA","img_art/10.jpg","null","","","","","","","","","","","","","","","","","","","","","","","","",""
"7066","","image-button-response","140","1661120","0.0-140.0","A1M9GVOP0L2IWA","img_art/10.jpg","5","","","","","","","","","","","","","","","","","","","","","","","","",""
"11324","","image-button-response","141","1672448","0.0-141.0-0.0","A1M9GVOP0L2IWA","img_art/10.jpg","1","","","","","","","","","","","","","","","","","","","","","","","","",""
"3423","","image-button-response","142","1675876","0.0-142.0-0.0","A1M9GVOP0L2IWA","img_art/10.jpg","3","","","","","","","","","","","","","","","","","","","","","","","","",""
"null","","html-keyboard-response","143","1676879","0.0-143.0","A1M9GVOP0L2IWA","<p style=""font-size: 48px;"">+</p>","","","","","null","allTrialResponses","1000","1","14","img_art/10.jpg","-18","This reminds me of music, but sad music.  ","Hannah,Nicole,Cassidy,Natalie,Kelly,Sierra","This one is interesting. I like it.,11,240,20","Too much negative space makes it feel unfinished,-25,20,20","Looks like someone just smeared some paint and called it good. Do not like.,-6,140,20","I see a rollercoaster,23,400,20","I cant tell what this is supposed to be, but I enjoy the simplicity of it.,28,220,20","it just doesnt appeal to me.,-10,260,20","Sierra","it just doesnt appeal to me.,-10,260,20","Nicole","Too much negative space makes it feel unfinished,-25,20,20","Natalie","I see a rollercoaster,23,400,20","0"
"17100","","survey-text","144","1693989","0.0-144.0-0.0","A1M9GVOP0L2IWA","","","","{""Q0"":""This feels muddled to me.  Too much going on.""}","","","","","","","","","","","","","","","","","","","","","","",""
"3746.599999964237","","image-slider-response","145","1697739","0.0-145.0","A1M9GVOP0L2IWA","","","","","-39","","","","","","","","","","","","","","","","","","","","","",""
"null","","image-button-response","146","1702745","0.0-146.0","A1M9GVOP0L2IWA","img_art/1.jpg","null","","","","","","","","","","","","","","","","","","","","","","","","",""
"3291","","image-button-response","147","1706039","0.0-147.0","A1M9GVOP0L2IWA","img_art/1.jpg","0","","","","","","","","","","","","","","","","","","","","","","","","",""
"4237","","image-button-response","148","1710280","0.0-148.0-0.0","A1M9GVOP0L2IWA","img_art/1.jpg","5","","","","","","","","","","","","","","","","","","","","","","","","",""
"12707","","image-button-response","149","1722993","0.0-149.0-0.0","A1M9GVOP0L2IWA","img_art/1.jpg","2","","","","","","","","","","","","","","","","","","","","","","","","",""
"null","","html-keyboard-response","150","1723497","0.0-150.0","A1M9GVOP0L2IWA","<p style=""font-size: 48px;"">+</p>","","","","","null","allTrialResponses","500","1","15","img_art/1.jpg","-39","This feels muddled to me.  Too much going on.","Vanessa,Nicole,Cynthia,Natalie,Alexandria,Sierra","I don't like how this one makes me feel.,-32,380,20","I love the colors but it's too intense sometimes,22,20,20","fishing on the lake surrounded by trees,42,320,20","my reaction is that the picture is that Ive seen it before,-14,400,20","it is very colorful and makes me happy,44,80,20","there isnt anything clear to look at,-2,260,20","Vanessa","I don't like how this one makes me feel.,-32,380,20","Sierra","there isnt anything clear to look at,-2,260,20","Cynthia","fishing on the lake surrounded by trees,42,320,20","0"
"4659","","survey-text","151","1728170","0.0-151.0-0.0","A1M9GVOP0L2IWA","","","","{""Q0"":""course""}","","","","","","","","","","","","","","","","","","","","","","",""
"29669","","survey-text","152","1757841","0.0-152.0-0.0","A1M9GVOP0L2IWA","","","","{""Q0"":""This is eerie.  Wouldn't want to meet this guy in the woods at night.""}","","","","","","","","","","","","","","","","","","","","","","",""
"7840.899999976158","","image-slider-response","153","1765685","0.0-153.0","A1M9GVOP0L2IWA","","","","","18","","","","","","","","","","","","","","","","","","","","","",""
"null","","image-button-response","154","1770694","0.0-154.0","A1M9GVOP0L2IWA","img_art/25.jpg","null","","","","","","","","","","","","","","","","","","","","","","","","",""
"1666","","image-button-response","155","1772362","0.0-155.0","A1M9GVOP0L2IWA","img_art/25.jpg","1","","","","","","","","","","","","","","","","","","","","","","","","",""
"9388","","image-button-response","156","1781754","0.0-156.0-0.0","A1M9GVOP0L2IWA","img_art/25.jpg","5","","","","","","","","","","","","","","","","","","","","","","","","",""
"20658","","image-button-response","157","1802415","0.0-157.0-0.0","A1M9GVOP0L2IWA","img_art/25.jpg","0","","","","","","","","","","","","","","","","","","","","","","","","",""
"null","","html-keyboard-response","158","1803920","0.0-158.0","A1M9GVOP0L2IWA","<p style=""font-size: 48px;"">+</p>","","","","","null","allTrialResponses","1500","1","16","img_art/25.jpg","18","This is eerie.  Wouldn't want to meet this guy in the woods at night.","Vanessa,Victoria,Cynthia,Madison,Hailey,Sierra","I don't like the color. I don't like the abstract-ness of it.,-22,380,20","makes me think of a scary movie,-20,400,20","Somewhat feel protected by a messenger,33,320,20","Meh. Hardly abstract, though.,-40,60,20","ugly color and very sad old lady,-45,200,20","the green is serene. the figure is scare crow like,7,260,20","Victoria","makes me think of a scary movie,-20,400,20","Sierra","the green is serene. the figure is scare crow like,7,260,20","Vanessa","I don't like the color. I don't like the abstract-ness of it.,-22,380,20","0"
"34665","","survey-text","159","1838594","0.0-159.0-0.0","A1M9GVOP0L2IWA","","","","{""Q0"":""I enjoy this color combo.  Seems like a relaxing rainy day.""}","","","","","","","","","","","","","","","","","","","","","","",""
"7503.100000023842","","image-slider-response","160","1846101","0.0-160.0","A1M9GVOP0L2IWA","","","","","-3","","","","","","","","","","","","","","","","","","","","","",""
"null","","image-button-response","161","1851107","0.0-161.0","A1M9GVOP0L2IWA","img_art/17.jpg","null","","","","","","","","","","","","","","","","","","","","","","","","",""
"3950","","image-button-response","162","1855061","0.0-162.0","A1M9GVOP0L2IWA","img_art/17.jpg","0","","","","","","","","","","","","","","","","","","","","","","","","",""
"1531","","image-button-response","163","1856597","0.0-163.0-0.0","A1M9GVOP0L2IWA","img_art/17.jpg","1","","","","","","","","","","","","","","","","","","","","","","","","",""
"10270","","image-button-response","164","1866872","0.0-164.0-0.0","A1M9GVOP0L2IWA","img_art/17.jpg","2","","","","","","","","","","","","","","","","","","","","","","","","",""
"null","","html-keyboard-response","165","1868380","0.0-165.0","A1M9GVOP0L2IWA","<p style=""font-size: 48px;"">+</p>","","","","","null","allTrialResponses","1500","1","17","img_art/17.jpg","-3","I enjoy this color combo.  Seems like a relaxing rainy day.","Vanessa,Victoria,Claire,Kaitlyn,Michelle,Sierra","I want to know more about this picture and where it leads if you could get inside it.,27,380,20","love the wispyness of it,34,400,20","its whimsical and light,50,260,20","Very beautiful,19,80,20","I can tell there are tress and maybe some doors but I'm not a fan of the style,-2,280,20","the colors, the arch and the wall,15,260,20","Vanessa","I want to know more about this picture and where it leads if you could get inside it.,27,380,20","Victoria","love the wispyness of it,34,400,20","Claire","its whimsical and light,50,260,20","0"
"43530","","survey-text","166","1911918","0.0-166.0-0.0","A1M9GVOP0L2IWA","","","","{""Q0"":""Nope.  I really dislike this.  Like a bad finger painting.""}","","","","","","","","","","","","","","","","","","","","","","",""
"5707.100000023842","","image-slider-response","167","1917628","0.0-167.0","A1M9GVOP0L2IWA","","","","","-45","","","","","","","","","","","","","","","","","","","","","",""
"null","","image-button-response","168","1922635","0.0-168.0","A1M9GVOP0L2IWA","img_art/30.jpg","null","","","","","","","","","","","","","","","","","","","","","","","","",""
"8016","","image-button-response","169","1930655","0.0-169.0","A1M9GVOP0L2IWA","img_art/30.jpg","1","","","","","","","","","","","","","","","","","","","","","","","","",""
"1368","","image-button-response","170","1932026","0.0-170.0-0.0","A1M9GVOP0L2IWA","img_art/30.jpg","2","","","","","","","","","","","","","","","","","","","","","","","","",""
"1444","","image-button-response","171","1933474","0.0-171.0-0.0","A1M9GVOP0L2IWA","img_art/30.jpg","0","","","","","","","","","","","","","","","","","","","","","","","","",""
"null","","html-keyboard-response","172","1934980","0.0-172.0","A1M9GVOP0L2IWA","<p style=""font-size: 48px;"">+</p>","","","","","null","allTrialResponses","1500","1","18","img_art/30.jpg","-45","Nope.  I really dislike this.  Like a bad finger painting.","Vanessa,Victoria,Claire,Olivia,Megan,Erica","I like the red against the blue, but otherwise, it's not really my taste,4,380,20","to dark and dreary,-28,400,20","too segmented, looks sloppy,-37,260,20","perceiving greatness,20,40,20","10 year old 10 minute project ""Fun with Painting"",-42,200,20","calming and relaxing,14,80,20","Victoria","to dark and dreary,-28,400,20","Claire","too segmented, looks sloppy,-37,260,20","Vanessa","I like the red against the blue, but otherwise, it's not really my taste,4,380,20","0"
"37204","","survey-text","173","1972193","0.0-173.0-0.0","A1M9GVOP0L2IWA","","","","{""Q0"":""This is interesting!  Seems like a South American town just waking up.""}","","","","","","","","","","","","","","","","","","","","","","",""
"3286.699999988079","","image-slider-response","174","1975485","0.0-174.0","A1M9GVOP0L2IWA","","","","","31","","","","","","","","","","","","","","","","","","","","","",""
"null","","image-button-response","175","1980490","0.0-175.0","A1M9GVOP0L2IWA","img_art/19.jpg","null","","","","","","","","","","","","","","","","","","","","","","","","",""
"5239","","image-button-response","176","1985733","0.0-176.0","A1M9GVOP0L2IWA","img_art/19.jpg","5","","","","","","","","","","","","","","","","","","","","","","","","",""
"8415","","image-button-response","177","1994151","0.0-177.0-0.0","A1M9GVOP0L2IWA","img_art/19.jpg","1","","","","","","","","","","","","","","","","","","","","","","","","",""
"9939","","image-button-response","178","2004093","0.0-178.0-0.0","A1M9GVOP0L2IWA","img_art/19.jpg","0","","","","","","","","","","","","","","","","","","","","","","","","",""
"null","","html-keyboard-response","179","2005098","0.0-179.0","A1M9GVOP0L2IWA","<p style=""font-size: 48px;"">+</p>","","","","","null","allTrialResponses","1000","1","19","img_art/19.jpg","31","This is interesting!  Seems like a South American town just waking up.","Vanessa,Victoria,Claire,Autumn,Kayla,Cheyenne","Again, this is too abstract.,-10,380,20","to much going on,-22,400,20","way too much going on,-33,260,20","Messy and kid like.,-36,340,20","Too messy and busy. Too much going on there for me.,-12,180,20","Solid use of colors but wished it looked more realistic.,12,200,20","Cheyenne","Solid use of colors but wished it looked more realistic.,12,200,20","Victoria","to much going on,-22,400,20","Vanessa","Again, this is too abstract.,-10,380,20","0"
"32112","","survey-text","180","2037219","0.0-180.0-0.0","A1M9GVOP0L2IWA","","","","{""Q0"":""Faces everywhere.  It gives me a creepy, claustrophobic feeling.""}","","","","","","","","","","","","","","","","","","","","","","",""
"5911","","image-slider-response","181","2043134","0.0-181.0","A1M9GVOP0L2IWA","","","","","-19","","","","","","","","","","","","","","","","","","","","","",""
"null","","image-button-response","182","2048145","0.0-182.0","A1M9GVOP0L2IWA","img_art/8.jpg","null","","","","","","","","","","","","","","","","","","","","","","","","",""
"2842","","image-button-response","183","2050991","0.0-183.0","A1M9GVOP0L2IWA","img_art/8.jpg","0","","","","","","","","","","","","","","","","","","","","","","","","",""
"14068","","image-button-response","184","2065062","0.0-184.0-0.0","A1M9GVOP0L2IWA","img_art/8.jpg","2","","","","","","","","","","","","","","","","","","","","","","","","",""
"13080","","image-button-response","185","2078145","0.0-185.0-0.0","A1M9GVOP0L2IWA","img_art/8.jpg","1","","","","","","","","","","","","","","","","","","","","","","","","",""
"null","","html-keyboard-response","186","2079151","0.0-186.0","A1M9GVOP0L2IWA","<p style=""font-size: 48px;"">+</p>","","","","","null","allTrialResponses","1000","1","20","img_art/8.jpg","-19","Faces everywhere.  It gives me a creepy, claustrophobic feeling.","Vanessa,Victoria,Andrea,Brooke,Bailey,Cheyenne","I don't like the negative emotion this picture makes me feel. It's also too abstract.,-30,380,20","makes me think of a busy city,-18,400,20","The face makes me think its a statement of the almighty of big brother watching us. onfuCsion limits my enjoyment.,6,240,20","what's going on here. looks like scary town.,-25,60,20","Not a fan of abstract looking pieces with too many focal points. The tunnel and face, for example,-31,360,20","Has nice depth to it.,12,200,20","Vanessa","I don't like the negative emotion this picture makes me feel. It's also too abstract.,-30,380,20","Andrea","The face makes me think its a statement of the almighty of big brother watching us. onfuCsion limits my enjoyment.,6,240,20","Victoria","makes me think of a busy city,-18,400,20","0"
"3803","","survey-text","187","2082969","0.0-187.0-0.0","A1M9GVOP0L2IWA","","","","{""Q0"":""we""}","","","","","","","","","","","","","","","","","","","","","","",""
"35018","","survey-text","188","2117990","0.0-188.0-0.0","A1M9GVOP0L2IWA","","","","{""Q0"":""I like this.  Reminds me of a city on a hill at night-lights shining through the gloom.""}","","","","","","","","","","","","","","","","","","","","","","",""
"4651.699999988079","","image-slider-response","189","2122646","0.0-189.0","A1M9GVOP0L2IWA","","","","","24","","","","","","","","","","","","","","","","","","","","","",""
"4025","","image-button-response","190","2127652","0.0-190.0","A1M9GVOP0L2IWA","img_art/11.jpg","0","","","","","","","","","","","","","","","","","","","","","","","","",""
"1906","","image-button-response","191","2129563","0.0-191.0","A1M9GVOP0L2IWA","img_art/11.jpg","0","","","","","","","","","","","","","","","","","","","","","","","","",""
"1107","","image-button-response","192","2130673","0.0-192.0-0.0","A1M9GVOP0L2IWA","img_art/11.jpg","1","","","","","","","","","","","","","","","","","","","","","","","","",""
"7372","","image-button-response","193","2138050","0.0-193.0-0.0","A1M9GVOP0L2IWA","img_art/11.jpg","4","","","","","","","","","","","","","","","","","","","","","","","","",""
"null","","html-keyboard-response","194","2138555","0.0-194.0","A1M9GVOP0L2IWA","<p style=""font-size: 48px;"">+</p>","","","","","null","allTrialResponses","500","1","21","img_art/11.jpg","24","I like this.  Reminds me of a city on a hill at night-lights shining through the gloom.","Vanessa,Victoria,Andrea,Kimberly,Samantha,Paige","It makes me think of a rainy day and I like the colors. Also like the wavy lines.,22,380,20","reminds me of a rainy day in the city,32,400,20","My initial thought was roller coasters but I see ship masts on a cloudy day too.,35,240,20","It's cables in a city,21,260,20","Love the colors and flow,50,140,20","gave me a sense of gloom,-21,60,20","Vanessa","It makes me think of a rainy day and I like the colors. Also like the wavy lines.,22,380,20","Victoria","reminds me of a rainy day in the city,32,400,20","Samantha","Love the colors and flow,50,140,20","0"
"22791","","survey-text","195","2161356","0.0-195.0-0.0","A1M9GVOP0L2IWA","","","","{""Q0"":""Looks lush and inviting.  I love the vibrancy!""}","","","","","","","","","","","","","","","","","","","","","","",""
"4564.399999976158","","image-slider-response","196","2165924","0.0-196.0","A1M9GVOP0L2IWA","","","","","37","","","","","","","","","","","","","","","","","","","","","",""
"null","","image-button-response","197","2170931","0.0-197.0","A1M9GVOP0L2IWA","img_art/24.jpg","null","","","","","","","","","","","","","","","","","","","","","","","","",""
"8555","","image-button-response","198","2179489","0.0-198.0","A1M9GVOP0L2IWA","img_art/24.jpg","0","","","","","","","","","","","","","","","","","","","","","","","","",""
"4766","","image-button-response","199","2184259","0.0-199.0-0.0","A1M9GVOP0L2IWA","img_art/24.jpg","1","","","","","","","","","","","","","","","","","","","","","","","","",""
"6554","","image-button-response","200","2190816","0.0-200.0-0.0","A1M9GVOP0L2IWA","img_art/24.jpg","5","","","","","","","","","","","","","","","","","","","","","","","","",""
"null","","html-keyboard-response","201","2191323","0.0-201.0","A1M9GVOP0L2IWA","<p style=""font-size: 48px;"">+</p>","","","","","null","allTrialResponses","500","1","22","img_art/24.jpg","37","Looks lush and inviting.  I love the vibrancy!","Vanessa,Victoria,Erin,Jenna,Samantha,Taylor","I love the colors, but I wish the water was less abstract.,17,380,20","very peaceful and serene,47,400,20","Too literal, not abstract,-29,120,20","colors are a bit cramped together. really unique take on a waterfall though.,32,360,20","Happy and relaxing bubbling brook,37,140,20","Makes me think of a couple of hikes that I've taken,50,340,20","Vanessa","I love the colors, but I wish the water was less abstract.,17,380,20","Victoria","very peaceful and serene,47,400,20","Taylor","Makes me think of a couple of hikes that I've taken,50,340,20","0"
"26059","","survey-text","202","2217391","0.0-202.0-0.0","A1M9GVOP0L2IWA","","","","{""Q0"":""Looks like the 80's to me.  It's ok but doesn't inspire any strong emotion.""}","","","","","","","","","","","","","","","","","","","","","","",""
"5694.799999952316","","image-slider-response","203","2223089","0.0-203.0","A1M9GVOP0L2IWA","","","","","-21","","","","","","","","","","","","","","","","","","","","","",""
"null","","image-button-response","204","2228095","0.0-204.0","A1M9GVOP0L2IWA","img_art/13.jpg","null","","","","","","","","","","","","","","","","","","","","","","","","",""
"5668","","image-button-response","205","2233767","0.0-205.0","A1M9GVOP0L2IWA","img_art/13.jpg","5","","","","","","","","","","","","","","","","","","","","","","","","",""
"2185","","image-button-response","206","2235955","0.0-206.0-0.0","A1M9GVOP0L2IWA","img_art/13.jpg","0","","","","","","","","","","","","","","","","","","","","","","","","",""
"4992","","image-button-response","207","2240952","0.0-207.0-0.0","A1M9GVOP0L2IWA","img_art/13.jpg","4","","","","","","","","","","","","","","","","","","","","","","","","",""
"null","","html-keyboard-response","208","2241959","0.0-208.0","A1M9GVOP0L2IWA","<p style=""font-size: 48px;"">+</p>","","","","","null","allTrialResponses","1000","1","23","img_art/13.jpg","-21","Looks like the 80's to me.  It's ok but doesn't inspire any strong emotion.","Vanessa,Victoria,Shannon,Elizabeth,Alyssa,Taylor","I love the colors and the contrast between the different blues.,21,380,20","reminds me of rain,36,400,20","It looks like someone splattered a bunch of different colors to make a picture; I think its ugly.,-40,220,20","Love the splash of colors,50,20,20","Pretty and it reminds me of rain droplets running down a window on a rainy day.,40,160,20","It makes me think of sitting inside on a rainy day while drinking a warm coffee,32,340,20","Taylor","It makes me think of sitting inside on a rainy day while drinking a warm coffee,32,340,20","Vanessa","I love the colors and the contrast between the different blues.,21,380,20","Alyssa","Pretty and it reminds me of rain droplets running down a window on a rainy day.,40,160,20","0"
"34002","","survey-text","209","2275970","0.0-209.0-0.0","A1M9GVOP0L2IWA","","","","{""Q0"":""I like the colors but it seems very muddled.  ""}","","","","","","","","","","","","","","","","","","","","","","",""
"5785.699999988079","","image-slider-response","210","2281761","0.0-210.0","A1M9GVOP0L2IWA","","","","","-9","","","","","","","","","","","","","","","","","","","","","",""
"null","","image-button-response","211","2286767","0.0-211.0","A1M9GVOP0L2IWA","img_art/22.jpg","null","","","","","","","","","","","","","","","","","","","","","","","","",""
"3798","","image-button-response","212","2290567","0.0-212.0","A1M9GVOP0L2IWA","img_art/22.jpg","4","","","","","","","","","","","","","","","","","","","","","","","","",""
"1448","","image-button-response","213","2292019","0.0-213.0-0.0","A1M9GVOP0L2IWA","img_art/22.jpg","5","","","","","","","","","","","","","","","","","","","","","","","","",""
"5315","","image-button-response","214","2297340","0.0-214.0-0.0","A1M9GVOP0L2IWA","img_art/22.jpg","0","","","","","","","","","","","","","","","","","","","","","","","","",""
"null","","html-keyboard-response","215","2298345","0.0-215.0","A1M9GVOP0L2IWA","<p style=""font-size: 48px;"">+</p>","","","","","null","allTrialResponses","1000","1","24","img_art/22.jpg","-9","I like the colors but it seems very muddled.  ","Vanessa,Alexandra,Savannah,Dominique,Alyssa,Taylor","I don't like the colors or the way they've been arranged.,-20,380,20","The colors in this picture are nice.,32,60,20","Seems too simple.,-19,200,20","Can fit with anyone. And in any home a great piece of art,35,400,20","Its okay,it doesnt make me feel any sort of strong emotion,1,160,20","Doesn't make me feel anything,-4,340,20","Alyssa","Its okay,it doesnt make me feel any sort of strong emotion,1,160,20","Taylor","Doesn't make me feel anything,-4,340,20","Vanessa","I don't like the colors or the way they've been arranged.,-20,380,20","0"
"25323","","survey-text","216","2323673","0.0-216.0-0.0","A1M9GVOP0L2IWA","","","","{""Q0"":""Doesn't seem to go together but its really interesting to look at.""}","","","","","","","","","","","","","","","","","","","","","","",""
"3700.599999964237","","image-slider-response","217","2327376","0.0-217.0","A1M9GVOP0L2IWA","","","","","-7","","","","","","","","","","","","","","","","","","","","","",""
"null","","image-button-response","218","2332384","0.0-218.0","A1M9GVOP0L2IWA","img_art/29.jpg","null","","","","","","","","","","","","","","","","","","","","","","","","",""
"3579","","image-button-response","219","2335965","0.0-219.0","A1M9GVOP0L2IWA","img_art/29.jpg","0","","","","","","","","","","","","","","","","","","","","","","","","",""
"8664","","image-button-response","220","2344634","0.0-220.0-0.0","A1M9GVOP0L2IWA","img_art/29.jpg","3","","","","","","","","","","","","","","","","","","","","","","","","",""
"9233","","image-button-response","221","2353871","0.0-221.0-0.0","A1M9GVOP0L2IWA","img_art/29.jpg","5","","","","","","","","","","","","","","","","","","","","","","","","",""
"null","","html-keyboard-response","222","2354877","0.0-222.0","A1M9GVOP0L2IWA","<p style=""font-size: 48px;"">+</p>","","","","","null","allTrialResponses","1000","1","25","img_art/29.jpg","-7","Doesn't seem to go together but its really interesting to look at.","Vanessa,Amber,Kylie,Meghan,Alyssa,Taylor","I hate the red x over everything, hate the black hate how hopeless this is.,-50,380,20","Don't like the red X across the painting.,-15,200,20","Reminds me of graffitti gone wrong,15,300,20","feels random and not thoughtout,-37,220,20","Its interesting although doesnt illicit any strong emotions from me,10,160,20","It seems like there's anger in the painting.,-20,340,20","Vanessa","I hate the red x over everything, hate the black hate how hopeless this is.,-50,380,20","Meghan","feels random and not thoughtout,-37,220,20","Taylor","It seems like there's anger in the painting.,-20,340,20","0"
"8971","","survey-text","223","2363864","0.0-223.0-0.0","A1M9GVOP0L2IWA","","","","{""Q0"":""table""}","","","","","","","","","","","","","","","","","","","","","","",""
"23253","","survey-text","224","2387121","0.0-224.0-0.0","A1M9GVOP0L2IWA","","","","{""Q0"":""Simple but vibrant.  I immediately liked it but don't know why.""}","","","","","","","","","","","","","","","","","","","","","","",""
"5719.899999976158","","image-slider-response","225","2392844","0.0-225.0","A1M9GVOP0L2IWA","","","","","29","","","","","","","","","","","","","","","","","","","","","",""
"null","","image-button-response","226","2397852","0.0-226.0","A1M9GVOP0L2IWA","img_art/5.jpg","null","","","","","","","","","","","","","","","","","","","","","","","","",""
"3285","","image-button-response","227","2401140","0.0-227.0","A1M9GVOP0L2IWA","img_art/5.jpg","2","","","","","","","","","","","","","","","","","","","","","","","","",""
"1637","","image-button-response","228","2402780","0.0-228.0-0.0","A1M9GVOP0L2IWA","img_art/5.jpg","3","","","","","","","","","","","","","","","","","","","","","","","","",""
"9006","","image-button-response","229","2411791","0.0-229.0-0.0","A1M9GVOP0L2IWA","img_art/5.jpg","0","","","","","","","","","","","","","","","","","","","","","","","","",""
"null","","html-keyboard-response","230","2412797","0.0-230.0","A1M9GVOP0L2IWA","<p style=""font-size: 48px;"">+</p>","","","","","null","allTrialResponses","1000","1","26","img_art/5.jpg","29","Simple but vibrant.  I immediately liked it but don't know why.","Vanessa,Stephanie,Lauren,Meghan,Caitlin,Taylor","The yellow is garish and the picture doesn't look liked anything.,-49,380,20","This did not do a thing for me.,-50,300,20","I like the simplicity of the design, but I can't tell what the image is trying to depict.,10,340,20","I like it but I don't know why,15,220,20","More kindergarten art class. Who buys this stuff?,-45,80,20","Doesn't make me think anything,-1,340,20","Lauren","I like the simplicity of the design, but I can't tell what the image is trying to depict.,10,340,20","Meghan","I like it but I don't know why,15,220,20","Vanessa","The yellow is garish and the picture doesn't look liked anything.,-49,380,20","0"
"27130","","survey-text","231","2439937","0.0-231.0-0.0","A1M9GVOP0L2IWA","","","","{""Q0"":""I immediately see a bird standing on the shore.  ""}","","","","","","","","","","","","","","","","","","","","","","",""
"5068.399999976158","","image-slider-response","232","2445009","0.0-232.0","A1M9GVOP0L2IWA","","","","","12","","","","","","","","","","","","","","","","","","","","","",""
"null","","image-button-response","233","2450018","0.0-233.0","A1M9GVOP0L2IWA","img_art/6.jpg","null","","","","","","","","","","","","","","","","","","","","","","","","",""
"5567","","image-button-response","234","2455588","0.0-234.0","A1M9GVOP0L2IWA","img_art/6.jpg","0","","","","","","","","","","","","","","","","","","","","","","","","",""
"967","","image-button-response","235","2456559","0.0-235.0-0.0","A1M9GVOP0L2IWA","img_art/6.jpg","4","","","","","","","","","","","","","","","","","","","","","","","","",""
"2578","","image-button-response","236","2459141","0.0-236.0-0.0","A1M9GVOP0L2IWA","img_art/6.jpg","3","","","","","","","","","","","","","","","","","","","","","","","","",""
"null","","html-keyboard-response","237","2459643","0.0-237.0","A1M9GVOP0L2IWA","<p style=""font-size: 48px;"">+</p>","","","","","null","allTrialResponses","500","1","27","img_art/6.jpg","12","I immediately see a bird standing on the shore.  ","Vanessa,Molly,Lauren,Meghan,Margaret,Madeline","I don't like the colors and the dark shape at the top makes me think of a buzzard.,-28,380,20","Nothing special.,-20,340,20","I like the simplicity of the piece.,10,340,20","reminds me of a bird,31,220,20","reminds me of a happy edgar allen poe poem,8,100,20","Looks a bit like a pickle or something?,-16,40,20","Vanessa","I don't like the colors and the dark shape at the top makes me think of a buzzard.,-28,380,20","Margaret","reminds me of a happy edgar allen poe poem,8,100,20","Meghan","reminds me of a bird,31,220,20","0"
"33401","","survey-text","238","2493051","0.0-238.0-0.0","A1M9GVOP0L2IWA","","","","{""Q0"":""The colors don't mesh for me but I like the emotion of going from colorless to colorful.""}","","","","","","","","","","","","","","","","","","","","","","",""
"5872.599999964237","","image-slider-response","239","2498927","0.0-239.0","A1M9GVOP0L2IWA","","","","","2","","","","","","","","","","","","","","","","","","","","","",""
"null","","image-button-response","240","2503933","0.0-240.0","A1M9GVOP0L2IWA","img_art/12.jpg","null","","","","","","","","","","","","","","","","","","","","","","","","",""
"14296","","image-button-response","241","2518231","0.0-241.0","A1M9GVOP0L2IWA","img_art/12.jpg","2","","","","","","","","","","","","","","","","","","","","","","","","",""
"2354","","image-button-response","242","2520589","0.0-242.0-0.0","A1M9GVOP0L2IWA","img_art/12.jpg","3","","","","","","","","","","","","","","","","","","","","","","","","",""
"7066","","image-button-response","243","2527659","0.0-243.0-0.0","A1M9GVOP0L2IWA","img_art/12.jpg","0","","","","","","","","","","","","","","","","","","","","","","","","",""
"null","","html-keyboard-response","244","2528662","0.0-244.0","A1M9GVOP0L2IWA","<p style=""font-size: 48px;"">+</p>","","","","","null","allTrialResponses","1000","1","28","img_art/12.jpg","2","The colors don't mesh for me but I like the emotion of going from colorless to colorful.","Vanessa,Melissa,Lindsey,Meghan,Margaret,Shelby","This is too abstract and the colors are too worn out.,-23,380,20","reminds me of a dixie cup,3,240,20","Ugly colors and I'm just not too much a fan of cubist abstract art.,-50,400,20","I don't like the pattern or color choice,-41,220,20","I like the bottom half and hate the top half,7,100,20","The shapes make me feel a bit uncomfortable,-10,240,20","Lindsey","Ugly colors and I'm just not too much a fan of cubist abstract art.,-50,400,20","Meghan","I don't like the pattern or color choice,-41,220,20","Vanessa","This is too abstract and the colors are too worn out.,-23,380,20","0"
"20779","","survey-text","245","2549454","0.0-245.0-0.0","A1M9GVOP0L2IWA","","","","{""Q0"":""Very creepy version of a hand.""}","","","","","","","","","","","","","","","","","","","","","","",""
"5742.599999964237","","image-slider-response","246","2555200","0.0-246.0","A1M9GVOP0L2IWA","","","","","-22","","","","","","","","","","","","","","","","","","","","","",""
"null","","image-button-response","247","2560209","0.0-247.0","A1M9GVOP0L2IWA","img_art/4.jpg","null","","","","","","","","","","","","","","","","","","","","","","","","",""
"4619","","image-button-response","248","2564831","0.0-248.0","A1M9GVOP0L2IWA","img_art/4.jpg","2","","","","","","","","","","","","","","","","","","","","","","","","",""
"5241","","image-button-response","249","2570077","0.0-249.0-0.0","A1M9GVOP0L2IWA","img_art/4.jpg","5","","","","","","","","","","","","","","","","","","","","","","","","",""
"2468","","image-button-response","250","2572550","0.0-250.0-0.0","A1M9GVOP0L2IWA","img_art/4.jpg","0","","","","","","","","","","","","","","","","","","","","","","","","",""
"null","","html-keyboard-response","251","2573554","0.0-251.0","A1M9GVOP0L2IWA","<p style=""font-size: 48px;"">+</p>","","","","","null","allTrialResponses","1000","1","29","img_art/4.jpg","-22","Very creepy version of a hand.","Vanessa,Angela,Lindsey,Meghan,Abigail,Jordan","Again, this is too abstract and I really don't like the colors.,-21,380,20","Really like the colors, but don't like the object/squiggle in darker gold and black,4,260,20","Looks like feces smeared on the canvas. I hate it.,-50,400,20","feels free flowing and relaxed,21,220,20","A hand reaching for something it cannot obtain,-9,20,20","The colors remind me of mcdonalds,-33,20,20","Lindsey","Looks like feces smeared on the canvas. I hate it.,-50,400,20","Jordan","The colors remind me of mcdonalds,-33,20,20","Vanessa","Again, this is too abstract and I really don't like the colors.,-21,380,20","0"
"29384","","survey-text","252","2602948","0.0-252.0-0.0","A1M9GVOP0L2IWA","","","","{""Q0"":""Looks like a closeup of stucco over brick.  Don't get a strong feeling from it.""}","","","","","","","","","","","","","","","","","","","","","","",""
"4358.899999976158","","image-slider-response","253","2607308","0.0-253.0","A1M9GVOP0L2IWA","","","","","-18","","","","","","","","","","","","","","","","","","","","","",""
"null","","image-button-response","254","2612311","0.0-254.0","A1M9GVOP0L2IWA","img_art/7.jpg","null","","","","","","","","","","","","","","","","","","","","","","","","",""
"1739","","image-button-response","255","2614054","0.0-255.0","A1M9GVOP0L2IWA","img_art/7.jpg","0","","","","","","","","","","","","","","","","","","","","","","","","",""
"5322","","image-button-response","256","2619379","0.0-256.0-0.0","A1M9GVOP0L2IWA","img_art/7.jpg","3","","","","","","","","","","","","","","","","","","","","","","","","",""
"4248","","image-button-response","257","2623632","0.0-257.0-0.0","A1M9GVOP0L2IWA","img_art/7.jpg","2","","","","","","","","","","","","","","","","","","","","","","","","",""
"null","","html-keyboard-response","258","2624638","0.0-258.0","A1M9GVOP0L2IWA","<p style=""font-size: 48px;"">+</p>","","","","","null","allTrialResponses","1000","1","30","img_art/7.jpg","-18","Looks like a closeup of stucco over brick.  Don't get a strong feeling from it.","Vanessa,Amanda,Lindsey,Isabella,Gabriela,Jordan","This is borning and lifeless.,-50,380,20","I hate everything about this painting from the cors to it looking like a war,-50,180,20","It's dirty. I don't mind the colors so much as the way they are put together in this dirty-looking pattern.,-41,400,20","Dessert like almost like dry land,4,280,20","it looks like an ant farm,12,140,20","looks like the surface of the moon.,1,20,20","Vanessa","This is borning and lifeless.,-50,380,20","Isabella","Dessert like almost like dry land,4,280,20","Lindsey","It's dirty. I don't mind the colors so much as the way they are put together in this dirty-looking pattern.,-41,400,20","0"
"2860","","image-button-response_instructions","259","2627504","0.0-259.0","A1M9GVOP0L2IWA","","0","instructions","","","","","","","","","","","","","","","","","","","","","","","",""
"1779","","image-button-response","260","2629289","0.0-260.0","A1M9GVOP0L2IWA","","0","","","","","","","","","","","","","","","","","","","","","","","","",""
