"rt","url","trial_type","trial_index","time_elapsed","internal_node_id","participant_id","stimulus","button_pressed","Name","responses","response","key_press","variableName","fixationTime","condition","trial","photo","subjectRating","subjectResponse","agentsNames","agent_1_Response","agent_2_Response","agent_3_Response","agent_4_Response","agent_5_Response","agent_6_Response","kept_1_name","kept_1_response","kept_2_name","kept_2_response","kept_3_name","kept_3_response","errorCounter"
"73188","external_page_harvard.html","external-html","0","73480","0.0-0.0","A1N8TKTLXV92QR","","","","","","","","","","","","","","","","","","","","","","","","","","",""
"2156","","image-button-response","1","75638","0.0-1.0","A1N8TKTLXV92QR","","0","","","","","","","","","","","","","","","","","","","","","","","","",""
"5716","","image-button-response","2","81358","0.0-2.0-0.0","A1N8TKTLXV92QR","","1","phone","","","","","","","","","","","","","","","","","","","","","","","",""
"16857","","survey-text","3","98217","0.0-3.0-0.0","A1N8TKTLXV92QR","","","","{""Q0"":""A1N8TKTLXV92QR""}","","","","","","","","","","","","","","","","","","","","","","",""
"32762","","image-button-response_instructions","4","130981","0.0-4.0","A1N8TKTLXV92QR","","0","instructions","","","","","","","","","","","","","","","","","","","","","","","",""
"20674","","image-button-response_instructions","5","151656","0.0-5.0","A1N8TKTLXV92QR","img_art/ins/popularity/ins1.png","0","instructions","","","","","","","","","","","","","","","","","","","","","","","",""
"6118","","image-button-response_instructions","6","157776","0.0-6.0","A1N8TKTLXV92QR","img_art/ins/popularity/ins2.png","0","instructions","","","","","","","","","","","","","","","","","","","","","","","",""
"11225","","image-button-response_instructions","7","169002","0.0-7.0","A1N8TKTLXV92QR","img_art/ins/popularity/ins2Extreme.png","0","instructions","","","","","","","","","","","","","","","","","","","","","","","",""
"22098","","image-button-response_instructions","8","191101","0.0-8.0","A1N8TKTLXV92QR","img_art/ins/popularity/ins3KEEPpop.PNG","0","instructions","","","","","","","","","","","","","","","","","","","","","","","",""
"11137","","image-button-response_instructions","9","202238","0.0-9.0","A1N8TKTLXV92QR","img_art/ins/popularity/ins3ANamepop.PNG","0","instructions","","","","","","","","","","","","","","","","","","","","","","","",""
"5832","","image-button-response_instructions","10","208071","0.0-10.0","A1N8TKTLXV92QR","img_art/ins/popularity/ins3ARatingpop.png","0","instructions","","","","","","","","","","","","","","","","","","","","","","","",""
"3559","","image-button-response_instructions","11","211631","0.0-11.0","A1N8TKTLXV92QR","img_art/ins/popularity/ins3ATextpop.png","0","instructions","","","","","","","","","","","","","","","","","","","","","","","",""
"8153","","image-button-response_instructions","12","219785","0.0-12.0","A1N8TKTLXV92QR","img_art/ins/popularity/ins3ALikespop.png","0","instructions","","","","","","","","","","","","","","","","","","","","","","","",""
"6695","","image-button-response_instructions","13","226481","0.0-13.0","A1N8TKTLXV92QR","img_art/ins/popularity/ins3KEEPpop.PNG","0","instructions","","","","","","","","","","","","","","","","","","","","","","","",""
"11361","","image-button-response_instructions","14","237843","0.0-14.0","A1N8TKTLXV92QR","img_art/ins/popularity/ins3_5RED.png","0","instructions","","","","","","","","","","","","","","","","","","","","","","","",""
"5063","","image-button-response_instructions","15","242906","0.0-15.0","A1N8TKTLXV92QR","img_art/ins/popularity/ins3KEEPpop.PNG","0","instructions","","","","","","","","","","","","","","","","","","","","","","","",""
"9897","","image-button-response_instructions","16","252804","0.0-16.0","A1N8TKTLXV92QR","img_art/ins/popularity/ins4KEEPpop.PNG","0","instructions","","","","","","","","","","","","","","","","","","","","","","","",""
"3527","","image-button-response_instructions","17","256333","0.0-17.0","A1N8TKTLXV92QR","img_art/ins/popularity/ins5KEEPpop.PNG","0","instructions","","","","","","","","","","","","","","","","","","","","","","","",""
"2775","","image-button-response_instructions","18","259109","0.0-18.0","A1N8TKTLXV92QR","","0","instructions","","","","","","","","","","","","","","","","","","","","","","","",""
"11130","","survey-text","19","270263","0.0-19.0-0.0","A1N8TKTLXV92QR","","","","{""Q0"":""but""}","","","","","","","","","","","","","","","","","","","","","","",""
"28513","","survey-text","20","298777","0.0-20.0-0.0","A1N8TKTLXV92QR","","","","{""Q0"":""Looks like a 3 year-old got into the paint in the garage""}","","","","","","","","","","","","","","","","","","","","","","",""
"4926.600000023842","","image-slider-response","21","303707","0.0-21.0","A1N8TKTLXV92QR","","","","","-33","","","","","","","","","","","","","","","","","","","","","",""
"null","","image-button-response","22","308713","0.0-22.0","A1N8TKTLXV92QR","img_art/ins/1.jpg","null","","","","","","","","","","","","","","","","","","","","","","","","",""
"4085","","image-button-response","23","312802","0.0-23.0","A1N8TKTLXV92QR","img_art/ins/1.jpg","0","","","","","","","","","","","","","","","","","","","","","","","","",""
"7375","","image-button-response","24","320180","0.0-24.0-0.0","A1N8TKTLXV92QR","img_art/ins/1.jpg","3","","","","","","","","","","","","","","","","","","","","","","","","",""
"6616","","image-button-response","25","326798","0.0-25.0-0.0","A1N8TKTLXV92QR","img_art/ins/1.jpg","4","","","","","","","","","","","","","","","","","","","","","","","","",""
"null","","html-keyboard-response","26","327809","0.0-26.0","A1N8TKTLXV92QR","<p style=""font-size: 48px;"">+</p>","","","","","null","allTrialResponses","1000","1","-2","img_art/ins/1.jpg","-33","Looks like a 3 year-old got into the paint in the garage","Adam,Alex,Ben,Carl,Daniel,Jack","Seems like doodles,-20,20,20","very creative work.,36,40,20","This color reminds me of poo,-46,60,20","very calming artwork,42,80,20","It looks like a murder scene.,-48,100,20","I like the sophisticated brushwork,40,120,20","Adam","Seems like doodles,-20,20,20","Carl","very calming artwork,42,80,20","Daniel","It looks like a murder scene.,-48,100,20","0"
"28879","","survey-text","27","356692","0.0-27.0-0.0","A1N8TKTLXV92QR","","","","{""Q0"":""Interesting with good color but it looks kind of angry""}","","","","","","","","","","","","","","","","","","","","","","",""
"8303.800000071526","","image-slider-response","28","364997","0.0-28.0","A1N8TKTLXV92QR","","","","","10","","","","","","","","","","","","","","","","","","","","","",""
"null","","image-button-response","29","370000","0.0-29.0","A1N8TKTLXV92QR","img_art/ins/2.jpg","null","","","","","","","","","","","","","","","","","","","","","","","","",""
"5635","","image-button-response","30","375639","0.0-30.0","A1N8TKTLXV92QR","img_art/ins/2.jpg","2","","","","","","","","","","","","","","","","","","","","","","","","",""
"4015","","image-button-response","31","379656","0.0-31.0-0.0","A1N8TKTLXV92QR","img_art/ins/2.jpg","1","","","","","","","","","","","","","","","","","","","","","","","","",""
"5878","","image-button-response","32","385536","0.0-32.0-0.0","A1N8TKTLXV92QR","img_art/ins/2.jpg","3","","","","","","","","","","","","","","","","","","","","","","","","",""
"null","","html-keyboard-response","33","387047","0.0-33.0","A1N8TKTLXV92QR","<p style=""font-size: 48px;"">+</p>","","","","","null","allTrialResponses","1500","1","-1","img_art/ins/2.jpg","10","Interesting with good color but it looks kind of angry","Adam,James,John,Carl,Daniel,Kyle","too much color,-18,20,20","looks too angry,-50,140,20","love the texture of paint,48,160,20","I can feel the artist's passion in it,45,80,20","One of my pet peevs,-48,100,20","Idk, it is just annoying,-32,180,20","John","love the texture of paint,48,160,20","James","looks too angry,-50,140,20","Carl","I can feel the artist's passion in it,45,80,20","0"
"16387","","survey-text","34","403445","0.0-34.0-0.0","A1N8TKTLXV92QR","","","","{""Q0"":""It literally seems cold like the artic""}","","","","","","","","","","","","","","","","","","","","","","",""
"3494.7999999523163","","image-slider-response","35","406941","0.0-35.0","A1N8TKTLXV92QR","","","","","20","","","","","","","","","","","","","","","","","","","","","",""
"2822","","image-button-response","36","411944","0.0-36.0","A1N8TKTLXV92QR","img_art/ins/3.jpg","0","","","","","","","","","","","","","","","","","","","","","","","","",""
"938","","image-button-response","37","412886","0.0-37.0","A1N8TKTLXV92QR","img_art/ins/3.jpg","0","","","","","","","","","","","","","","","","","","","","","","","","",""
"3614","","image-button-response","38","416502","0.0-38.0-0.0","A1N8TKTLXV92QR","img_art/ins/3.jpg","5","","","","","","","","","","","","","","","","","","","","","","","","",""
"3918","","image-button-response","39","420423","0.0-39.0-0.0","A1N8TKTLXV92QR","img_art/ins/3.jpg","2","","","","","","","","","","","","","","","","","","","","","","","","",""
"null","","html-keyboard-response","40","420924","0.0-40.0","A1N8TKTLXV92QR","<p style=""font-size: 48px;"">+</p>","","","","","null","allTrialResponses","500","1","0","img_art/ins/3.jpg","20","It literally seems cold like the artic","Mike,James,John,Carl,Ron,Sam","enjoy the different shades of blue,22,200,20","My worst nightmare,-42,140,20","I like the overlapping of brushes,41,160,20","It's an alright work,15,80,20","It looks depressing,-26,220,20","I can feel a rainy day from this painting,18,240,20","Mike","enjoy the different shades of blue,22,200,20","Sam","I can feel a rainy day from this painting,18,240,20","John","I like the overlapping of brushes,41,160,20","0"
"3591","","image-button-response_instructions","41","424519","0.0-41.0","A1N8TKTLXV92QR","","0","instructions","","","","","","","","","","","","","","","","","","","","","","","",""
"15888","","survey-likert","42","440410","0.0-42.0-0.0","A1N8TKTLXV92QR","","","","{""Q0"":"""",""Q1"":0,""Q2"":1}","","","","","","","","","","","","","","","","","","","","","","",""
"5391","","survey-text","43","445810","0.0-43.0-0.0","A1N8TKTLXV92QR","","","","{""Q0"":""rock""}","","","","","","","","","","","","","","","","","","","","","","",""
"21942","","survey-text","44","467753","0.0-44.0-0.0","A1N8TKTLXV92QR","","","","{""Q0"":""Kind of boring but interesting at the same time""}","","","","","","","","","","","","","","","","","","","","","","",""
"3669.7999999523163","","image-slider-response","45","471424","0.0-45.0","A1N8TKTLXV92QR","","","","","10","","","","","","","","","","","","","","","","","","","","","",""
"null","","image-button-response","46","476455","0.0-46.0","A1N8TKTLXV92QR","img_art/15.jpg","null","","","","","","","","","","","","","","","","","","","","","","","","",""
"1664","","image-button-response","47","478122","0.0-47.0","A1N8TKTLXV92QR","img_art/15.jpg","3","","","","","","","","","","","","","","","","","","","","","","","","",""
"9686","","image-button-response","48","487810","0.0-48.0-0.0","A1N8TKTLXV92QR","img_art/15.jpg","1","","","","","","","","","","","","","","","","","","","","","","","","",""
"4567","","image-button-response","49","492379","0.0-49.0-0.0","A1N8TKTLXV92QR","img_art/15.jpg","2","","","","","","","","","","","","","","","","","","","","","","","","",""
"null","","html-keyboard-response","50","493395","0.0-50.0","A1N8TKTLXV92QR","<p style=""font-size: 48px;"">+</p>","","","","","null","allTrialResponses","1000","1","1","img_art/15.jpg","10","Kind of boring but interesting at the same time","Patrick,Bryan,Gregory,Timothy,Brett,Chase","I don't like the black dots,-19,280,20","Interesting. Reminds me of a biopsy slide.,21,400,20","Black and blue is my favorite color combination,35,220,20","This painting gives a calm vibe but no stronger emotions than that,10,240,20","I don't know how I feel about this,31,360,20","I don't like how the black dots are aligned.,-20,120,20","Timothy","This painting gives a calm vibe but no stronger emotions than that,10,240,20","Bryan","Interesting. Reminds me of a biopsy slide.,21,400,20","Gregory","Black and blue is my favorite color combination,35,220,20","0"
"19778","","survey-text","51","513186","0.0-51.0-0.0","A1N8TKTLXV92QR","","","","{""Q0"":""Looks like a dirty musical instrument""}","","","","","","","","","","","","","","","","","","","","","","",""
"3390.7999999523163","","image-slider-response","52","516579","0.0-52.0","A1N8TKTLXV92QR","","","","","-16","","","","","","","","","","","","","","","","","","","","","",""
"4543","","image-button-response","53","521593","0.0-53.0","A1N8TKTLXV92QR","img_art/10.jpg","1","","","","","","","","","","","","","","","","","","","","","","","","",""
"840","","image-button-response","54","522436","0.0-54.0","A1N8TKTLXV92QR","img_art/10.jpg","1","","","","","","","","","","","","","","","","","","","","","","","","",""
"8222","","image-button-response","55","530661","0.0-55.0-0.0","A1N8TKTLXV92QR","img_art/10.jpg","5","","","","","","","","","","","","","","","","","","","","","","","","",""
"8878","","image-button-response","56","539541","0.0-56.0-0.0","A1N8TKTLXV92QR","img_art/10.jpg","0","","","","","","","","","","","","","","","","","","","","","","","","",""
"null","","html-keyboard-response","57","541046","0.0-57.0","A1N8TKTLXV92QR","<p style=""font-size: 48px;"">+</p>","","","","","null","allTrialResponses","1500","1","2","img_art/10.jpg","-16","Looks like a dirty musical instrument","Jesus,Bryan,Gregory,Timothy,Scott,Nicholas","The design is very fluid and fun to interpret,35,100,20","First impression was musical instrument then, because of the gray colors, death.,5,400,20","Well done designs for being considered abstract,45,220,20","Love the monotonal texture,20,240,20","kind of reminds me of a map,1,20,20","I like it but do not love it. It is sort of depressing,13,240,20","Bryan","First impression was musical instrument then, because of the gray colors, death.,5,400,20","Nicholas","I like it but do not love it. It is sort of depressing,13,240,20","Jesus","The design is very fluid and fun to interpret,35,100,20","0"
"26780","","survey-text","58","567841","0.0-58.0-0.0","A1N8TKTLXV92QR","","","","{""Q0"":""Looks like a driveway in Columbia - boring""}","","","","","","","","","","","","","","","","","","","","","","",""
"3471.7999999523163","","image-slider-response","59","571314","0.0-59.0","A1N8TKTLXV92QR","","","","","-32","","","","","","","","","","","","","","","","","","","","","",""
"null","","image-button-response","60","576332","0.0-60.0","A1N8TKTLXV92QR","img_art/7.jpg","null","","","","","","","","","","","","","","","","","","","","","","","","",""
"1626","","image-button-response","61","577963","0.0-61.0","A1N8TKTLXV92QR","img_art/7.jpg","1","","","","","","","","","","","","","","","","","","","","","","","","",""
"9775","","image-button-response","62","587740","0.0-62.0-0.0","A1N8TKTLXV92QR","img_art/7.jpg","3","","","","","","","","","","","","","","","","","","","","","","","","",""
"2918","","image-button-response","63","590661","0.0-63.0-0.0","A1N8TKTLXV92QR","img_art/7.jpg","5","","","","","","","","","","","","","","","","","","","","","","","","",""
"null","","html-keyboard-response","64","591663","0.0-64.0","A1N8TKTLXV92QR","<p style=""font-size: 48px;"">+</p>","","","","","null","allTrialResponses","1000","1","3","img_art/7.jpg","-32","Looks like a driveway in Columbia - boring","Jesus,Bryan,Jose,Dylan,Jesse,Nicholas","Is simple in color and texture,11,100,20","Makes me itch - looks like a closeup of an ant colony or something.,-1,400,20","Reminds me of bugs, I hate bugs,-7,200,20","I do not like the boring colors in this.,-20,40,20","Makes me think of the beach which makes me happy,14,80,20","Makes me want to feel it,19,240,20","Bryan","Makes me itch - looks like a closeup of an ant colony or something.,-1,400,20","Dylan","I do not like the boring colors in this.,-20,40,20","Nicholas","Makes me want to feel it,19,240,20","0"
"20267","","survey-text","65","611945","0.0-65.0-0.0","A1N8TKTLXV92QR","","","","{""Q0"":""It's fun to look at and guess what it is""}","","","","","","","","","","","","","","","","","","","","","","",""
"3846.899999976158","","image-slider-response","66","615793","0.0-66.0","A1N8TKTLXV92QR","","","","","29","","","","","","","","","","","","","","","","","","","","","",""
"null","","image-button-response","67","620808","0.0-67.0","A1N8TKTLXV92QR","img_art/28.jpg","null","","","","","","","","","","","","","","","","","","","","","","","","",""
"5768","","image-button-response","68","626579","0.0-68.0","A1N8TKTLXV92QR","img_art/28.jpg","5","","","","","","","","","","","","","","","","","","","","","","","","",""
"4326","","image-button-response","69","630909","0.0-69.0-0.0","A1N8TKTLXV92QR","img_art/28.jpg","3","","","","","","","","","","","","","","","","","","","","","","","","",""
"1309","","image-button-response","70","632221","0.0-70.0-0.0","A1N8TKTLXV92QR","img_art/28.jpg","1","","","","","","","","","","","","","","","","","","","","","","","","",""
"null","","html-keyboard-response","71","633725","0.0-71.0","A1N8TKTLXV92QR","<p style=""font-size: 48px;"">+</p>","","","","","null","allTrialResponses","1500","1","4","img_art/28.jpg","29","It's fun to look at and guess what it is","Spencer,Bryan,Elijah,Dylan,Jake,Nicholas","Too me it's a mish mash, true abstract,-37,120,20","A meeting in Old Jerusalem.,11,400,20","The colors are depressing,-5,80,20","Boring, looks like it belongs in a coffee shop,-20,40,20","This is very ugly with poor colors.,-23,360,20","Interesting and weird. Perfect conversational piece,33,240,20","Nicholas","Interesting and weird. Perfect conversational piece,33,240,20","Dylan","Boring, looks like it belongs in a coffee shop,-20,40,20","Bryan","A meeting in Old Jerusalem.,11,400,20","0"
"25303","","survey-text","72","659044","0.0-72.0-0.0","A1N8TKTLXV92QR","","","","{""Q0"":""Cool and mystic ""}","","","","","","","","","","","","","","","","","","","","","","",""
"3887.2999999523163","","image-slider-response","73","662933","0.0-73.0","A1N8TKTLXV92QR","","","","","39","","","","","","","","","","","","","","","","","","","","","",""
"4343","","image-button-response","74","667950","0.0-74.0","A1N8TKTLXV92QR","img_art/17.jpg","1","","","","","","","","","","","","","","","","","","","","","","","","",""
"2413","","image-button-response","75","670366","0.0-75.0","A1N8TKTLXV92QR","img_art/17.jpg","1","","","","","","","","","","","","","","","","","","","","","","","","",""
"5606","","image-button-response","76","675975","0.0-76.0-0.0","A1N8TKTLXV92QR","img_art/17.jpg","3","","","","","","","","","","","","","","","","","","","","","","","","",""
"5120","","image-button-response","77","681096","0.0-77.0-0.0","A1N8TKTLXV92QR","img_art/17.jpg","2","","","","","","","","","","","","","","","","","","","","","","","","",""
"null","","html-keyboard-response","78","682606","0.0-78.0","A1N8TKTLXV92QR","<p style=""font-size: 48px;"">+</p>","","","","","null","allTrialResponses","1500","1","5","img_art/17.jpg","39","Cool and mystic ","Mark,Bryan,Mason,Dylan,Peter,Nicholas","A coming storm but I think I would appreciate it more with more contrast.,-12,80,20","Reminds me of winters in Minnesota.,48,400,20","Like this one, super creative, calming.,43,100,20","This is very beautiful and elegant.,42,40,20","I feel okay , it's like a tree,28,320,20","Nice colors, shapes, flow,31,240,20","Bryan","Reminds me of winters in Minnesota.,48,400,20","Dylan","This is very beautiful and elegant.,42,40,20","Mason","Like this one, super creative, calming.,43,100,20","0"
"4509","","survey-text","79","687129","0.0-79.0-0.0","A1N8TKTLXV92QR","","","","{""Q0"":""sky""}","","","","","","","","","","","","","","","","","","","","","","",""
"19998","","survey-text","80","707128","0.0-80.0-0.0","A1N8TKTLXV92QR","","","","{""Q0"":""No detail and messy looking""}","","","","","","","","","","","","","","","","","","","","","","",""
"2934.399999976158","","image-slider-response","81","710064","0.0-81.0","A1N8TKTLXV92QR","","","","","-28","","","","","","","","","","","","","","","","","","","","","",""
"4774","","image-button-response","82","715068","0.0-82.0","A1N8TKTLXV92QR","img_art/20.jpg","4","","","","","","","","","","","","","","","","","","","","","","","","",""
"1269","","image-button-response","83","716339","0.0-83.0","A1N8TKTLXV92QR","img_art/20.jpg","4","","","","","","","","","","","","","","","","","","","","","","","","",""
"813","","image-button-response","84","717153","0.0-84.0-0.0","A1N8TKTLXV92QR","img_art/20.jpg","0","","","","","","","","","","","","","","","","","","","","","","","","",""
"959","","image-button-response","85","718114","0.0-85.0-0.0","A1N8TKTLXV92QR","img_art/20.jpg","2","","","","","","","","","","","","","","","","","","","","","","","","",""
"null","","html-keyboard-response","86","719117","0.0-86.0","A1N8TKTLXV92QR","<p style=""font-size: 48px;"">+</p>","","","","","null","allTrialResponses","1000","1","6","img_art/20.jpg","-28","No detail and messy looking","Brian,Bryan,Mason,Dylan,Juan,Kyle","The colors are nice, and the shapes conjure the decay of the city in the face of natural entropy,19,380,20","Reminds me of Georgia O'Keefe.,11,400,20","Very cool, and calming (again) Love it.,47,100,20","The white blob looks like a face and it's creepy,-30,40,20","I like the deep blues, but I don't like the way this picture makes me feel.,-13,260,20","This one is okay but I don't really care for it,5,340,20","Juan","I like the deep blues, but I don't like the way this picture makes me feel.,-13,260,20","Brian","The colors are nice, and the shapes conjure the decay of the city in the face of natural entropy,19,380,20","Mason","Very cool, and calming (again) Love it.,47,100,20","0"
"21741","","survey-text","87","740874","0.0-87.0-0.0","A1N8TKTLXV92QR","","","","{""Q0"":""Very interesting like a ghost or robot or ???""}","","","","","","","","","","","","","","","","","","","","","","",""
"3230.1999999284744","","image-slider-response","88","744106","0.0-88.0","A1N8TKTLXV92QR","","","","","26","","","","","","","","","","","","","","","","","","","","","",""
"1254","","image-button-response","89","749109","0.0-89.0","A1N8TKTLXV92QR","img_art/25.jpg","1","","","","","","","","","","","","","","","","","","","","","","","","",""
"490","","image-button-response","90","749603","0.0-90.0","A1N8TKTLXV92QR","img_art/25.jpg","0","","","","","","","","","","","","","","","","","","","","","","","","",""
"1101","","image-button-response","91","750707","0.0-91.0-0.0","A1N8TKTLXV92QR","img_art/25.jpg","3","","","","","","","","","","","","","","","","","","","","","","","","",""
"1919","","image-button-response","92","752628","0.0-92.0-0.0","A1N8TKTLXV92QR","img_art/25.jpg","5","","","","","","","","","","","","","","","","","","","","","","","","",""
"null","","html-keyboard-response","93","753137","0.0-93.0","A1N8TKTLXV92QR","<p style=""font-size: 48px;"">+</p>","","","","","null","allTrialResponses","500","1","7","img_art/25.jpg","26","Very interesting like a ghost or robot or ???","Brian,Angel,Mason,Anthony,Juan,Alexander","the color is pleasing and draws out the contrast of the lines,10,380,20","I feel uneasy. Like watching someone powerful ready to perform a ritual, but I don't know their intentions.,-10,180,20","death. childish nightmare.,-29,100,20","Spooky, but in a good way. I like the green and black color palette.,42,200,20","I don't like the color. I don't like the abstract-ness of it.,-22,260,20","Ancient gods above you.,20,120,20","Brian","the color is pleasing and draws out the contrast of the lines,10,380,20","Anthony","Spooky, but in a good way. I like the green and black color palette.,42,200,20","Alexander","Ancient gods above you.,20,120,20","0"
"23154","","survey-text","94","776311","0.0-94.0-0.0","A1N8TKTLXV92QR","","","","{""Q0"":""Very thought provoking and fun to ponder upon""}","","","","","","","","","","","","","","","","","","","","","","",""
"3294","","image-slider-response","95","779606","0.0-95.0","A1N8TKTLXV92QR","","","","","39","","","","","","","","","","","","","","","","","","","","","",""
"4958","","image-button-response","96","784611","0.0-96.0","A1N8TKTLXV92QR","img_art/18.jpg","4","","","","","","","","","","","","","","","","","","","","","","","","",""
"737","","image-button-response","97","785352","0.0-97.0","A1N8TKTLXV92QR","img_art/18.jpg","0","","","","","","","","","","","","","","","","","","","","","","","","",""
"1302","","image-button-response","98","786656","0.0-98.0-0.0","A1N8TKTLXV92QR","img_art/18.jpg","2","","","","","","","","","","","","","","","","","","","","","","","","",""
"734","","image-button-response","99","787392","0.0-99.0-0.0","A1N8TKTLXV92QR","img_art/18.jpg","4","","","","","","","","","","","","","","","","","","","","","","","","",""
"null","","html-keyboard-response","100","788904","0.0-100.0","A1N8TKTLXV92QR","<p style=""font-size: 48px;"">+</p>","","","","","null","allTrialResponses","1500","1","8","img_art/18.jpg","39","Very thought provoking and fun to ponder upon","Brian,Adam,Thomas,Anthony,Lucas,Alexander","Very classy, I feel like it's the apocalypse.,25,380,20","Colors are okay. Reminds me of cavalry.,10,40,20","I could stare at this for long stretches of time and still find new details. I love it.,40,220,20","I have no strong feelings about this image,1,200,20","White and yellow look awesome and the picture's dynamics are wonderful.,30,380,20","Ghostly sea adventure.,20,120,20","Brian","Very classy, I feel like it's the apocalypse.,25,380,20","Thomas","I could stare at this for long stretches of time and still find new details. I love it.,40,220,20","Lucas","White and yellow look awesome and the picture's dynamics are wonderful.,30,380,20","0"
"15096","","survey-text","101","804022","0.0-101.0-0.0","A1N8TKTLXV92QR","","","","{""Q0"":""Just looks like an car accident""}","","","","","","","","","","","","","","","","","","","","","","",""
"2470.2999999523163","","image-slider-response","102","806494","0.0-102.0","A1N8TKTLXV92QR","","","","","-40","","","","","","","","","","","","","","","","","","","","","",""
"3414","","image-button-response","103","811498","0.0-103.0","A1N8TKTLXV92QR","img_art/1.jpg","0","","","","","","","","","","","","","","","","","","","","","","","","",""
"881","","image-button-response","104","812383","0.0-104.0","A1N8TKTLXV92QR","img_art/1.jpg","0","","","","","","","","","","","","","","","","","","","","","","","","",""
"3903","","image-button-response","105","816288","0.0-105.0-0.0","A1N8TKTLXV92QR","img_art/1.jpg","5","","","","","","","","","","","","","","","","","","","","","","","","",""
"813","","image-button-response","106","817104","0.0-106.0-0.0","A1N8TKTLXV92QR","img_art/1.jpg","2","","","","","","","","","","","","","","","","","","","","","","","","",""
"null","","html-keyboard-response","107","818112","0.0-107.0","A1N8TKTLXV92QR","<p style=""font-size: 48px;"">+</p>","","","","","null","allTrialResponses","1000","1","9","img_art/1.jpg","-40","Just looks like an car accident","Brian,Connor,Thomas,Grant,Lucas,Stephen","I don't feel like much is happening in this painting,-25,380,20","Love the coloration and abstract figures,18,240,20","Pleasant, but a tad too monochromatic in some areas for my taste,7,220,20","The use of reds, blues, and yellows together reminds me of fire. Very interesting to look at.,40,200,20","The colors match and create a nice artistic disorder.,20,380,20","Nothing really going on but good color choices.,-3,140,20","Brian","I don't feel like much is happening in this painting,-25,380,20","Stephen","Nothing really going on but good color choices.,-3,140,20","Thomas","Pleasant, but a tad too monochromatic in some areas for my taste,7,220,20","0"
"20449","","survey-text","108","838581","0.0-108.0-0.0","A1N8TKTLXV92QR","","","","{""Q0"":""My kid did something similar in the 1st grade""}","","","","","","","","","","","","","","","","","","","","","","",""
"4127.399999976158","","image-slider-response","109","842710","0.0-109.0","A1N8TKTLXV92QR","","","","","-41","","","","","","","","","","","","","","","","","","","","","",""
"3694","","image-button-response","110","847714","0.0-110.0","A1N8TKTLXV92QR","img_art/5.jpg","3","","","","","","","","","","","","","","","","","","","","","","","","",""
"970","","image-button-response","111","848688","0.0-111.0","A1N8TKTLXV92QR","img_art/5.jpg","3","","","","","","","","","","","","","","","","","","","","","","","","",""
"3213","","image-button-response","112","851903","0.0-112.0-0.0","A1N8TKTLXV92QR","img_art/5.jpg","5","","","","","","","","","","","","","","","","","","","","","","","","",""
"1703","","image-button-response","113","853607","0.0-113.0-0.0","A1N8TKTLXV92QR","img_art/5.jpg","4","","","","","","","","","","","","","","","","","","","","","","","","",""
"null","","html-keyboard-response","114","854121","0.0-114.0","A1N8TKTLXV92QR","<p style=""font-size: 48px;"">+</p>","","","","","null","allTrialResponses","500","1","10","img_art/5.jpg","-41","My kid did something similar in the 1st grade","Brian,David,Thomas,Tanner,Ian,Stephen","I like this one but wish it had more context around it,18,380,20","I like the simplicity of the design, but I can't tell what the image is trying to depict.,10,340,20","I'm confused by what I am looking at,-3,220,20","sharp, painful yet playful,-5,180,20","This either looks like a bell or aliens finishing the pyramids,-34,260,20","Very little going on.,-4,140,20","Tanner","sharp, painful yet playful,-5,180,20","Stephen","Very little going on.,-4,140,20","Ian","This either looks like a bell or aliens finishing the pyramids,-34,260,20","0"
"4767","","survey-text","115","858927","0.0-115.0-0.0","A1N8TKTLXV92QR","","","","{""Q0"":""our""}","","","","","","","","","","","","","","","","","","","","","","",""
"12849","","survey-text","116","871777","0.0-116.0-0.0","A1N8TKTLXV92QR","","","","{""Q0"":""Chess board gone wrong""}","","","","","","","","","","","","","","","","","","","","","","",""
"4207.100000023842","","image-slider-response","117","875986","0.0-117.0","A1N8TKTLXV92QR","","","","","-38","","","","","","","","","","","","","","","","","","","","","",""
"4190","","image-button-response","118","880989","0.0-118.0","A1N8TKTLXV92QR","img_art/12.jpg","0","","","","","","","","","","","","","","","","","","","","","","","","",""
"891","","image-button-response","119","881884","0.0-119.0","A1N8TKTLXV92QR","img_art/12.jpg","0","","","","","","","","","","","","","","","","","","","","","","","","",""
"893","","image-button-response","120","882778","0.0-120.0-0.0","A1N8TKTLXV92QR","img_art/12.jpg","4","","","","","","","","","","","","","","","","","","","","","","","","",""
"3720","","image-button-response","121","886501","0.0-121.0-0.0","A1N8TKTLXV92QR","img_art/12.jpg","5","","","","","","","","","","","","","","","","","","","","","","","","",""
"null","","html-keyboard-response","122","888006","0.0-122.0","A1N8TKTLXV92QR","<p style=""font-size: 48px;"">+</p>","","","","","null","allTrialResponses","1500","1","11","img_art/12.jpg","-38","Chess board gone wrong","Adrian,Taylor,Corey,Tanner,Ian,Stephen","Ugly colors and I'm just not too much a fan of cubist abstract art.,-50,60,20","Just wish it was more colorful.,20,200,20","I like the bottom half and hate the top half,7,260,20","stressful, upsetting,-10,180,20","This is like going to a really old mcdoanlds in a tiny town and it's never been renovated so it's breaking down,-31,260,20","Comes off as a bit boring.,-11,140,20","Adrian","Ugly colors and I'm just not too much a fan of cubist abstract art.,-50,60,20","Ian","This is like going to a really old mcdoanlds in a tiny town and it's never been renovated so it's breaking down,-31,260,20","Stephen","Comes off as a bit boring.,-11,140,20","0"
"26607","","survey-text","123","914635","0.0-123.0-0.0","A1N8TKTLXV92QR","","","","{""Q0"":""Like a splat on the windshield - lots of clean up ""}","","","","","","","","","","","","","","","","","","","","","","",""
"3335.1999999284744","","image-slider-response","124","917971","0.0-124.0","A1N8TKTLXV92QR","","","","","-29","","","","","","","","","","","","","","","","","","","","","",""
"null","","image-button-response","125","922975","0.0-125.0","A1N8TKTLXV92QR","img_art/13.jpg","null","","","","","","","","","","","","","","","","","","","","","","","","",""
"1441","","image-button-response","126","924419","0.0-126.0","A1N8TKTLXV92QR","img_art/13.jpg","0","","","","","","","","","","","","","","","","","","","","","","","","",""
"982","","image-button-response","127","925403","0.0-127.0-0.0","A1N8TKTLXV92QR","img_art/13.jpg","3","","","","","","","","","","","","","","","","","","","","","","","","",""
"751","","image-button-response","128","926156","0.0-128.0-0.0","A1N8TKTLXV92QR","img_art/13.jpg","4","","","","","","","","","","","","","","","","","","","","","","","","",""
"null","","html-keyboard-response","129","927158","0.0-129.0","A1N8TKTLXV92QR","<p style=""font-size: 48px;"">+</p>","","","","","null","allTrialResponses","1000","1","12","img_art/13.jpg","-29","Like a splat on the windshield - lots of clean up ","Adrian,Brandon,Dakota,Noah,Ian,Stephen","I find this oddly pleasant, but I object to this style. It's just a background with splatters. How is that art?,-5,60,20","Simple, but pleasing. The blue gradient is a favorite of mine,32,320,20","water on my shower curtain - I feel refreshed, renewed,9,280,20","evokes a dampening feeling,-9,260,20","This looks like something that could be made off of windows paint, not a huge fan.,-30,260,20","Like how realistic it looks.,33,140,20","Adrian","I find this oddly pleasant, but I object to this style. It's just a background with splatters. How is that art?,-5,60,20","Noah","evokes a dampening feeling,-9,260,20","Ian","This looks like something that could be made off of windows paint, not a huge fan.,-30,260,20","0"
"27271","","survey-text","130","954454","0.0-130.0-0.0","A1N8TKTLXV92QR","","","","{""Q0"":""Someone lost a key in a rainbow, it's OK and colorful""}","","","","","","","","","","","","","","","","","","","","","","",""
"3655.7000000476837","","image-slider-response","131","958112","0.0-131.0","A1N8TKTLXV92QR","","","","","3","","","","","","","","","","","","","","","","","","","","","",""
"null","","image-button-response","132","963130","0.0-132.0","A1N8TKTLXV92QR","img_art/22.jpg","null","","","","","","","","","","","","","","","","","","","","","","","","",""
"4652","","image-button-response","133","967786","0.0-133.0","A1N8TKTLXV92QR","img_art/22.jpg","3","","","","","","","","","","","","","","","","","","","","","","","","",""
"1942","","image-button-response","134","969730","0.0-134.0-0.0","A1N8TKTLXV92QR","img_art/22.jpg","1","","","","","","","","","","","","","","","","","","","","","","","","",""
"668","","image-button-response","135","970400","0.0-135.0-0.0","A1N8TKTLXV92QR","img_art/22.jpg","4","","","","","","","","","","","","","","","","","","","","","","","","",""
"null","","html-keyboard-response","136","971412","0.0-136.0","A1N8TKTLXV92QR","<p style=""font-size: 48px;"">+</p>","","","","","null","allTrialResponses","1000","1","13","img_art/22.jpg","3","Someone lost a key in a rainbow, it's OK and colorful","Adrian,Alexis,Paul,Noah,Ian,Evan","Too much contrasting colors makes me feel anxious. I don't like it.,-20,60,20","Neither like nor dislike it. The red, yellow and blue colors are bright but I don't know what it's meant to be.,1,140,20","I really like the bright colors and sunset feel,31,300,20","displeasure - not a fan of the colour or the shapes,-18,260,20","Its very warm, it reminds of someone not liking their painting so they destoryed it,26,260,20","I enjoy the vibrant colors,23,140,20","Noah","displeasure - not a fan of the colour or the shapes,-18,260,20","Alexis","Neither like nor dislike it. The red, yellow and blue colors are bright but I don't know what it's meant to be.,1,140,20","Ian","Its very warm, it reminds of someone not liking their painting so they destoryed it,26,260,20","0"
"27683","","survey-text","137","999119","0.0-137.0-0.0","A1N8TKTLXV92QR","","","","{""Q0"":""It is thought provoking but too many colors""}","","","","","","","","","","","","","","","","","","","","","","",""
"2670.100000023842","","image-slider-response","138","1001791","0.0-138.0","A1N8TKTLXV92QR","","","","","11","","","","","","","","","","","","","","","","","","","","","",""
"null","","image-button-response","139","1006803","0.0-139.0","A1N8TKTLXV92QR","img_art/23.jpg","null","","","","","","","","","","","","","","","","","","","","","","","","",""
"1969","","image-button-response","140","1008776","0.0-140.0","A1N8TKTLXV92QR","img_art/23.jpg","4","","","","","","","","","","","","","","","","","","","","","","","","",""
"1710","","image-button-response","141","1010488","0.0-141.0-0.0","A1N8TKTLXV92QR","img_art/23.jpg","1","","","","","","","","","","","","","","","","","","","","","","","","",""
"5198","","image-button-response","142","1015689","0.0-142.0-0.0","A1N8TKTLXV92QR","img_art/23.jpg","3","","","","","","","","","","","","","","","","","","","","","","","","",""
"null","","html-keyboard-response","143","1017190","0.0-143.0","A1N8TKTLXV92QR","<p style=""font-size: 48px;"">+</p>","","","","","null","allTrialResponses","1500","1","14","img_art/23.jpg","11","It is thought provoking but too many colors","Antonio,Alexis,Luis,Noah,Ian,Devin","Like the colors and made me feel happy,23,220,20","It looks like a parade of musicians full of excitement. Makes me feel upbeat,33,140,20","I dont like the chaos of this,-20,400,20","the pattern of colours imbues in me a sense of infinity, which I find soothing,10,260,20","It's very colorful and different, the white looks like people dancing,26,260,20","background is great but the white is a bit weird,3,380,20","Ian","It's very colorful and different, the white looks like people dancing,26,260,20","Alexis","It looks like a parade of musicians full of excitement. Makes me feel upbeat,33,140,20","Noah","the pattern of colours imbues in me a sense of infinity, which I find soothing,10,260,20","0"
"28250","","survey-text","144","1045453","0.0-144.0-0.0","A1N8TKTLXV92QR","","","","{""Q0"":""Interesting but it doesn't look happy""}","","","","","","","","","","","","","","","","","","","","","","",""
"3759","","image-slider-response","145","1049213","0.0-145.0","A1N8TKTLXV92QR","","","","","-17","","","","","","","","","","","","","","","","","","","","","",""
"1637","","image-button-response","146","1054220","0.0-146.0","A1N8TKTLXV92QR","img_art/11.jpg","1","","","","","","","","","","","","","","","","","","","","","","","","",""
"2391","","image-button-response","147","1056614","0.0-147.0","A1N8TKTLXV92QR","img_art/11.jpg","1","","","","","","","","","","","","","","","","","","","","","","","","",""
"1814","","image-button-response","148","1058430","0.0-148.0-0.0","A1N8TKTLXV92QR","img_art/11.jpg","0","","","","","","","","","","","","","","","","","","","","","","","","",""
"1887","","image-button-response","149","1060320","0.0-149.0-0.0","A1N8TKTLXV92QR","img_art/11.jpg","5","","","","","","","","","","","","","","","","","","","","","","","","",""
"null","","html-keyboard-response","150","1060828","0.0-150.0","A1N8TKTLXV92QR","<p style=""font-size: 48px;"">+</p>","","","","","null","allTrialResponses","500","1","15","img_art/11.jpg","-17","Interesting but it doesn't look happy","Ryan,Alexis,Devon,Noah,Ian,Jeffrey","It makes me feel angry and overwhelmed,-29,380,20","This photo makes me feel bleak,-16,140,20","a beautiful piece of art,33,400,20","I enjoy the kandinsky-like general vibe, but the grey brings me down a bit,27,260,20","This one is a little erie, gives me post-apocalyptic feeling,27,260,20","a lot of dark colours,-8,40,20","Alexis","This photo makes me feel bleak,-16,140,20","Ryan","It makes me feel angry and overwhelmed,-29,380,20","Jeffrey","a lot of dark colours,-8,40,20","0"
"8134","","survey-text","151","1069000","0.0-151.0-0.0","A1N8TKTLXV92QR","","","","{""Q0"":""course""}","","","","","","","","","","","","","","","","","","","","","","",""
"13685","","survey-text","152","1082687","0.0-152.0-0.0","A1N8TKTLXV92QR","","","","{""Q0"":""Too abstract and uninteresting""}","","","","","","","","","","","","","","","","","","","","","","",""
"2535.399999976158","","image-slider-response","153","1085223","0.0-153.0","A1N8TKTLXV92QR","","","","","-41","","","","","","","","","","","","","","","","","","","","","",""
"null","","image-button-response","154","1090231","0.0-154.0","A1N8TKTLXV92QR","img_art/21.jpg","null","","","","","","","","","","","","","","","","","","","","","","","","",""
"846","","image-button-response","155","1091080","0.0-155.0","A1N8TKTLXV92QR","img_art/21.jpg","4","","","","","","","","","","","","","","","","","","","","","","","","",""
"750","","image-button-response","156","1091832","0.0-156.0-0.0","A1N8TKTLXV92QR","img_art/21.jpg","3","","","","","","","","","","","","","","","","","","","","","","","","",""
"6855","","image-button-response","157","1098689","0.0-157.0-0.0","A1N8TKTLXV92QR","img_art/21.jpg","0","","","","","","","","","","","","","","","","","","","","","","","","",""
"null","","html-keyboard-response","158","1099191","0.0-158.0","A1N8TKTLXV92QR","<p style=""font-size: 48px;"">+</p>","","","","","null","allTrialResponses","500","1","16","img_art/21.jpg","-41","Too abstract and uninteresting","Ryan,Alexis,Colton,Carlos,Tyler,Jeffrey","Very calming and nice to look at,30,380,20","It makes me feel mellow or ""chill"". It makes me have a positive and calm mood,42,140,20","i enjoy the clash of colors, reminds me of a storm at sea,32,220,20","Motion, the light marks in the lower right corner are very appealing.,15,80,20","War! But then, what? And then, what of it? Intention seems incomplete, or not fully committed to.,-19,320,20","Relaxing and easy to look at,27,40,20","Tyler","War! But then, what? And then, what of it? Intention seems incomplete, or not fully committed to.,-19,320,20","Carlos","Motion, the light marks in the lower right corner are very appealing.,15,80,20","Ryan","Very calming and nice to look at,30,380,20","0"
"24915","","survey-text","159","1124116","0.0-159.0-0.0","A1N8TKTLXV92QR","","","","{""Q0"":""The green looks like avocado barf""}","","","","","","","","","","","","","","","","","","","","","","",""
"3311.600000023842","","image-slider-response","160","1127429","0.0-160.0","A1N8TKTLXV92QR","","","","","-35","","","","","","","","","","","","","","","","","","","","","",""
"4941","","image-button-response","161","1132434","0.0-161.0","A1N8TKTLXV92QR","img_art/2.jpg","2","","","","","","","","","","","","","","","","","","","","","","","","",""
"737","","image-button-response","162","1133173","0.0-162.0","A1N8TKTLXV92QR","img_art/2.jpg","2","","","","","","","","","","","","","","","","","","","","","","","","",""
"2583","","image-button-response","163","1135759","0.0-163.0-0.0","A1N8TKTLXV92QR","img_art/2.jpg","5","","","","","","","","","","","","","","","","","","","","","","","","",""
"1421","","image-button-response","164","1137182","0.0-164.0-0.0","A1N8TKTLXV92QR","img_art/2.jpg","3","","","","","","","","","","","","","","","","","","","","","","","","",""
"null","","html-keyboard-response","165","1137683","0.0-165.0","A1N8TKTLXV92QR","<p style=""font-size: 48px;"">+</p>","","","","","null","allTrialResponses","500","1","17","img_art/2.jpg","-35","The green looks like avocado barf","Ryan,Justin,Caleb,Carlos,Tyler,Jorge","Very simple and childish,40,380,20","This one feels rather flat and not engaging.,-15,280,20","Very gross colors. What were they thinking?,-47,40,20","The colors are soothing, but the composition feels thoughtless.,-11,80,20","Grim and overwhelming,-6,320,20","Confused and disoriented,-33,180,20","Caleb","Very gross colors. What were they thinking?,-47,40,20","Jorge","Confused and disoriented,-33,180,20","Carlos","The colors are soothing, but the composition feels thoughtless.,-11,80,20","0"
"35893","","survey-text","166","1173589","0.0-166.0-0.0","A1N8TKTLXV92QR","","","","{""Q0"":""Nice for a kids room but doesn't flow well""}","","","","","","","","","","","","","","","","","","","","","","",""
"3158.4000000953674","","image-slider-response","167","1176749","0.0-167.0","A1N8TKTLXV92QR","","","","","-18","","","","","","","","","","","","","","","","","","","","","",""
"null","","image-button-response","168","1181764","0.0-168.0","A1N8TKTLXV92QR","img_art/16.jpg","null","","","","","","","","","","","","","","","","","","","","","","","","",""
"2055","","image-button-response","169","1183822","0.0-169.0","A1N8TKTLXV92QR","img_art/16.jpg","1","","","","","","","","","","","","","","","","","","","","","","","","",""
"3695","","image-button-response","170","1187518","0.0-170.0-0.0","A1N8TKTLXV92QR","img_art/16.jpg","2","","","","","","","","","","","","","","","","","","","","","","","","",""
"2134","","image-button-response","171","1189654","0.0-171.0-0.0","A1N8TKTLXV92QR","img_art/16.jpg","0","","","","","","","","","","","","","","","","","","","","","","","","",""
"null","","html-keyboard-response","172","1191162","0.0-172.0","A1N8TKTLXV92QR","<p style=""font-size: 48px;"">+</p>","","","","","null","allTrialResponses","1500","1","18","img_art/16.jpg","-18","Nice for a kids room but doesn't flow well","Zachary,Daniel,Caleb,Carlos,Kenneth,Jorge","Not pleasing to the eyes. I do like that the gun is broken though.,-28,400,20","Ugly, broken up and mismatched,-50,320,20","A strange collage made by a child. Do not like the colored face of the bear.,-29,40,20","Why is that bear there? It looks like it would be gross to touch. The texture bothers me.,-20,80,20","Looks like someone got really high and did a bad photoshop job.,-27,300,20","Dreamy and chaotic,-9,180,20","Daniel","Ugly, broken up and mismatched,-50,320,20","Caleb","A strange collage made by a child. Do not like the colored face of the bear.,-29,40,20","Zachary","Not pleasing to the eyes. I do like that the gun is broken though.,-28,400,20","0"
"18819","","survey-text","173","1210011","0.0-173.0-0.0","A1N8TKTLXV92QR","","","","{""Q0"":""This WAS and tragic paining accident""}","","","","","","","","","","","","","","","","","","","","","","",""
"3184","","image-slider-response","174","1213196","0.0-174.0","A1N8TKTLXV92QR","","","","","-36","","","","","","","","","","","","","","","","","","","","","",""
"null","","image-button-response","175","1218200","0.0-175.0","A1N8TKTLXV92QR","img_art/29.jpg","null","","","","","","","","","","","","","","","","","","","","","","","","",""
"1386","","image-button-response","176","1219589","0.0-176.0","A1N8TKTLXV92QR","img_art/29.jpg","2","","","","","","","","","","","","","","","","","","","","","","","","",""
"1526","","image-button-response","177","1221117","0.0-177.0-0.0","A1N8TKTLXV92QR","img_art/29.jpg","0","","","","","","","","","","","","","","","","","","","","","","","","",""
"1630","","image-button-response","178","1222750","0.0-178.0-0.0","A1N8TKTLXV92QR","img_art/29.jpg","4","","","","","","","","","","","","","","","","","","","","","","","","",""
"null","","html-keyboard-response","179","1224252","0.0-179.0","A1N8TKTLXV92QR","<p style=""font-size: 48px;"">+</p>","","","","","null","allTrialResponses","1500","1","19","img_art/29.jpg","-36","This WAS and tragic paining accident","Zachary,Daniel,Caleb,Sean,Shane,Christian","It looks like someone did not like their art and drew an x over it.,-32,400,20","Pinball meets a dark dream meets whale alien, drab,13,320,20","Looks wrong. Like a real painting was vandalized.,-50,40,20","my response to the picture is that it looks so nice and cool and the details,34,40,20","Darkness and torment,-50,80,20","love the texture, i don't know, i just really like it (and the paintbrush adds a nice touch),44,140,20","Caleb","Looks wrong. Like a real painting was vandalized.,-50,40,20","Zachary","It looks like someone did not like their art and drew an x over it.,-32,400,20","Shane","Darkness and torment,-50,80,20","0"
"31386","","survey-text","180","1255664","0.0-180.0-0.0","A1N8TKTLXV92QR","","","","{""Q0"":""Preschool?  I don't get it other than an art deco thing...""}","","","","","","","","","","","","","","","","","","","","","","",""
"3647.899999976158","","image-slider-response","181","1259313","0.0-181.0","A1N8TKTLXV92QR","","","","","-30","","","","","","","","","","","","","","","","","","","","","",""
"null","","image-button-response","182","1264318","0.0-182.0","A1N8TKTLXV92QR","img_art/26.jpg","null","","","","","","","","","","","","","","","","","","","","","","","","",""
"361","","image-button-response","183","1264683","0.0-183.0","A1N8TKTLXV92QR","img_art/26.jpg","2","","","","","","","","","","","","","","","","","","","","","","","","",""
"1149","","image-button-response","184","1265835","0.0-184.0-0.0","A1N8TKTLXV92QR","img_art/26.jpg","5","","","","","","","","","","","","","","","","","","","","","","","","",""
"1462","","image-button-response","185","1267299","0.0-185.0-0.0","A1N8TKTLXV92QR","img_art/26.jpg","3","","","","","","","","","","","","","","","","","","","","","","","","",""
"null","","html-keyboard-response","186","1267801","0.0-186.0","A1N8TKTLXV92QR","<p style=""font-size: 48px;"">+</p>","","","","","null","allTrialResponses","500","1","20","img_art/26.jpg","-30","Preschool?  I don't get it other than an art deco thing...","Zachary,Jonathan,Caleb,Logan,Shane,Seth","Pretty trees and bushes around fancy brown stones. I like the soft nature.,20,400,20","It's relaxing to look at but I wish it was just a little more defined,20,140,20","Appears childish and unfinished.,-20,40,20","I really love pastels and they're just being dimmed down too much here,-3,360,20","Colors are full and reminds me of a messy room,-9,80,20","I'm not sure if this is the image of a furniture store or not.,-20,60,20","Caleb","Appears childish and unfinished.,-20,40,20","Seth","I'm not sure if this is the image of a furniture store or not.,-20,60,20","Logan","I really love pastels and they're just being dimmed down too much here,-3,360,20","0"
"4369","","survey-text","187","1272211","0.0-187.0-0.0","A1N8TKTLXV92QR","","","","{""Q0"":""we""}","","","","","","","","","","","","","","","","","","","","","","",""
"24403","","survey-text","188","1296615","0.0-188.0-0.0","A1N8TKTLXV92QR","","","","{""Q0"":""Nice waterfall and colorful""}","","","","","","","","","","","","","","","","","","","","","","",""
"3167.3000000715256","","image-slider-response","189","1299784","0.0-189.0","A1N8TKTLXV92QR","","","","","21","","","","","","","","","","","","","","","","","","","","","",""
"null","","image-button-response","190","1304795","0.0-190.0","A1N8TKTLXV92QR","img_art/24.jpg","null","","","","","","","","","","","","","","","","","","","","","","","","",""
"779","","image-button-response","191","1305577","0.0-191.0","A1N8TKTLXV92QR","img_art/24.jpg","2","","","","","","","","","","","","","","","","","","","","","","","","",""
"8159","","image-button-response","192","1313738","0.0-192.0-0.0","A1N8TKTLXV92QR","img_art/24.jpg","3","","","","","","","","","","","","","","","","","","","","","","","","",""
"765","","image-button-response","193","1314505","0.0-193.0-0.0","A1N8TKTLXV92QR","img_art/24.jpg","3","","","","","","","","","","","","","","","","","","","","","","","","",""
"1368","","image-button-response","194","1318474","0.0-193.1-0.1","A1N8TKTLXV92QR","img_art/24.jpg","1","","","","","","","","","","","","","","","","","","","","","","","","",""
"null","","html-keyboard-response","195","1319975","0.0-194.0","A1N8TKTLXV92QR","<p style=""font-size: 48px;"">+</p>","","","","","null","allTrialResponses","1500","1","21","img_art/24.jpg","21","Nice waterfall and colorful","Malik,Jacob,Caleb,Logan,Richard,Seth","Very nice textures and subject,38,40,20","Vibrant, beautiful depiction.,50,340,20","This is gorgeous. Strong, saturated colors and clear meaning.,50,40,20","brick wall waterfall girl you think you got it all,50,360,20","flowing water part is good, some of the rest is ok but dark,14,340,20","This is stunning. I love how the brown, red and oranges are blended in together.,40,60,20","Caleb","This is gorgeous. Strong, saturated colors and clear meaning.,50,40,20","Logan","brick wall waterfall girl you think you got it all,50,360,20","Jacob","Vibrant, beautiful depiction.,50,340,20","2"
"20887","","survey-text","196","1340892","0.0-195.0-0.0","A1N8TKTLXV92QR","","","","{""Q0"":""A bit too abstract for me""}","","","","","","","","","","","","","","","","","","","","","","",""
"3438.100000023842","","image-slider-response","197","1344331","0.0-196.0","A1N8TKTLXV92QR","","","","","-7","","","","","","","","","","","","","","","","","","","","","",""
"1990","","image-button-response","198","1349335","0.0-197.0","A1N8TKTLXV92QR","img_art/14.jpg","2","","","","","","","","","","","","","","","","","","","","","","","","",""
"1100","","image-button-response","199","1350437","0.0-198.0","A1N8TKTLXV92QR","img_art/14.jpg","2","","","","","","","","","","","","","","","","","","","","","","","","",""
"2415","","image-button-response","200","1352854","0.0-199.0-0.0","A1N8TKTLXV92QR","img_art/14.jpg","3","","","","","","","","","","","","","","","","","","","","","","","","",""
"3701","","image-button-response","201","1356558","0.0-200.0-0.0","A1N8TKTLXV92QR","img_art/14.jpg","0","","","","","","","","","","","","","","","","","","","","","","","","",""
"null","","html-keyboard-response","202","1357060","0.0-201.0","A1N8TKTLXV92QR","<p style=""font-size: 48px;"">+</p>","","","","","null","allTrialResponses","500","1","22","img_art/14.jpg","-7","A bit too abstract for me","Edward,Jacob,Caleb,Logan,Cameron,Garrett","I just really like light and wispy things,33,60,20","I kind of like it!,6,340,20","Again. This is pretty neutral, leaning dislike.,-18,40,20","I dont really vibe with the grayish color palette,-7,360,20","cotton candy skies. pretty.,35,60,20","I like this picture because it looks like a tree and the colors used look cool.,20,180,20","Caleb","Again. This is pretty neutral, leaning dislike.,-18,40,20","Logan","I dont really vibe with the grayish color palette,-7,360,20","Edward","I just really like light and wispy things,33,60,20","2"
"17935","","survey-text","203","1375021","0.0-202.0-0.0","A1N8TKTLXV92QR","","","","{""Q0"":""What the hell's the point in this?""}","","","","","","","","","","","","","","","","","","","","","","",""
"4150.400000095367","","image-slider-response","204","1379173","0.0-203.0","A1N8TKTLXV92QR","","","","","-47","","","","","","","","","","","","","","","","","","","","","",""
"null","","image-button-response","205","1384175","0.0-204.0","A1N8TKTLXV92QR","img_art/6.jpg","null","","","","","","","","","","","","","","","","","","","","","","","","",""
"1333","","image-button-response","206","1385510","0.0-205.0","A1N8TKTLXV92QR","img_art/6.jpg","3","","","","","","","","","","","","","","","","","","","","","","","","",""
"2303","","image-button-response","207","1387815","0.0-206.0-0.0","A1N8TKTLXV92QR","img_art/6.jpg","1","","","","","","","","","","","","","","","","","","","","","","","","",""
"1988","","image-button-response","208","1389806","0.0-207.0-0.0","A1N8TKTLXV92QR","img_art/6.jpg","5","","","","","","","","","","","","","","","","","","","","","","","","",""
"null","","html-keyboard-response","209","1391312","0.0-208.0","A1N8TKTLXV92QR","<p style=""font-size: 48px;"">+</p>","","","","","null","allTrialResponses","1500","1","23","img_art/6.jpg","-47","What the hell's the point in this?","Edward,Isaiah,Caleb,Logan,Jason,Christopher","It looks like a bird looking away,32,60,20","The painting makes me happy. Like I'm looking at a little bird.,6,300,20","Despite how simple it is, this piece has clear meaning.,34,40,20","boring. don't really like birds,1,360,20","I like the simplicity of the picture,30,20,20","it's interesting but I don't love it,10,160,20","Logan","boring. don't really like birds,1,360,20","Isaiah","The painting makes me happy. Like I'm looking at a little bird.,6,300,20","Christopher","it's interesting but I don't love it,10,160,20","2"
"30937","","survey-text","210","1422259","0.0-209.0-0.0","A1N8TKTLXV92QR","","","","{""Q0"":""Ewwww.  What happened here?  Weird colors that don't mix.""}","","","","","","","","","","","","","","","","","","","","","","",""
"2710.0999999046326","","image-slider-response","211","1424971","0.0-210.0","A1N8TKTLXV92QR","","","","","-43","","","","","","","","","","","","","","","","","","","","","",""
"null","","image-button-response","212","1429979","0.0-211.0","A1N8TKTLXV92QR","img_art/9.jpg","null","","","","","","","","","","","","","","","","","","","","","","","","",""
"221","","image-button-response","213","1430204","0.0-212.0","A1N8TKTLXV92QR","img_art/9.jpg","4","","","","","","","","","","","","","","","","","","","","","","","","",""
"870","","image-button-response","214","1431076","0.0-213.0-0.0","A1N8TKTLXV92QR","img_art/9.jpg","0","","","","","","","","","","","","","","","","","","","","","","","","",""
"862","","image-button-response","215","1431940","0.0-214.0-0.0","A1N8TKTLXV92QR","img_art/9.jpg","5","","","","","","","","","","","","","","","","","","","","","","","","",""
"null","","html-keyboard-response","216","1432946","0.0-215.0","A1N8TKTLXV92QR","<p style=""font-size: 48px;"">+</p>","","","","","null","allTrialResponses","1000","1","24","img_art/9.jpg","-43","Ewwww.  What happened here?  Weird colors that don't mix.","Joshua,Isaiah,William,Logan,Kevin,Christopher","Someone lying in bed?  Don't care for it.,-14,240,20","The piece of art makes me happy, it reminds me of a lively carnival.,15,300,20","reminds me of a story book,18,380,20","is that sleeping beauty,33,360,20","This is a picture of a scary mans head sideways.,-24,320,20","I really like the color balance but the image is odd,-5,160,20","Kevin","This is a picture of a scary mans head sideways.,-24,320,20","Joshua","Someone lying in bed?  Don't care for it.,-14,240,20","Christopher","I really like the color balance but the image is odd,-5,160,20","2"
"22045","","survey-text","217","1455024","0.0-216.0-0.0","A1N8TKTLXV92QR","","","","{""Q0"":""Very nice use of color and imagination""}","","","","","","","","","","","","","","","","","","","","","","",""
"3567.7999999523163","","image-slider-response","218","1458593","0.0-217.0","A1N8TKTLXV92QR","","","","","32","","","","","","","","","","","","","","","","","","","","","",""
"null","","image-button-response","219","1463597","0.0-218.0","A1N8TKTLXV92QR","img_art/19.jpg","null","","","","","","","","","","","","","","","","","","","","","","","","",""
"2355","","image-button-response","220","1465954","0.0-219.0","A1N8TKTLXV92QR","img_art/19.jpg","1","","","","","","","","","","","","","","","","","","","","","","","","",""
"1422","","image-button-response","221","1467378","0.0-220.0-0.0","A1N8TKTLXV92QR","img_art/19.jpg","3","","","","","","","","","","","","","","","","","","","","","","","","",""
"2477","","image-button-response","222","1469858","0.0-221.0-0.0","A1N8TKTLXV92QR","img_art/19.jpg","4","","","","","","","","","","","","","","","","","","","","","","","","",""
"null","","html-keyboard-response","223","1470360","0.0-222.0","A1N8TKTLXV92QR","<p style=""font-size: 48px;"">+</p>","","","","","null","allTrialResponses","500","1","25","img_art/19.jpg","32","Very nice use of color and imagination","Joshua,Gabriel,Nathan,Jeremy,Kevin,Christopher","Just don't like this one.,-9,240,20","not sure if i like it or not,1,160,20","It looks like as if it were portraying a village that was polluted? I don't like the theme anyway,-21,200,20","it's too busy for me. Makes me feel stressed.,1,60,20","Thats a lazy town,-8,320,20","too much of a mix of lines and shading,-22,160,20","Gabriel","not sure if i like it or not,1,160,20","Jeremy","it's too busy for me. Makes me feel stressed.,1,60,20","Kevin","Thats a lazy town,-8,320,20","2"
"5938","","survey-text","224","1476347","0.0-223.0-0.0","A1N8TKTLXV92QR","","","","{""Q0"":""table""}","","","","","","","","","","","","","","","","","","","","","","",""
"18452","","survey-text","225","1494800","0.0-224.0-0.0","A1N8TKTLXV92QR","","","","{""Q0"":""Nice rich color but too abstract""}","","","","","","","","","","","","","","","","","","","","","","",""
"2927.6999999284744","","image-slider-response","226","1497730","0.0-225.0","A1N8TKTLXV92QR","","","","","-26","","","","","","","","","","","","","","","","","","","","","",""
"null","","image-button-response","227","1502733","0.0-226.0","A1N8TKTLXV92QR","img_art/4.jpg","null","","","","","","","","","","","","","","","","","","","","","","","","",""
"961","","image-button-response","228","1503698","0.0-227.0","A1N8TKTLXV92QR","img_art/4.jpg","1","","","","","","","","","","","","","","","","","","","","","","","","",""
"2879","","image-button-response","229","1506579","0.0-228.0-0.0","A1N8TKTLXV92QR","img_art/4.jpg","4","","","","","","","","","","","","","","","","","","","","","","","","",""
"3366","","image-button-response","230","1509947","0.0-229.0-0.0","A1N8TKTLXV92QR","img_art/4.jpg","0","","","","","","","","","","","","","","","","","","","","","","","","",""
"null","","html-keyboard-response","231","1510449","0.0-230.0","A1N8TKTLXV92QR","<p style=""font-size: 48px;"">+</p>","","","","","null","allTrialResponses","500","1","26","img_art/4.jpg","-26","Nice rich color but too abstract","Jared,Gabriel,Marcus,Jeremy,Kevin,Hunter","it looks like a deformed hand,-9,400,20","this is terrible,-49,160,20","Really like the colors, but don't like the object/squiggle in darker gold and black,4,60,20","the colors are calming,31,60,20","A leaning trophy,-9,320,20","appealing warm palette,6,240,20","Gabriel","this is terrible,-49,160,20","Kevin","A leaning trophy,-9,320,20","Jared","it looks like a deformed hand,-9,400,20","2"
"25960","","survey-text","232","1536445","0.0-231.0-0.0","A1N8TKTLXV92QR","","","","{""Q0"":""Crazy scratches that mean nothing""}","","","","","","","","","","","","","","","","","","","","","","",""
"3343","","image-slider-response","233","1539790","0.0-232.0","A1N8TKTLXV92QR","","","","","-45","","","","","","","","","","","","","","","","","","","","","",""
"null","","image-button-response","234","1544798","0.0-233.0","A1N8TKTLXV92QR","img_art/3.jpg","null","","","","","","","","","","","","","","","","","","","","","","","","",""
"422","","image-button-response","235","1545224","0.0-234.0","A1N8TKTLXV92QR","img_art/3.jpg","5","","","","","","","","","","","","","","","","","","","","","","","","",""
"1766","","image-button-response","236","1546991","0.0-235.0-0.0","A1N8TKTLXV92QR","img_art/3.jpg","1","","","","","","","","","","","","","","","","","","","","","","","","",""
"2703","","image-button-response","237","1549697","0.0-236.0-0.0","A1N8TKTLXV92QR","img_art/3.jpg","0","","","","","","","","","","","","","","","","","","","","","","","","",""
"null","","html-keyboard-response","238","1550198","0.0-237.0","A1N8TKTLXV92QR","<p style=""font-size: 48px;"">+</p>","","","","","null","allTrialResponses","500","1","27","img_art/3.jpg","-45","Crazy scratches that mean nothing","Jared,Gabriel,Jordan,Tristan,Kevin,Miguel","scattered and angry,-26,400,20","just scribbles, not pleasing,-30,160,20","Reminded me of blood or something bad,-21,160,20","i like the colors particulairly the contrast of foreground to background. Exciting and thoughtful.,10,300,20","That just looks like a mess..,-18,320,20","Unfocused and rushed.,-28,160,20","Miguel","Unfocused and rushed.,-28,160,20","Gabriel","just scribbles, not pleasing,-30,160,20","Jared","scattered and angry,-26,400,20","2"
"12386","","survey-text","239","1562617","0.0-238.0-0.0","A1N8TKTLXV92QR","","","","{""Q0"":""I like the texture and color""}","","","","","","","","","","","","","","","","","","","","","","",""
"2734.600000023842","","image-slider-response","240","1565353","0.0-239.0","A1N8TKTLXV92QR","","","","","23","","","","","","","","","","","","","","","","","","","","","",""
"null","","image-button-response","241","1570357","0.0-240.0","A1N8TKTLXV92QR","img_art/30.jpg","null","","","","","","","","","","","","","","","","","","","","","","","","",""
"6491","","image-button-response","242","1576852","0.0-241.0","A1N8TKTLXV92QR","img_art/30.jpg","3","","","","","","","","","","","","","","","","","","","","","","","","",""
"4454","","image-button-response","243","1581307","0.0-242.0-0.0","A1N8TKTLXV92QR","img_art/30.jpg","2","","","","","","","","","","","","","","","","","","","","","","","","",""
"935","","image-button-response","244","1582245","0.0-243.0-0.0","A1N8TKTLXV92QR","img_art/30.jpg","0","","","","","","","","","","","","","","","","","","","","","","","","",""
"null","","html-keyboard-response","245","1583247","0.0-244.0","A1N8TKTLXV92QR","<p style=""font-size: 48px;"">+</p>","","","","","null","allTrialResponses","1000","1","28","img_art/30.jpg","23","I like the texture and color","Jared,Gabriel,Travis,Bryce,Michael,Miguel","i dont like how the colors are mixed,-6,400,20","dont like this much at all,-30,160,20","I didn't like this...it looks like someone just finger painted it.,-10,260,20","Very colorful! Wow!,22,20,20","It looks like a child did it. There is nothing talented or special about it.,-16,140,20","Absolutely messy,-31,160,20","Bryce","Very colorful! Wow!,22,20,20","Travis","I didn't like this...it looks like someone just finger painted it.,-10,260,20","Jared","i dont like how the colors are mixed,-6,400,20","2"
"36687","","survey-text","246","1619948","0.0-245.0-0.0","A1N8TKTLXV92QR","","","","{""Q0"":""Not good mix of green scribblings on good colors""}","","","","","","","","","","","","","","","","","","","","","","",""
"4182.100000023842","","image-slider-response","247","1624131","0.0-246.0","A1N8TKTLXV92QR","","","","","-28","","","","","","","","","","","","","","","","","","","","","",""
"null","","image-button-response","248","1629137","0.0-247.0","A1N8TKTLXV92QR","img_art/27.jpg","null","","","","","","","","","","","","","","","","","","","","","","","","",""
"617","","image-button-response","249","1629757","0.0-248.0","A1N8TKTLXV92QR","img_art/27.jpg","5","","","","","","","","","","","","","","","","","","","","","","","","",""
"1232","","image-button-response","250","1630990","0.0-249.0-0.0","A1N8TKTLXV92QR","img_art/27.jpg","0","","","","","","","","","","","","","","","","","","","","","","","","",""
"1743","","image-button-response","251","1632735","0.0-250.0-0.0","A1N8TKTLXV92QR","img_art/27.jpg","4","","","","","","","","","","","","","","","","","","","","","","","","",""
"null","","html-keyboard-response","252","1633737","0.0-251.0","A1N8TKTLXV92QR","<p style=""font-size: 48px;"">+</p>","","","","","null","allTrialResponses","1000","1","29","img_art/27.jpg","-28","Not good mix of green scribblings on good colors","Jared,Alex,Travis,Bryce,Dustin,Benjamin","meh. it is neutral to me.,1,400,20","very abstract, I don't understand it, but I like the bright, cheerful colors,14,100,20","I don't like any of it...just scibbles.,-37,260,20","It kinda reminds me of sushi.,16,20,20","Fire, explosion. Red/orange colors are fire/explosion. White is smoke. Makes me worried/scared/anxious,-20,20,20","I like the colors.,6,260,20","Benjamin","I like the colors.,6,260,20","Jared","meh. it is neutral to me.,1,400,20","Dustin","Fire, explosion. Red/orange colors are fire/explosion. White is smoke. Makes me worried/scared/anxious,-20,20,20","2"
"12586","","survey-text","253","1646356","0.0-252.0-0.0","A1N8TKTLXV92QR","","","","{""Q0"":""Cool geometry and color""}","","","","","","","","","","","","","","","","","","","","","","",""
"2767.7000000476837","","image-slider-response","254","1649125","0.0-253.0","A1N8TKTLXV92QR","","","","","35","","","","","","","","","","","","","","","","","","","","","",""
"4181","","image-button-response","255","1654129","0.0-254.0","A1N8TKTLXV92QR","img_art/8.jpg","2","","","","","","","","","","","","","","","","","","","","","","","","",""
"1745","","image-button-response","256","1655879","0.0-255.0","A1N8TKTLXV92QR","img_art/8.jpg","0","","","","","","","","","","","","","","","","","","","","","","","","",""
"1094","","image-button-response","257","1656974","0.0-256.0-0.0","A1N8TKTLXV92QR","img_art/8.jpg","2","","","","","","","","","","","","","","","","","","","","","","","","",""
"1847","","image-button-response","258","1658823","0.0-257.0-0.0","A1N8TKTLXV92QR","img_art/8.jpg","5","","","","","","","","","","","","","","","","","","","","","","","","",""
"null","","html-keyboard-response","259","1660331","0.0-258.0","A1N8TKTLXV92QR","<p style=""font-size: 48px;"">+</p>","","","","","null","allTrialResponses","1500","1","30","img_art/8.jpg","35","Cool geometry and color","Jared,Bradley,Derek,Robert,Dustin,Benjamin","i love the colors, the church and the face,42,400,20","Interesting but it has a bit of a dark feel to it.,6,300,20","It's simply gorgeous. This artist is very talented,50,360,20","I like the colors and geometrical shapes but the face in the sky makes it look scary,-10,360,20","I like the colors. But I don't like the faces, they look distraught. Faces and sharp shapes make me anxious,1,20,20","Very colorful. Looks like the hustle and bustle of a city.,11,260,20","Jared","i love the colors, the church and the face,42,400,20","Derek","It's simply gorgeous. This artist is very talented,50,360,20","Benjamin","Very colorful. Looks like the hustle and bustle of a city.,11,260,20","2"
"5694","","image-button-response_instructions","260","1666055","0.0-259.0","A1N8TKTLXV92QR","","0","instructions","","","","","","","","","","","","","","","","","","","","","","","",""
"2867","","image-button-response","261","1668936","0.0-260.0","A1N8TKTLXV92QR","","0","","","","","","","","","","","","","","","","","","","","","","","","",""
