"rt","url","trial_type","trial_index","time_elapsed","internal_node_id","participant_id","stimulus","button_pressed","Name","responses","response","key_press","variableName","fixationTime","condition","trial","photo","subjectRating","subjectResponse","agentsNames","agent_1_Response","agent_2_Response","agent_3_Response","agent_4_Response","agent_5_Response","agent_6_Response","kept_1_name","kept_1_response","kept_2_name","kept_2_response","kept_3_name","kept_3_response","errorCounter"
"368778","external_page_harvard.html","external-html","0","369340","0.0-0.0","A1PF1T680LSXQ5","","","","","","","","","","","","","","","","","","","","","","","","","","",""
"2135","","image-button-response","1","371479","0.0-1.0","A1PF1T680LSXQ5","","0","","","","","","","","","","","","","","","","","","","","","","","","",""
"2849","","image-button-response","2","374344","0.0-2.0-0.0","A1PF1T680LSXQ5","","1","phone","","","","","","","","","","","","","","","","","","","","","","","",""
"7608","","survey-text","3","381955","0.0-3.0-0.0","A1PF1T680LSXQ5","","","","{""Q0"":""A1PF1T680LSXQ5""}","","","","","","","","","","","","","","","","","","","","","","",""
"8889","","image-button-response_instructions","4","390848","0.0-4.0","A1PF1T680LSXQ5","","0","instructions","","","","","","","","","","","","","","","","","","","","","","","",""
"3209","","image-button-response_instructions","5","394061","0.0-5.0","A1PF1T680LSXQ5","img_art/ins/popularity/ins1.png","0","instructions","","","","","","","","","","","","","","","","","","","","","","","",""
"4954","","image-button-response_instructions","6","399026","0.0-6.0","A1PF1T680LSXQ5","img_art/ins/popularity/ins2.png","0","instructions","","","","","","","","","","","","","","","","","","","","","","","",""
"12977","","image-button-response_instructions","7","412019","0.0-7.0","A1PF1T680LSXQ5","img_art/ins/popularity/ins2Extreme.png","0","instructions","","","","","","","","","","","","","","","","","","","","","","","",""
"5318","","image-button-response_instructions","8","417341","0.0-8.0","A1PF1T680LSXQ5","img_art/ins/popularity/ins3KEEPpop.PNG","0","instructions","","","","","","","","","","","","","","","","","","","","","","","",""
"5160","","image-button-response_instructions","9","422525","0.0-9.0","A1PF1T680LSXQ5","img_art/ins/popularity/ins3ANamepop.PNG","0","instructions","","","","","","","","","","","","","","","","","","","","","","","",""
"4427","","image-button-response_instructions","10","426958","0.0-10.0","A1PF1T680LSXQ5","img_art/ins/popularity/ins3ARatingpop.png","0","instructions","","","","","","","","","","","","","","","","","","","","","","","",""
"2518","","image-button-response_instructions","11","429480","0.0-11.0","A1PF1T680LSXQ5","img_art/ins/popularity/ins3ATextpop.png","0","instructions","","","","","","","","","","","","","","","","","","","","","","","",""
"4025","","image-button-response_instructions","12","433507","0.0-12.0","A1PF1T680LSXQ5","img_art/ins/popularity/ins3ALikespop.png","0","instructions","","","","","","","","","","","","","","","","","","","","","","","",""
"6475","","image-button-response_instructions","13","439989","0.0-13.0","A1PF1T680LSXQ5","img_art/ins/popularity/ins3KEEPpop.PNG","0","instructions","","","","","","","","","","","","","","","","","","","","","","","",""
"13201","","image-button-response_instructions","14","453193","0.0-14.0","A1PF1T680LSXQ5","img_art/ins/popularity/ins3_5RED.png","0","instructions","","","","","","","","","","","","","","","","","","","","","","","",""
"2872","","image-button-response_instructions","15","456070","0.0-15.0","A1PF1T680LSXQ5","img_art/ins/popularity/ins3KEEPpop.PNG","0","instructions","","","","","","","","","","","","","","","","","","","","","","","",""
"5254","","image-button-response_instructions","16","461327","0.0-16.0","A1PF1T680LSXQ5","img_art/ins/popularity/ins4KEEPpop.PNG","0","instructions","","","","","","","","","","","","","","","","","","","","","","","",""
"1776","","image-button-response_instructions","17","463106","0.0-17.0","A1PF1T680LSXQ5","img_art/ins/popularity/ins5KEEPpop.PNG","0","instructions","","","","","","","","","","","","","","","","","","","","","","","",""
"2087","","image-button-response_instructions","18","465213","0.0-18.0","A1PF1T680LSXQ5","","0","instructions","","","","","","","","","","","","","","","","","","","","","","","",""
"12271","","survey-text","19","477528","0.0-19.0-0.0","A1PF1T680LSXQ5","","","","{""Q0"":""BUT""}","","","","","","","","","","","","","","","","","","","","","","",""
"12755","","survey-text","20","510928","0.0-19.1-0.1","A1PF1T680LSXQ5","","","","{""Q0"":""but""}","","","","","","","","","","","","","","","","","","","","","","",""
"39844","","survey-text","21","550776","0.0-20.0-0.0","A1PF1T680LSXQ5","","","","{""Q0"":""To feel the art is to tell some . But what is that I don't know.""}","","","","","","","","","","","","","","","","","","","","","","",""
"7296","","image-slider-response","22","558083","0.0-21.0","A1PF1T680LSXQ5","","","","","-18","","","","","","","","","","","","","","","","","","","","","",""
"null","","image-button-response","23","563103","0.0-22.0","A1PF1T680LSXQ5","img_art/ins/1.jpg","null","","","","","","","","","","","","","","","","","","","","","","","","",""
"12131","","image-button-response","24","575242","0.0-23.0","A1PF1T680LSXQ5","img_art/ins/1.jpg","2","","","","","","","","","","","","","","","","","","","","","","","","",""
"8932","","image-button-response","25","584188","0.0-24.0-0.0","A1PF1T680LSXQ5","img_art/ins/1.jpg","0","","","","","","","","","","","","","","","","","","","","","","","","",""
"627","","image-button-response","26","584821","0.0-25.0-0.0","A1PF1T680LSXQ5","img_art/ins/1.jpg","4","","","","","","","","","","","","","","","","","","","","","","","","",""
"null","","html-keyboard-response","27","585333","0.0-26.0","A1PF1T680LSXQ5","<p style=""font-size: 48px;"">+</p>","","","","","null","allTrialResponses","500","1","-2","img_art/ins/1.jpg","-18","To feel the art is to tell some . But what is that I don't know.","Adam,Alex,Ben,Carl,Daniel,Jack","Seems like doodles,-20,20,20","very creative work.,36,40,20","This color reminds me of poo,-46,60,20","very calming artwork,42,80,20","It looks like a murder scene.,-48,100,20","I like the sophisticated brushwork,40,120,20","Ben","This color reminds me of poo,-46,60,20","Adam","Seems like doodles,-20,20,20","Daniel","It looks like a murder scene.,-48,100,20","1"
"19978","","survey-text","28","605332","0.0-27.0-0.0","A1PF1T680LSXQ5","","","","{""Q0"":""some old painting. this is most cool.""}","","","","","","","","","","","","","","","","","","","","","","",""
"5388","","image-slider-response","29","610727","0.0-28.0","A1PF1T680LSXQ5","","","","","23","","","","","","","","","","","","","","","","","","","","","",""
"null","","image-button-response","30","615735","0.0-29.0","A1PF1T680LSXQ5","img_art/ins/2.jpg","null","","","","","","","","","","","","","","","","","","","","","","","","",""
"613","","image-button-response","31","616354","0.0-30.0","A1PF1T680LSXQ5","img_art/ins/2.jpg","0","","","","","","","","","","","","","","","","","","","","","","","","",""
"2959","","image-button-response","32","619318","0.0-31.0-0.0","A1PF1T680LSXQ5","img_art/ins/2.jpg","5","","","","","","","","","","","","","","","","","","","","","","","","",""
"2994","","image-button-response","33","622314","0.0-32.0-0.0","A1PF1T680LSXQ5","img_art/ins/2.jpg","1","","","","","","","","","","","","","","","","","","","","","","","","",""
"null","","html-keyboard-response","34","623319","0.0-33.0","A1PF1T680LSXQ5","<p style=""font-size: 48px;"">+</p>","","","","","null","allTrialResponses","1000","1","-1","img_art/ins/2.jpg","23","some old painting. this is most cool.","Adam,John,Ben,James,Daniel,Kyle","too much color,-18,20,20","love the texture of paint,48,160,20","meaningless painting,-45,60,20","looks too angry,-50,140,20","One of my pet peevs,-48,100,20","Idk, it is just annoying,-32,180,20","Adam","too much color,-18,20,20","Kyle","Idk, it is just annoying,-32,180,20","John","love the texture of paint,48,160,20","1"
"25567","","survey-text","35","648902","0.0-34.0-0.0","A1PF1T680LSXQ5","","","","{""Q0"":""This painting is very attractive to see. Color is most good.""}","","","","","","","","","","","","","","","","","","","","","","",""
"5272","","image-slider-response","36","654187","0.0-35.0","A1PF1T680LSXQ5","","","","","5","","","","","","","","","","","","","","","","","","","","","",""
"4693","","image-button-response","37","659214","0.0-36.0","A1PF1T680LSXQ5","img_art/ins/3.jpg","2","","","","","","","","","","","","","","","","","","","","","","","","",""
"3572","","image-button-response","38","662796","0.0-37.0","A1PF1T680LSXQ5","img_art/ins/3.jpg","2","","","","","","","","","","","","","","","","","","","","","","","","",""
"1389","","image-button-response","39","664190","0.0-38.0-0.0","A1PF1T680LSXQ5","img_art/ins/3.jpg","3","","","","","","","","","","","","","","","","","","","","","","","","",""
"4011","","image-button-response","40","668210","0.0-39.0-0.0","A1PF1T680LSXQ5","img_art/ins/3.jpg","0","","","","","","","","","","","","","","","","","","","","","","","","",""
"null","","html-keyboard-response","41","668714","0.0-40.0","A1PF1T680LSXQ5","<p style=""font-size: 48px;"">+</p>","","","","","null","allTrialResponses","500","1","0","img_art/ins/3.jpg","5","This painting is very attractive to see. Color is most good.","Adam,John,Sam,Mike,Ron,Kyle","My daily routine, it's depressing,-20,20,20","I like the overlapping of brushes,41,160,20","I can feel a rainy day from this painting,18,240,20","enjoy the different shades of blue,22,200,20","It looks depressing,-26,220,20","It looks like a playground for bats,-36,180,20","Sam","I can feel a rainy day from this painting,18,240,20","Mike","enjoy the different shades of blue,22,200,20","Adam","My daily routine, it's depressing,-20,20,20","1"
"3773","","image-button-response_instructions","42","672497","0.0-41.0","A1PF1T680LSXQ5","","0","instructions","","","","","","","","","","","","","","","","","","","","","","","",""
"33118","","survey-likert","43","705620","0.0-42.0-0.0","A1PF1T680LSXQ5","","","","{""Q0"":"""",""Q1"":0,""Q2"":1}","","","","","","","","","","","","","","","","","","","","","","",""
"5573","","survey-text","44","711209","0.0-43.0-0.0","A1PF1T680LSXQ5","","","","{""Q0"":""rock""}","","","","","","","","","","","","","","","","","","","","","","",""
"21997","","survey-text","45","733211","0.0-44.0-0.0","A1PF1T680LSXQ5","","","","{""Q0"":""this is to see very bad and not to see is good.""}","","","","","","","","","","","","","","","","","","","","","","",""
"3604","","image-slider-response","46","736830","0.0-45.0","A1PF1T680LSXQ5","","","","","-26","","","","","","","","","","","","","","","","","","","","","",""
"null","","image-button-response","47","741870","0.0-46.0","A1PF1T680LSXQ5","img_art/2.jpg","null","","","","","","","","","","","","","","","","","","","","","","","","",""
"1479","","image-button-response","48","743354","0.0-47.0","A1PF1T680LSXQ5","img_art/2.jpg","4","","","","","","","","","","","","","","","","","","","","","","","","",""
"2332","","image-button-response","49","745695","0.0-48.0-0.0","A1PF1T680LSXQ5","img_art/2.jpg","2","","","","","","","","","","","","","","","","","","","","","","","","",""
"2908","","image-button-response","50","748609","0.0-49.0-0.0","A1PF1T680LSXQ5","img_art/2.jpg","1","","","","","","","","","","","","","","","","","","","","","","","","",""
"null","","html-keyboard-response","51","750117","0.0-50.0","A1PF1T680LSXQ5","<p style=""font-size: 48px;"">+</p>","","","","","null","allTrialResponses","1500","1","1","img_art/2.jpg","-26","this is to see very bad and not to see is good.","Sean,Marcus,Mitchell,Jake,Nathaniel,Garrett","looks like a bunch of gibberish,-39,40,20","Only like the blues and teals in this. The rest is unappealing.,-15,60,20","Dependence. Things relying on each other. Caring,-4,180,20","These colors are ugly.,-40,360,20","Too gloopy and unfocused,-38,220,20","I like this picture a little because the colors make it look a little vibrant.,10,180,20","Nathaniel","Too gloopy and unfocused,-38,220,20","Mitchell","Dependence. Things relying on each other. Caring,-4,180,20","Marcus","Only like the blues and teals in this. The rest is unappealing.,-15,60,20","1"
"33645","","survey-text","52","783775","0.0-51.0-0.0","A1PF1T680LSXQ5","","","","{""Q0"":""It is not good. This is very bad ""}","","","","","","","","","","","","","","","","","","","","","","",""
"3269","","image-slider-response","53","787047","0.0-52.0","A1PF1T680LSXQ5","","","","","-27","","","","","","","","","","","","","","","","","","","","","",""
"2683","","image-button-response","54","792052","0.0-53.0","A1PF1T680LSXQ5","img_art/30.jpg","1","","","","","","","","","","","","","","","","","","","","","","","","",""
"194","","image-button-response","55","792250","0.0-54.0","A1PF1T680LSXQ5","img_art/30.jpg","1","","","","","","","","","","","","","","","","","","","","","","","","",""
"1617","","image-button-response","56","793873","0.0-55.0-0.0","A1PF1T680LSXQ5","img_art/30.jpg","4","","","","","","","","","","","","","","","","","","","","","","","","",""
"1213","","image-button-response","57","795092","0.0-56.0-0.0","A1PF1T680LSXQ5","img_art/30.jpg","3","","","","","","","","","","","","","","","","","","","","","","","","",""
"null","","html-keyboard-response","58","795596","0.0-57.0","A1PF1T680LSXQ5","<p style=""font-size: 48px;"">+</p>","","","","","null","allTrialResponses","500","1","2","img_art/30.jpg","-27","It is not good. This is very bad ","Jose,Marcus,Mitchell,Justin,Nathaniel,James","For some reason I like the red in this one. Maybe it's the style of lines/blurs,46,200,20","Really don't like this piece. It feels very lazy to me.,-31,60,20","connection, Everything is connected even in contrast.,42,180,20","The colors and the brushstrokes are interesting enough.,17,280,20","No my favorite, but I do like the long strokes of color,11,220,20","I like the fact that it's a painting.,21,380,20","Marcus","Really don't like this piece. It feels very lazy to me.,-31,60,20","Nathaniel","No my favorite, but I do like the long strokes of color,11,220,20","Justin","The colors and the brushstrokes are interesting enough.,17,280,20","1"
"29403","","survey-text","59","825019","0.0-58.0-0.0","A1PF1T680LSXQ5","","","","{""Q0"":""It is very unattractive. This is not a painting. Child paint""}","","","","","","","","","","","","","","","","","","","","","","",""
"3224","","image-slider-response","60","828248","0.0-59.0","A1PF1T680LSXQ5","","","","","-43","","","","","","","","","","","","","","","","","","","","","",""
"2934","","image-button-response","61","833254","0.0-60.0","A1PF1T680LSXQ5","img_art/3.jpg","4","","","","","","","","","","","","","","","","","","","","","","","","",""
"991","","image-button-response","62","834249","0.0-61.0","A1PF1T680LSXQ5","img_art/3.jpg","2","","","","","","","","","","","","","","","","","","","","","","","","",""
"2671","","image-button-response","63","836929","0.0-62.0-0.0","A1PF1T680LSXQ5","img_art/3.jpg","3","","","","","","","","","","","","","","","","","","","","","","","","",""
"922","","image-button-response","64","837857","0.0-63.0-0.0","A1PF1T680LSXQ5","img_art/3.jpg","4","","","","","","","","","","","","","","","","","","","","","","","","",""
"null","","html-keyboard-response","65","838866","0.0-64.0","A1PF1T680LSXQ5","<p style=""font-size: 48px;"">+</p>","","","","","null","allTrialResponses","1000","1","3","img_art/3.jpg","-43","It is very unattractive. This is not a painting. Child paint","Aaron,Marcus,Jorge,Justin,Nathaniel,Charles","Definition of mediocre abstract art,-12,20,20","Like the colors and energy of this work.,10,60,20","This makes me feel vulnerable,-32,180,20","I don't care for art that looks like it was just scribbled.,-19,280,20","Just scribbles. People buy that?,-47,220,20","I like that it feels kind of simple but still chaotic,6,100,20","Jorge","This makes me feel vulnerable,-32,180,20","Justin","I don't care for art that looks like it was just scribbled.,-19,280,20","Nathaniel","Just scribbles. People buy that?,-47,220,20","1"
"35245","","survey-text","66","874125","0.0-65.0-0.0","A1PF1T680LSXQ5","","","","{""Q0"":""this is meaning some city. To improve some one.""}","","","","","","","","","","","","","","","","","","","","","","",""
"3028","","image-slider-response","67","877154","0.0-66.0","A1PF1T680LSXQ5","","","","","12","","","","","","","","","","","","","","","","","","","","","",""
"2169","","image-button-response","68","882160","0.0-67.0","A1PF1T680LSXQ5","img_art/11.jpg","1","","","","","","","","","","","","","","","","","","","","","","","","",""
"1691","","image-button-response","69","883859","0.0-68.0","A1PF1T680LSXQ5","img_art/11.jpg","5","","","","","","","","","","","","","","","","","","","","","","","","",""
"1896","","image-button-response","70","885760","0.0-69.0-0.0","A1PF1T680LSXQ5","img_art/11.jpg","1","","","","","","","","","","","","","","","","","","","","","","","","",""
"1566","","image-button-response","71","887332","0.0-70.0-0.0","A1PF1T680LSXQ5","img_art/11.jpg","0","","","","","","","","","","","","","","","","","","","","","","","","",""
"null","","html-keyboard-response","72","888836","0.0-71.0","A1PF1T680LSXQ5","<p style=""font-size: 48px;"">+</p>","","","","","null","allTrialResponses","1500","1","4","img_art/11.jpg","12","this is meaning some city. To improve some one.","Malik,Dalton,Jorge,Justin,Nathaniel,Luke","I want to know which skyline the artist is depicting,26,40,20","looks like highways and homes and lives intertwining.,27,300,20","Sad but hopeful,43,180,20","It reminds me of telephone wires.,1,280,20","Kind of bizzare in that I can imagine ships or something from it.,11,220,20","it reminds me of music,43,20,20","Luke","it reminds me of music,43,20,20","Dalton","looks like highways and homes and lives intertwining.,27,300,20","Malik","I want to know which skyline the artist is depicting,26,40,20","1"
"31511","","survey-text","73","920356","0.0-72.0-0.0","A1PF1T680LSXQ5","","","","{""Q0"":""This color or very attractive but painting is not good.""}","","","","","","","","","","","","","","","","","","","","","","",""
"3863","","image-slider-response","74","924224","0.0-73.0","A1PF1T680LSXQ5","","","","","5","","","","","","","","","","","","","","","","","","","","","",""
"3216","","image-button-response","75","929235","0.0-74.0","A1PF1T680LSXQ5","img_art/1.jpg","1","","","","","","","","","","","","","","","","","","","","","","","","",""
"195","","image-button-response","76","929434","0.0-75.0","A1PF1T680LSXQ5","img_art/1.jpg","4","","","","","","","","","","","","","","","","","","","","","","","","",""
"1512","","image-button-response","77","930954","0.0-76.0-0.0","A1PF1T680LSXQ5","img_art/1.jpg","1","","","","","","","","","","","","","","","","","","","","","","","","",""
"3352","","image-button-response","78","934314","0.0-77.0-0.0","A1PF1T680LSXQ5","img_art/1.jpg","2","","","","","","","","","","","","","","","","","","","","","","","","",""
"null","","html-keyboard-response","79","935820","0.0-78.0","A1PF1T680LSXQ5","<p style=""font-size: 48px;"">+</p>","","","","","null","allTrialResponses","1500","1","5","img_art/1.jpg","5","This color or very attractive but painting is not good.","Malik,Dalton,Christopher,Bradley,Seth,Luke","Vague and directionless,-14,40,20","the colors are vibrant and beautiful,1,300,20","it's boring despite all the colors,-2,160,20","This is a great piece that has a lot more going on the longer you look at it. I like it!,30,300,20","Might be a person rowing their boat across the lake. Not sure if the background is trees or not.,12,60,20","it is very colorful and makes me happy,44,20,20","Seth","Might be a person rowing their boat across the lake. Not sure if the background is trees or not.,12,60,20","Dalton","the colors are vibrant and beautiful,1,300,20","Christopher","it's boring despite all the colors,-2,160,20","1"
"6248","","survey-text","80","942094","0.0-79.0-0.0","A1PF1T680LSXQ5","","","","{""Q0"":""sky""}","","","","","","","","","","","","","","","","","","","","","","",""
"22251","","survey-text","81","964349","0.0-80.0-0.0","A1PF1T680LSXQ5","","","","{""Q0"":""this is very active and attractive.""}","","","","","","","","","","","","","","","","","","","","","","",""
"4777","","image-slider-response","82","969130","0.0-81.0","A1PF1T680LSXQ5","","","","","16","","","","","","","","","","","","","","","","","","","","","",""
"2899","","image-button-response","83","974134","0.0-82.0","A1PF1T680LSXQ5","img_art/10.jpg","4","","","","","","","","","","","","","","","","","","","","","","","","",""
"196","","image-button-response","84","974343","0.0-83.0","A1PF1T680LSXQ5","img_art/10.jpg","1","","","","","","","","","","","","","","","","","","","","","","","","",""
"1286","","image-button-response","85","975634","0.0-84.0-0.0","A1PF1T680LSXQ5","img_art/10.jpg","4","","","","","","","","","","","","","","","","","","","","","","","","",""
"656","","image-button-response","86","976295","0.0-85.0-0.0","A1PF1T680LSXQ5","img_art/10.jpg","3","","","","","","","","","","","","","","","","","","","","","","","","",""
"null","","html-keyboard-response","87","977300","0.0-86.0","A1PF1T680LSXQ5","<p style=""font-size: 48px;"">+</p>","","","","","null","allTrialResponses","1000","1","6","img_art/10.jpg","16","this is very active and attractive.","Taylor,Dalton,Christopher,Nicholas,Seth,Grant","The roller coaster from hell !!!,-10,200,20","for some reason reminds me of music,2,300,20","i like this, the mix of brush textures is cool,24,160,20","I like it but do not love it. It is sort of depressing,13,240,20","It reminds me of the ocean. Almost like a battlefield, but on the water.,19,60,20","I love the chaotic feel of the brush strokes.,35,200,20","Dalton","for some reason reminds me of music,2,300,20","Seth","It reminds me of the ocean. Almost like a battlefield, but on the water.,19,60,20","Nicholas","I like it but do not love it. It is sort of depressing,13,240,20","1"
"20557","","survey-text","88","997873","0.0-87.0-0.0","A1PF1T680LSXQ5","","","","{""Q0"":""This to see bad and not good for see.""}","","","","","","","","","","","","","","","","","","","","","","",""
"3739","","image-slider-response","89","1001616","0.0-88.0","A1PF1T680LSXQ5","","","","","-35","","","","","","","","","","","","","","","","","","","","","",""
"null","","image-button-response","90","1006643","0.0-89.0","A1PF1T680LSXQ5","img_art/26.jpg","null","","","","","","","","","","","","","","","","","","","","","","","","",""
"129","","image-button-response","91","1006775","0.0-90.0","A1PF1T680LSXQ5","img_art/26.jpg","4","","","","","","","","","","","","","","","","","","","","","","","","",""
"1165","","image-button-response","92","1007944","0.0-91.0-0.0","A1PF1T680LSXQ5","img_art/26.jpg","1","","","","","","","","","","","","","","","","","","","","","","","","",""
"1599","","image-button-response","93","1009549","0.0-92.0-0.0","A1PF1T680LSXQ5","img_art/26.jpg","0","","","","","","","","","","","","","","","","","","","","","","","","",""
"null","","html-keyboard-response","94","1010560","0.0-93.0","A1PF1T680LSXQ5","<p style=""font-size: 48px;"">+</p>","","","","","null","allTrialResponses","1000","1","7","img_art/26.jpg","-35","This to see bad and not good for see.","Travis,Dalton,Alex,Nicholas,Seth,Alexander","Neutral...nothing to say.,3,260,20","neighborhood and trees. i wonder if this is water paint.,1,300,20","I can make out a street view and I am a fan of watercolors but still too boring,15,100,20","I like the colors and trees. Seems cheap vintage retail store art but i love it anyways,50,240,20","I'm not sure if this is the image of a furniture store or not.,-20,60,20","Confusing park picture.,8,120,20","Seth","I'm not sure if this is the image of a furniture store or not.,-20,60,20","Dalton","neighborhood and trees. i wonder if this is water paint.,1,300,20","Travis","Neutral...nothing to say.,3,260,20","1"
"31526","","survey-text","95","1042102","0.0-94.0-0.0","A1PF1T680LSXQ5","","","","{""Q0"":""This painting means someone""}","","","","","","","","","","","","","","","","","","","","","","",""
"3205","","image-slider-response","96","1045314","0.0-95.0","A1PF1T680LSXQ5","","","","","10","","","","","","","","","","","","","","","","","","","","","",""
"null","","image-button-response","97","1050321","0.0-96.0","A1PF1T680LSXQ5","img_art/28.jpg","null","","","","","","","","","","","","","","","","","","","","","","","","",""
"2320","","image-button-response","98","1052646","0.0-97.0","A1PF1T680LSXQ5","img_art/28.jpg","3","","","","","","","","","","","","","","","","","","","","","","","","",""
"1102","","image-button-response","99","1053754","0.0-98.0-0.0","A1PF1T680LSXQ5","img_art/28.jpg","1","","","","","","","","","","","","","","","","","","","","","","","","",""
"1140","","image-button-response","100","1054900","0.0-99.0-0.0","A1PF1T680LSXQ5","img_art/28.jpg","5","","","","","","","","","","","","","","","","","","","","","","","","",""
"null","","html-keyboard-response","101","1055405","0.0-100.0","A1PF1T680LSXQ5","<p style=""font-size: 48px;"">+</p>","","","","","null","allTrialResponses","500","1","8","img_art/28.jpg","10","This painting means someone","Travis,Dalton,Caleb,Jacob,Seth,Andrew","Hate it...brown and drab,-37,260,20","not sure what i feel but it makes me feel uncomfortable,1,300,20","White and dark balance is way off- Seems dull.,-33,40,20","I can't tell what's going on but it looks a little bit more lively at least,7,340,20","I think this piece is interesting. I love the faces drawn into it.,29,60,20","Doesn't give me an emotional response,0,160,20","Jacob","I can't tell what's going on but it looks a little bit more lively at least,7,340,20","Dalton","not sure what i feel but it makes me feel uncomfortable,1,300,20","Andrew","Doesn't give me an emotional response,0,160,20","1"
"18722","","survey-text","102","1074138","0.0-101.0-0.0","A1PF1T680LSXQ5","","","","{""Q0"":""It is very bad and this is not to good.""}","","","","","","","","","","","","","","","","","","","","","","",""
"4150","","image-slider-response","103","1078292","0.0-102.0","A1PF1T680LSXQ5","","","","","-19","","","","","","","","","","","","","","","","","","","","","",""
"4076","","image-button-response","104","1083297","0.0-103.0","A1PF1T680LSXQ5","img_art/14.jpg","1","","","","","","","","","","","","","","","","","","","","","","","","",""
"964","","image-button-response","105","1084264","0.0-104.0","A1PF1T680LSXQ5","img_art/14.jpg","3","","","","","","","","","","","","","","","","","","","","","","","","",""
"974","","image-button-response","106","1085246","0.0-105.0-0.0","A1PF1T680LSXQ5","img_art/14.jpg","5","","","","","","","","","","","","","","","","","","","","","","","","",""
"982","","image-button-response","107","1086234","0.0-106.0-0.0","A1PF1T680LSXQ5","img_art/14.jpg","1","","","","","","","","","","","","","","","","","","","","","","","","",""
"null","","html-keyboard-response","108","1087744","0.0-107.0","A1PF1T680LSXQ5","<p style=""font-size: 48px;"">+</p>","","","","","null","allTrialResponses","1500","1","9","img_art/14.jpg","-19","It is very bad and this is not to good.","William,Dalton,Ryan,Jacob,Christian,Andrew","calming to look at,37,380,20","nice simple art piece,2,300,20","Gorgeous use of water color,50,380,20","I kind of like it!,6,340,20","medium recalls back to an oriental style,16,140,20","Makes me think of my plants growing,11,160,20","Jacob","I kind of like it!,6,340,20","Andrew","Makes me think of my plants growing,11,160,20","Dalton","nice simple art piece,2,300,20","1"
"20214","","survey-text","109","1107972","0.0-108.0-0.0","A1PF1T680LSXQ5","","","","{""Q0"":""this is time pass painting""}","","","","","","","","","","","","","","","","","","","","","","",""
"3241","","image-slider-response","110","1111218","0.0-109.0","A1PF1T680LSXQ5","","","","","-9","","","","","","","","","","","","","","","","","","","","","",""
"3969","","image-button-response","111","1116224","0.0-110.0","A1PF1T680LSXQ5","img_art/29.jpg","5","","","","","","","","","","","","","","","","","","","","","","","","",""
"203","","image-button-response","112","1116432","0.0-111.0","A1PF1T680LSXQ5","img_art/29.jpg","0","","","","","","","","","","","","","","","","","","","","","","","","",""
"1816","","image-button-response","113","1118253","0.0-112.0-0.0","A1PF1T680LSXQ5","img_art/29.jpg","5","","","","","","","","","","","","","","","","","","","","","","","","",""
"2578","","image-button-response","114","1120836","0.0-113.0-0.0","A1PF1T680LSXQ5","img_art/29.jpg","1","","","","","","","","","","","","","","","","","","","","","","","","",""
"null","","html-keyboard-response","115","1121342","0.0-114.0","A1PF1T680LSXQ5","<p style=""font-size: 48px;"">+</p>","","","","","null","allTrialResponses","500","1","10","img_art/29.jpg","-9","this is time pass painting","Mason,Dalton,Ethan,Jacob,Derek,Andrew","easy, too abstract for me, don't get it.,-25,100,20","i dont know how it makes me feel.,1,300,20","I love the angry emotion to this art. I feel very drawn to it.,18,120,20","It looks cool but I don't really get what's going on, it looks too busy,0,340,20","Very wild and I like it,20,360,20","It seems like there's anger in the painting.,-20,160,20","Mason","easy, too abstract for me, don't get it.,-25,100,20","Andrew","It seems like there's anger in the painting.,-20,160,20","Dalton","i dont know how it makes me feel.,1,300,20","1"
"5387","","survey-text","116","1126752","0.0-115.0-0.0","A1PF1T680LSXQ5","","","","{""Q0"":""our""}","","","","","","","","","","","","","","","","","","","","","","",""
"21112","","survey-text","117","1147867","0.0-116.0-0.0","A1PF1T680LSXQ5","","","","{""Q0"":""this is means some mountains""}","","","","","","","","","","","","","","","","","","","","","","",""
"6641","","image-slider-response","118","1154514","0.0-117.0","A1PF1T680LSXQ5","","","","","-2","","","","","","","","","","","","","","","","","","","","","",""
"4733","","image-button-response","119","1159519","0.0-118.0","A1PF1T680LSXQ5","img_art/5.jpg","1","","","","","","","","","","","","","","","","","","","","","","","","",""
"850","","image-button-response","120","1160374","0.0-119.0","A1PF1T680LSXQ5","img_art/5.jpg","2","","","","","","","","","","","","","","","","","","","","","","","","",""
"904","","image-button-response","121","1161291","0.0-120.0-0.0","A1PF1T680LSXQ5","img_art/5.jpg","1","","","","","","","","","","","","","","","","","","","","","","","","",""
"1259","","image-button-response","122","1162554","0.0-121.0-0.0","A1PF1T680LSXQ5","img_art/5.jpg","5","","","","","","","","","","","","","","","","","","","","","","","","",""
"null","","html-keyboard-response","123","1163067","0.0-122.0","A1PF1T680LSXQ5","<p style=""font-size: 48px;"">+</p>","","","","","null","allTrialResponses","500","1","11","img_art/5.jpg","-2","this is means some mountains","Mason,Dalton,Eric,Vincent,Jesse,Andrew","pointless, ugly, not creative.,-50,100,20","its something. i just dont know what it is.,1,300,20","I'm reminded of a volcano with weird colors.,-5,100,20","It speaks volumes to some. It's also a conversational piece. And very different ideas,34,360,20","I just dont get it. Means very little to me,-22,80,20","Doesn't make me think anything,-1,160,20","Eric","I'm reminded of a volcano with weird colors.,-5,100,20","Dalton","its something. i just dont know what it is.,1,300,20","Andrew","Doesn't make me think anything,-1,160,20","1"
"34346","","survey-text","124","1197446","0.0-123.0-0.0","A1PF1T680LSXQ5","","","","{""Q0"":""most attractive and most cool painting. This is most good.""}","","","","","","","","","","","","","","","","","","","","","","",""
"4157","","image-slider-response","125","1201606","0.0-124.0","A1PF1T680LSXQ5","","","","","19","","","","","","","","","","","","","","","","","","","","","",""
"null","","image-button-response","126","1206615","0.0-125.0","A1PF1T680LSXQ5","img_art/25.jpg","null","","","","","","","","","","","","","","","","","","","","","","","","",""
"380","","image-button-response","127","1206996","0.0-126.0","A1PF1T680LSXQ5","img_art/25.jpg","4","","","","","","","","","","","","","","","","","","","","","","","","",""
"588","","image-button-response","128","1207587","0.0-127.0-0.0","A1PF1T680LSXQ5","img_art/25.jpg","3","","","","","","","","","","","","","","","","","","","","","","","","",""
"2709","","image-button-response","129","1210303","0.0-128.0-0.0","A1PF1T680LSXQ5","img_art/25.jpg","5","","","","","","","","","","","","","","","","","","","","","","","","",""
"null","","html-keyboard-response","130","1210819","0.0-129.0","A1PF1T680LSXQ5","<p style=""font-size: 48px;"">+</p>","","","","","null","allTrialResponses","500","1","12","img_art/25.jpg","19","most attractive and most cool painting. This is most good.","Jordan,Dalton,Eric,Jason,Samuel,Andrew","This is creepy and I dont like it,-28,160,20","This reminds me of royalty and servants.,32,300,20","This piece gives me a lot of questions which I kind of like.,10,100,20","Love the simplicity and lines,20,20,20","reminds me of burning man,18,400,20","It makes me feel a little uneasy, but I like the painting,11,160,20","Samuel","reminds me of burning man,18,400,20","Jason","Love the simplicity and lines,20,20,20","Andrew","It makes me feel a little uneasy, but I like the painting,11,160,20","1"
"19672","","survey-text","131","1230503","0.0-130.0-0.0","A1PF1T680LSXQ5","","","","{""Q0"":""this is old painting and this is very cool.""}","","","","","","","","","","","","","","","","","","","","","","",""
"3558","","image-slider-response","132","1234067","0.0-131.0","A1PF1T680LSXQ5","","","","","6","","","","","","","","","","","","","","","","","","","","","",""
"null","","image-button-response","133","1239083","0.0-132.0","A1PF1T680LSXQ5","img_art/18.jpg","null","","","","","","","","","","","","","","","","","","","","","","","","",""
"1531","","image-button-response","134","1240617","0.0-133.0","A1PF1T680LSXQ5","img_art/18.jpg","0","","","","","","","","","","","","","","","","","","","","","","","","",""
"1402","","image-button-response","135","1242021","0.0-134.0-0.0","A1PF1T680LSXQ5","img_art/18.jpg","3","","","","","","","","","","","","","","","","","","","","","","","","",""
"2152","","image-button-response","136","1244197","0.0-135.0-0.0","A1PF1T680LSXQ5","img_art/18.jpg","5","","","","","","","","","","","","","","","","","","","","","","","","",""
"null","","html-keyboard-response","137","1245709","0.0-136.0","A1PF1T680LSXQ5","<p style=""font-size: 48px;"">+</p>","","","","","null","allTrialResponses","1500","1","13","img_art/18.jpg","6","this is old painting and this is very cool.","Scott,Connor,Logan,Jason,Samuel,Andrew","reminds me of sailors on a boat,17,20,20","See a weird horse,-22,240,20","Can't tell if I love it or hate it. That response warranted more than neutral so I gave it 20 but not sure,21,360,20","Umclear what is present in the picture,0,20,20","death rides in life,-25,400,20","Another ominous painting,-10,160,20","Scott","reminds me of sailors on a boat,17,20,20","Jason","Umclear what is present in the picture,0,20,20","Andrew","Another ominous painting,-10,160,20","1"
"25306","","survey-text","138","1271028","0.0-137.0-0.0","A1PF1T680LSXQ5","","","","{""Q0"":""It is very cool painting and this is very compliment.""}","","","","","","","","","","","","","","","","","","","","","","",""
"3105","","image-slider-response","139","1274138","0.0-138.0","A1PF1T680LSXQ5","","","","","19","","","","","","","","","","","","","","","","","","","","","",""
"4958","","image-button-response","140","1279145","0.0-139.0","A1PF1T680LSXQ5","img_art/8.jpg","4","","","","","","","","","","","","","","","","","","","","","","","","",""
"731","","image-button-response","141","1279884","0.0-140.0","A1PF1T680LSXQ5","img_art/8.jpg","4","","","","","","","","","","","","","","","","","","","","","","","","",""
"1182","","image-button-response","142","1281073","0.0-141.0-0.0","A1PF1T680LSXQ5","img_art/8.jpg","3","","","","","","","","","","","","","","","","","","","","","","","","",""
"2029","","image-button-response","143","1283110","0.0-142.0-0.0","A1PF1T680LSXQ5","img_art/8.jpg","3","","","","","","","","","","","","","","","","","","","","","","","","",""
"1181","","image-button-response","144","1289151","0.0-142.1-0.1","A1PF1T680LSXQ5","img_art/8.jpg","1","","","","","","","","","","","","","","","","","","","","","","","","",""
"null","","html-keyboard-response","145","1290156","0.0-143.0","A1PF1T680LSXQ5","<p style=""font-size: 48px;"">+</p>","","","","","null","allTrialResponses","1000","1","14","img_art/8.jpg","19","It is very cool painting and this is very compliment.","Scott,David,Chase,Jason,Ian,Andrew","the face is creepy,-49,20,20","I like how the piece is showcasing emotion in relation to something.,25,340,20","This is kind of neat. I really like how things are oriented and the shapes used.,18,120,20","There are a lot of different interesting elements in the picture.,12,20,20","I like this, the longer I look at in the more details I see.,41,260,20","Looks like it would be an interesting place to live,35,160,20","Ian","I like this, the longer I look at in the more details I see.,41,260,20","Jason","There are a lot of different interesting elements in the picture.,12,20,20","David","I like how the piece is showcasing emotion in relation to something.,25,340,20","3"
"22525","","survey-text","146","1312691","0.0-144.0-0.0","A1PF1T680LSXQ5","","","","{""Q0"":""Most cool and most attractive paint""}","","","","","","","","","","","","","","","","","","","","","","",""
"3561","","image-slider-response","147","1316263","0.0-145.0","A1PF1T680LSXQ5","","","","","2","","","","","","","","","","","","","","","","","","","","","",""
"null","","image-button-response","148","1321280","0.0-146.0","A1PF1T680LSXQ5","img_art/27.jpg","null","","","","","","","","","","","","","","","","","","","","","","","","",""
"1195","","image-button-response","149","1322478","0.0-147.0","A1PF1T680LSXQ5","img_art/27.jpg","3","","","","","","","","","","","","","","","","","","","","","","","","",""
"638","","image-button-response","150","1323122","0.0-148.0-0.0","A1PF1T680LSXQ5","img_art/27.jpg","4","","","","","","","","","","","","","","","","","","","","","","","","",""
"1033","","image-button-response","151","1324158","0.0-149.0-0.0","A1PF1T680LSXQ5","img_art/27.jpg","2","","","","","","","","","","","","","","","","","","","","","","","","",""
"null","","html-keyboard-response","152","1324665","0.0-150.0","A1PF1T680LSXQ5","<p style=""font-size: 48px;"">+</p>","","","","","null","allTrialResponses","500","1","15","img_art/27.jpg","2","Most cool and most attractive paint","John,David,Cody,Jason,Ian,Devon","Looks as if a toddler painted it,-20,120,20","Not a fan of the green; gives off the impression that someone else drew on it.,-20,340,20","Not sure how I feel about this. Messy, even for art. But good colors.,0,180,20","The variation of orange is nice,9,20,20","I'm not a fan. It looks like something my nephews (1 and 2) would make,-8,260,20","this reminds me of simpler time,31,400,20","Jason","The variation of orange is nice,9,20,20","Ian","I'm not a fan. It looks like something my nephews (1 and 2) would make,-8,260,20","Cody","Not sure how I feel about this. Messy, even for art. But good colors.,0,180,20","3"
"6332","","survey-text","153","1331019","0.0-151.0-0.0","A1PF1T680LSXQ5","","","","{""Q0"":""course""}","","","","","","","","","","","","","","","","","","","","","","",""
"16055","","survey-text","154","1347078","0.0-152.0-0.0","A1PF1T680LSXQ5","","","","{""Q0"":""this means some old cultures""}","","","","","","","","","","","","","","","","","","","","","","",""
"3256","","image-slider-response","155","1350347","0.0-153.0","A1PF1T680LSXQ5","","","","","16","","","","","","","","","","","","","","","","","","","","","",""
"null","","image-button-response","156","1355354","0.0-154.0","A1PF1T680LSXQ5","img_art/19.jpg","null","","","","","","","","","","","","","","","","","","","","","","","","",""
"1956","","image-button-response","157","1357320","0.0-155.0","A1PF1T680LSXQ5","img_art/19.jpg","4","","","","","","","","","","","","","","","","","","","","","","","","",""
"1883","","image-button-response","158","1359205","0.0-156.0-0.0","A1PF1T680LSXQ5","img_art/19.jpg","2","","","","","","","","","","","","","","","","","","","","","","","","",""
"2200","","image-button-response","159","1361407","0.0-157.0-0.0","A1PF1T680LSXQ5","img_art/19.jpg","1","","","","","","","","","","","","","","","","","","","","","","","","",""
"null","","html-keyboard-response","160","1362410","0.0-158.0","A1PF1T680LSXQ5","<p style=""font-size: 48px;"">+</p>","","","","","null","allTrialResponses","1000","1","16","img_art/19.jpg","16","this means some old cultures","Devin,Jonathan,Cody,Jason,Ian,Spencer","Looks a bit too loose,-2,380,20","Feels like something I would hang in my dining room,42,140,20","Interesting, leaves you wondering what it is,40,180,20","The picture contains a lot of brown and weird drips,-4,20,20","It looks cool but at the time looks like it was done by a talented 5 year old.,13,260,20","Very abstract but I like it, it's busy, lots of colors,43,120,20","Ian","It looks cool but at the time looks like it was done by a talented 5 year old.,13,260,20","Cody","Interesting, leaves you wondering what it is,40,180,20","Jonathan","Feels like something I would hang in my dining room,42,140,20","3"
"23101","","survey-text","161","1385526","0.0-159.0-0.0","A1PF1T680LSXQ5","","","","{""Q0"":""to see this painting very attractive and cool.""}","","","","","","","","","","","","","","","","","","","","","","",""
"4459","","image-slider-response","162","1389989","0.0-160.0","A1PF1T680LSXQ5","","","","","16","","","","","","","","","","","","","","","","","","","","","",""
"null","","image-button-response","163","1395008","0.0-161.0","A1PF1T680LSXQ5","img_art/24.jpg","null","","","","","","","","","","","","","","","","","","","","","","","","",""
"2237","","image-button-response","164","1397249","0.0-162.0","A1PF1T680LSXQ5","img_art/24.jpg","4","","","","","","","","","","","","","","","","","","","","","","","","",""
"1504","","image-button-response","165","1398759","0.0-163.0-0.0","A1PF1T680LSXQ5","img_art/24.jpg","5","","","","","","","","","","","","","","","","","","","","","","","","",""
"2013","","image-button-response","166","1400779","0.0-164.0-0.0","A1PF1T680LSXQ5","img_art/24.jpg","0","","","","","","","","","","","","","","","","","","","","","","","","",""
"null","","html-keyboard-response","167","1401783","0.0-165.0","A1PF1T680LSXQ5","<p style=""font-size: 48px;"">+</p>","","","","","null","allTrialResponses","1000","1","17","img_art/24.jpg","16","to see this painting very attractive and cool.","Edward,Jonathan,Cody,Cole,Ian,Michael","Very pretty and soft,37,60,20","The colors and brush strokes make it feel adventurous,20,140,20","Beautiful, good colors, love water,50,180,20","Abstract waterfall landscape. Confusing,-13,200,20","I find the colors work really well. It's very pretty but I have no idea as what it is.,34,260,20","It's not super high uality  but there is some skill and talent in it I see.,15,140,20","Ian","I find the colors work really well. It's very pretty but I have no idea as what it is.,34,260,20","Michael","It's not super high uality  but there is some skill and talent in it I see.,15,140,20","Edward","Very pretty and soft,37,60,20","3"
"18976","","survey-text","168","1420778","0.0-166.0-0.0","A1PF1T680LSXQ5","","","","{""Q0"":""this is not good and this is child painting""}","","","","","","","","","","","","","","","","","","","","","","",""
"3944","","image-slider-response","169","1424725","0.0-167.0","A1PF1T680LSXQ5","","","","","-29","","","","","","","","","","","","","","","","","","","","","",""
"null","","image-button-response","170","1429741","0.0-168.0","A1PF1T680LSXQ5","img_art/16.jpg","null","","","","","","","","","","","","","","","","","","","","","","","","",""
"1750","","image-button-response","171","1431496","0.0-169.0","A1PF1T680LSXQ5","img_art/16.jpg","5","","","","","","","","","","","","","","","","","","","","","","","","",""
"784","","image-button-response","172","1432284","0.0-170.0-0.0","A1PF1T680LSXQ5","img_art/16.jpg","4","","","","","","","","","","","","","","","","","","","","","","","","",""
"2234","","image-button-response","173","1434528","0.0-171.0-0.0","A1PF1T680LSXQ5","img_art/16.jpg","0","","","","","","","","","","","","","","","","","","","","","","","","",""
"null","","html-keyboard-response","174","1435030","0.0-172.0","A1PF1T680LSXQ5","<p style=""font-size: 48px;"">+</p>","","","","","null","allTrialResponses","500","1","18","img_art/16.jpg","-29","this is not good and this is child painting","Edward,Stephen,Trevor,Kyle,Ian,Michael","It feels lazily done,-9,60,20","Cute but there's a lot going on.,7,140,20","very creepy with a bear and a gun,-50,280,20","I like it because it's quite different from the rest,23,340,20","This looks like it was made by an art student filled with angst,-30,260,20","Looks like a kid did itt and ti looks disturbing.,-45,140,20","Michael","Looks like a kid did itt and ti looks disturbing.,-45,140,20","Ian","This looks like it was made by an art student filled with angst,-30,260,20","Edward","It feels lazily done,-9,60,20","3"
"20978","","survey-text","175","1456019","0.0-173.0-0.0","A1PF1T680LSXQ5","","","","{""Q0"":""very compliment and good pictures.""}","","","","","","","","","","","","","","","","","","","","","","",""
"3203","","image-slider-response","176","1459226","0.0-174.0","A1PF1T680LSXQ5","","","","","8","","","","","","","","","","","","","","","","","","","","","",""
"null","","image-button-response","177","1464240","0.0-175.0","A1PF1T680LSXQ5","img_art/17.jpg","null","","","","","","","","","","","","","","","","","","","","","","","","",""
"1273","","image-button-response","178","1465517","0.0-176.0","A1PF1T680LSXQ5","img_art/17.jpg","5","","","","","","","","","","","","","","","","","","","","","","","","",""
"718","","image-button-response","179","1466239","0.0-177.0-0.0","A1PF1T680LSXQ5","img_art/17.jpg","4","","","","","","","","","","","","","","","","","","","","","","","","",""
"1235","","image-button-response","180","1467477","0.0-178.0-0.0","A1PF1T680LSXQ5","img_art/17.jpg","2","","","","","","","","","","","","","","","","","","","","","","","","",""
"null","","html-keyboard-response","181","1468988","0.0-179.0","A1PF1T680LSXQ5","<p style=""font-size: 48px;"">+</p>","","","","","null","allTrialResponses","1500","1","19","img_art/17.jpg","8","very compliment and good pictures.","Edward,Austin,Brendan,Luis,Ian,Michael","I love how soft it is,35,60,20","Has a unique vibe to it,50,240,20","colorful tree really cool,27,340,20","Messy shadow of loss and love,50,400,20","It seems a little dark but it is very beautiful,28,260,20","There is better structure and direction in this one.,19,140,20","Michael","There is better structure and direction in this one.,19,140,20","Ian","It seems a little dark but it is very beautiful,28,260,20","Brendan","colorful tree really cool,27,340,20","3"
"54861","","survey-text","182","1523869","0.0-180.0-0.0","A1PF1T680LSXQ5","","","","{""Q0"":""this is indicate some place""}","","","","","","","","","","","","","","","","","","","","","","",""
"3098","","image-slider-response","183","1526971","0.0-181.0","A1PF1T680LSXQ5","","","","","11","","","","","","","","","","","","","","","","","","","","","",""
"null","","image-button-response","184","1531976","0.0-182.0","A1PF1T680LSXQ5","img_art/7.jpg","null","","","","","","","","","","","","","","","","","","","","","","","","",""
"4006","","image-button-response","185","1535985","0.0-183.0","A1PF1T680LSXQ5","img_art/7.jpg","3","","","","","","","","","","","","","","","","","","","","","","","","",""
"1220","","image-button-response","186","1537210","0.0-184.0-0.0","A1PF1T680LSXQ5","img_art/7.jpg","2","","","","","","","","","","","","","","","","","","","","","","","","",""
"3026","","image-button-response","187","1540243","0.0-185.0-0.0","A1PF1T680LSXQ5","img_art/7.jpg","0","","","","","","","","","","","","","","","","","","","","","","","","",""
"null","","html-keyboard-response","188","1541250","0.0-186.0","A1PF1T680LSXQ5","<p style=""font-size: 48px;"">+</p>","","","","","null","allTrialResponses","1000","1","20","img_art/7.jpg","11","this is indicate some place","Matthew,Anthony,Brendan,Isaiah,Ian,Michael","landscape of amrs, yawn.,-25,120,20","Very, very dull compared to the other paintings,-36,200,20","some rocks on a mars?,7,340,20","I feel relaxed and a little nostalgic, like I'm exploring the wall of a very old building.,18,300,20","This looks like a literal picture of the ground so I'm really not too sure about this one.,-42,260,20","Ugly. I don't like the colors or the scattering.,-50,140,20","Isaiah","I feel relaxed and a little nostalgic, like I'm exploring the wall of a very old building.,18,300,20","Brendan","some rocks on a mars?,7,340,20","Matthew","landscape of amrs, yawn.,-25,120,20","3"
"6007","","survey-text","189","1547278","0.0-187.0-0.0","A1PF1T680LSXQ5","","","","{""Q0"":""we""}","","","","","","","","","","","","","","","","","","","","","","",""
"15225","","survey-text","190","1562511","0.0-188.0-0.0","A1PF1T680LSXQ5","","","","{""Q0"":""this is not a painting""}","","","","","","","","","","","","","","","","","","","","","","",""
"3608","","image-slider-response","191","1566123","0.0-189.0","A1PF1T680LSXQ5","","","","","-50","","","","","","","","","","","","","","","","","","","","","",""
"null","","image-button-response","192","1571147","0.0-190.0","A1PF1T680LSXQ5","img_art/4.jpg","null","","","","","","","","","","","","","","","","","","","","","","","","",""
"465","","image-button-response","193","1571620","0.0-191.0","A1PF1T680LSXQ5","img_art/4.jpg","3","","","","","","","","","","","","","","","","","","","","","","","","",""
"1102","","image-button-response","194","1572727","0.0-192.0-0.0","A1PF1T680LSXQ5","img_art/4.jpg","4","","","","","","","","","","","","","","","","","","","","","","","","",""
"763","","image-button-response","195","1573499","0.0-193.0-0.0","A1PF1T680LSXQ5","img_art/4.jpg","5","","","","","","","","","","","","","","","","","","","","","","","","",""
"null","","html-keyboard-response","196","1574502","0.0-194.0","A1PF1T680LSXQ5","<p style=""font-size: 48px;"">+</p>","","","","","null","allTrialResponses","1000","1","21","img_art/4.jpg","-50","this is not a painting","Matthew,Timothy,Brendan,Isaiah,Tanner,Juan","It looks like a hand.,25,120,20","The colors feel a bit off to me,-10,240,20","just a scuffed hand,-15,340,20","The sickly looking colors make me feel very uncomfortable.,-35,300,20","stresses me out, uncomfortable,-18,180,20","Again, this is too abstract and I really don't like the colors.,-21,260,20","Isaiah","The sickly looking colors make me feel very uncomfortable.,-35,300,20","Tanner","stresses me out, uncomfortable,-18,180,20","Juan","Again, this is too abstract and I really don't like the colors.,-21,260,20","3"
"17363","","survey-text","197","1591879","0.0-195.0-0.0","A1PF1T680LSXQ5","","","","{""Q0"":""It is very compliment and attractive one.""}","","","","","","","","","","","","","","","","","","","","","","",""
"2711","","image-slider-response","198","1594595","0.0-196.0","A1PF1T680LSXQ5","","","","","20","","","","","","","","","","","","","","","","","","","","","",""
"null","","image-button-response","199","1599601","0.0-197.0","A1PF1T680LSXQ5","img_art/21.jpg","null","","","","","","","","","","","","","","","","","","","","","","","","",""
"1793","","image-button-response","200","1601397","0.0-198.0","A1PF1T680LSXQ5","img_art/21.jpg","3","","","","","","","","","","","","","","","","","","","","","","","","",""
"1155","","image-button-response","201","1602557","0.0-199.0-0.0","A1PF1T680LSXQ5","img_art/21.jpg","2","","","","","","","","","","","","","","","","","","","","","","","","",""
"1347","","image-button-response","202","1603909","0.0-200.0-0.0","A1PF1T680LSXQ5","img_art/21.jpg","5","","","","","","","","","","","","","","","","","","","","","","","","",""
"null","","html-keyboard-response","203","1604927","0.0-201.0","A1PF1T680LSXQ5","<p style=""font-size: 48px;"">+</p>","","","","","null","allTrialResponses","1000","1","22","img_art/21.jpg","20","It is very compliment and attractive one.","Brett,Richard,Antonio,Isaiah,Tanner,Juan","Makes me think of a battleship targeting a beautiful mountainside,0,360,20","setting sun sky? nice colors and blending,14,340,20","the colors are pretty but I did not feel any thing looking at it,33,220,20","I feel the same serene excitement that I feel watching a sunrise on a beach.,38,300,20","calm, ship at sea, sunset,16,180,20","The colors and softness work together to make something that's lovely.,42,260,20","Isaiah","I feel the same serene excitement that I feel watching a sunrise on a beach.,38,300,20","Antonio","the colors are pretty but I did not feel any thing looking at it,33,220,20","Juan","The colors and softness work together to make something that's lovely.,42,260,20","3"
"27969","","survey-text","204","1632917","0.0-202.0-0.0","A1PF1T680LSXQ5","","","","{""Q0"":""mountain to means someone in pictures.""}","","","","","","","","","","","","","","","","","","","","","","",""
"2910","","image-slider-response","205","1635830","0.0-203.0","A1PF1T680LSXQ5","","","","","11","","","","","","","","","","","","","","","","","","","","","",""
"null","","image-button-response","206","1640850","0.0-204.0","A1PF1T680LSXQ5","img_art/9.jpg","null","","","","","","","","","","","","","","","","","","","","","","","","",""
"902","","image-button-response","207","1641759","0.0-205.0","A1PF1T680LSXQ5","img_art/9.jpg","2","","","","","","","","","","","","","","","","","","","","","","","","",""
"448","","image-button-response","208","1642210","0.0-206.0-0.0","A1PF1T680LSXQ5","img_art/9.jpg","1","","","","","","","","","","","","","","","","","","","","","","","","",""
"1035","","image-button-response","209","1643250","0.0-207.0-0.0","A1PF1T680LSXQ5","img_art/9.jpg","3","","","","","","","","","","","","","","","","","","","","","","","","",""
"null","","html-keyboard-response","210","1644255","0.0-208.0","A1PF1T680LSXQ5","<p style=""font-size: 48px;"">+</p>","","","","","null","allTrialResponses","1000","1","23","img_art/9.jpg","11","mountain to means someone in pictures.","Adrian,Benjamin,Antonio,Isaiah,Kevin,Juan","Looks like my niece's doodles.,-50,60,20","looks like sleeping beauty in a garden,10,260,20","Stirs up emotions of watching someone sleep which is relaxing,11,220,20","The piece of art makes me happy, it reminds me of a lively carnival.,15,300,20","This is a picture of a scary mans head sideways.,-24,320,20","It's too abstract for my taste. I wish there were more definition.,-9,260,20","Antonio","Stirs up emotions of watching someone sleep which is relaxing,11,220,20","Benjamin","looks like sleeping beauty in a garden,10,260,20","Isaiah","The piece of art makes me happy, it reminds me of a lively carnival.,15,300,20","3"
"15190","","survey-text","211","1659460","0.0-209.0-0.0","A1PF1T680LSXQ5","","","","{""Q0"":""to see this image is very bad""}","","","","","","","","","","","","","","","","","","","","","","",""
"3656","","image-slider-response","212","1663122","0.0-210.0","A1PF1T680LSXQ5","","","","","-32","","","","","","","","","","","","","","","","","","","","","",""
"null","","image-button-response","213","1668130","0.0-211.0","A1PF1T680LSXQ5","img_art/15.jpg","null","","","","","","","","","","","","","","","","","","","","","","","","",""
"767","","image-button-response","214","1668902","0.0-212.0","A1PF1T680LSXQ5","img_art/15.jpg","0","","","","","","","","","","","","","","","","","","","","","","","","",""
"503","","image-button-response","215","1669411","0.0-213.0-0.0","A1PF1T680LSXQ5","img_art/15.jpg","1","","","","","","","","","","","","","","","","","","","","","","","","",""
"882","","image-button-response","216","1670298","0.0-214.0-0.0","A1PF1T680LSXQ5","img_art/15.jpg","3","","","","","","","","","","","","","","","","","","","","","","","","",""
"null","","html-keyboard-response","217","1671301","0.0-215.0","A1PF1T680LSXQ5","<p style=""font-size: 48px;"">+</p>","","","","","null","allTrialResponses","1000","1","24","img_art/15.jpg","-32","to see this image is very bad","Victor,Benjamin,Antonio,Isaiah,Joshua,Bryce","I like the random blue dabs to break up the black, but it looks unfinished.,4,340,20","Reminds me of blueberry bushes.,7,260,20","Makes me think of a bush and flowers and spring and happy warm times,25,220,20","The painting is very relaxing, I'm reminded of sitting in a garden in the evening.,8,300,20","Like this for the colors and arrangement.,11,240,20","The dots are cool with the blue accents.,24,20,20","Victor","I like the random blue dabs to break up the black, but it looks unfinished.,4,340,20","Benjamin","Reminds me of blueberry bushes.,7,260,20","Isaiah","The painting is very relaxing, I'm reminded of sitting in a garden in the evening.,8,300,20","3"
"13342","","survey-text","218","1684654","0.0-216.0-0.0","A1PF1T680LSXQ5","","","","{""Q0"":""nature damage to means""}","","","","","","","","","","","","","","","","","","","","","","",""
"2618","","image-slider-response","219","1687277","0.0-217.0","A1PF1T680LSXQ5","","","","","43","","","","","","","","","","","","","","","","","","","","","",""
"null","","image-button-response","220","1692302","0.0-218.0","A1PF1T680LSXQ5","img_art/20.jpg","null","","","","","","","","","","","","","","","","","","","","","","","","",""
"2243","","image-button-response","221","1694549","0.0-219.0","A1PF1T680LSXQ5","img_art/20.jpg","3","","","","","","","","","","","","","","","","","","","","","","","","",""
"918","","image-button-response","222","1695469","0.0-220.0-0.0","A1PF1T680LSXQ5","img_art/20.jpg","0","","","","","","","","","","","","","","","","","","","","","","","","",""
"448","","image-button-response","223","1695919","0.0-221.0-0.0","A1PF1T680LSXQ5","img_art/20.jpg","1","","","","","","","","","","","","","","","","","","","","","","","","",""
"null","","html-keyboard-response","224","1696421","0.0-222.0","A1PF1T680LSXQ5","<p style=""font-size: 48px;"">+</p>","","","","","null","allTrialResponses","500","1","25","img_art/20.jpg","43","nature damage to means","Victor,Benjamin,Dylan,Isaiah,Jeremy,Blake","sort of pleasant to look at, but can't tell if it's supposed to be something,13,340,20","Bold strokes and colors.,6,260,20","The white blob looks like a face and it's creepy,-30,40,20","I feel powerful, like I am looking out a window at this machine, that I am in charge.,17,300,20","scared. makes me feel alone or abandoned,-11,60,20","reminds me of a dead animal in the west. ugly,-25,280,20","Isaiah","I feel powerful, like I am looking out a window at this machine, that I am in charge.,17,300,20","Victor","sort of pleasant to look at, but can't tell if it's supposed to be something,13,340,20","Benjamin","Bold strokes and colors.,6,260,20","3"
"6116","","survey-text","225","1702557","0.0-223.0-0.0","A1PF1T680LSXQ5","","","","{""Q0"":""table""}","","","","","","","","","","","","","","","","","","","","","","",""
"14129","","survey-text","226","1716690","0.0-224.0-0.0","A1PF1T680LSXQ5","","","","{""Q0"":""It is not good.""}","","","","","","","","","","","","","","","","","","","","","","",""
"3013","","image-slider-response","227","1719708","0.0-225.0","A1PF1T680LSXQ5","","","","","-28","","","","","","","","","","","","","","","","","","","","","",""
"null","","image-button-response","228","1724726","0.0-226.0","A1PF1T680LSXQ5","img_art/22.jpg","null","","","","","","","","","","","","","","","","","","","","","","","","",""
"1028","","image-button-response","229","1725760","0.0-227.0","A1PF1T680LSXQ5","img_art/22.jpg","1","","","","","","","","","","","","","","","","","","","","","","","","",""
"442","","image-button-response","230","1726207","0.0-228.0-0.0","A1PF1T680LSXQ5","img_art/22.jpg","0","","","","","","","","","","","","","","","","","","","","","","","","",""
"726","","image-button-response","231","1726937","0.0-229.0-0.0","A1PF1T680LSXQ5","img_art/22.jpg","5","","","","","","","","","","","","","","","","","","","","","","","","",""
"null","","html-keyboard-response","232","1727940","0.0-230.0","A1PF1T680LSXQ5","<p style=""font-size: 48px;"">+</p>","","","","","null","allTrialResponses","1000","1","26","img_art/22.jpg","-28","It is not good.","Victor,Benjamin,Cameron,Isaiah,Thomas,Hunter","I don't really know why, I just like looking at it,10,340,20","Colors are bright and cheerful.,5,260,20","Like this one, like a sunset,30,60,20","The painting makes me feel a little sad.,12,300,20","Beautiful. I love the color contrast and gradients.,50,220,20","strong blending skills,7,240,20","Benjamin","Colors are bright and cheerful.,5,260,20","Victor","I don't really know why, I just like looking at it,10,340,20","Hunter","strong blending skills,7,240,20","3"
"30129","","survey-text","233","1758083","0.0-231.0-0.0","A1PF1T680LSXQ5","","","","{""Q0"":""what a painting . this is very realistic""}","","","","","","","","","","","","","","","","","","","","","","",""
"4115","","image-slider-response","234","1762205","0.0-232.0","A1PF1T680LSXQ5","","","","","50","","","","","","","","","","","","","","","","","","","","","",""
"null","","image-button-response","235","1767216","0.0-233.0","A1PF1T680LSXQ5","img_art/13.jpg","null","","","","","","","","","","","","","","","","","","","","","","","","",""
"1624","","image-button-response","236","1768844","0.0-234.0","A1PF1T680LSXQ5","img_art/13.jpg","4","","","","","","","","","","","","","","","","","","","","","","","","",""
"1902","","image-button-response","237","1770751","0.0-235.0-0.0","A1PF1T680LSXQ5","img_art/13.jpg","1","","","","","","","","","","","","","","","","","","","","","","","","",""
"1621","","image-button-response","238","1772377","0.0-236.0-0.0","A1PF1T680LSXQ5","img_art/13.jpg","3","","","","","","","","","","","","","","","","","","","","","","","","",""
"null","","html-keyboard-response","239","1773381","0.0-237.0","A1PF1T680LSXQ5","<p style=""font-size: 48px;"">+</p>","","","","","null","allTrialResponses","1000","1","27","img_art/13.jpg","50","what a painting . this is very realistic","Victor,Benjamin,Jeffrey,Nathan,Tyler,Hunter","Great color balance. I like the splatter, and how the vertical lines go from sharper to more blended.,31,340,20","Reminds me of rain running down a window.,35,260,20","Messy but organised, helps me to relax and observe,8,40,20","While it is a bit basic and doesn't speak to me much, I like the feeling it gives,40,200,20","Pollock? Love the juxtaposition of colors. Soothing and stirring, a beautiful inexplicable paradox.,50,320,20","feels sterile/manufactured,1,240,20","Tyler","Pollock? Love the juxtaposition of colors. Soothing and stirring, a beautiful inexplicable paradox.,50,320,20","Benjamin","Reminds me of rain running down a window.,35,260,20","Nathan","While it is a bit basic and doesn't speak to me much, I like the feeling it gives,40,200,20","3"
"15643","","survey-text","240","1789039","0.0-238.0-0.0","A1PF1T680LSXQ5","","","","{""Q0"":""this is a puzzle""}","","","","","","","","","","","","","","","","","","","","","","",""
"3263","","image-slider-response","241","1792308","0.0-239.0","A1PF1T680LSXQ5","","","","","24","","","","","","","","","","","","","","","","","","","","","",""
"null","","image-button-response","242","1797313","0.0-240.0","A1PF1T680LSXQ5","img_art/12.jpg","null","","","","","","","","","","","","","","","","","","","","","","","","",""
"869","","image-button-response","243","1798188","0.0-241.0","A1PF1T680LSXQ5","img_art/12.jpg","1","","","","","","","","","","","","","","","","","","","","","","","","",""
"644","","image-button-response","244","1798838","0.0-242.0-0.0","A1PF1T680LSXQ5","img_art/12.jpg","4","","","","","","","","","","","","","","","","","","","","","","","","",""
"957","","image-button-response","245","1799799","0.0-243.0-0.0","A1PF1T680LSXQ5","img_art/12.jpg","5","","","","","","","","","","","","","","","","","","","","","","","","",""
"null","","html-keyboard-response","246","1801301","0.0-244.0","A1PF1T680LSXQ5","<p style=""font-size: 48px;"">+</p>","","","","","null","allTrialResponses","1500","1","28","img_art/12.jpg","24","this is a puzzle","Dustin,Benjamin,Patrick,Nathan,Tyler,Miguel","Squares are rigid. I'm ambivalent.,1,20,20","Like how all the colors seem to blend together.,15,260,20","I don't like the blocking,-20,280,20","Kind of interesting, seems almost nostalgic in a way to me.,10,200,20","Different enough to be memorable. The gradient of hues is appealing and appeasing.,32,320,20","Good too basic.,18,160,20","Benjamin","Like how all the colors seem to blend together.,15,260,20","Tyler","Different enough to be memorable. The gradient of hues is appealing and appeasing.,32,320,20","Miguel","Good too basic.,18,160,20","3"
"12738","","survey-text","247","1814057","0.0-245.0-0.0","A1PF1T680LSXQ5","","","","{""Q0"":""some improvement in the world""}","","","","","","","","","","","","","","","","","","","","","","",""
"5306","","image-slider-response","248","1819375","0.0-246.0","A1PF1T680LSXQ5","","","","","33","","","","","","","","","","","","","","","","","","","","","",""
"null","","image-button-response","249","1824388","0.0-247.0","A1PF1T680LSXQ5","img_art/23.jpg","null","","","","","","","","","","","","","","","","","","","","","","","","",""
"1334","","image-button-response","250","1825729","0.0-248.0","A1PF1T680LSXQ5","img_art/23.jpg","5","","","","","","","","","","","","","","","","","","","","","","","","",""
"985","","image-button-response","251","1826718","0.0-249.0-0.0","A1PF1T680LSXQ5","img_art/23.jpg","2","","","","","","","","","","","","","","","","","","","","","","","","",""
"677","","image-button-response","252","1827401","0.0-250.0-0.0","A1PF1T680LSXQ5","img_art/23.jpg","0","","","","","","","","","","","","","","","","","","","","","","","","",""
"null","","html-keyboard-response","253","1827910","0.0-251.0","A1PF1T680LSXQ5","<p style=""font-size: 48px;"">+</p>","","","","","null","allTrialResponses","500","1","29","img_art/23.jpg","33","some improvement in the world","Alexis,Benjamin,Gregory,Corey,Tyler,Miguel","It looks like a parade of musicians full of excitement. Makes me feel upbeat,33,140,20","The background colors seem too dark and the middle images take away from it.,4,260,20","Reminds me of outer space and the stars,30,220,20","white reminds me of screamo music band tshirts when they have their name in the unreadable lettering,-9,260,20","Looks celebratory and joyful! However, the photograph does not do the original work's colors justice.,27,320,20","Awesome abstraction love it.,30,160,20","Miguel","Awesome abstraction love it.,30,160,20","Gregory","Reminds me of outer space and the stars,30,220,20","Alexis","It looks like a parade of musicians full of excitement. Makes me feel upbeat,33,140,20","3"
"30769","","survey-text","254","1858698","0.0-252.0-0.0","A1PF1T680LSXQ5","","","","{""Q0"":""This means one place but painting is not good.""}","","","","","","","","","","","","","","","","","","","","","","",""
"2971","","image-slider-response","255","1861670","0.0-253.0","A1PF1T680LSXQ5","","","","","3","","","","","","","","","","","","","","","","","","","","","",""
"null","","image-button-response","256","1866689","0.0-254.0","A1PF1T680LSXQ5","img_art/6.jpg","null","","","","","","","","","","","","","","","","","","","","","","","","",""
"645","","image-button-response","257","1867339","0.0-255.0","A1PF1T680LSXQ5","img_art/6.jpg","2","","","","","","","","","","","","","","","","","","","","","","","","",""
"528","","image-button-response","258","1867872","0.0-256.0-0.0","A1PF1T680LSXQ5","img_art/6.jpg","1","","","","","","","","","","","","","","","","","","","","","","","","",""
"379","","image-button-response","259","1868254","0.0-257.0-0.0","A1PF1T680LSXQ5","img_art/6.jpg","0","","","","","","","","","","","","","","","","","","","","","","","","",""
"null","","html-keyboard-response","260","1868766","0.0-258.0","A1PF1T680LSXQ5","<p style=""font-size: 48px;"">+</p>","","","","","null","allTrialResponses","500","1","30","img_art/6.jpg","3","This means one place but painting is not good.","Alexis,Paul,Gregory,Brandon,Robert,Miguel","This looks like a crow, sort of bleak,-26,140,20","Maybe it's supposed to be a bird but it looks like a scary cloaked figure. it's just too simple and jarring,-23,300,20","Tree growing in a desert. Gives me feelings of hope,5,220,20","The feeling of isolation with so little objects. Great,20,320,20","Nevermore!  A black raven sitting on a pumpkin. Halloween,-35,360,20","Bird? It's a bird.,23,160,20","Gregory","Tree growing in a desert. Gives me feelings of hope,5,220,20","Paul","Maybe it's supposed to be a bird but it looks like a scary cloaked figure. it's just too simple and jarring,-23,300,20","Alexis","This looks like a crow, sort of bleak,-26,140,20","3"
"3807","","image-button-response_instructions","261","1872586","0.0-259.0","A1PF1T680LSXQ5","","0","instructions","","","","","","","","","","","","","","","","","","","","","","","",""
"1436","","image-button-response","262","1874040","0.0-260.0","A1PF1T680LSXQ5","","0","","","","","","","","","","","","","","","","","","","","","","","","",""
