"rt","url","trial_type","trial_index","time_elapsed","internal_node_id","participant_id","stimulus","button_pressed","Name","responses","response","key_press","variableName","fixationTime","condition","trial","photo","subjectRating","subjectResponse","agentsNames","agent_1_Response","agent_2_Response","agent_3_Response","agent_4_Response","agent_5_Response","agent_6_Response","kept_1_name","kept_1_response","kept_2_name","kept_2_response","kept_3_name","kept_3_response","errorCounter"
"21645","external_page_harvard.html","external-html","0","21909","0.0-0.0","A1Q0G8JA5EZ8EI","","","","","","","","","","","","","","","","","","","","","","","","","","",""
"1970","","image-button-response","1","23883","0.0-1.0","A1Q0G8JA5EZ8EI","","0","","","","","","","","","","","","","","","","","","","","","","","","",""
"2165","","image-button-response","2","26056","0.0-2.0-0.0","A1Q0G8JA5EZ8EI","","1","phone","","","","","","","","","","","","","","","","","","","","","","","",""
"5996","","survey-text","3","32056","0.0-3.0-0.0","A1Q0G8JA5EZ8EI","","","","{""Q0"":""A1Q0G8JA5EZ8EI""}","","","","","","","","","","","","","","","","","","","","","","",""
"8023","","image-button-response_instructions","4","40082","0.0-4.0","A1Q0G8JA5EZ8EI","","0","instructions","","","","","","","","","","","","","","","","","","","","","","","",""
"13471","","image-button-response_instructions","5","53555","0.0-5.0","A1Q0G8JA5EZ8EI","img_art/ins/popularity/ins1.png","0","instructions","","","","","","","","","","","","","","","","","","","","","","","",""
"10094","","image-button-response_instructions","6","63651","0.0-6.0","A1Q0G8JA5EZ8EI","img_art/ins/popularity/ins2.png","0","instructions","","","","","","","","","","","","","","","","","","","","","","","",""
"5053","","image-button-response_instructions","7","68706","0.0-7.0","A1Q0G8JA5EZ8EI","img_art/ins/popularity/ins2Extreme.png","0","instructions","","","","","","","","","","","","","","","","","","","","","","","",""
"7103","","image-button-response_instructions","8","75811","0.0-8.0","A1Q0G8JA5EZ8EI","img_art/ins/popularity/ins3KEEPpop.PNG","0","instructions","","","","","","","","","","","","","","","","","","","","","","","",""
"6266","","image-button-response_instructions","9","82080","0.0-9.0","A1Q0G8JA5EZ8EI","img_art/ins/popularity/ins3ANamepop.PNG","0","instructions","","","","","","","","","","","","","","","","","","","","","","","",""
"3550","","image-button-response_instructions","10","85632","0.0-10.0","A1Q0G8JA5EZ8EI","img_art/ins/popularity/ins3ARatingpop.png","0","instructions","","","","","","","","","","","","","","","","","","","","","","","",""
"3291","","image-button-response_instructions","11","88926","0.0-11.0","A1Q0G8JA5EZ8EI","img_art/ins/popularity/ins3ATextpop.png","0","instructions","","","","","","","","","","","","","","","","","","","","","","","",""
"8560","","image-button-response_instructions","12","97488","0.0-12.0","A1Q0G8JA5EZ8EI","img_art/ins/popularity/ins3ALikespop.png","0","instructions","","","","","","","","","","","","","","","","","","","","","","","",""
"17585","","image-button-response_instructions","13","115074","0.0-13.0","A1Q0G8JA5EZ8EI","img_art/ins/popularity/ins3KEEPpop.PNG","0","instructions","","","","","","","","","","","","","","","","","","","","","","","",""
"12271","","image-button-response_instructions","14","127348","0.0-14.0","A1Q0G8JA5EZ8EI","img_art/ins/popularity/ins3_5RED.png","0","instructions","","","","","","","","","","","","","","","","","","","","","","","",""
"5651","","image-button-response_instructions","15","133001","0.0-15.0","A1Q0G8JA5EZ8EI","img_art/ins/popularity/ins3KEEPpop.PNG","0","instructions","","","","","","","","","","","","","","","","","","","","","","","",""
"10935","","image-button-response_instructions","16","143938","0.0-16.0","A1Q0G8JA5EZ8EI","img_art/ins/popularity/ins4KEEPpop.PNG","0","instructions","","","","","","","","","","","","","","","","","","","","","","","",""
"4264","","image-button-response_instructions","17","148204","0.0-17.0","A1Q0G8JA5EZ8EI","img_art/ins/popularity/ins5KEEPpop.PNG","0","instructions","","","","","","","","","","","","","","","","","","","","","","","",""
"2276","","image-button-response_instructions","18","150482","0.0-18.0","A1Q0G8JA5EZ8EI","","0","instructions","","","","","","","","","","","","","","","","","","","","","","","",""
"14090","","survey-text","19","164611","0.0-19.0-0.0","A1Q0G8JA5EZ8EI","","","","{""Q0"":""but""}","","","","","","","","","","","","","","","","","","","","","","",""
"31235","","survey-text","20","195849","0.0-20.0-0.0","A1Q0G8JA5EZ8EI","","","","{""Q0"":""i dont know whats there to admire !!""}","","","","","","","","","","","","","","","","","","","","","","",""
"6725.70000000298","","image-slider-response","21","202579","0.0-21.0","A1Q0G8JA5EZ8EI","","","","","-27","","","","","","","","","","","","","","","","","","","","","",""
"4891","","image-button-response","22","207702","0.0-22.0","A1Q0G8JA5EZ8EI","img_art/ins/1.jpg","0","","","","","","","","","","","","","","","","","","","","","","","","",""
"15378","","image-button-response","23","223084","0.0-23.0","A1Q0G8JA5EZ8EI","img_art/ins/1.jpg","1","","","","","","","","","","","","","","","","","","","","","","","","",""
"4009","","image-button-response","24","227097","0.0-24.0-0.0","A1Q0G8JA5EZ8EI","img_art/ins/1.jpg","2","","","","","","","","","","","","","","","","","","","","","","","","",""
"1077","","image-button-response","25","228178","0.0-25.0-0.0","A1Q0G8JA5EZ8EI","img_art/ins/1.jpg","1","","","","","","","","","","","","","","","","","","","","","","","","",""
"950","","image-button-response","26","234557","0.0-25.1-0.1","A1Q0G8JA5EZ8EI","img_art/ins/1.jpg","0","","","","","","","","","","","","","","","","","","","","","","","","",""
"null","","html-keyboard-response","27","236071","0.0-26.0","A1Q0G8JA5EZ8EI","<p style=""font-size: 48px;"">+</p>","","","","","null","allTrialResponses","1500","1","-2","img_art/ins/1.jpg","-27","i dont know whats there to admire !!","Adam,Alex,Ben,Carl,Daniel,Jack","Seems like doodles,-20,20,20","very creative work.,36,40,20","This color reminds me of poo,-46,60,20","very calming artwork,42,80,20","It looks like a murder scene.,-48,100,20","I like the sophisticated brushwork,40,120,20","Alex","very creative work.,36,40,20","Ben","This color reminds me of poo,-46,60,20","Adam","Seems like doodles,-20,20,20","2"
"17028","","survey-text","28","253109","0.0-27.0-0.0","A1Q0G8JA5EZ8EI","","","","{""Q0"":""any legend on what to make out of this  ? ""}","","","","","","","","","","","","","","","","","","","","","","",""
"4180.4000000059605","","image-slider-response","29","257293","0.0-28.0","A1Q0G8JA5EZ8EI","","","","","-38","","","","","","","","","","","","","","","","","","","","","",""
"3058","","image-button-response","30","262296","0.0-29.0","A1Q0G8JA5EZ8EI","img_art/ins/2.jpg","0","","","","","","","","","","","","","","","","","","","","","","","","",""
"4768","","image-button-response","31","267068","0.0-30.0","A1Q0G8JA5EZ8EI","img_art/ins/2.jpg","5","","","","","","","","","","","","","","","","","","","","","","","","",""
"2268","","image-button-response","32","269339","0.0-31.0-0.0","A1Q0G8JA5EZ8EI","img_art/ins/2.jpg","1","","","","","","","","","","","","","","","","","","","","","","","","",""
"1468","","image-button-response","33","270812","0.0-32.0-0.0","A1Q0G8JA5EZ8EI","img_art/ins/2.jpg","0","","","","","","","","","","","","","","","","","","","","","","","","",""
"null","","html-keyboard-response","34","272316","0.0-33.0","A1Q0G8JA5EZ8EI","<p style=""font-size: 48px;"">+</p>","","","","","null","allTrialResponses","1500","1","-1","img_art/ins/2.jpg","-38","any legend on what to make out of this  ? ","Adam,Alex,Ben,James,John,Kyle","too much color,-18,20,20","I like the blocks of color arrangements,30,40,20","meaningless painting,-45,60,20","looks too angry,-50,140,20","love the texture of paint,48,160,20","Idk, it is just annoying,-32,180,20","Kyle","Idk, it is just annoying,-32,180,20","Alex","I like the blocks of color arrangements,30,40,20","Adam","too much color,-18,20,20","2"
"19008","","survey-text","35","291335","0.0-34.0-0.0","A1Q0G8JA5EZ8EI","","","","{""Q0"":""art !!!""}","","","","","","","","","","","","","","","","","","","","","","",""
"5073.5","","image-slider-response","36","296411","0.0-35.0","A1Q0G8JA5EZ8EI","","","","","-14","","","","","","","","","","","","","","","","","","","","","",""
"null","","image-button-response","37","301415","0.0-36.0","A1Q0G8JA5EZ8EI","img_art/ins/3.jpg","null","","","","","","","","","","","","","","","","","","","","","","","","",""
"5361","","image-button-response","38","306779","0.0-37.0","A1Q0G8JA5EZ8EI","img_art/ins/3.jpg","5","","","","","","","","","","","","","","","","","","","","","","","","",""
"4343","","image-button-response","39","311125","0.0-38.0-0.0","A1Q0G8JA5EZ8EI","img_art/ins/3.jpg","0","","","","","","","","","","","","","","","","","","","","","","","","",""
"3975","","image-button-response","40","315104","0.0-39.0-0.0","A1Q0G8JA5EZ8EI","img_art/ins/3.jpg","0","","","","","","","","","","","","","","","","","","","","","","","","",""
"891","","image-button-response","41","322092","0.0-39.1-0.1","A1Q0G8JA5EZ8EI","img_art/ins/3.jpg","4","","","","","","","","","","","","","","","","","","","","","","","","",""
"null","","html-keyboard-response","42","322600","0.0-40.0","A1Q0G8JA5EZ8EI","<p style=""font-size: 48px;"">+</p>","","","","","null","allTrialResponses","500","1","0","img_art/ins/3.jpg","-14","art !!!","Adam,Alex,Sam,Mike,Ron,Kyle","My daily routine, it's depressing,-20,20,20","calming blue is very nice,36,40,20","I can feel a rainy day from this painting,18,240,20","enjoy the different shades of blue,22,200,20","It looks depressing,-26,220,20","It looks like a playground for bats,-36,180,20","Kyle","It looks like a playground for bats,-36,180,20","Adam","My daily routine, it's depressing,-20,20,20","Ron","It looks depressing,-26,220,20","4"
"10372","","image-button-response_instructions","43","332983","0.0-41.0","A1Q0G8JA5EZ8EI","","0","instructions","","","","","","","","","","","","","","","","","","","","","","","",""
"10617","","survey-likert","44","343603","0.0-42.0-0.0","A1Q0G8JA5EZ8EI","","","","{""Q0"":"""",""Q1"":0,""Q2"":1}","","","","","","","","","","","","","","","","","","","","","","",""
"7285","","survey-text","45","350898","0.0-43.0-0.0","A1Q0G8JA5EZ8EI","","","","{""Q0"":""rock""}","","","","","","","","","","","","","","","","","","","","","","",""
"27345","","survey-text","46","378245","0.0-44.0-0.0","A1Q0G8JA5EZ8EI","","","","{""Q0"":""bug on a finger ? ""}","","","","","","","","","","","","","","","","","","","","","","",""
"7061.4000000059605","","image-slider-response","47","385310","0.0-45.0","A1Q0G8JA5EZ8EI","","","","","-6","","","","","","","","","","","","","","","","","","","","","",""
"null","","image-button-response","48","390343","0.0-46.0","A1Q0G8JA5EZ8EI","img_art/6.jpg","null","","","","","","","","","","","","","","","","","","","","","","","","",""
"3075","","image-button-response","49","393421","0.0-47.0","A1Q0G8JA5EZ8EI","img_art/6.jpg","3","","","","","","","","","","","","","","","","","","","","","","","","",""
"7007","","image-button-response","50","400432","0.0-48.0-0.0","A1Q0G8JA5EZ8EI","img_art/6.jpg","5","","","","","","","","","","","","","","","","","","","","","","","","",""
"1330","","image-button-response","51","401766","0.0-49.0-0.0","A1Q0G8JA5EZ8EI","img_art/6.jpg","1","","","","","","","","","","","","","","","","","","","","","","","","",""
"null","","html-keyboard-response","52","402269","0.0-50.0","A1Q0G8JA5EZ8EI","<p style=""font-size: 48px;"">+</p>","","","","","null","allTrialResponses","500","1","1","img_art/6.jpg","-6","bug on a finger ? ","Jared,Cole,Paul,Malik,Tanner,Daniel","simplistic. i love orange and green and i love the subject,50,400,20","Close up peach? Hate it,-16,200,20","Maybe it's supposed to be a bird but it looks like a scary cloaked figure. it's just too simple and jarring,-23,300,20","Lonesome in nature,13,40,20","loneliness, fragile, forever alone, a girl who's been there for eternity, only think tracking time is the length of her hair,9,180,20","Odd desert, nice sand color with headless bird,11,320,20","Malik","Lonesome in nature,13,40,20","Daniel","Odd desert, nice sand color with headless bird,11,320,20","Cole","Close up peach? Hate it,-16,200,20","4"
"127750","","survey-text","53","530025","0.0-51.0-0.0","A1Q0G8JA5EZ8EI","","","","{""Q0"":""hey teddy!!""}","","","","","","","","","","","","","","","","","","","","","","",""
"5257.399999991059","","image-slider-response","54","535285","0.0-52.0","A1Q0G8JA5EZ8EI","","","","","-10","","","","","","","","","","","","","","","","","","","","","",""
"2622","","image-button-response","55","540289","0.0-53.0","A1Q0G8JA5EZ8EI","img_art/16.jpg","1","","","","","","","","","","","","","","","","","","","","","","","","",""
"6127","","image-button-response","56","546419","0.0-54.0","A1Q0G8JA5EZ8EI","img_art/16.jpg","2","","","","","","","","","","","","","","","","","","","","","","","","",""
"1867","","image-button-response","57","548290","0.0-55.0-0.0","A1Q0G8JA5EZ8EI","img_art/16.jpg","1","","","","","","","","","","","","","","","","","","","","","","","","",""
"4336","","image-button-response","58","552630","0.0-56.0-0.0","A1Q0G8JA5EZ8EI","img_art/16.jpg","5","","","","","","","","","","","","","","","","","","","","","","","","",""
"null","","html-keyboard-response","59","553633","0.0-57.0","A1Q0G8JA5EZ8EI","<p style=""font-size: 48px;"">+</p>","","","","","null","allTrialResponses","1000","1","2","img_art/16.jpg","-10","hey teddy!!","Benjamin,Cole,Angel,Malik,Ian,Daniel","Don't like the teddy bear. It takes away from the painting.,-39,260,20","Weird mixed media piece,-50,200,20","I see something that is supposed to be comforting but it's been discarded and lost.,-20,180,20","Very emotional,23,40,20","This looks like it was made by an art student filled with angst,-30,260,20","Ugly, broken up and mismatched,-50,320,20","Angel","I see something that is supposed to be comforting but it's been discarded and lost.,-20,180,20","Cole","Weird mixed media piece,-50,200,20","Daniel","Ugly, broken up and mismatched,-50,320,20","4"
"22348","","survey-text","60","575992","0.0-58.0-0.0","A1Q0G8JA5EZ8EI","","","","{""Q0"":""imagination ?! ""}","","","","","","","","","","","","","","","","","","","","","","",""
"5172.29999999702","","image-slider-response","61","581167","0.0-59.0","A1Q0G8JA5EZ8EI","","","","","4","","","","","","","","","","","","","","","","","","","","","",""
"4075","","image-button-response","62","586189","0.0-60.0","A1Q0G8JA5EZ8EI","img_art/23.jpg","1","","","","","","","","","","","","","","","","","","","","","","","","",""
"735","","image-button-response","63","586927","0.0-61.0","A1Q0G8JA5EZ8EI","img_art/23.jpg","1","","","","","","","","","","","","","","","","","","","","","","","","",""
"2717","","image-button-response","64","589648","0.0-62.0-0.0","A1Q0G8JA5EZ8EI","img_art/23.jpg","3","","","","","","","","","","","","","","","","","","","","","","","","",""
"4207","","image-button-response","65","593860","0.0-63.0-0.0","A1Q0G8JA5EZ8EI","img_art/23.jpg","5","","","","","","","","","","","","","","","","","","","","","","","","",""
"null","","html-keyboard-response","66","594369","0.0-64.0","A1Q0G8JA5EZ8EI","<p style=""font-size: 48px;"">+</p>","","","","","null","allTrialResponses","500","1","3","img_art/23.jpg","4","imagination ?! ","Brian,Cole,Angel,Jorge,Tyler,Daniel","this looks like a pop rock album cover,-10,380,20","White in the middle look like people dancing naked,19,200,20","I feel positive community and comfort. Singing along at a concert, united with a bunch of strangers through shared joy.,20,180,20","puzzled with curiosity,31,180,20","Looks celebratory and joyful! However, the photograph does not do the original work's colors justice.,27,320,20","Too busy with color with warrior lineup,0,320,20","Cole","White in the middle look like people dancing naked,19,200,20","Jorge","puzzled with curiosity,31,180,20","Daniel","Too busy with color with warrior lineup,0,320,20","4"
"7272","","survey-text","67","601650","0.0-65.0-0.0","A1Q0G8JA5EZ8EI","","","","{""Q0"":""cave painting ""}","","","","","","","","","","","","","","","","","","","","","","",""
"6015.5","","image-slider-response","68","607668","0.0-66.0","A1Q0G8JA5EZ8EI","","","","","4","","","","","","","","","","","","","","","","","","","","","",""
"null","","image-button-response","69","612675","0.0-67.0","A1Q0G8JA5EZ8EI","img_art/25.jpg","null","","","","","","","","","","","","","","","","","","","","","","","","",""
"4489","","image-button-response","70","617166","0.0-68.0","A1Q0G8JA5EZ8EI","img_art/25.jpg","2","","","","","","","","","","","","","","","","","","","","","","","","",""
"3761","","image-button-response","71","620930","0.0-69.0-0.0","A1Q0G8JA5EZ8EI","img_art/25.jpg","5","","","","","","","","","","","","","","","","","","","","","","","","",""
"2504","","image-button-response","72","623438","0.0-70.0-0.0","A1Q0G8JA5EZ8EI","img_art/25.jpg","0","","","","","","","","","","","","","","","","","","","","","","","","",""
"null","","html-keyboard-response","73","624441","0.0-71.0","A1Q0G8JA5EZ8EI","<p style=""font-size: 48px;"">+</p>","","","","","null","allTrialResponses","1000","1","4","img_art/25.jpg","4","cave painting ","Evan,Cole,Corey,Jorge,Thomas,Daniel","I really like the green and the fact that it is tattered on the edges,23,140,20","Its scary. It looks like someone overlooking hell,-34,200,20","love the color and the contrast of the black on teal,50,260,20","Somewhat feel protected by a messenger,33,180,20","I like the design but the brightness of the color feels almost blinding to me.,-3,220,20","Beautiful color with an interesting otherworldly figure,29,320,20","Corey","love the color and the contrast of the black on teal,50,260,20","Daniel","Beautiful color with an interesting otherworldly figure,29,320,20","Evan","I really like the green and the fact that it is tattered on the edges,23,140,20","4"
"29115","","survey-text","74","653562","0.0-72.0-0.0","A1Q0G8JA5EZ8EI","","","","{""Q0"":""cityscape or chinese great wall ""}","","","","","","","","","","","","","","","","","","","","","","",""
"5232.5999999940395","","image-slider-response","75","658798","0.0-73.0","A1Q0G8JA5EZ8EI","","","","","18","","","","","","","","","","","","","","","","","","","","","",""
"4279","","image-button-response","76","663806","0.0-74.0","A1Q0G8JA5EZ8EI","img_art/11.jpg","3","","","","","","","","","","","","","","","","","","","","","","","","",""
"1341","","image-button-response","77","665151","0.0-75.0","A1Q0G8JA5EZ8EI","img_art/11.jpg","3","","","","","","","","","","","","","","","","","","","","","","","","",""
"6572","","image-button-response","78","671727","0.0-76.0-0.0","A1Q0G8JA5EZ8EI","img_art/11.jpg","1","","","","","","","","","","","","","","","","","","","","","","","","",""
"6243","","image-button-response","79","677974","0.0-77.0-0.0","A1Q0G8JA5EZ8EI","img_art/11.jpg","5","","","","","","","","","","","","","","","","","","","","","","","","",""
"null","","html-keyboard-response","80","679478","0.0-78.0","A1Q0G8JA5EZ8EI","<p style=""font-size: 48px;"">+</p>","","","","","null","allTrialResponses","1500","1","5","img_art/11.jpg","18","cityscape or chinese great wall ","Evan,Kevin,Corey,Mitchell,Spencer,Daniel","I dislike how dark this is,-21,140,20","Thats a creepy old rollercoasters abandoned,-2,320,20","dont like the colors. Its a gloomy day in london and this is the transit system,-26,260,20","Busy city life. transportation, anxiety.,10,180,20","Even with the colors, it is dreary to me,-32,120,20","Some interesting color but scratchy train mess.,-14,320,20","Mitchell","Busy city life. transportation, anxiety.,10,180,20","Kevin","Thats a creepy old rollercoasters abandoned,-2,320,20","Daniel","Some interesting color but scratchy train mess.,-14,320,20","4"
"5362","","survey-text","81","684849","0.0-79.0-0.0","A1Q0G8JA5EZ8EI","","","","{""Q0"":""sky""}","","","","","","","","","","","","","","","","","","","","","","",""
"18028","","survey-text","82","702880","0.0-80.0-0.0","A1Q0G8JA5EZ8EI","","","","{""Q0"":""crime scene ? ""}","","","","","","","","","","","","","","","","","","","","","","",""
"3713.8999999910593","","image-slider-response","83","706598","0.0-81.0","A1Q0G8JA5EZ8EI","","","","","-30","","","","","","","","","","","","","","","","","","","","","",""
"null","","image-button-response","84","711602","0.0-82.0","A1Q0G8JA5EZ8EI","img_art/10.jpg","null","","","","","","","","","","","","","","","","","","","","","","","","",""
"4345","","image-button-response","85","715950","0.0-83.0","A1Q0G8JA5EZ8EI","img_art/10.jpg","0","","","","","","","","","","","","","","","","","","","","","","","","",""
"4796","","image-button-response","86","720750","0.0-84.0-0.0","A1Q0G8JA5EZ8EI","img_art/10.jpg","2","","","","","","","","","","","","","","","","","","","","","","","","",""
"4868","","image-button-response","87","725623","0.0-85.0-0.0","A1Q0G8JA5EZ8EI","img_art/10.jpg","1","","","","","","","","","","","","","","","","","","","","","","","","",""
"null","","html-keyboard-response","88","726626","0.0-86.0","A1Q0G8JA5EZ8EI","<p style=""font-size: 48px;"">+</p>","","","","","null","allTrialResponses","1000","1","6","img_art/10.jpg","-30","crime scene ? ","Vincent,Kevin,Steven,Mitchell,William,Daniel","A very conversational piece could be of many different ideas,38,360,20","Thats a horses head,10,320,20","I dont like it, there is too much going on,-19,160,20","Circle of life, with highs and lows, good and bad. You always weather the storm and come out on top.,40,180,20","absolutely beautiful piece of art,49,380,20","Music visualized with subtle color,17,320,20","Vincent","A very conversational piece could be of many different ideas,38,360,20","Steven","I dont like it, there is too much going on,-19,160,20","Kevin","Thats a horses head,10,320,20","4"
"11743","","survey-text","89","738375","0.0-87.0-0.0","A1Q0G8JA5EZ8EI","","","","{""Q0"":""what galaxy is this ""}","","","","","","","","","","","","","","","","","","","","","","",""
"4350.399999991059","","image-slider-response","90","742730","0.0-88.0","A1Q0G8JA5EZ8EI","","","","","7","","","","","","","","","","","","","","","","","","","","","",""
"3241","","image-button-response","91","747750","0.0-89.0","A1Q0G8JA5EZ8EI","img_art/21.jpg","0","","","","","","","","","","","","","","","","","","","","","","","","",""
"1047","","image-button-response","92","748800","0.0-90.0","A1Q0G8JA5EZ8EI","img_art/21.jpg","1","","","","","","","","","","","","","","","","","","","","","","","","",""
"2775","","image-button-response","93","751579","0.0-91.0-0.0","A1Q0G8JA5EZ8EI","img_art/21.jpg","2","","","","","","","","","","","","","","","","","","","","","","","","",""
"1965","","image-button-response","94","753547","0.0-92.0-0.0","A1Q0G8JA5EZ8EI","img_art/21.jpg","0","","","","","","","","","","","","","","","","","","","","","","","","",""
"null","","html-keyboard-response","95","754550","0.0-93.0","A1Q0G8JA5EZ8EI","<p style=""font-size: 48px;"">+</p>","","","","","null","allTrialResponses","1000","1","7","img_art/21.jpg","7","what galaxy is this ","Vincent,Kevin,Steven,Alexis,Logan,Shane","Love the colors have to say this is my favorite above all,37,360,20","Another ship on fire.,-10,320,20","Okay, I love the color schemes, I can't quite figure it out though,14,160,20","It makes me feel mellow or ""chill"". It makes me have a positive and calm mood,42,140,20","Pink is my favorite, against blue it looks like sunset. Seems like a boat burning down, so don't absolutely love it,23,360,20","It reminds me of war, red blood and dark blue reminds me of an army,-20,80,20","Kevin","Another ship on fire.,-10,320,20","Steven","Okay, I love the color schemes, I can't quite figure it out though,14,160,20","Vincent","Love the colors have to say this is my favorite above all,37,360,20","4"
"14613","","survey-text","96","769169","0.0-94.0-0.0","A1Q0G8JA5EZ8EI","","","","{""Q0"":""is this art ? ""}","","","","","","","","","","","","","","","","","","","","","","",""
"7164.4000000059605","","image-slider-response","97","776336","0.0-95.0","A1Q0G8JA5EZ8EI","","","","","-46","","","","","","","","","","","","","","","","","","","","","",""
"2620","","image-button-response","98","781340","0.0-96.0","A1Q0G8JA5EZ8EI","img_art/29.jpg","4","","","","","","","","","","","","","","","","","","","","","","","","",""
"1018","","image-button-response","99","782361","0.0-97.0","A1Q0G8JA5EZ8EI","img_art/29.jpg","4","","","","","","","","","","","","","","","","","","","","","","","","",""
"2395","","image-button-response","100","784760","0.0-98.0-0.0","A1Q0G8JA5EZ8EI","img_art/29.jpg","5","","","","","","","","","","","","","","","","","","","","","","","","",""
"902","","image-button-response","101","785665","0.0-99.0-0.0","A1Q0G8JA5EZ8EI","img_art/29.jpg","2","","","","","","","","","","","","","","","","","","","","","","","","",""
"null","","html-keyboard-response","102","787169","0.0-100.0","A1Q0G8JA5EZ8EI","<p style=""font-size: 48px;"">+</p>","","","","","null","allTrialResponses","1500","1","8","img_art/29.jpg","-46","is this art ? ","Vincent,Kevin,Steven,Jesus,Michael,Caleb","Another great work of art and very conversational piece,33,360,20","Thats a pretty wierd picture.,6,320,20","Yeah, I don't know. It's clearly a situation where art is the reject of something more,-27,160,20","The light source is confusing, but still interesting to look at,11,100,20","Looks literally like garbage.,-45,140,20","Looks wrong. Like a real painting was vandalized.,-50,40,20","Michael","Looks literally like garbage.,-45,140,20","Caleb","Looks wrong. Like a real painting was vandalized.,-50,40,20","Steven","Yeah, I don't know. It's clearly a situation where art is the reject of something more,-27,160,20","4"
"26620","","survey-text","103","813798","0.0-101.0-0.0","A1Q0G8JA5EZ8EI","","","","{""Q0"":""I just cant appreciate the art here""}","","","","","","","","","","","","","","","","","","","","","","",""
"4471.9000000059605","","image-slider-response","104","818273","0.0-102.0","A1Q0G8JA5EZ8EI","","","","","-33","","","","","","","","","","","","","","","","","","","","","",""
"3662","","image-button-response","105","823290","0.0-103.0","A1Q0G8JA5EZ8EI","img_art/27.jpg","1","","","","","","","","","","","","","","","","","","","","","","","","",""
"5871","","image-button-response","106","829170","0.0-104.0","A1Q0G8JA5EZ8EI","img_art/27.jpg","1","","","","","","","","","","","","","","","","","","","","","","","","",""
"259","","image-button-response","107","829433","0.0-105.0-0.0","A1Q0G8JA5EZ8EI","img_art/27.jpg","4","","","","","","","","","","","","","","","","","","","","","","","","",""
"5627","","image-button-response","108","835064","0.0-106.0-0.0","A1Q0G8JA5EZ8EI","img_art/27.jpg","5","","","","","","","","","","","","","","","","","","","","","","","","",""
"null","","html-keyboard-response","109","836568","0.0-107.0","A1Q0G8JA5EZ8EI","<p style=""font-size: 48px;"">+</p>","","","","","null","allTrialResponses","1500","1","9","img_art/27.jpg","-33","I just cant appreciate the art here","Trevor,Gabriel,Steven,Garrett,Michael,Caleb","I like the orange but it's a little blah,1,280,20","too messy dont like the color choices either,-17,160,20","two warring cities, separated by a small desert,50,160,20","This image could do a better job of showing what is going on and it could use more colors.,-42,180,20","Anyone could do that.,-31,140,20","An abstract piece with such lifeless colors.,-26,40,20","Gabriel","too messy dont like the color choices either,-17,160,20","Michael","Anyone could do that.,-31,140,20","Caleb","An abstract piece with such lifeless colors.,-26,40,20","4"
"23506","","survey-text","110","860087","0.0-108.0-0.0","A1Q0G8JA5EZ8EI","","","","{""Q0"":""piece of twig or art ? !!""}","","","","","","","","","","","","","","","","","","","","","","",""
"4198.899999991059","","image-slider-response","111","864289","0.0-109.0","A1Q0G8JA5EZ8EI","","","","","5","","","","","","","","","","","","","","","","","","","","","",""
"2317","","image-button-response","112","869307","0.0-110.0","A1Q0G8JA5EZ8EI","img_art/4.jpg","1","","","","","","","","","","","","","","","","","","","","","","","","",""
"1026","","image-button-response","113","870336","0.0-111.0","A1Q0G8JA5EZ8EI","img_art/4.jpg","4","","","","","","","","","","","","","","","","","","","","","","","","",""
"1336","","image-button-response","114","871675","0.0-112.0-0.0","A1Q0G8JA5EZ8EI","img_art/4.jpg","3","","","","","","","","","","","","","","","","","","","","","","","","",""
"742","","image-button-response","115","872421","0.0-113.0-0.0","A1Q0G8JA5EZ8EI","img_art/4.jpg","1","","","","","","","","","","","","","","","","","","","","","","","","",""
"null","","html-keyboard-response","116","873436","0.0-114.0","A1Q0G8JA5EZ8EI","<p style=""font-size: 48px;"">+</p>","","","","","null","allTrialResponses","1000","1","10","img_art/4.jpg","5","piece of twig or art ? !!","Isaiah,Gabriel,Bradley,Travis,Michael,Caleb","The sickly looking colors make me feel very uncomfortable.,-35,300,20","this is terrible,-49,160,20","This looks like what happens when someone steps on a mustard packet.,-7,300,20","I don't like this...a mustardy scibble.,-47,260,20","Looks like a child did it.,-42,140,20","Colors are horrendous, look like bodily fluids have been smeared.,-50,40,20","Michael","Looks like a child did it.,-42,140,20","Travis","I don't like this...a mustardy scibble.,-47,260,20","Gabriel","this is terrible,-49,160,20","4"
"6822","","survey-text","117","880288","0.0-115.0-0.0","A1Q0G8JA5EZ8EI","","","","{""Q0"":""our""}","","","","","","","","","","","","","","","","","","","","","","",""
"25719","","survey-text","118","906010","0.0-116.0-0.0","A1Q0G8JA5EZ8EI","","","","{""Q0"":""ghost chasing men on horse? ! ""}","","","","","","","","","","","","","","","","","","","","","","",""
"4036.6000000089407","","image-slider-response","119","910049","0.0-117.0","A1Q0G8JA5EZ8EI","","","","","20","","","","","","","","","","","","","","","","","","","","","",""
"4472","","image-button-response","120","915053","0.0-118.0","A1Q0G8JA5EZ8EI","img_art/18.jpg","4","","","","","","","","","","","","","","","","","","","","","","","","",""
"415","","image-button-response","121","915472","0.0-119.0","A1Q0G8JA5EZ8EI","img_art/18.jpg","2","","","","","","","","","","","","","","","","","","","","","","","","",""
"6623","","image-button-response","122","922099","0.0-120.0-0.0","A1Q0G8JA5EZ8EI","img_art/18.jpg","5","","","","","","","","","","","","","","","","","","","","","","","","",""
"3550","","image-button-response","123","925652","0.0-121.0-0.0","A1Q0G8JA5EZ8EI","img_art/18.jpg","4","","","","","","","","","","","","","","","","","","","","","","","","",""
"null","","html-keyboard-response","124","926155","0.0-122.0","A1Q0G8JA5EZ8EI","<p style=""font-size: 48px;"">+</p>","","","","","null","allTrialResponses","500","1","11","img_art/18.jpg","20","ghost chasing men on horse? ! ","Bryan,Gabriel,Scott,Travis,Michael,Mark","First saw sailing ship in bad weather but then saw woman in upper left - not sure what I'm seeing.,21,400,20","its messy, it seems angry,-21,160,20","reminds me of sailors on a boat,17,20,20","I don't know...kind of a dissatified feeling inside.,-6,260,20","Not my style but I can see some serious skill went int it.,21,140,20","I see an artistic representation of the riding of last of the four horseman. Its stunning.,45,80,20","Scott","reminds me of sailors on a boat,17,20,20","Mark","I see an artistic representation of the riding of last of the four horseman. Its stunning.,45,80,20","Michael","Not my style but I can see some serious skill went int it.,21,140,20","4"
"16795","","survey-text","125","942956","0.0-123.0-0.0","A1Q0G8JA5EZ8EI","","","","{""Q0"":""DNA going to war  ?! ""}","","","","","","","","","","","","","","","","","","","","","","",""
"26556","","image-slider-response","126","969514","0.0-124.0","A1Q0G8JA5EZ8EI","","","","","-36","","","","","","","","","","","","","","","","","","","","","",""
"4819","","image-button-response","127","974518","0.0-125.0","A1Q0G8JA5EZ8EI","img_art/13.jpg","4","","","","","","","","","","","","","","","","","","","","","","","","",""
"706","","image-button-response","128","975226","0.0-126.0","A1Q0G8JA5EZ8EI","img_art/13.jpg","4","","","","","","","","","","","","","","","","","","","","","","","","",""
"781","","image-button-response","129","976010","0.0-127.0-0.0","A1Q0G8JA5EZ8EI","img_art/13.jpg","0","","","","","","","","","","","","","","","","","","","","","","","","",""
"1049","","image-button-response","130","977063","0.0-128.0-0.0","A1Q0G8JA5EZ8EI","img_art/13.jpg","5","","","","","","","","","","","","","","","","","","","","","","","","",""
"null","","html-keyboard-response","131","977567","0.0-129.0","A1Q0G8JA5EZ8EI","<p style=""font-size: 48px;"">+</p>","","","","","null","allTrialResponses","500","1","12","img_art/13.jpg","-36","DNA going to war  ?! ","Noah,Taylor,Scott,Dylan,Michael,Mark","evokes a dampening feeling,-9,260,20","Simple and in my favorite color. I actually like this one.,40,200,20","I like the transition to other colors,24,20,20","I do like the blue colors in this.,12,40,20","I don't car for it but it does seem organized and like it took considereably more skill that others.,9,140,20","Raindrops on a window. Makes me feel like traveling.,31,80,20","Michael","I don't car for it but it does seem organized and like it took considereably more skill that others.,9,140,20","Noah","evokes a dampening feeling,-9,260,20","Mark","Raindrops on a window. Makes me feel like traveling.,31,80,20","4"
"74239","","survey-text","132","1051817","0.0-130.0-0.0","A1Q0G8JA5EZ8EI","","","","{""Q0"":""childs art ""}","","","","","","","","","","","","","","","","","","","","","","",""
"4296.70000000298","","image-slider-response","133","1056117","0.0-131.0","A1Q0G8JA5EZ8EI","","","","","-39","","","","","","","","","","","","","","","","","","","","","",""
"null","","image-button-response","134","1061121","0.0-132.0","A1Q0G8JA5EZ8EI","img_art/14.jpg","null","","","","","","","","","","","","","","","","","","","","","","","","",""
"3799","","image-button-response","135","1064922","0.0-133.0","A1Q0G8JA5EZ8EI","img_art/14.jpg","4","","","","","","","","","","","","","","","","","","","","","","","","",""
"1749","","image-button-response","136","1066674","0.0-134.0-0.0","A1Q0G8JA5EZ8EI","img_art/14.jpg","2","","","","","","","","","","","","","","","","","","","","","","","","",""
"916","","image-button-response","137","1067594","0.0-135.0-0.0","A1Q0G8JA5EZ8EI","img_art/14.jpg","5","","","","","","","","","","","","","","","","","","","","","","","","",""
"null","","html-keyboard-response","138","1069098","0.0-136.0","A1Q0G8JA5EZ8EI","<p style=""font-size: 48px;"">+</p>","","","","","null","allTrialResponses","1500","1","13","img_art/14.jpg","-39","childs art ","Noah,Alexander,Cody,Marcus,Michael,Mark","I enjoy what comes across as a playful take on nature themes,26,260,20","Angled, colored, boxy.,10,120,20","Don't love it.,-10,180,20","I like the colors and the shapes are interesting,11,60,20","Looks like there is some skill but also at the same time parts look unskilled.,-16,140,20","Cute little plant.,15,80,20","Michael","Looks like there is some skill but also at the same time parts look unskilled.,-16,140,20","Cody","Don't love it.,-10,180,20","Mark","Cute little plant.,15,80,20","4"
"54220","","survey-text","139","1123330","0.0-137.0-0.0","A1Q0G8JA5EZ8EI","","","","{""Q0"":""keyhole peeping ""}","","","","","","","","","","","","","","","","","","","","","","",""
"5101.70000000298","","image-slider-response","140","1128435","0.0-138.0","A1Q0G8JA5EZ8EI","","","","","2","","","","","","","","","","","","","","","","","","","","","",""
"null","","image-button-response","141","1133439","0.0-139.0","A1Q0G8JA5EZ8EI","img_art/9.jpg","null","","","","","","","","","","","","","","","","","","","","","","","","",""
"1348","","image-button-response","142","1134789","0.0-140.0","A1Q0G8JA5EZ8EI","img_art/9.jpg","4","","","","","","","","","","","","","","","","","","","","","","","","",""
"2220","","image-button-response","143","1137012","0.0-141.0-0.0","A1Q0G8JA5EZ8EI","img_art/9.jpg","5","","","","","","","","","","","","","","","","","","","","","","","","",""
"3541","","image-button-response","144","1140557","0.0-142.0-0.0","A1Q0G8JA5EZ8EI","img_art/9.jpg","0","","","","","","","","","","","","","","","","","","","","","","","","",""
"null","","html-keyboard-response","145","1141559","0.0-143.0","A1Q0G8JA5EZ8EI","<p style=""font-size: 48px;"">+</p>","","","","","null","allTrialResponses","1000","1","14","img_art/9.jpg","2","keyhole peeping ","Hunter,Ryan,Cody,Carlos,Michael,Mark","strong focal point, appealing use of selective line,11,240,20","Makes me feel angry, its not very clear,-50,380,20","Feels angry .....,-40,180,20","Pleasant in all ways.,27,80,20","Looks like a young child drew it.,-45,140,20","Sleeping woman in a cave. Makes me feel safe.,20,80,20","Michael","Looks like a young child drew it.,-45,140,20","Mark","Sleeping woman in a cave. Makes me feel safe.,20,80,20","Hunter","strong focal point, appealing use of selective line,11,240,20","4"
"43400","","survey-text","146","1184966","0.0-144.0-0.0","A1Q0G8JA5EZ8EI","","","","{""Q0"":""dissolving city""}","","","","","","","","","","","","","","","","","","","","","","",""
"5276.399999991059","","image-slider-response","147","1190245","0.0-145.0","A1Q0G8JA5EZ8EI","","","","","5","","","","","","","","","","","","","","","","","","","","","",""
"2532","","image-button-response","148","1195255","0.0-146.0","A1Q0G8JA5EZ8EI","img_art/19.jpg","1","","","","","","","","","","","","","","","","","","","","","","","","",""
"804","","image-button-response","149","1196062","0.0-147.0","A1Q0G8JA5EZ8EI","img_art/19.jpg","1","","","","","","","","","","","","","","","","","","","","","","","","",""
"5839","","image-button-response","150","1201904","0.0-148.0-0.0","A1Q0G8JA5EZ8EI","img_art/19.jpg","2","","","","","","","","","","","","","","","","","","","","","","","","",""
"1156","","image-button-response","151","1203065","0.0-149.0-0.0","A1Q0G8JA5EZ8EI","img_art/19.jpg","5","","","","","","","","","","","","","","","","","","","","","","","","",""
"null","","html-keyboard-response","152","1204068","0.0-150.0","A1Q0G8JA5EZ8EI","<p style=""font-size: 48px;"">+</p>","","","","","null","allTrialResponses","1000","1","15","img_art/19.jpg","5","dissolving city","Hunter,Robert,Andrew,Adrian,Michael,Mark","feels free and loose,3,240,20","A dreary town in the fall.,-4,360,20","It reminds me of sitting at a cafe on the side of a river.,45,160,20","Pleasant colors with just enough detail to be recognizable. I can see a scene in it that tells a story.,7,60,20","Loks like an amature did it, Not pleasing.,-45,140,20","Feels like a cafe in Paris.,35,80,20","Robert","A dreary town in the fall.,-4,360,20","Andrew","It reminds me of sitting at a cafe on the side of a river.,45,160,20","Mark","Feels like a cafe in Paris.,35,80,20","4"
"5673","","survey-text","153","1209754","0.0-151.0-0.0","A1Q0G8JA5EZ8EI","","","","{""Q0"":""course""}","","","","","","","","","","","","","","","","","","","","","","",""
"15843","","survey-text","154","1225599","0.0-152.0-0.0","A1Q0G8JA5EZ8EI","","","","{""Q0"":""architect's art ""}","","","","","","","","","","","","","","","","","","","","","","",""
"3954.4000000059605","","image-slider-response","155","1229556","0.0-153.0","A1Q0G8JA5EZ8EI","","","","","12","","","","","","","","","","","","","","","","","","","","","",""
"null","","image-button-response","156","1234560","0.0-154.0","A1Q0G8JA5EZ8EI","img_art/8.jpg","null","","","","","","","","","","","","","","","","","","","","","","","","",""
"7260","","image-button-response","157","1241823","0.0-155.0","A1Q0G8JA5EZ8EI","img_art/8.jpg","5","","","","","","","","","","","","","","","","","","","","","","","","",""
"3318","","image-button-response","158","1245146","0.0-156.0-0.0","A1Q0G8JA5EZ8EI","img_art/8.jpg","1","","","","","","","","","","","","","","","","","","","","","","","","",""
"3055","","image-button-response","159","1248205","0.0-157.0-0.0","A1Q0G8JA5EZ8EI","img_art/8.jpg","3","","","","","","","","","","","","","","","","","","","","","","","","",""
"null","","html-keyboard-response","160","1248722","0.0-158.0","A1Q0G8JA5EZ8EI","<p style=""font-size: 48px;"">+</p>","","","","","null","allTrialResponses","500","1","16","img_art/8.jpg","12","architect's art ","Antonio,Robert,Andrew,David,Jonathan,Mark","I love the colors in it and also the faces and door ways. Made me feel hopeful,35,220,20","I like the colors and geometrical shapes but the face in the sky makes it look scary,-10,360,20","Looks like it would be an interesting place to live,35,160,20","I like how the piece is showcasing emotion in relation to something.,25,340,20","It's very grand and ominous but I like it,25,140,20","The face makes me think its a statement of the almighty of big brother watching us. onfuCsion limits my enjoyment.,6,80,20","Mark","The face makes me think its a statement of the almighty of big brother watching us. onfuCsion limits my enjoyment.,6,80,20","Robert","I like the colors and geometrical shapes but the face in the sky makes it look scary,-10,360,20","David","I like how the piece is showcasing emotion in relation to something.,25,340,20","4"
"15870","","survey-text","161","1264603","0.0-159.0-0.0","A1Q0G8JA5EZ8EI","","","","{""Q0"":""roadside ?! ""}","","","","","","","","","","","","","","","","","","","","","","",""
"3866.2000000029802","","image-slider-response","162","1268472","0.0-160.0","A1Q0G8JA5EZ8EI","","","","","-20","","","","","","","","","","","","","","","","","","","","","",""
"2362","","image-button-response","163","1273474","0.0-161.0","A1Q0G8JA5EZ8EI","img_art/26.jpg","1","","","","","","","","","","","","","","","","","","","","","","","","",""
"1041","","image-button-response","164","1274518","0.0-162.0","A1Q0G8JA5EZ8EI","img_art/26.jpg","4","","","","","","","","","","","","","","","","","","","","","","","","",""
"523","","image-button-response","165","1275046","0.0-163.0-0.0","A1Q0G8JA5EZ8EI","img_art/26.jpg","1","","","","","","","","","","","","","","","","","","","","","","","","",""
"5885","","image-button-response","166","1280934","0.0-164.0-0.0","A1Q0G8JA5EZ8EI","img_art/26.jpg","5","","","","","","","","","","","","","","","","","","","","","","","","",""
"null","","html-keyboard-response","167","1281938","0.0-165.0","A1Q0G8JA5EZ8EI","<p style=""font-size: 48px;"">+</p>","","","","","null","allTrialResponses","1000","1","17","img_art/26.jpg","-20","roadside ?! ","Christopher,Robert,Luke,David,Bryce,Mark","too hard to figure out if it's meant to be actual objects or impressions,-36,160,20","Day just begun in the city and the stores are opening their doors.,41,360,20","makes me happy and reminds me of a paris courtyard,29,20,20","The piece doesn't really invoke anything for me.,0,340,20","Love the colors in this one.,22,20,20","I get the feeling of a small old world street.,24,80,20","Bryce","Love the colors in this one.,22,20,20","Robert","Day just begun in the city and the stores are opening their doors.,41,360,20","Mark","I get the feeling of a small old world street.,24,80,20","4"
"26785","","survey-text","168","1308733","0.0-166.0-0.0","A1Q0G8JA5EZ8EI","","","","{""Q0"":""colors washed  out of canvas ""}","","","","","","","","","","","","","","","","","","","","","","",""
"3757.7999999970198","","image-slider-response","169","1312494","0.0-167.0","A1Q0G8JA5EZ8EI","","","","","-35","","","","","","","","","","","","","","","","","","","","","",""
"3755","","image-button-response","170","1317509","0.0-168.0","A1Q0G8JA5EZ8EI","img_art/1.jpg","4","","","","","","","","","","","","","","","","","","","","","","","","",""
"284","","image-button-response","171","1317799","0.0-169.0","A1Q0G8JA5EZ8EI","img_art/1.jpg","3","","","","","","","","","","","","","","","","","","","","","","","","",""
"660","","image-button-response","172","1318462","0.0-170.0-0.0","A1Q0G8JA5EZ8EI","img_art/1.jpg","4","","","","","","","","","","","","","","","","","","","","","","","","",""
"1166","","image-button-response","173","1319632","0.0-171.0-0.0","A1Q0G8JA5EZ8EI","img_art/1.jpg","5","","","","","","","","","","","","","","","","","","","","","","","","",""
"null","","html-keyboard-response","174","1321137","0.0-172.0","A1Q0G8JA5EZ8EI","<p style=""font-size: 48px;"">+</p>","","","","","null","allTrialResponses","1500","1","18","img_art/1.jpg","-35","colors washed  out of canvas ","Tristan,Robert,Joseph,Devin,Bryce,Mark","Unpleasing palette. I see a figure but it seems incongrous to the highly abstract background.,-20,300,20","Pretty colors. Fall day in the East Coast of USA.,42,360,20","Happy! Reminds me of hiking in tennesee.,18,220,20","Quite messy looking,-22,380,20","Again kind a boring.,-38,20,20","It just doesn't speak to me.,0,80,20","Devin","Quite messy looking,-22,380,20","Bryce","Again kind a boring.,-38,20,20","Mark","It just doesn't speak to me.,0,80,20","4"
"13586","","survey-text","175","1334731","0.0-173.0-0.0","A1Q0G8JA5EZ8EI","","","","{""Q0"":""water fall !!""}","","","","","","","","","","","","","","","","","","","","","","",""
"6087.4000000059605","","image-slider-response","176","1340821","0.0-174.0","A1Q0G8JA5EZ8EI","","","","","4","","","","","","","","","","","","","","","","","","","","","",""
"2981","","image-button-response","177","1345825","0.0-175.0","A1Q0G8JA5EZ8EI","img_art/24.jpg","4","","","","","","","","","","","","","","","","","","","","","","","","",""
"1388","","image-button-response","178","1347216","0.0-176.0","A1Q0G8JA5EZ8EI","img_art/24.jpg","4","","","","","","","","","","","","","","","","","","","","","","","","",""
"917","","image-button-response","179","1348136","0.0-177.0-0.0","A1Q0G8JA5EZ8EI","img_art/24.jpg","3","","","","","","","","","","","","","","","","","","","","","","","","",""
"4161","","image-button-response","180","1352301","0.0-178.0-0.0","A1Q0G8JA5EZ8EI","img_art/24.jpg","2","","","","","","","","","","","","","","","","","","","","","","","","",""
"null","","html-keyboard-response","181","1353319","0.0-179.0","A1Q0G8JA5EZ8EI","<p style=""font-size: 48px;"">+</p>","","","","","null","allTrialResponses","1000","1","19","img_art/24.jpg","4","water fall !!","Jake,Chase,Mason,Devin,Bryce,Mark","This looks ugly and simple, as if done by a young person.,-2,360,20","This one isn't that abstract. It clearly looks like a waterfall.,31,120,20","Nature, abstract, I'd hang this in my house.,37,100,20","colors are good but the style is iffy,12,380,20","Looks like a waterfall!,34,20,20","Waterfall, and I love the coloring.,48,80,20","Bryce","Looks like a waterfall!,34,20,20","Devin","colors are good but the style is iffy,12,380,20","Mason","Nature, abstract, I'd hang this in my house.,37,100,20","4"
"57518","","survey-text","182","1410850","0.0-180.0-0.0","A1Q0G8JA5EZ8EI","","","","{""Q0"":""tiles ""}","","","","","","","","","","","","","","","","","","","","","","",""
"21522.89999999106","","image-slider-response","183","1432376","0.0-181.0","A1Q0G8JA5EZ8EI","","","","","-30","","","","","","","","","","","","","","","","","","","","","",""
"2379","","image-button-response","184","1437382","0.0-182.0","A1Q0G8JA5EZ8EI","img_art/12.jpg","4","","","","","","","","","","","","","","","","","","","","","","","","",""
"1515","","image-button-response","185","1438902","0.0-183.0","A1Q0G8JA5EZ8EI","img_art/12.jpg","4","","","","","","","","","","","","","","","","","","","","","","","","",""
"2933","","image-button-response","186","1441839","0.0-184.0-0.0","A1Q0G8JA5EZ8EI","img_art/12.jpg","5","","","","","","","","","","","","","","","","","","","","","","","","",""
"1477","","image-button-response","187","1443319","0.0-185.0-0.0","A1Q0G8JA5EZ8EI","img_art/12.jpg","2","","","","","","","","","","","","","","","","","","","","","","","","",""
"null","","html-keyboard-response","188","1444328","0.0-186.0","A1Q0G8JA5EZ8EI","<p style=""font-size: 48px;"">+</p>","","","","","null","allTrialResponses","1000","1","20","img_art/12.jpg","-30","tiles ","Matthew,Alejandro,Mason,Devin,Bryce,Richard","It's boxy, cubist immpressionism? Very ncie.,32,120,20","I like the sectioned nature of the squares and curves. Not my favorite but still a good one.,27,80,20","it's ok, but blocky, looks old.,3,100,20","Love the shapes here,12,380,20","A little bit boring.,-24,20,20","seems too dark on top and too common on the bottom,-19,340,20","Bryce","A little bit boring.,-24,20,20","Richard","seems too dark on top and too common on the bottom,-19,340,20","Mason","it's ok, but blocky, looks old.,3,100,20","4"
"3066","","survey-text","189","1447414","0.0-187.0-0.0","A1Q0G8JA5EZ8EI","","","","{""Q0"":""we""}","","","","","","","","","","","","","","","","","","","","","","",""
"14040","","survey-text","190","1461456","0.0-188.0-0.0","A1Q0G8JA5EZ8EI","","","","{""Q0"":""vineyard !! ""}","","","","","","","","","","","","","","","","","","","","","","",""
"5188.600000008941","","image-slider-response","191","1466647","0.0-189.0","A1Q0G8JA5EZ8EI","","","","","-33","","","","","","","","","","","","","","","","","","","","","",""
"3712","","image-button-response","192","1471659","0.0-190.0","A1Q0G8JA5EZ8EI","img_art/15.jpg","5","","","","","","","","","","","","","","","","","","","","","","","","",""
"1747","","image-button-response","193","1473409","0.0-191.0","A1Q0G8JA5EZ8EI","img_art/15.jpg","5","","","","","","","","","","","","","","","","","","","","","","","","",""
"1108","","image-button-response","194","1474520","0.0-192.0-0.0","A1Q0G8JA5EZ8EI","img_art/15.jpg","2","","","","","","","","","","","","","","","","","","","","","","","","",""
"1067","","image-button-response","195","1475590","0.0-193.0-0.0","A1Q0G8JA5EZ8EI","img_art/15.jpg","0","","","","","","","","","","","","","","","","","","","","","","","","",""
"null","","html-keyboard-response","196","1476598","0.0-194.0","A1Q0G8JA5EZ8EI","<p style=""font-size: 48px;"">+</p>","","","","","null","allTrialResponses","1000","1","21","img_art/15.jpg","-33","vineyard !! ","Grant,Gregory,Mason,Connor,Bryce,Richard","This elicits no reaction in me.,0,200,20","Black and blue is my favorite color combination,35,220,20","It's ok, it makes me think. That's something I guess.,8,100,20","Neat to explore meaning, blue is interesting,11,240,20","The dots are cool with the blue accents.,24,20,20","dark and provoking,-50,340,20","Richard","dark and provoking,-50,340,20","Mason","It's ok, it makes me think. That's something I guess.,8,100,20","Grant","This elicits no reaction in me.,0,200,20","4"
"23469","","survey-text","197","1500077","0.0-195.0-0.0","A1Q0G8JA5EZ8EI","","","","{""Q0"":""reusing the canvas, so washing it ""}","","","","","","","","","","","","","","","","","","","","","","",""
"4639.600000008941","","image-slider-response","198","1504719","0.0-196.0","A1Q0G8JA5EZ8EI","","","","","-28","","","","","","","","","","","","","","","","","","","","","",""
"2712","","image-button-response","199","1509723","0.0-197.0","A1Q0G8JA5EZ8EI","img_art/2.jpg","1","","","","","","","","","","","","","","","","","","","","","","","","",""
"1050","","image-button-response","200","1510776","0.0-198.0","A1Q0G8JA5EZ8EI","img_art/2.jpg","3","","","","","","","","","","","","","","","","","","","","","","","","",""
"1092","","image-button-response","201","1511872","0.0-199.0-0.0","A1Q0G8JA5EZ8EI","img_art/2.jpg","1","","","","","","","","","","","","","","","","","","","","","","","","",""
"1714","","image-button-response","202","1513591","0.0-200.0-0.0","A1Q0G8JA5EZ8EI","img_art/2.jpg","0","","","","","","","","","","","","","","","","","","","","","","","","",""
"null","","html-keyboard-response","203","1515094","0.0-201.0","A1Q0G8JA5EZ8EI","<p style=""font-size: 48px;"">+</p>","","","","","null","allTrialResponses","1500","1","22","img_art/2.jpg","-28","reusing the canvas, so washing it ","Grant,Timothy,Mason,Blake,James,Richard","The colors are entirely unappealing and very unpleasant to look at.,-20,200,20","The contrasting colors are a bit harsh,-10,240,20","retro, amateurish, not a fan of the colors together.,-10,100,20","ugly green color and makes me sick,-29,280,20","The only parts I like is the light blue, red and black. The green color isn't very flattering.,11,380,20","doctor's office art work, nice colors and not offensive,23,340,20","Blake","ugly green color and makes me sick,-29,280,20","Timothy","The contrasting colors are a bit harsh,-10,240,20","Grant","The colors are entirely unappealing and very unpleasant to look at.,-20,200,20","4"
"19128","","survey-text","204","1534238","0.0-202.0-0.0","A1Q0G8JA5EZ8EI","","","","{""Q0"":""prairie or flood  ? ""}","","","","","","","","","","","","","","","","","","","","","","",""
"3853.5","","image-slider-response","205","1538094","0.0-203.0","A1Q0G8JA5EZ8EI","","","","","2","","","","","","","","","","","","","","","","","","","","","",""
"4182","","image-button-response","206","1543098","0.0-204.0","A1Q0G8JA5EZ8EI","img_art/7.jpg","3","","","","","","","","","","","","","","","","","","","","","","","","",""
"2725","","image-button-response","207","1545826","0.0-205.0","A1Q0G8JA5EZ8EI","img_art/7.jpg","3","","","","","","","","","","","","","","","","","","","","","","","","",""
"2196","","image-button-response","208","1548025","0.0-206.0-0.0","A1Q0G8JA5EZ8EI","img_art/7.jpg","2","","","","","","","","","","","","","","","","","","","","","","","","",""
"854","","image-button-response","209","1548883","0.0-207.0-0.0","A1Q0G8JA5EZ8EI","img_art/7.jpg","1","","","","","","","","","","","","","","","","","","","","","","","","",""
"null","","html-keyboard-response","210","1550386","0.0-208.0","A1Q0G8JA5EZ8EI","<p style=""font-size: 48px;"">+</p>","","","","","null","allTrialResponses","1500","1","23","img_art/7.jpg","2","prairie or flood  ? ","Grant,Timothy,John,Blake,Jeremy,Stephen","This elicits no reaction in me.,0,200,20","This feels very earthy and grounded,20,240,20","It looks like someone took a picture of a muddy ground and called it art.,-41,120,20","hot desert with big rocks.,-19,280,20","Happy. Looking at the moon,43,60,20","Nice realistic feel but nothing stands out.,4,140,20","Blake","hot desert with big rocks.,-19,280,20","John","It looks like someone took a picture of a muddy ground and called it art.,-41,120,20","Timothy","This feels very earthy and grounded,20,240,20","4"
"24155","","survey-text","211","1574557","0.0-209.0-0.0","A1Q0G8JA5EZ8EI","","","","{""Q0"":""multiple layers of images !! ""}","","","","","","","","","","","","","","","","","","","","","","",""
"5965.9000000059605","","image-slider-response","212","1580525","0.0-210.0","A1Q0G8JA5EZ8EI","","","","","15","","","","","","","","","","","","","","","","","","","","","",""
"4761","","image-button-response","213","1585535","0.0-211.0","A1Q0G8JA5EZ8EI","img_art/17.jpg","4","","","","","","","","","","","","","","","","","","","","","","","","",""
"1032","","image-button-response","214","1586570","0.0-212.0","A1Q0G8JA5EZ8EI","img_art/17.jpg","4","","","","","","","","","","","","","","","","","","","","","","","","",""
"4077","","image-button-response","215","1590659","0.0-213.0-0.0","A1Q0G8JA5EZ8EI","img_art/17.jpg","0","","","","","","","","","","","","","","","","","","","","","","","","",""
"4372","","image-button-response","216","1595034","0.0-214.0-0.0","A1Q0G8JA5EZ8EI","img_art/17.jpg","5","","","","","","","","","","","","","","","","","","","","","","","","",""
"null","","html-keyboard-response","217","1596039","0.0-215.0","A1Q0G8JA5EZ8EI","<p style=""font-size: 48px;"">+</p>","","","","","null","allTrialResponses","1000","1","24","img_art/17.jpg","15","multiple layers of images !! ","Dakota,Timothy,John,Blake,Sean,Nathaniel","home - reminds me of fond memories of the Barnes Museum courtyard (looks just like it),30,280,20","This feels like creativity and limitlessness,30,240,20","It gorgeous and i love how the tree is almost 3 dimensional.So many elements to it.,50,120,20","soft and warm light colors are relaxing,12,280,20","my response to the picture is that it looks beautiful,27,40,20","I like the artistic sketching pattern.,24,220,20","Sean","my response to the picture is that it looks beautiful,27,40,20","Dakota","home - reminds me of fond memories of the Barnes Museum courtyard (looks just like it),30,280,20","Nathaniel","I like the artistic sketching pattern.,24,220,20","4"
"15206","","survey-text","218","1611256","0.0-216.0-0.0","A1Q0G8JA5EZ8EI","","","","{""Q0"":""layout sketch !! ""}","","","","","","","","","","","","","","","","","","","","","","",""
"3848.3999999910593","","image-slider-response","219","1615107","0.0-217.0","A1Q0G8JA5EZ8EI","","","","","-29","","","","","","","","","","","","","","","","","","","","","",""
"3242","","image-button-response","220","1620113","0.0-218.0","A1Q0G8JA5EZ8EI","img_art/28.jpg","4","","","","","","","","","","","","","","","","","","","","","","","","",""
"892","","image-button-response","221","1621009","0.0-219.0","A1Q0G8JA5EZ8EI","img_art/28.jpg","3","","","","","","","","","","","","","","","","","","","","","","","","",""
"766","","image-button-response","222","1621779","0.0-220.0-0.0","A1Q0G8JA5EZ8EI","img_art/28.jpg","4","","","","","","","","","","","","","","","","","","","","","","","","",""
"1668","","image-button-response","223","1623451","0.0-221.0-0.0","A1Q0G8JA5EZ8EI","img_art/28.jpg","5","","","","","","","","","","","","","","","","","","","","","","","","",""
"null","","html-keyboard-response","224","1624954","0.0-222.0","A1Q0G8JA5EZ8EI","<p style=""font-size: 48px;"">+</p>","","","","","null","allTrialResponses","1500","1","25","img_art/28.jpg","-29","layout sketch !! ","Dakota,Lucas,Justin,Joshua,Sean,Nathaniel","musical, animated and happy with somber undertones,7,280,20","This painting is mysterious, it makes me curious.,5,380,20","I don't like the colors or the design.,-20,280,20","The colors are drab and a little depressing.,-20,240,20","it looks alright,-1,40,20","Has an air of darkness to it, but no real substance besides the mouse-like thing.,-38,220,20","Joshua","The colors are drab and a little depressing.,-20,240,20","Sean","it looks alright,-1,40,20","Nathaniel","Has an air of darkness to it, but no real substance besides the mouse-like thing.,-38,220,20","4"
"4554","","survey-text","225","1629524","0.0-223.0-0.0","A1Q0G8JA5EZ8EI","","","","{""Q0"":""table""}","","","","","","","","","","","","","","","","","","","","","","",""
"5883","","survey-text","226","1635409","0.0-224.0-0.0","A1Q0G8JA5EZ8EI","","","","{""Q0"":""scribble ""}","","","","","","","","","","","","","","","","","","","","","","",""
"4118.399999991059","","image-slider-response","227","1639531","0.0-225.0","A1Q0G8JA5EZ8EI","","","","","-40","","","","","","","","","","","","","","","","","","","","","",""
"4388","","image-button-response","228","1644534","0.0-226.0","A1Q0G8JA5EZ8EI","img_art/3.jpg","4","","","","","","","","","","","","","","","","","","","","","","","","",""
"632","","image-button-response","229","1645168","0.0-227.0","A1Q0G8JA5EZ8EI","img_art/3.jpg","1","","","","","","","","","","","","","","","","","","","","","","","","",""
"954","","image-button-response","230","1646125","0.0-228.0-0.0","A1Q0G8JA5EZ8EI","img_art/3.jpg","4","","","","","","","","","","","","","","","","","","","","","","","","",""
"1640","","image-button-response","231","1647769","0.0-229.0-0.0","A1Q0G8JA5EZ8EI","img_art/3.jpg","0","","","","","","","","","","","","","","","","","","","","","","","","",""
"null","","html-keyboard-response","232","1649272","0.0-230.0","A1Q0G8JA5EZ8EI","<p style=""font-size: 48px;"">+</p>","","","","","null","allTrialResponses","1500","1","26","img_art/3.jpg","-40","scribble ","Kenneth,Austin,Elijah,Joshua,Sean,Nathaniel","Reminds me of blood.,-28,300,20","It doesn't invoke any excitement,-21,240,20","Somebody scribbled on a piece of paper,-35,80,20","Looks like a Basquiat but just not my cup of tea.,-29,240,20","my response to the picture is a lot of red, danger,,-21,40,20","Just scribbles. People buy that?,-47,220,20","Austin","It doesn't invoke any excitement,-21,240,20","Sean","my response to the picture is a lot of red, danger,,-21,40,20","Kenneth","Reminds me of blood.,-28,300,20","4"
"18758","","survey-text","233","1668042","0.0-231.0-0.0","A1Q0G8JA5EZ8EI","","","","{""Q0"":""attack on a cab ? ""}","","","","","","","","","","","","","","","","","","","","","","",""
"4741.5999999940395","","image-slider-response","234","1672786","0.0-232.0","A1Q0G8JA5EZ8EI","","","","","-39","","","","","","","","","","","","","","","","","","","","","",""
"null","","image-button-response","235","1677799","0.0-233.0","A1Q0G8JA5EZ8EI","img_art/5.jpg","null","","","","","","","","","","","","","","","","","","","","","","","","",""
"20348","","image-button-response","236","1698164","0.0-234.0","A1Q0G8JA5EZ8EI","img_art/5.jpg","3","","","","","","","","","","","","","","","","","","","","","","","","",""
"1807","","image-button-response","237","1699974","0.0-235.0-0.0","A1Q0G8JA5EZ8EI","img_art/5.jpg","0","","","","","","","","","","","","","","","","","","","","","","","","",""
"2168","","image-button-response","238","1702147","0.0-236.0-0.0","A1Q0G8JA5EZ8EI","img_art/5.jpg","5","","","","","","","","","","","","","","","","","","","","","","","","",""
"null","","html-keyboard-response","239","1703650","0.0-237.0","A1Q0G8JA5EZ8EI","<p style=""font-size: 48px;"">+</p>","","","","","null","allTrialResponses","1500","1","27","img_art/5.jpg","-39","attack on a cab ? ","Kenneth,Austin,Edward,Alex,Sean,Kyle","It looks like daffy duck's leg with a random trail of pink.,-22,300,20","Perfect for art exhibition,39,240,20","Pretty simple, I'm not sure what it's supposed to mean,14,60,20","What is this? It looks like no effort was put into this work,-2,100,20","the picture looks ok,8,40,20","Not sure what to say about this piece honestly. It's okay I guess.,0,340,20","Alex","What is this? It looks like no effort was put into this work,-2,100,20","Kenneth","It looks like daffy duck's leg with a random trail of pink.,-22,300,20","Kyle","Not sure what to say about this piece honestly. It's okay I guess.,0,340,20","4"
"18258","","survey-text","240","1721922","0.0-238.0-0.0","A1Q0G8JA5EZ8EI","","","","{""Q0"":""recoloring kitchen tiles ? ""}","","","","","","","","","","","","","","","","","","","","","","",""
"6469.899999991059","","image-slider-response","241","1728396","0.0-239.0","A1Q0G8JA5EZ8EI","","","","","-33","","","","","","","","","","","","","","","","","","","","","",""
"4443","","image-button-response","242","1733400","0.0-240.0","A1Q0G8JA5EZ8EI","img_art/22.jpg","4","","","","","","","","","","","","","","","","","","","","","","","","",""
"1142","","image-button-response","243","1734546","0.0-241.0","A1Q0G8JA5EZ8EI","img_art/22.jpg","4","","","","","","","","","","","","","","","","","","","","","","","","",""
"4308","","image-button-response","244","1738858","0.0-242.0-0.0","A1Q0G8JA5EZ8EI","img_art/22.jpg","1","","","","","","","","","","","","","","","","","","","","","","","","",""
"2164","","image-button-response","245","1741026","0.0-243.0-0.0","A1Q0G8JA5EZ8EI","img_art/22.jpg","3","","","","","","","","","","","","","","","","","","","","","","","","",""
"null","","html-keyboard-response","246","1741536","0.0-244.0","A1Q0G8JA5EZ8EI","<p style=""font-size: 48px;"">+</p>","","","","","null","allTrialResponses","500","1","28","img_art/22.jpg","-33","recoloring kitchen tiles ? ","Kenneth,Dustin,Zachary,Alex,Isaac,Kyle","I really enjoy the blended colors.,20,300,20","Too much red. The red/yellow/orange make me think of heat/fire, which makes me anxious.,-10,20,20","I like the vivid colors.,11,400,20","Not a huge fan of the blocks, also very abstract, I have no idea what it is,8,100,20","The colors clash, and I don't know what is happening.,-23,280,20","I appreciate the artistic effort but it's not for me,0,340,20","Isaac","The colors clash, and I don't know what is happening.,-23,280,20","Dustin","Too much red. The red/yellow/orange make me think of heat/fire, which makes me anxious.,-10,20,20","Alex","Not a huge fan of the blocks, also very abstract, I have no idea what it is,8,100,20","4"
"37282","","survey-text","247","1778835","0.0-245.0-0.0","A1Q0G8JA5EZ8EI","","","","{""Q0"":""cleaning the  brushes ? ""}","","","","","","","","","","","","","","","","","","","","","","",""
"4803","","image-slider-response","248","1783641","0.0-246.0","A1Q0G8JA5EZ8EI","","","","","-39","","","","","","","","","","","","","","","","","","","","","",""
"4863","","image-button-response","249","1788651","0.0-247.0","A1Q0G8JA5EZ8EI","img_art/30.jpg","4","","","","","","","","","","","","","","","","","","","","","","","","",""
"2831","","image-button-response","250","1791486","0.0-248.0","A1Q0G8JA5EZ8EI","img_art/30.jpg","3","","","","","","","","","","","","","","","","","","","","","","","","",""
"778","","image-button-response","251","1792267","0.0-249.0-0.0","A1Q0G8JA5EZ8EI","img_art/30.jpg","4","","","","","","","","","","","","","","","","","","","","","","","","",""
"948","","image-button-response","252","1793219","0.0-250.0-0.0","A1Q0G8JA5EZ8EI","img_art/30.jpg","5","","","","","","","","","","","","","","","","","","","","","","","","",""
"null","","html-keyboard-response","253","1794222","0.0-251.0","A1Q0G8JA5EZ8EI","<p style=""font-size: 48px;"">+</p>","","","","","null","allTrialResponses","1000","1","29","img_art/30.jpg","-39","cleaning the  brushes ? ","Cameron,Dustin,Nathan,Alex,Isaac,Shawn","Like the color and style,31,60,20","Soothing color palette, but doesn't look like anything. All I see are random brush strokes.,1,20,20","It's okay. It should either have stuck to the grey-blue, or added more red. Seems unorganized (maybe that's the point?),-9,200,20","Don't like it at all, looks like a someone smeared paint with their fingers,-25,100,20","It looks like it was painted in 5 minutes.,-32,280,20","Muddy, sloppy, unprofessional,-44,100,20","Alex","Don't like it at all, looks like a someone smeared paint with their fingers,-25,100,20","Isaac","It looks like it was painted in 5 minutes.,-32,280,20","Shawn","Muddy, sloppy, unprofessional,-44,100,20","4"
"14522","","survey-text","254","1808752","0.0-252.0-0.0","A1Q0G8JA5EZ8EI","","","","{""Q0"":""ruins  ""}","","","","","","","","","","","","","","","","","","","","","","",""
"3702.4000000059605","","image-slider-response","255","1812458","0.0-253.0","A1Q0G8JA5EZ8EI","","","","","-7","","","","","","","","","","","","","","","","","","","","","",""
"null","","image-button-response","256","1817468","0.0-254.0","A1Q0G8JA5EZ8EI","img_art/20.jpg","null","","","","","","","","","","","","","","","","","","","","","","","","",""
"2067","","image-button-response","257","1819538","0.0-255.0","A1Q0G8JA5EZ8EI","img_art/20.jpg","3","","","","","","","","","","","","","","","","","","","","","","","","",""
"1693","","image-button-response","258","1821234","0.0-256.0-0.0","A1Q0G8JA5EZ8EI","img_art/20.jpg","5","","","","","","","","","","","","","","","","","","","","","","","","",""
"6548","","image-button-response","259","1827785","0.0-257.0-0.0","A1Q0G8JA5EZ8EI","img_art/20.jpg","4","","","","","","","","","","","","","","","","","","","","","","","","",""
"null","","html-keyboard-response","260","1828299","0.0-258.0","A1Q0G8JA5EZ8EI","<p style=""font-size: 48px;"">+</p>","","","","","null","allTrialResponses","500","1","30","img_art/20.jpg","-7","ruins  ","Jack,Jacob,Jesse,Alex,Isaac,Shawn","could look for hours. love the brush work. color choices look like a desert.,50,320,20","It looks painted really nicely.,5,340,20","I do at least like the dark colors blending,6,80,20","Reminds me of Dali for some reason, whom I don't like,-7,100,20","It is abstract but it looks neat.,15,280,20","Mood setting if a little dreary,20,100,20","Alex","Reminds me of Dali for some reason, whom I don't like,-7,100,20","Shawn","Mood setting if a little dreary,20,100,20","Isaac","It is abstract but it looks neat.,15,280,20","4"
"2724","","image-button-response_instructions","261","1831035","0.0-259.0","A1Q0G8JA5EZ8EI","","0","instructions","","","","","","","","","","","","","","","","","","","","","","","",""
"2069","","image-button-response","262","1833113","0.0-260.0","A1Q0G8JA5EZ8EI","","0","","","","","","","","","","","","","","","","","","","","","","","","",""
