"rt","url","trial_type","trial_index","time_elapsed","internal_node_id","participant_id","stimulus","button_pressed","Name","responses","response","key_press","variableName","fixationTime","condition","trial","photo","subjectRating","subjectResponse","agentsNames","agent_1_Response","agent_2_Response","agent_3_Response","agent_4_Response","agent_5_Response","agent_6_Response","kept_1_name","kept_1_response","kept_2_name","kept_2_response","kept_3_name","kept_3_response","errorCounter"
"10437","external_page_harvard.html","external-html","0","10541","0.0-0.0","A1QW2XUJ7KZCV5","","","","","","","","","","","","","","","","","","","","","","","","","","",""
"1832","","image-button-response","1","12375","0.0-1.0","A1QW2XUJ7KZCV5","","1","","","","","","","","","","","","","","","","","","","","","","","","",""
"1322","","image-button-response","2","13702","0.0-2.0-0.0","A1QW2XUJ7KZCV5","","1","phone","","","","","","","","","","","","","","","","","","","","","","","",""
"11197","","survey-text","3","24901","0.0-3.0-0.0","A1QW2XUJ7KZCV5","","","","{""Q0"":""A1QW2XUJ7KZCV5""}","","","","","","","","","","","","","","","","","","","","","","",""
"8849","","image-button-response_instructions","4","33752","0.0-4.0","A1QW2XUJ7KZCV5","","0","instructions","","","","","","","","","","","","","","","","","","","","","","","",""
"19256","","image-button-response_instructions","5","53010","0.0-5.0","A1QW2XUJ7KZCV5","img_art/ins/popularity/ins1.png","0","instructions","","","","","","","","","","","","","","","","","","","","","","","",""
"7894","","image-button-response_instructions","6","60905","0.0-6.0","A1QW2XUJ7KZCV5","img_art/ins/popularity/ins2.png","0","instructions","","","","","","","","","","","","","","","","","","","","","","","",""
"8206","","image-button-response_instructions","7","69113","0.0-7.0","A1QW2XUJ7KZCV5","img_art/ins/popularity/ins2Extreme.png","0","instructions","","","","","","","","","","","","","","","","","","","","","","","",""
"15127","","image-button-response_instructions","8","84242","0.0-8.0","A1QW2XUJ7KZCV5","img_art/ins/popularity/ins3KEEPpop.PNG","0","instructions","","","","","","","","","","","","","","","","","","","","","","","",""
"6341","","image-button-response_instructions","9","90584","0.0-9.0","A1QW2XUJ7KZCV5","img_art/ins/popularity/ins3ANamepop.PNG","0","instructions","","","","","","","","","","","","","","","","","","","","","","","",""
"5162","","image-button-response_instructions","10","95748","0.0-10.0","A1QW2XUJ7KZCV5","img_art/ins/popularity/ins3ARatingpop.png","0","instructions","","","","","","","","","","","","","","","","","","","","","","","",""
"4105","","image-button-response_instructions","11","99855","0.0-11.0","A1QW2XUJ7KZCV5","img_art/ins/popularity/ins3ATextpop.png","0","instructions","","","","","","","","","","","","","","","","","","","","","","","",""
"6188","","image-button-response_instructions","12","106044","0.0-12.0","A1QW2XUJ7KZCV5","img_art/ins/popularity/ins3ALikespop.png","0","instructions","","","","","","","","","","","","","","","","","","","","","","","",""
"14684","","image-button-response_instructions","13","120729","0.0-13.0","A1QW2XUJ7KZCV5","img_art/ins/popularity/ins3KEEPpop.PNG","0","instructions","","","","","","","","","","","","","","","","","","","","","","","",""
"15419","","image-button-response_instructions","14","136150","0.0-14.0","A1QW2XUJ7KZCV5","img_art/ins/popularity/ins3_5RED.png","0","instructions","","","","","","","","","","","","","","","","","","","","","","","",""
"6473","","image-button-response_instructions","15","142625","0.0-15.0","A1QW2XUJ7KZCV5","img_art/ins/popularity/ins3KEEPpop.PNG","0","instructions","","","","","","","","","","","","","","","","","","","","","","","",""
"9617","","image-button-response_instructions","16","152244","0.0-16.0","A1QW2XUJ7KZCV5","img_art/ins/popularity/ins4KEEPpop.PNG","0","instructions","","","","","","","","","","","","","","","","","","","","","","","",""
"4795","","image-button-response_instructions","17","157040","0.0-17.0","A1QW2XUJ7KZCV5","img_art/ins/popularity/ins5KEEPpop.PNG","0","instructions","","","","","","","","","","","","","","","","","","","","","","","",""
"1687","","image-button-response_instructions","18","158728","0.0-18.0","A1QW2XUJ7KZCV5","","0","instructions","","","","","","","","","","","","","","","","","","","","","","","",""
"8443","","survey-text","19","167194","0.0-19.0-0.0","A1QW2XUJ7KZCV5","","","","{""Q0"":""but""}","","","","","","","","","","","","","","","","","","","","","","",""
"63243","","survey-text","20","230439","0.0-20.0-0.0","A1QW2XUJ7KZCV5","","","","{""Q0"":""This reminds me of Neapolitan ice cream.""}","","","","","","","","","","","","","","","","","","","","","","",""
"8269.700000047684","","image-slider-response","21","238711","0.0-21.0","A1QW2XUJ7KZCV5","","","","","6","","","","","","","","","","","","","","","","","","","","","",""
"null","","image-button-response","22","243716","0.0-22.0","A1QW2XUJ7KZCV5","img_art/ins/1.jpg","null","","","","","","","","","","","","","","","","","","","","","","","","",""
"9996","","image-button-response","23","253714","0.0-23.0","A1QW2XUJ7KZCV5","img_art/ins/1.jpg","5","","","","","","","","","","","","","","","","","","","","","","","","",""
"8948","","image-button-response","24","262664","0.0-24.0-0.0","A1QW2XUJ7KZCV5","img_art/ins/1.jpg","0","","","","","","","","","","","","","","","","","","","","","","","","",""
"3535","","image-button-response","25","266202","0.0-25.0-0.0","A1QW2XUJ7KZCV5","img_art/ins/1.jpg","4","","","","","","","","","","","","","","","","","","","","","","","","",""
"null","","html-keyboard-response","26","267705","0.0-26.0","A1QW2XUJ7KZCV5","<p style=""font-size: 48px;"">+</p>","","","","","null","allTrialResponses","1500","1","-2","img_art/ins/1.jpg","6","This reminds me of Neapolitan ice cream.","Allison,Ashley,Beth,Dora,Erika,Jen","looks like a lot of things going on in the mist,20,20,20","I just don't get why these type of art would be popular,-32,40,20","This color reminds me of poo,-46,60,20","looks like what my niece in 3rd grade did this afternoon,-50,80,20","I like the sophisticated brushwork,40,100,20","It reminds me of a candy land dream I had,36,120,20","Jen","It reminds me of a candy land dream I had,36,120,20","Allison","looks like a lot of things going on in the mist,20,20,20","Erika","I like the sophisticated brushwork,40,100,20","0"
"26364","","survey-text","27","294077","0.0-27.0-0.0","A1QW2XUJ7KZCV5","","","","{""Q0"":""It looks like a brick oven.""}","","","","","","","","","","","","","","","","","","","","","","",""
"9009.899999976158","","image-slider-response","28","303089","0.0-28.0","A1QW2XUJ7KZCV5","","","","","3","","","","","","","","","","","","","","","","","","","","","",""
"2380","","image-button-response","29","308093","0.0-29.0","A1QW2XUJ7KZCV5","img_art/ins/2.jpg","5","","","","","","","","","","","","","","","","","","","","","","","","",""
"6303","","image-button-response","30","314400","0.0-30.0","A1QW2XUJ7KZCV5","img_art/ins/2.jpg","1","","","","","","","","","","","","","","","","","","","","","","","","",""
"7526","","image-button-response","31","321928","0.0-31.0-0.0","A1QW2XUJ7KZCV5","img_art/ins/2.jpg","5","","","","","","","","","","","","","","","","","","","","","","","","",""
"1894","","image-button-response","32","323825","0.0-32.0-0.0","A1QW2XUJ7KZCV5","img_art/ins/2.jpg","4","","","","","","","","","","","","","","","","","","","","","","","","",""
"null","","html-keyboard-response","33","324327","0.0-33.0","A1QW2XUJ7KZCV5","<p style=""font-size: 48px;"">+</p>","","","","","null","allTrialResponses","500","1","-1","img_art/ins/2.jpg","3","It looks like a brick oven.","Allison,Kara,Katie,Jenna,Erika,Jen","I don't have strong feelings about this,10,20,20","I like the blocks of color arrangements,30,160,20","too much color!,-28,180,20","One of my pet peevs,-48,140,20","I would never be able to compose a sophisticated pallete like this,48,100,20","It reminds me of a fireplace,36,120,20","Kara","I like the blocks of color arrangements,30,160,20","Jen","It reminds me of a fireplace,36,120,20","Erika","I would never be able to compose a sophisticated pallete like this,48,100,20","0"
"23118","","survey-text","34","347450","0.0-34.0-0.0","A1QW2XUJ7KZCV5","","","","{""Q0"":""It reminds me of ice forming on a window.""}","","","","","","","","","","","","","","","","","","","","","","",""
"3637.3000000715256","","image-slider-response","35","351089","0.0-35.0","A1QW2XUJ7KZCV5","","","","","15","","","","","","","","","","","","","","","","","","","","","",""
"4185","","image-button-response","36","356092","0.0-36.0","A1QW2XUJ7KZCV5","img_art/ins/3.jpg","5","","","","","","","","","","","","","","","","","","","","","","","","",""
"5030","","image-button-response","37","361125","0.0-37.0","A1QW2XUJ7KZCV5","img_art/ins/3.jpg","1","","","","","","","","","","","","","","","","","","","","","","","","",""
"6863","","image-button-response","38","367992","0.0-38.0-0.0","A1QW2XUJ7KZCV5","img_art/ins/3.jpg","5","","","","","","","","","","","","","","","","","","","","","","","","",""
"1444","","image-button-response","39","369438","0.0-39.0-0.0","A1QW2XUJ7KZCV5","img_art/ins/3.jpg","4","","","","","","","","","","","","","","","","","","","","","","","","",""
"null","","html-keyboard-response","40","370439","0.0-40.0","A1QW2XUJ7KZCV5","<p style=""font-size: 48px;"">+</p>","","","","","null","allTrialResponses","1000","1","0","img_art/ins/3.jpg","15","It reminds me of ice forming on a window.","Mary,Kara,Rose,Leslie,Erika,Jen","I like the overlapping of brushes,41,220,20","calming blue is very nice,36,160,20","My daily routine, it's depressing,-20,240,20","It's an alright work,15,200,20","I feel connected to the artist,40,100,20","I can feel a rainy day from this painting,18,120,20","Kara","calming blue is very nice,36,160,20","Jen","I can feel a rainy day from this painting,18,120,20","Erika","I feel connected to the artist,40,100,20","0"
"8346","","image-button-response_instructions","41","378791","0.0-41.0","A1QW2XUJ7KZCV5","","0","instructions","","","","","","","","","","","","","","","","","","","","","","","",""
"13479","","survey-likert","42","392273","0.0-42.0-0.0","A1QW2XUJ7KZCV5","","","","{""Q0"":"""",""Q1"":0,""Q2"":1}","","","","","","","","","","","","","","","","","","","","","","",""
"4579","","survey-text","43","396858","0.0-43.0-0.0","A1QW2XUJ7KZCV5","","","","{""Q0"":""rock""}","","","","","","","","","","","","","","","","","","","","","","",""
"36941","","survey-text","44","433802","0.0-44.0-0.0","A1QW2XUJ7KZCV5","","","","{""Q0"":""It kind of irritates me because it looks like bugs in dirt.""}","","","","","","","","","","","","","","","","","","","","","","",""
"4199.100000023842","","image-slider-response","45","438003","0.0-45.0","A1QW2XUJ7KZCV5","","","","","-20","","","","","","","","","","","","","","","","","","","","","",""
"null","","image-button-response","46","443031","0.0-46.0","A1QW2XUJ7KZCV5","img_art/15.jpg","null","","","","","","","","","","","","","","","","","","","","","","","","",""
"1835","","image-button-response","47","444869","0.0-47.0","A1QW2XUJ7KZCV5","img_art/15.jpg","2","","","","","","","","","","","","","","","","","","","","","","","","",""
"2373","","image-button-response","48","447243","0.0-48.0-0.0","A1QW2XUJ7KZCV5","img_art/15.jpg","0","","","","","","","","","","","","","","","","","","","","","","","","",""
"8170","","image-button-response","49","455415","0.0-49.0-0.0","A1QW2XUJ7KZCV5","img_art/15.jpg","1","","","","","","","","","","","","","","","","","","","","","","","","",""
"null","","html-keyboard-response","50","456417","0.0-50.0","A1QW2XUJ7KZCV5","<p style=""font-size: 48px;"">+</p>","","","","","null","allTrialResponses","1000","1","1","img_art/15.jpg","-20","It kind of irritates me because it looks like bugs in dirt.","Gabriela,Rebecca,Katherine,Lindsey,Katelyn,Mariah","it is dark and gloomy,-9,140,20","very unsettling! like reverse porcelain esp because of the colors,28,100,20","black dots too ant-like,-25,120,20","Not a fan. This piece would only go with very specific decor in a modern home.,-35,400,20","Doesnt trigger much of a reaction overall,-2,100,20","It is visually appealing, stark and simple but natural.,41,140,20","Katherine","black dots too ant-like,-25,120,20","Gabriela","it is dark and gloomy,-9,140,20","Rebecca","very unsettling! like reverse porcelain esp because of the colors,28,100,20","0"
"38123","","survey-text","51","494546","0.0-51.0-0.0","A1QW2XUJ7KZCV5","","","","{""Q0"":""It looks as though the ink is being pushed out by the pen.""}","","","","","","","","","","","","","","","","","","","","","","",""
"3333.5","","image-slider-response","52","497882","0.0-52.0","A1QW2XUJ7KZCV5","","","","","5","","","","","","","","","","","","","","","","","","","","","",""
"null","","image-button-response","53","502885","0.0-53.0","A1QW2XUJ7KZCV5","img_art/5.jpg","null","","","","","","","","","","","","","","","","","","","","","","","","",""
"15824","","image-button-response","54","518713","0.0-54.0","A1QW2XUJ7KZCV5","img_art/5.jpg","4","","","","","","","","","","","","","","","","","","","","","","","","",""
"4795","","image-button-response","55","523510","0.0-55.0-0.0","A1QW2XUJ7KZCV5","img_art/5.jpg","3","","","","","","","","","","","","","","","","","","","","","","","","",""
"3942","","image-button-response","56","527455","0.0-56.0-0.0","A1QW2XUJ7KZCV5","img_art/5.jpg","2","","","","","","","","","","","","","","","","","","","","","","","","",""
"null","","html-keyboard-response","57","528958","0.0-57.0","A1QW2XUJ7KZCV5","<p style=""font-size: 48px;"">+</p>","","","","","null","allTrialResponses","1500","1","2","img_art/5.jpg","5","It looks as though the ink is being pushed out by the pen.","Gabriela,Rebecca,Katherine,Kaitlyn,Kathryn,Jacqueline","I am confused as to what this is supposed to be,6,140,20","sorry not my style,-37,100,20","Don't love don't hate,8,120,20","Wish the background had been kept clean; distracts from main object,11,80,20","I see a sign advising me to be cautious.,-20,140,20","Seems very basic and uninteresting.,-15,300,20","Kathryn","I see a sign advising me to be cautious.,-20,140,20","Kaitlyn","Wish the background had been kept clean; distracts from main object,11,80,20","Katherine","Don't love don't hate,8,120,20","0"
"37252","","survey-text","58","566217","0.0-58.0-0.0","A1QW2XUJ7KZCV5","","","","{""Q0"":""Interesting. It looks like paint splattered on a window .""}","","","","","","","","","","","","","","","","","","","","","","",""
"3146.4000000953674","","image-slider-response","59","569366","0.0-59.0","A1QW2XUJ7KZCV5","","","","","17","","","","","","","","","","","","","","","","","","","","","",""
"null","","image-button-response","60","574370","0.0-60.0","A1QW2XUJ7KZCV5","img_art/13.jpg","null","","","","","","","","","","","","","","","","","","","","","","","","",""
"15192","","image-button-response","61","589565","0.0-61.0","A1QW2XUJ7KZCV5","img_art/13.jpg","2","","","","","","","","","","","","","","","","","","","","","","","","",""
"2020","","image-button-response","62","591588","0.0-62.0-0.0","A1QW2XUJ7KZCV5","img_art/13.jpg","0","","","","","","","","","","","","","","","","","","","","","","","","",""
"1841","","image-button-response","63","593431","0.0-63.0-0.0","A1QW2XUJ7KZCV5","img_art/13.jpg","0","","","","","","","","","","","","","","","","","","","","","","","","",""
"2835","","image-button-response","64","599946","0.0-63.1-0.1","A1QW2XUJ7KZCV5","img_art/13.jpg","5","","","","","","","","","","","","","","","","","","","","","","","","",""
"null","","html-keyboard-response","65","600947","0.0-64.0","A1QW2XUJ7KZCV5","<p style=""font-size: 48px;"">+</p>","","","","","null","allTrialResponses","1000","1","3","img_art/13.jpg","17","Interesting. It looks like paint splattered on a window .","Sara,Allison,Katherine,Kaitlyn,Kathryn,Mackenzie","I love the different blue shades,31,160,20","Generic mix of colors. Cool and messy.,10,140,20","Best color combo. i love this.,50,120,20","Like the color choices,7,80,20","Reminds me of depression anxiety, but negativity is dampened by motion. It's trying to release itself through expression.,-10,140,20","I enjoy the cool colors mixed together,31,20,20","Katherine","Best color combo. i love this.,50,120,20","Sara","I love the different blue shades,31,160,20","Mackenzie","I enjoy the cool colors mixed together,31,20,20","2"
"32438","","survey-text","66","633389","0.0-65.0-0.0","A1QW2XUJ7KZCV5","","","","{""Q0"":""Do not like the colors. Looks like people grabbing at someone.""}","","","","","","","","","","","","","","","","","","","","","","",""
"3277","","image-slider-response","67","636669","0.0-66.0","A1QW2XUJ7KZCV5","","","","","-34","","","","","","","","","","","","","","","","","","","","","",""
"null","","image-button-response","68","641672","0.0-67.0","A1QW2XUJ7KZCV5","img_art/2.jpg","null","","","","","","","","","","","","","","","","","","","","","","","","",""
"14420","","image-button-response","69","656097","0.0-68.0","A1QW2XUJ7KZCV5","img_art/2.jpg","5","","","","","","","","","","","","","","","","","","","","","","","","",""
"1200","","image-button-response","70","657299","0.0-69.0-0.0","A1QW2XUJ7KZCV5","img_art/2.jpg","1","","","","","","","","","","","","","","","","","","","","","","","","",""
"21644","","image-button-response","71","678946","0.0-70.0-0.0","A1QW2XUJ7KZCV5","img_art/2.jpg","4","","","","","","","","","","","","","","","","","","","","","","","","",""
"null","","html-keyboard-response","72","679948","0.0-71.0","A1QW2XUJ7KZCV5","<p style=""font-size: 48px;"">+</p>","","","","","null","allTrialResponses","1000","1","4","img_art/2.jpg","-34","Do not like the colors. Looks like people grabbing at someone.","Sara,Brooke,Katherine,Alexa,Makayla,Mackenzie","Dark tone feels sad,-30,160,20","Ugly version of that park painting.,-31,60,20","The color combo is kind of ugly but there's something charming about it still,17,120,20","Not my favorite but I can see this being hung in a art museum,25,40,20","I don't feel indifferent,4,80,20","Muted green is overpowering,-10,20,20","Mackenzie","Muted green is overpowering,-10,20,20","Brooke","Ugly version of that park painting.,-31,60,20","Makayla","I don't feel indifferent,4,80,20","2"
"19263","","survey-text","73","699217","0.0-72.0-0.0","A1QW2XUJ7KZCV5","","","","{""Q0"":""It feels historical. ""}","","","","","","","","","","","","","","","","","","","","","","",""
"2591.9000000953674","","image-slider-response","74","701811","0.0-73.0","A1QW2XUJ7KZCV5","","","","","26","","","","","","","","","","","","","","","","","","","","","",""
"null","","image-button-response","75","706814","0.0-74.0","A1QW2XUJ7KZCV5","img_art/21.jpg","null","","","","","","","","","","","","","","","","","","","","","","","","",""
"2197","","image-button-response","76","709014","0.0-75.0","A1QW2XUJ7KZCV5","img_art/21.jpg","3","","","","","","","","","","","","","","","","","","","","","","","","",""
"8227","","image-button-response","77","717242","0.0-76.0-0.0","A1QW2XUJ7KZCV5","img_art/21.jpg","4","","","","","","","","","","","","","","","","","","","","","","","","",""
"1179","","image-button-response","78","718423","0.0-77.0-0.0","A1QW2XUJ7KZCV5","img_art/21.jpg","0","","","","","","","","","","","","","","","","","","","","","","","","",""
"null","","html-keyboard-response","79","719425","0.0-78.0","A1QW2XUJ7KZCV5","<p style=""font-size: 48px;"">+</p>","","","","","null","allTrialResponses","1000","1","5","img_art/21.jpg","26","It feels historical. ","Sydney,Brooke,Jennifer,Molly,Makayla,Mackenzie","I love everything about this piece.,50,320,20","Like the colors. Don't like the white dots on the right side of the painting though.,15,60,20","Bland, this painting is my least favorite,-20,380,20","Looks like a war. Many things happening on the painting, really enjoy it.,30,340,20","I like the two sides meeting, like a movie scene,15,80,20","The shapes and colors are very interesting to look at.,41,20,20","Molly","Looks like a war. Many things happening on the painting, really enjoy it.,30,340,20","Makayla","I like the two sides meeting, like a movie scene,15,80,20","Sydney","I love everything about this piece.,50,320,20","2"
"3821","","survey-text","80","723256","0.0-79.0-0.0","A1QW2XUJ7KZCV5","","","","{""Q0"":""sky""}","","","","","","","","","","","","","","","","","","","","","","",""
"17300","","survey-text","81","740558","0.0-80.0-0.0","A1QW2XUJ7KZCV5","","","","{""Q0"":""Feels dark, like a ghost ship.""}","","","","","","","","","","","","","","","","","","","","","","",""
"4277.300000071526","","image-slider-response","82","744837","0.0-81.0","A1QW2XUJ7KZCV5","","","","","5","","","","","","","","","","","","","","","","","","","","","",""
"null","","image-button-response","83","749841","0.0-82.0","A1QW2XUJ7KZCV5","img_art/18.jpg","null","","","","","","","","","","","","","","","","","","","","","","","","",""
"5476","","image-button-response","84","755320","0.0-83.0","A1QW2XUJ7KZCV5","img_art/18.jpg","1","","","","","","","","","","","","","","","","","","","","","","","","",""
"3167","","image-button-response","85","758489","0.0-84.0-0.0","A1QW2XUJ7KZCV5","img_art/18.jpg","2","","","","","","","","","","","","","","","","","","","","","","","","",""
"7159","","image-button-response","86","765650","0.0-85.0-0.0","A1QW2XUJ7KZCV5","img_art/18.jpg","0","","","","","","","","","","","","","","","","","","","","","","","","",""
"null","","html-keyboard-response","87","766154","0.0-86.0","A1QW2XUJ7KZCV5","<p style=""font-size: 48px;"">+</p>","","","","","null","allTrialResponses","500","1","6","img_art/18.jpg","5","Feels dark, like a ghost ship.","Sydney,Kaitlin,Kelly,Molly,Makayla,Angelica","I like the colors being used, but I don't like the chaos in the middle of it.,20,320,20","I really like this one - there seems to be a story behind it,32,60,20","It's interesting. I'm not sure how I feel about it, but i enjoy the ghostly apparitions.,10,220,20","White and yellow look awesome and the picture's dynamics are wonderful.,30,340,20","I'm not partial to the design, unsettling,2,80,20","It looks grotesque and violent.,-50,280,20","Kaitlin","I really like this one - there seems to be a story behind it,32,60,20","Kelly","It's interesting. I'm not sure how I feel about it, but i enjoy the ghostly apparitions.,10,220,20","Sydney","I like the colors being used, but I don't like the chaos in the middle of it.,20,320,20","2"
"25236","","survey-text","88","791398","0.0-87.0-0.0","A1QW2XUJ7KZCV5","","","","{""Q0"":""Simple, has a tribal feel.""}","","","","","","","","","","","","","","","","","","","","","","",""
"2998.399999976158","","image-slider-response","89","794399","0.0-88.0","A1QW2XUJ7KZCV5","","","","","4","","","","","","","","","","","","","","","","","","","","","",""
"null","","image-button-response","90","799402","0.0-89.0","A1QW2XUJ7KZCV5","img_art/25.jpg","null","","","","","","","","","","","","","","","","","","","","","","","","",""
"8934","","image-button-response","91","808339","0.0-90.0","A1QW2XUJ7KZCV5","img_art/25.jpg","4","","","","","","","","","","","","","","","","","","","","","","","","",""
"4534","","image-button-response","92","812876","0.0-91.0-0.0","A1QW2XUJ7KZCV5","img_art/25.jpg","3","","","","","","","","","","","","","","","","","","","","","","","","",""
"3364","","image-button-response","93","816242","0.0-92.0-0.0","A1QW2XUJ7KZCV5","img_art/25.jpg","0","","","","","","","","","","","","","","","","","","","","","","","","",""
"null","","html-keyboard-response","94","816746","0.0-93.0","A1QW2XUJ7KZCV5","<p style=""font-size: 48px;"">+</p>","","","","","null","allTrialResponses","500","1","7","img_art/25.jpg","4","Simple, has a tribal feel.","Sydney,Kaitlin,Kelly,Isabella,Cynthia,Victoria","This piece gives me a lot of questions which I kind of like.,10,320,20","i feel a bit dull, a bit scared,-20,60,20","I love the color. I don't know what exactly is going on but I like it.,24,220,20","I love the green and the figure is black but the green makes it pop,29,280,20","Somewhat feel protected by a messenger,33,320,20","makes me think of a scary movie,-20,400,20","Cynthia","Somewhat feel protected by a messenger,33,320,20","Isabella","I love the green and the figure is black but the green makes it pop,29,280,20","Sydney","This piece gives me a lot of questions which I kind of like.,10,320,20","2"
"22442","","survey-text","95","839193","0.0-94.0-0.0","A1QW2XUJ7KZCV5","","","","{""Q0"":""Feels like a horror story. Don't care for this one.""}","","","","","","","","","","","","","","","","","","","","","","",""
"3355.7999999523163","","image-slider-response","96","842550","0.0-95.0","A1QW2XUJ7KZCV5","","","","","-44","","","","","","","","","","","","","","","","","","","","","",""
"null","","image-button-response","97","847554","0.0-96.0","A1QW2XUJ7KZCV5","img_art/3.jpg","null","","","","","","","","","","","","","","","","","","","","","","","","",""
"4741","","image-button-response","98","852296","0.0-97.0","A1QW2XUJ7KZCV5","img_art/3.jpg","1","","","","","","","","","","","","","","","","","","","","","","","","",""
"1825","","image-button-response","99","854124","0.0-98.0-0.0","A1QW2XUJ7KZCV5","img_art/3.jpg","5","","","","","","","","","","","","","","","","","","","","","","","","",""
"5840","","image-button-response","100","859966","0.0-99.0-0.0","A1QW2XUJ7KZCV5","img_art/3.jpg","3","","","","","","","","","","","","","","","","","","","","","","","","",""
"null","","html-keyboard-response","101","861469","0.0-100.0","A1QW2XUJ7KZCV5","<p style=""font-size: 48px;"">+</p>","","","","","null","allTrialResponses","1500","1","8","img_art/3.jpg","-44","Feels like a horror story. Don't care for this one.","Sydney,Alexis,Elizabeth,Isabella,Cynthia,Chelsea","This piece makes me think it has a backstory or a reason which I like.,5,320,20","Just scribbles. Not a fan.,-40,100,20","It doesn't invoke any excitement,-21,20,20","Too much red or blood,-28,280,20","This makes me feel vulnerable,-32,320,20","It looks like scribbles.,-40,180,20","Alexis","Just scribbles. Not a fan.,-40,100,20","Chelsea","It looks like scribbles.,-40,180,20","Isabella","Too much red or blood,-28,280,20","2"
"38908","","survey-text","102","900384","0.0-101.0-0.0","A1QW2XUJ7KZCV5","","","","{""Q0"":""Beautiful. It fells wispy and love the colors.""}","","","","","","","","","","","","","","","","","","","","","","",""
"2605.0999999046326","","image-slider-response","103","902992","0.0-102.0","A1QW2XUJ7KZCV5","","","","","27","","","","","","","","","","","","","","","","","","","","","",""
"null","","image-button-response","104","907995","0.0-103.0","A1QW2XUJ7KZCV5","img_art/17.jpg","null","","","","","","","","","","","","","","","","","","","","","","","","",""
"1432","","image-button-response","105","909430","0.0-104.0","A1QW2XUJ7KZCV5","img_art/17.jpg","5","","","","","","","","","","","","","","","","","","","","","","","","",""
"4973","","image-button-response","106","914405","0.0-105.0-0.0","A1QW2XUJ7KZCV5","img_art/17.jpg","1","","","","","","","","","","","","","","","","","","","","","","","","",""
"6800","","image-button-response","107","921208","0.0-106.0-0.0","A1QW2XUJ7KZCV5","img_art/17.jpg","3","","","","","","","","","","","","","","","","","","","","","","","","",""
"null","","html-keyboard-response","108","921710","0.0-107.0","A1QW2XUJ7KZCV5","<p style=""font-size: 48px;"">+</p>","","","","","null","allTrialResponses","500","1","9","img_art/17.jpg","27","Beautiful. It fells wispy and love the colors.","Emily,Alexis,Laura,Isabella,Erica,Chelsea","There is better structure and direction in this one.,19,40,20","Love the color and nature motif,36,100,20","home - reminds me of fond memories of the Barnes Museum courtyard (looks just like it),30,320,20","Pleasant fall to winter day,22,280,20","Makes me warm and cozy just by looking at it,29,80,20","The colors are soft.,32,180,20","Chelsea","The colors are soft.,32,180,20","Alexis","Love the color and nature motif,36,100,20","Isabella","Pleasant fall to winter day,22,280,20","2"
"39081","","survey-text","109","960794","0.0-108.0-0.0","A1QW2XUJ7KZCV5","","","","{""Q0"":""Unsure of the subject. Feels messy.""}","","","","","","","","","","","","","","","","","","","","","","",""
"2513.899999976158","","image-slider-response","110","963310","0.0-109.0","A1QW2XUJ7KZCV5","","","","","-22","","","","","","","","","","","","","","","","","","","","","",""
"null","","image-button-response","111","968313","0.0-110.0","A1QW2XUJ7KZCV5","img_art/10.jpg","null","","","","","","","","","","","","","","","","","","","","","","","","",""
"7935","","image-button-response","112","976250","0.0-111.0","A1QW2XUJ7KZCV5","img_art/10.jpg","4","","","","","","","","","","","","","","","","","","","","","","","","",""
"2044","","image-button-response","113","978297","0.0-112.0-0.0","A1QW2XUJ7KZCV5","img_art/10.jpg","1","","","","","","","","","","","","","","","","","","","","","","","","",""
"4762","","image-button-response","114","983061","0.0-113.0-0.0","A1QW2XUJ7KZCV5","img_art/10.jpg","0","","","","","","","","","","","","","","","","","","","","","","","","",""
"null","","html-keyboard-response","115","983563","0.0-114.0","A1QW2XUJ7KZCV5","<p style=""font-size: 48px;"">+</p>","","","","","null","allTrialResponses","500","1","10","img_art/10.jpg","-22","Unsure of the subject. Feels messy.","Michaela,Alexis,Diana,Isabella,Abigail,Chelsea","It looks like it's sinking but it could also be a view from above,40,260,20","Too abstract and it doesn't really remind me of anything,-40,100,20","It reminds me of the ocean. Almost like a battlefield, but on the water.,19,380,20","Like a decision making process,46,280,20","Looks gross and messy,-39,20,20","It looks intricate.,15,180,20","Abigail","Looks gross and messy,-39,20,20","Alexis","Too abstract and it doesn't really remind me of anything,-40,100,20","Michaela","It looks like it's sinking but it could also be a view from above,40,260,20","2"
"4151","","survey-text","116","987723","0.0-115.0-0.0","A1QW2XUJ7KZCV5","","","","{""Q0"":""our""}","","","","","","","","","","","","","","","","","","","","","","",""
"19910","","survey-text","117","1007634","0.0-116.0-0.0","A1QW2XUJ7KZCV5","","","","{""Q0"":""A lost soul in a crowded mess.""}","","","","","","","","","","","","","","","","","","","","","","",""
"5732.299999952316","","image-slider-response","118","1013369","0.0-117.0","A1QW2XUJ7KZCV5","","","","","-10","","","","","","","","","","","","","","","","","","","","","",""
"null","","image-button-response","119","1018372","0.0-118.0","A1QW2XUJ7KZCV5","img_art/19.jpg","null","","","","","","","","","","","","","","","","","","","","","","","","",""
"4045","","image-button-response","120","1022419","0.0-119.0","A1QW2XUJ7KZCV5","img_art/19.jpg","3","","","","","","","","","","","","","","","","","","","","","","","","",""
"4560","","image-button-response","121","1026981","0.0-120.0-0.0","A1QW2XUJ7KZCV5","img_art/19.jpg","5","","","","","","","","","","","","","","","","","","","","","","","","",""
"5222","","image-button-response","122","1032205","0.0-121.0-0.0","A1QW2XUJ7KZCV5","img_art/19.jpg","1","","","","","","","","","","","","","","","","","","","","","","","","",""
"null","","html-keyboard-response","123","1032707","0.0-122.0","A1QW2XUJ7KZCV5","<p style=""font-size: 48px;"">+</p>","","","","","null","allTrialResponses","500","1","11","img_art/19.jpg","-10","A lost soul in a crowded mess.","Michaela,Alexis,Cassandra,Jasmine,Abigail,Kristen","It's ok but it's nothing I would hang on my wall,11,260,20","Not a fan of the blobbiness,-22,100,20","Nuetral...can't think of anything to say,4,120,20","Just stirred a negative reaction. Don't really like it perhaps because of the structure?,-8,340,20","I dont like the gray shadows, ruins it,-7,20,20","city, stress of urbanism, slightly panicked,2,280,20","Jasmine","Just stirred a negative reaction. Don't really like it perhaps because of the structure?,-8,340,20","Kristen","city, stress of urbanism, slightly panicked,2,280,20","Alexis","Not a fan of the blobbiness,-22,100,20","2"
"25481","","survey-text","124","1058192","0.0-123.0-0.0","A1QW2XUJ7KZCV5","","","","{""Q0"":""Interesting lines and colors.""}","","","","","","","","","","","","","","","","","","","","","","",""
"3199.899999976158","","image-slider-response","125","1061394","0.0-124.0","A1QW2XUJ7KZCV5","","","","","18","","","","","","","","","","","","","","","","","","","","","",""
"2755","","image-button-response","126","1066397","0.0-125.0","A1QW2XUJ7KZCV5","img_art/14.jpg","3","","","","","","","","","","","","","","","","","","","","","","","","",""
"5733","","image-button-response","127","1072133","0.0-126.0","A1QW2XUJ7KZCV5","img_art/14.jpg","0","","","","","","","","","","","","","","","","","","","","","","","","",""
"10574","","image-button-response","128","1082709","0.0-127.0-0.0","A1QW2XUJ7KZCV5","img_art/14.jpg","2","","","","","","","","","","","","","","","","","","","","","","","","",""
"1300","","image-button-response","129","1084013","0.0-128.0-0.0","A1QW2XUJ7KZCV5","img_art/14.jpg","0","","","","","","","","","","","","","","","","","","","","","","","","",""
"2841","","image-button-response","130","1089511","0.0-128.1-0.1","A1QW2XUJ7KZCV5","img_art/14.jpg","3","","","","","","","","","","","","","","","","","","","","","","","","",""
"null","","html-keyboard-response","131","1091013","0.0-129.0","A1QW2XUJ7KZCV5","<p style=""font-size: 48px;"">+</p>","","","","","null","allTrialResponses","1500","1","12","img_art/14.jpg","18","Interesting lines and colors.","Claire,Alexis,Kimberly,Jasmine,Shelby,Kristen","mythical and nature like,37,260,20","Don't like the colors on this. Too simple,-20,100,20","In some ways it looks natural, but I'm just not feeling it,0,260,20","The colors are nice and it reminds me of a shrub or tree,10,340,20","Something about the cahotic imagery makes me uncomfortable,-15,240,20","somewhat stressful, crazy,-3,280,20","Claire","mythical and nature like,37,260,20","Kimberly","In some ways it looks natural, but I'm just not feeling it,0,260,20","Jasmine","The colors are nice and it reminds me of a shrub or tree,10,340,20","4"
"71657","","survey-text","132","1162674","0.0-130.0-0.0","A1QW2XUJ7KZCV5","","","","{""Q0"":""Urbanization with  oversight. Too busy, but like the colors.""}","","","","","","","","","","","","","","","","","","","","","","",""
"6393.699999928474","","image-slider-response","133","1169070","0.0-131.0","A1QW2XUJ7KZCV5","","","","","-3","","","","","","","","","","","","","","","","","","","","","",""
"null","","image-button-response","134","1174072","0.0-132.0","A1QW2XUJ7KZCV5","img_art/8.jpg","null","","","","","","","","","","","","","","","","","","","","","","","","",""
"4829","","image-button-response","135","1178904","0.0-133.0","A1QW2XUJ7KZCV5","img_art/8.jpg","5","","","","","","","","","","","","","","","","","","","","","","","","",""
"6019","","image-button-response","136","1184926","0.0-134.0-0.0","A1QW2XUJ7KZCV5","img_art/8.jpg","1","","","","","","","","","","","","","","","","","","","","","","","","",""
"10159","","image-button-response","137","1195088","0.0-135.0-0.0","A1QW2XUJ7KZCV5","img_art/8.jpg","2","","","","","","","","","","","","","","","","","","","","","","","","",""
"null","","html-keyboard-response","138","1196090","0.0-136.0","A1QW2XUJ7KZCV5","<p style=""font-size: 48px;"">+</p>","","","","","null","allTrialResponses","1000","1","13","img_art/8.jpg","-3","Urbanization with  oversight. Too busy, but like the colors.","Claire,Monica,Kimberly,Jasmine,Paige,Tiffany","looks like an aerial view, very pretty,32,260,20","The faces in the upper left show agony and contrast with the geometric shapes too much,-31,360,20","Feels very 90's but I like the doorway,15,260,20","Not too bad despite the chaos.,16,340,20","Nervous like being up high,10,60,20","It makes me feel nervous. I can't tell ifI'm looking at an apartment, or a hellscape.,-18,360,20","Tiffany","It makes me feel nervous. I can't tell ifI'm looking at an apartment, or a hellscape.,-18,360,20","Monica","The faces in the upper left show agony and contrast with the geometric shapes too much,-31,360,20","Kimberly","Feels very 90's but I like the doorway,15,260,20","4"
"28664","","survey-text","139","1224761","0.0-137.0-0.0","A1QW2XUJ7KZCV5","","","","{""Q0"":""Feels like a foggy day in an industrial town.""}","","","","","","","","","","","","","","","","","","","","","","",""
"3285.5","","image-slider-response","140","1228048","0.0-138.0","A1QW2XUJ7KZCV5","","","","","16","","","","","","","","","","","","","","","","","","","","","",""
"null","","image-button-response","141","1233051","0.0-139.0","A1QW2XUJ7KZCV5","img_art/11.jpg","null","","","","","","","","","","","","","","","","","","","","","","","","",""
"4173","","image-button-response","142","1237227","0.0-140.0","A1QW2XUJ7KZCV5","img_art/11.jpg","0","","","","","","","","","","","","","","","","","","","","","","","","",""
"10554","","image-button-response","143","1247783","0.0-141.0-0.0","A1QW2XUJ7KZCV5","img_art/11.jpg","1","","","","","","","","","","","","","","","","","","","","","","","","",""
"6299","","image-button-response","144","1254085","0.0-142.0-0.0","A1QW2XUJ7KZCV5","img_art/11.jpg","3","","","","","","","","","","","","","","","","","","","","","","","","",""
"null","","html-keyboard-response","145","1255087","0.0-143.0","A1QW2XUJ7KZCV5","<p style=""font-size: 48px;"">+</p>","","","","","null","allTrialResponses","1000","1","14","img_art/11.jpg","16","Feels like a foggy day in an industrial town.","Grace,Monica,Kimberly,Catherine,Courtney,Tiffany","Rainy asian city scape.,31,180,20","I like how it reminds me of music and at the same time it looks like colorful train tracks.,10,360,20","It's cables in a city,21,260,20","Busy city life. transportation, anxiety.,10,160,20","Thats a creepy old rollercoasters abandoned,-2,280,20","I feel excited, like I'm in the middle of a bustling city.,26,360,20","Grace","Rainy asian city scape.,31,180,20","Monica","I like how it reminds me of music and at the same time it looks like colorful train tracks.,10,360,20","Catherine","Busy city life. transportation, anxiety.,10,160,20","4"
"74802","","survey-text","146","1329894","0.0-144.0-0.0","A1QW2XUJ7KZCV5","","","","{""Q0"":""I like the smoothness and there appears to be a lady at the bottom.""}","","","","","","","","","","","","","","","","","","","","","","",""
"2794.7000000476837","","image-slider-response","147","1332690","0.0-145.0","A1QW2XUJ7KZCV5","","","","","15","","","","","","","","","","","","","","","","","","","","","",""
"null","","image-button-response","148","1337694","0.0-146.0","A1QW2XUJ7KZCV5","img_art/30.jpg","null","","","","","","","","","","","","","","","","","","","","","","","","",""
"7990","","image-button-response","149","1345687","0.0-147.0","A1QW2XUJ7KZCV5","img_art/30.jpg","1","","","","","","","","","","","","","","","","","","","","","","","","",""
"2144","","image-button-response","150","1347834","0.0-148.0-0.0","A1QW2XUJ7KZCV5","img_art/30.jpg","3","","","","","","","","","","","","","","","","","","","","","","","","",""
"5731","","image-button-response","151","1353569","0.0-149.0-0.0","A1QW2XUJ7KZCV5","img_art/30.jpg","0","","","","","","","","","","","","","","","","","","","","","","","","",""
"null","","html-keyboard-response","152","1354572","0.0-150.0","A1QW2XUJ7KZCV5","<p style=""font-size: 48px;"">+</p>","","","","","null","allTrialResponses","1000","1","15","img_art/30.jpg","15","I like the smoothness and there appears to be a lady at the bottom.","Grace,Monica,Kelsey,Catherine,Autumn,Destiny","A little too dull. Would've liked brighter colors. Also looks washed out.,1,180,20","It looked like a random scribble but I can see a person's face in it now and I think it's clever,13,360,20","dont like this much at all,-30,240,20","connection, Everything is connected even in contrast.,42,160,20","Absolutely messy,-31,340,20","literally stupid I made this with as seen on tv products when I was 7,-42,360,20","Monica","It looked like a random scribble but I can see a person's face in it now and I think it's clever,13,360,20","Catherine","connection, Everything is connected even in contrast.,42,160,20","Grace","A little too dull. Would've liked brighter colors. Also looks washed out.,1,180,20","4"
"4707","","survey-text","153","1359294","0.0-151.0-0.0","A1QW2XUJ7KZCV5","","","","{""Q0"":""course""}","","","","","","","","","","","","","","","","","","","","","","",""
"71474","","survey-text","154","1430769","0.0-152.0-0.0","A1QW2XUJ7KZCV5","","","","{""Q0"":""Messy scribbles, but the center looks like an attempt to make something out of nothing.""}","","","","","","","","","","","","","","","","","","","","","","",""
"2340.7999999523163","","image-slider-response","155","1433112","0.0-153.0","A1QW2XUJ7KZCV5","","","","","-40","","","","","","","","","","","","","","","","","","","","","",""
"null","","image-button-response","156","1438115","0.0-154.0","A1QW2XUJ7KZCV5","img_art/9.jpg","null","","","","","","","","","","","","","","","","","","","","","","","","",""
"8875","","image-button-response","157","1446992","0.0-155.0","A1QW2XUJ7KZCV5","img_art/9.jpg","0","","","","","","","","","","","","","","","","","","","","","","","","",""
"11191","","image-button-response","158","1458187","0.0-156.0-0.0","A1QW2XUJ7KZCV5","img_art/9.jpg","5","","","","","","","","","","","","","","","","","","","","","","","","",""
"1756","","image-button-response","159","1459945","0.0-157.0-0.0","A1QW2XUJ7KZCV5","img_art/9.jpg","2","","","","","","","","","","","","","","","","","","","","","","","","",""
"null","","html-keyboard-response","160","1460946","0.0-158.0","A1QW2XUJ7KZCV5","<p style=""font-size: 48px;"">+</p>","","","","","null","allTrialResponses","1000","1","16","img_art/9.jpg","-40","Messy scribbles, but the center looks like an attempt to make something out of nothing.","Grace,Monica,Mary,Catherine,Nicole,Ashley","Huh?  Doesn't invoke much.,-37,180,20","I like the greens and blues around the sides and the person reclining in the center makes me feel relaxed,24,360,20","How neat is this piece?  I love the angry expressive lines. Emotion is captured in it.,26,180,20","Cozy, In her own world. feminine .,30,160,20","It's peaceful and relaxing,24,20,20","Similar to the tohers, but not as clear.,11,320,20","Grace","Huh?  Doesn't invoke much.,-37,180,20","Ashley","Similar to the tohers, but not as clear.,11,320,20","Mary","How neat is this piece?  I love the angry expressive lines. Emotion is captured in it.,26,180,20","4"
"26941","","survey-text","161","1487894","0.0-159.0-0.0","A1QW2XUJ7KZCV5","","","","{""Q0"":""It feels peaceful. Colors are a bit muted.""}","","","","","","","","","","","","","","","","","","","","","","",""
"4232.400000095367","","image-slider-response","162","1492128","0.0-160.0","A1QW2XUJ7KZCV5","","","","","19","","","","","","","","","","","","","","","","","","","","","",""
"null","","image-button-response","163","1497131","0.0-161.0","A1QW2XUJ7KZCV5","img_art/26.jpg","null","","","","","","","","","","","","","","","","","","","","","","","","",""
"2429","","image-button-response","164","1499562","0.0-162.0","A1QW2XUJ7KZCV5","img_art/26.jpg","0","","","","","","","","","","","","","","","","","","","","","","","","",""
"1451","","image-button-response","165","1501015","0.0-163.0-0.0","A1QW2XUJ7KZCV5","img_art/26.jpg","1","","","","","","","","","","","","","","","","","","","","","","","","",""
"9167","","image-button-response","166","1510184","0.0-164.0-0.0","A1QW2XUJ7KZCV5","img_art/26.jpg","4","","","","","","","","","","","","","","","","","","","","","","","","",""
"null","","html-keyboard-response","167","1511686","0.0-165.0","A1QW2XUJ7KZCV5","<p style=""font-size: 48px;"">+</p>","","","","","null","allTrialResponses","1500","1","17","img_art/26.jpg","19","It feels peaceful. Colors are a bit muted.","Grace,Caroline,Mary,Anna,Erika,Ashley","Like the muted colors & the scene which seems to be serene.,14,180,20","Calming and relaxing,28,100,20","I can tell it's some sort of outdoor scene. It looks very amateurish.,-9,180,20","It looks like a watercolor I did when I was 6.,-30,300,20","Feels like still life,-13,100,20","Telented watercolor artist or second grader.,18,320,20","Grace","Like the muted colors & the scene which seems to be serene.,14,180,20","Caroline","Calming and relaxing,28,100,20","Erika","Feels like still life,-13,100,20","4"
"29784","","survey-text","168","1541478","0.0-166.0-0.0","A1QW2XUJ7KZCV5","","","","{""Q0"":""Very vibrant and interesting. Feels busy.""}","","","","","","","","","","","","","","","","","","","","","","",""
"3224","","image-slider-response","169","1544704","0.0-167.0","A1QW2XUJ7KZCV5","","","","","21","","","","","","","","","","","","","","","","","","","","","",""
"1864","","image-button-response","170","1549707","0.0-168.0","A1QW2XUJ7KZCV5","img_art/23.jpg","4","","","","","","","","","","","","","","","","","","","","","","","","",""
"10412","","image-button-response","171","1560122","0.0-169.0","A1QW2XUJ7KZCV5","img_art/23.jpg","2","","","","","","","","","","","","","","","","","","","","","","","","",""
"5340","","image-button-response","172","1565465","0.0-170.0-0.0","A1QW2XUJ7KZCV5","img_art/23.jpg","5","","","","","","","","","","","","","","","","","","","","","","","","",""
"2279","","image-button-response","173","1567746","0.0-171.0-0.0","A1QW2XUJ7KZCV5","img_art/23.jpg","4","","","","","","","","","","","","","","","","","","","","","","","","",""
"null","","html-keyboard-response","174","1569249","0.0-172.0","A1QW2XUJ7KZCV5","<p style=""font-size: 48px;"">+</p>","","","","","null","allTrialResponses","1500","1","18","img_art/23.jpg","21","Very vibrant and interesting. Feels busy.","Grace,Caroline,Rachel,Erin,Erika,Maria","Looks like fireworks.,21,180,20","Like the colors and made me feel happy,23,100,20","Vivid colors and the white in the middle looks like people dancing.,31,80,20","Confetti dancer,-7,120,20","Very intense and unique,3,100,20","the pattern of colours imbues in me a sense of infinity, which I find soothing,10,120,20","Rachel","Vivid colors and the white in the middle looks like people dancing.,31,80,20","Maria","the pattern of colours imbues in me a sense of infinity, which I find soothing,10,120,20","Erika","Very intense and unique,3,100,20","4"
"36909","","survey-text","175","1606168","0.0-173.0-0.0","A1QW2XUJ7KZCV5","","","","{""Q0"":""Serenity, but too bad a child got ahold of it and scribbled.""}","","","","","","","","","","","","","","","","","","","","","","",""
"2395.7999999523163","","image-slider-response","176","1608566","0.0-174.0","A1QW2XUJ7KZCV5","","","","","-6","","","","","","","","","","","","","","","","","","","","","",""
"null","","image-button-response","177","1613570","0.0-175.0","A1QW2XUJ7KZCV5","img_art/27.jpg","null","","","","","","","","","","","","","","","","","","","","","","","","",""
"6147","","image-button-response","178","1619720","0.0-176.0","A1QW2XUJ7KZCV5","img_art/27.jpg","3","","","","","","","","","","","","","","","","","","","","","","","","",""
"5715","","image-button-response","179","1625438","0.0-177.0-0.0","A1QW2XUJ7KZCV5","img_art/27.jpg","5","","","","","","","","","","","","","","","","","","","","","","","","",""
"7017","","image-button-response","180","1632458","0.0-178.0-0.0","A1QW2XUJ7KZCV5","img_art/27.jpg","0","","","","","","","","","","","","","","","","","","","","","","","","",""
"null","","html-keyboard-response","181","1632961","0.0-179.0","A1QW2XUJ7KZCV5","<p style=""font-size: 48px;"">+</p>","","","","","null","allTrialResponses","500","1","19","img_art/27.jpg","-6","Serenity, but too bad a child got ahold of it and scribbled.","Jordan,Meghan,Rachel,Vanessa,Erika,Maria","two warring cities, separated by a small desert,50,20,20","again looks like childrens artwork,-40,220,20","Color story is boring in nature, and I feel nothing but boredom from this piece.,-20,80,20","Colors make me think of fall, but I don't like how the picture was done or the weird lines across the background,6,380,20","Nice color, but too vague,-12,100,20","I generally enjoy the style, but I'm finding the green lines grating,-9,120,20","Vanessa","Colors make me think of fall, but I don't like how the picture was done or the weird lines across the background,6,380,20","Maria","I generally enjoy the style, but I'm finding the green lines grating,-9,120,20","Jordan","two warring cities, separated by a small desert,50,20,20","4"
"21032","","survey-text","182","1654002","0.0-180.0-0.0","A1QW2XUJ7KZCV5","","","","{""Q0"":"" Childs play.""}","","","","","","","","","","","","","","","","","","","","","","",""
"4162.099999904633","","image-slider-response","183","1658166","0.0-181.0","A1QW2XUJ7KZCV5","","","","","-22","","","","","","","","","","","","","","","","","","","","","",""
"2520","","image-button-response","184","1663168","0.0-182.0","A1QW2XUJ7KZCV5","img_art/16.jpg","0","","","","","","","","","","","","","","","","","","","","","","","","",""
"1908","","image-button-response","185","1665078","0.0-183.0","A1QW2XUJ7KZCV5","img_art/16.jpg","4","","","","","","","","","","","","","","","","","","","","","","","","",""
"2443","","image-button-response","186","1667524","0.0-184.0-0.0","A1QW2XUJ7KZCV5","img_art/16.jpg","0","","","","","","","","","","","","","","","","","","","","","","","","",""
"5787","","image-button-response","187","1673313","0.0-185.0-0.0","A1QW2XUJ7KZCV5","img_art/16.jpg","3","","","","","","","","","","","","","","","","","","","","","","","","",""
"null","","html-keyboard-response","188","1674817","0.0-186.0","A1QW2XUJ7KZCV5","<p style=""font-size: 48px;"">+</p>","","","","","null","allTrialResponses","1500","1","20","img_art/16.jpg","-22"," Childs play.","Jordan,Hannah,Alyssa,Vanessa,Olivia,Maria","Not interested at all,-15,20,20","This is weird and a little creepy.,6,240,20","It creeps me out.,-50,160,20","This is too bizarre.,-39,380,20","childhood horror,3,40,20","feel a little creeped out,-20,120,20","Olivia","childhood horror,3,40,20","Jordan","Not interested at all,-15,20,20","Vanessa","This is too bizarre.,-39,380,20","4"
"3135","","survey-text","189","1677965","0.0-187.0-0.0","A1QW2XUJ7KZCV5","","","","{""Q0"":""we""}","","","","","","","","","","","","","","","","","","","","","","",""
"14941","","survey-text","190","1692907","0.0-188.0-0.0","A1QW2XUJ7KZCV5","","","","{""Q0"":""Looks like a jigsaw puzzle.""}","","","","","","","","","","","","","","","","","","","","","","",""
"3326.5","","image-slider-response","191","1696236","0.0-189.0","A1QW2XUJ7KZCV5","","","","","-12","","","","","","","","","","","","","","","","","","","","","",""
"null","","image-button-response","192","1701239","0.0-190.0","A1QW2XUJ7KZCV5","img_art/12.jpg","null","","","","","","","","","","","","","","","","","","","","","","","","",""
"8070","","image-button-response","193","1709312","0.0-191.0","A1QW2XUJ7KZCV5","img_art/12.jpg","3","","","","","","","","","","","","","","","","","","","","","","","","",""
"8372","","image-button-response","194","1717686","0.0-192.0-0.0","A1QW2XUJ7KZCV5","img_art/12.jpg","1","","","","","","","","","","","","","","","","","","","","","","","","",""
"1272","","image-button-response","195","1718960","0.0-193.0-0.0","A1QW2XUJ7KZCV5","img_art/12.jpg","0","","","","","","","","","","","","","","","","","","","","","","","","",""
"null","","html-keyboard-response","196","1719962","0.0-194.0","A1QW2XUJ7KZCV5","<p style=""font-size: 48px;"">+</p>","","","","","null","allTrialResponses","1000","1","21","img_art/12.jpg","-12","Looks like a jigsaw puzzle.","Jordan,Shannon,Alexandria,Vanessa,Olivia,Sabrina","not my kind of thing,1,20,20","This image doesn't have anything going on. The top half is really ugly, I kind of like the bottom a little.,-20,220,20","don't feel a lot but it seems very simple,-6,80,20","This is too abstract and the colors are too worn out.,-23,380,20","feels cluttered,-11,40,20","I like the fact it shares both light and edgy,32,120,20","Vanessa","This is too abstract and the colors are too worn out.,-23,380,20","Shannon","This image doesn't have anything going on. The top half is really ugly, I kind of like the bottom a little.,-20,220,20","Jordan","not my kind of thing,1,20,20","4"
"41465","","survey-text","197","1761435","0.0-195.0-0.0","A1QW2XUJ7KZCV5","","","","{""Q0"":""Very abstract, but makes the mind think of many different objects that it could be.""}","","","","","","","","","","","","","","","","","","","","","","",""
"2678.399999976158","","image-slider-response","198","1764116","0.0-196.0","A1QW2XUJ7KZCV5","","","","","-5","","","","","","","","","","","","","","","","","","","","","",""
"4685","","image-button-response","199","1769119","0.0-197.0","A1QW2XUJ7KZCV5","img_art/28.jpg","1","","","","","","","","","","","","","","","","","","","","","","","","",""
"3774","","image-button-response","200","1772896","0.0-198.0","A1QW2XUJ7KZCV5","img_art/28.jpg","0","","","","","","","","","","","","","","","","","","","","","","","","",""
"8725","","image-button-response","201","1781623","0.0-199.0-0.0","A1QW2XUJ7KZCV5","img_art/28.jpg","3","","","","","","","","","","","","","","","","","","","","","","","","",""
"10204","","image-button-response","202","1791830","0.0-200.0-0.0","A1QW2XUJ7KZCV5","img_art/28.jpg","1","","","","","","","","","","","","","","","","","","","","","","","","",""
"null","","html-keyboard-response","203","1792836","0.0-201.0","A1QW2XUJ7KZCV5","<p style=""font-size: 48px;"">+</p>","","","","","null","allTrialResponses","1000","1","22","img_art/28.jpg","-5","Very abstract, but makes the mind think of many different objects that it could be.","Jordan,Shannon,Madison,Vanessa,Stephanie,Haley","It's a bike that was left abandoned by someone who doesnt care for it,1,20,20","I don't like the way the colors look; I think very disgusting colors were used.,-20,220,20","It's okay. There is harmony and balance.,11,60,20","It's such a blah piece and way too abstract.,-50,380,20","The colors are neutral but I see a mother helping her child,31,300,20","I can't explain why, but I really love this one,50,220,20","Jordan","It's a bike that was left abandoned by someone who doesnt care for it,1,20,20","Vanessa","It's such a blah piece and way too abstract.,-50,380,20","Shannon","I don't like the way the colors look; I think very disgusting colors were used.,-20,220,20","4"
"59020","","survey-text","204","1851865","0.0-202.0-0.0","A1QW2XUJ7KZCV5","","","","{""Q0"":""Looks like a blood stain, or someone being speared. Not liking it.""}","","","","","","","","","","","","","","","","","","","","","","",""
"3057.7999999523163","","image-slider-response","205","1854925","0.0-203.0","A1QW2XUJ7KZCV5","","","","","-46","","","","","","","","","","","","","","","","","","","","","",""
"null","","image-button-response","206","1859930","0.0-204.0","A1QW2XUJ7KZCV5","img_art/1.jpg","null","","","","","","","","","","","","","","","","","","","","","","","","",""
"2908","","image-button-response","207","1862841","0.0-205.0","A1QW2XUJ7KZCV5","img_art/1.jpg","3","","","","","","","","","","","","","","","","","","","","","","","","",""
"10024","","image-button-response","208","1872868","0.0-206.0-0.0","A1QW2XUJ7KZCV5","img_art/1.jpg","4","","","","","","","","","","","","","","","","","","","","","","","","",""
"3581","","image-button-response","209","1876452","0.0-207.0-0.0","A1QW2XUJ7KZCV5","img_art/1.jpg","0","","","","","","","","","","","","","","","","","","","","","","","","",""
"null","","html-keyboard-response","210","1877454","0.0-208.0","A1QW2XUJ7KZCV5","<p style=""font-size: 48px;"">+</p>","","","","","null","allTrialResponses","1000","1","23","img_art/1.jpg","-46","Looks like a blood stain, or someone being speared. Not liking it.","Jordan,Shannon,Sarah,Vanessa,Jessica,Heather","It's fine, but its like something you'd see in the restroom of a cheap restaurant,10,20,20","I think that this picture has nice colors and its pleasing to the eyes.,20,220,20","it's boring despite all the colors,-2,180,20","I don't like how this one makes me feel.,-32,380,20","Looks like the same thing as the last piece shown to me,10,400,20","the colors are vibrant and beautiful,1,260,20","Vanessa","I don't like how this one makes me feel.,-32,380,20","Jessica","Looks like the same thing as the last piece shown to me,10,400,20","Jordan","It's fine, but its like something you'd see in the restroom of a cheap restaurant,10,20,20","4"
"34255","","survey-text","211","1911719","0.0-209.0-0.0","A1QW2XUJ7KZCV5","","","","{""Q0"":""Too much red. looks like a ball sitting by some blocks.""}","","","","","","","","","","","","","","","","","","","","","","",""
"2574.2000000476837","","image-slider-response","212","1914296","0.0-210.0","A1QW2XUJ7KZCV5","","","","","-18","","","","","","","","","","","","","","","","","","","","","",""
"3660","","image-button-response","213","1919298","0.0-211.0","A1QW2XUJ7KZCV5","img_art/22.jpg","0","","","","","","","","","","","","","","","","","","","","","","","","",""
"2039","","image-button-response","214","1921339","0.0-212.0","A1QW2XUJ7KZCV5","img_art/22.jpg","3","","","","","","","","","","","","","","","","","","","","","","","","",""
"9458","","image-button-response","215","1930800","0.0-213.0-0.0","A1QW2XUJ7KZCV5","img_art/22.jpg","1","","","","","","","","","","","","","","","","","","","","","","","","",""
"1504","","image-button-response","216","1932305","0.0-214.0-0.0","A1QW2XUJ7KZCV5","img_art/22.jpg","0","","","","","","","","","","","","","","","","","","","","","","","","",""
"null","","html-keyboard-response","217","1933308","0.0-215.0","A1QW2XUJ7KZCV5","<p style=""font-size: 48px;"">+</p>","","","","","null","allTrialResponses","1000","1","24","img_art/22.jpg","-18","Too much red. looks like a ball sitting by some blocks.","Jordan,Lauren,Gabrielle,Vanessa,Jessica,Morgan","not a fan of this, it's boring,1,20,20","This doesn't invoke anything, since I can't tell what the piece represents.,0,340,20","another OK work, mostly because of the blend of colors,12,160,20","I don't like the colors or the way they've been arranged.,-20,380,20","I like the mixing of the primary colors.,8,400,20","Glowing city of many emotions.,10,380,20","Vanessa","I don't like the colors or the way they've been arranged.,-20,380,20","Lauren","This doesn't invoke anything, since I can't tell what the piece represents.,0,340,20","Jordan","not a fan of this, it's boring,1,20,20","4"
"22071","","survey-text","218","1955389","0.0-216.0-0.0","A1QW2XUJ7KZCV5","","","","{""Q0"":""A bird tucked into it's wings. simple""}","","","","","","","","","","","","","","","","","","","","","","",""
"2113.899999976158","","image-slider-response","219","1957505","0.0-217.0","A1QW2XUJ7KZCV5","","","","","8","","","","","","","","","","","","","","","","","","","","","",""
"1818","","image-button-response","220","1962508","0.0-218.0","A1QW2XUJ7KZCV5","img_art/6.jpg","1","","","","","","","","","","","","","","","","","","","","","","","","",""
"12194","","image-button-response","221","1974705","0.0-219.0","A1QW2XUJ7KZCV5","img_art/6.jpg","4","","","","","","","","","","","","","","","","","","","","","","","","",""
"2685","","image-button-response","222","1977392","0.0-220.0-0.0","A1QW2XUJ7KZCV5","img_art/6.jpg","0","","","","","","","","","","","","","","","","","","","","","","","","",""
"1342","","image-button-response","223","1978736","0.0-221.0-0.0","A1QW2XUJ7KZCV5","img_art/6.jpg","1","","","","","","","","","","","","","","","","","","","","","","","","",""
"null","","html-keyboard-response","224","1979238","0.0-222.0","A1QW2XUJ7KZCV5","<p style=""font-size: 48px;"">+</p>","","","","","null","allTrialResponses","500","1","25","img_art/6.jpg","8","A bird tucked into it's wings. simple","Jordan,Lauren,Leslie,Vanessa,Michelle,Madeline","This is interesting, I feel solitude, and loneliness from this.,13,20,20","I like the simplicity of the piece.,10,340,20","The limited colors make me feel lonely.,36,380,20","I don't like the colors and the dark shape at the top makes me think of a buzzard.,-28,380,20","Definitely belongs at a doctor's office, I think it's a crow or a tree?,-3,280,20","Looks a bit like a pickle or something?,-16,40,20","Michelle","Definitely belongs at a doctor's office, I think it's a crow or a tree?,-3,280,20","Jordan","This is interesting, I feel solitude, and loneliness from this.,13,20,20","Lauren","I like the simplicity of the piece.,10,340,20","4"
"3992","","survey-text","225","1983242","0.0-223.0-0.0","A1QW2XUJ7KZCV5","","","","{""Q0"":""table""}","","","","","","","","","","","","","","","","","","","","","","",""
"29179","","survey-text","226","2012423","0.0-224.0-0.0","A1QW2XUJ7KZCV5","","","","{""Q0"":""Gross. Smeared.""}","","","","","","","","","","","","","","","","","","","","","","",""
"2351","","image-slider-response","227","2014776","0.0-225.0","A1QW2XUJ7KZCV5","","","","","-36","","","","","","","","","","","","","","","","","","","","","",""
"null","","image-button-response","228","2019778","0.0-226.0","A1QW2XUJ7KZCV5","img_art/4.jpg","null","","","","","","","","","","","","","","","","","","","","","","","","",""
"4413","","image-button-response","229","2024194","0.0-227.0","A1QW2XUJ7KZCV5","img_art/4.jpg","2","","","","","","","","","","","","","","","","","","","","","","","","",""
"4651","","image-button-response","230","2028847","0.0-228.0-0.0","A1QW2XUJ7KZCV5","img_art/4.jpg","3","","","","","","","","","","","","","","","","","","","","","","","","",""
"7738","","image-button-response","231","2036588","0.0-229.0-0.0","A1QW2XUJ7KZCV5","img_art/4.jpg","5","","","","","","","","","","","","","","","","","","","","","","","","",""
"null","","html-keyboard-response","232","2038090","0.0-230.0","A1QW2XUJ7KZCV5","<p style=""font-size: 48px;"">+</p>","","","","","null","allTrialResponses","1500","1","26","img_art/4.jpg","-36","Gross. Smeared.","Jordan,Lauren,Katie,Andrea,Michelle,Hailey","The colors remind me of mcdonalds,-33,20,20","I like the design. It can be interpreted in various ways, such as a hand of horror or still piece.,15,340,20","Warm colors, but too random. I feel like I'm seeing something mangled. It is unpleasant.,-30,160,20","I think it speaks to familial closeness but the tonality is offputting to me.,-10,240,20","Looks like more paint smearing but at least there is structure,-5,280,20","ugly puke yellow is cold and dark,-29,200,20","Katie","Warm colors, but too random. I feel like I'm seeing something mangled. It is unpleasant.,-30,160,20","Andrea","I think it speaks to familial closeness but the tonality is offputting to me.,-10,240,20","Hailey","ugly puke yellow is cold and dark,-29,200,20","4"
"20461","","survey-text","233","2058558","0.0-231.0-0.0","A1QW2XUJ7KZCV5","","","","{""Q0"":""Tragedy on the road. Dark.""}","","","","","","","","","","","","","","","","","","","","","","",""
"4089.399999976158","","image-slider-response","234","2062649","0.0-232.0","A1QW2XUJ7KZCV5","","","","","10","","","","","","","","","","","","","","","","","","","","","",""
"null","","image-button-response","235","2067652","0.0-233.0","A1QW2XUJ7KZCV5","img_art/20.jpg","null","","","","","","","","","","","","","","","","","","","","","","","","",""
"11761","","image-button-response","236","2079416","0.0-234.0","A1QW2XUJ7KZCV5","img_art/20.jpg","1","","","","","","","","","","","","","","","","","","","","","","","","",""
"6848","","image-button-response","237","2086266","0.0-235.0-0.0","A1QW2XUJ7KZCV5","img_art/20.jpg","5","","","","","","","","","","","","","","","","","","","","","","","","",""
"2583","","image-button-response","238","2088853","0.0-236.0-0.0","A1QW2XUJ7KZCV5","img_art/20.jpg","3","","","","","","","","","","","","","","","","","","","","","","","","",""
"null","","html-keyboard-response","239","2089854","0.0-237.0","A1QW2XUJ7KZCV5","<p style=""font-size: 48px;"">+</p>","","","","","null","allTrialResponses","1000","1","27","img_art/20.jpg","10","Tragedy on the road. Dark.","Alicia,Kylie,Katie,Andrea,Crystal,Hailey","Very cool, and calming (again) Love it.,47,120,20","City life vs shore life,40,300,20","I don't like it. Dark sky and black figures. White objects remind me of bones.,-30,160,20","Reminds me of persistance of time (a favorite of mine).,30,240,20","The pulling and sagging nature is very beautiful.,30,300,20","reminds me of a dead animal in the west. ugly,-25,200,20","Kylie","City life vs shore life,40,300,20","Hailey","reminds me of a dead animal in the west. ugly,-25,200,20","Andrea","Reminds me of persistance of time (a favorite of mine).,30,240,20","4"
"16063","","survey-text","240","2105923","0.0-238.0-0.0","A1QW2XUJ7KZCV5","","","","{""Q0"":""calming water movement.""}","","","","","","","","","","","","","","","","","","","","","","",""
"2318.7999999523163","","image-slider-response","241","2108243","0.0-239.0","A1QW2XUJ7KZCV5","","","","","14","","","","","","","","","","","","","","","","","","","","","",""
"2872","","image-button-response","242","2113247","0.0-240.0","A1QW2XUJ7KZCV5","img_art/24.jpg","0","","","","","","","","","","","","","","","","","","","","","","","","",""
"5156","","image-button-response","243","2118406","0.0-241.0","A1QW2XUJ7KZCV5","img_art/24.jpg","4","","","","","","","","","","","","","","","","","","","","","","","","",""
"1606","","image-button-response","244","2120014","0.0-242.0-0.0","A1QW2XUJ7KZCV5","img_art/24.jpg","3","","","","","","","","","","","","","","","","","","","","","","","","",""
"3042","","image-button-response","245","2123058","0.0-243.0-0.0","A1QW2XUJ7KZCV5","img_art/24.jpg","0","","","","","","","","","","","","","","","","","","","","","","","","",""
"null","","html-keyboard-response","246","2124059","0.0-244.0","A1QW2XUJ7KZCV5","<p style=""font-size: 48px;"">+</p>","","","","","null","allTrialResponses","1000","1","28","img_art/24.jpg","14","calming water movement.","Marissa,Kylie,Dominique,Andrea,Amber,Hailey","It feels very serene,19,160,20","Forest waterfall,40,300,20","Spending a day in nature,21,400,20","Waterfall, and I love the coloring.,48,240,20","peaceful and calm yet joyous.,50,200,20","warm spring day after a rain. soft,20,200,20","Amber","peaceful and calm yet joyous.,50,200,20","Andrea","Waterfall, and I love the coloring.,48,240,20","Marissa","It feels very serene,19,160,20","4"
"33988","","survey-text","247","2158055","0.0-245.0-0.0","A1QW2XUJ7KZCV5","","","","{""Q0"":""Dried up mud. Do not like the texture.""}","","","","","","","","","","","","","","","","","","","","","","",""
"2670.100000023842","","image-slider-response","248","2160727","0.0-246.0","A1QW2XUJ7KZCV5","","","","","-33","","","","","","","","","","","","","","","","","","","","","",""
"2529","","image-button-response","249","2165730","0.0-247.0","A1QW2XUJ7KZCV5","img_art/7.jpg","1","","","","","","","","","","","","","","","","","","","","","","","","",""
"1335","","image-button-response","250","2167067","0.0-248.0","A1QW2XUJ7KZCV5","img_art/7.jpg","1","","","","","","","","","","","","","","","","","","","","","","","","",""
"4840","","image-button-response","251","2171909","0.0-249.0-0.0","A1QW2XUJ7KZCV5","img_art/7.jpg","0","","","","","","","","","","","","","","","","","","","","","","","","",""
"7308","","image-button-response","252","2179220","0.0-250.0-0.0","A1QW2XUJ7KZCV5","img_art/7.jpg","3","","","","","","","","","","","","","","","","","","","","","","","","",""
"null","","html-keyboard-response","253","2180722","0.0-251.0","A1QW2XUJ7KZCV5","<p style=""font-size: 48px;"">+</p>","","","","","null","allTrialResponses","1500","1","29","img_art/7.jpg","-33","Dried up mud. Do not like the texture.","Marissa,Angela,Sophia,Andrea,Amber,Kayla","I feel confused, am I looking at a painting or a close up picture of some sort of fly stone?,-19,160,20","Looks like vomit, or chunky feces,-42,260,20","Is this cookie dough?  Yum!,-10,280,20","Reminds me of mold. Repulsive.,-10,240,20","Dull and confusing,-24,200,20","Dinosaur bones. Death.,-14,180,20","Angela","Looks like vomit, or chunky feces,-42,260,20","Marissa","I feel confused, am I looking at a painting or a close up picture of some sort of fly stone?,-19,160,20","Andrea","Reminds me of mold. Repulsive.,-10,240,20","4"
"23774","","survey-text","254","2204505","0.0-252.0-0.0","A1QW2XUJ7KZCV5","","","","{""Q0"":""Paint gone wrong. Abandoned.""}","","","","","","","","","","","","","","","","","","","","","","",""
"3533.600000023842","","image-slider-response","255","2208041","0.0-253.0","A1QW2XUJ7KZCV5","","","","","9","","","","","","","","","","","","","","","","","","","","","",""
"null","","image-button-response","256","2213043","0.0-254.0","A1QW2XUJ7KZCV5","img_art/29.jpg","null","","","","","","","","","","","","","","","","","","","","","","","","",""
"11404","","image-button-response","257","2224449","0.0-255.0","A1QW2XUJ7KZCV5","img_art/29.jpg","0","","","","","","","","","","","","","","","","","","","","","","","","",""
"2145","","image-button-response","258","2226597","0.0-256.0-0.0","A1QW2XUJ7KZCV5","img_art/29.jpg","1","","","","","","","","","","","","","","","","","","","","","","","","",""
"13742","","image-button-response","259","2240341","0.0-257.0-0.0","A1QW2XUJ7KZCV5","img_art/29.jpg","3","","","","","","","","","","","","","","","","","","","","","","","","",""
"null","","html-keyboard-response","260","2241343","0.0-258.0","A1QW2XUJ7KZCV5","<p style=""font-size: 48px;"">+</p>","","","","","null","allTrialResponses","1000","1","30","img_art/29.jpg","9","Paint gone wrong. Abandoned.","Marissa,Angela,Margaret,Andrea,Miranda,Cassidy","It makes me feel as though the artist put in a lot of time and effort and then gave up,10,160,20","I would like this piece better without the red X across it,-10,260,20","this does nothing for me. hate the colors. hate the design,-50,100,20","Bottomless pit and prison. Feels like its saying time is precious.,11,240,20","This feels chaotic and I like the energy that it gives off.,21,320,20","I like the colors but it looks very amateur,1,140,20","Marissa","It makes me feel as though the artist put in a lot of time and effort and then gave up,10,160,20","Angela","I would like this piece better without the red X across it,-10,260,20","Andrea","Bottomless pit and prison. Feels like its saying time is precious.,11,240,20","4"
"5178","","image-button-response_instructions","261","2246532","0.0-259.0","A1QW2XUJ7KZCV5","","0","instructions","","","","","","","","","","","","","","","","","","","","","","","",""
"1328","","image-button-response","262","2247866","0.0-260.0","A1QW2XUJ7KZCV5","","0","","","","","","","","","","","","","","","","","","","","","","","","",""
