"rt","url","trial_type","trial_index","time_elapsed","internal_node_id","participant_id","stimulus","button_pressed","Name","responses","response","key_press","variableName","fixationTime","condition","trial","photo","subjectRating","subjectResponse","agentsNames","agent_1_Response","agent_2_Response","agent_3_Response","agent_4_Response","agent_5_Response","agent_6_Response","kept_1_name","kept_1_response","kept_2_name","kept_2_response","kept_3_name","kept_3_response","errorCounter"
"16762","external_page_harvard.html","external-html","0","17059","0.0-0.0","A1S5SPI4NQPGSI","","","","","","","","","","","","","","","","","","","","","","","","","","",""
"2322","","image-button-response","1","19385","0.0-1.0","A1S5SPI4NQPGSI","","1","","","","","","","","","","","","","","","","","","","","","","","","",""
"1336","","image-button-response","2","20729","0.0-2.0-0.0","A1S5SPI4NQPGSI","","1","phone","","","","","","","","","","","","","","","","","","","","","","","",""
"14063","","survey-text","3","34794","0.0-3.0-0.0","A1S5SPI4NQPGSI","","","","{""Q0"":""A1S5SPI4NQPGSI""}","","","","","","","","","","","","","","","","","","","","","","",""
"6820","","image-button-response_instructions","4","41617","0.0-4.0","A1S5SPI4NQPGSI","","0","instructions","","","","","","","","","","","","","","","","","","","","","","","",""
"20713","","image-button-response_instructions","5","62331","0.0-5.0","A1S5SPI4NQPGSI","img_art/ins/popularity/ins1.png","0","instructions","","","","","","","","","","","","","","","","","","","","","","","",""
"8040","","image-button-response_instructions","6","70373","0.0-6.0","A1S5SPI4NQPGSI","img_art/ins/popularity/ins2.png","0","instructions","","","","","","","","","","","","","","","","","","","","","","","",""
"7110","","image-button-response_instructions","7","77486","0.0-7.0","A1S5SPI4NQPGSI","img_art/ins/popularity/ins2Extreme.png","0","instructions","","","","","","","","","","","","","","","","","","","","","","","",""
"13960","","image-button-response_instructions","8","91448","0.0-8.0","A1S5SPI4NQPGSI","img_art/ins/popularity/ins3KEEPpop.PNG","0","instructions","","","","","","","","","","","","","","","","","","","","","","","",""
"6022","","image-button-response_instructions","9","97473","0.0-9.0","A1S5SPI4NQPGSI","img_art/ins/popularity/ins3ANamepop.PNG","0","instructions","","","","","","","","","","","","","","","","","","","","","","","",""
"5439","","image-button-response_instructions","10","102914","0.0-10.0","A1S5SPI4NQPGSI","img_art/ins/popularity/ins3ARatingpop.png","0","instructions","","","","","","","","","","","","","","","","","","","","","","","",""
"7220","","image-button-response_instructions","11","110137","0.0-11.0","A1S5SPI4NQPGSI","img_art/ins/popularity/ins3ATextpop.png","0","instructions","","","","","","","","","","","","","","","","","","","","","","","",""
"6657","","image-button-response_instructions","12","116795","0.0-12.0","A1S5SPI4NQPGSI","img_art/ins/popularity/ins3ALikespop.png","0","instructions","","","","","","","","","","","","","","","","","","","","","","","",""
"25191","","image-button-response_instructions","13","141988","0.0-13.0","A1S5SPI4NQPGSI","img_art/ins/popularity/ins3KEEPpop.PNG","0","instructions","","","","","","","","","","","","","","","","","","","","","","","",""
"12496","","image-button-response_instructions","14","154486","0.0-14.0","A1S5SPI4NQPGSI","img_art/ins/popularity/ins3_5RED.png","0","instructions","","","","","","","","","","","","","","","","","","","","","","","",""
"5894","","image-button-response_instructions","15","160383","0.0-15.0","A1S5SPI4NQPGSI","img_art/ins/popularity/ins3KEEPpop.PNG","0","instructions","","","","","","","","","","","","","","","","","","","","","","","",""
"10551","","image-button-response_instructions","16","170936","0.0-16.0","A1S5SPI4NQPGSI","img_art/ins/popularity/ins4KEEPpop.PNG","0","instructions","","","","","","","","","","","","","","","","","","","","","","","",""
"18681","","image-button-response_instructions","17","189619","0.0-17.0","A1S5SPI4NQPGSI","img_art/ins/popularity/ins5KEEPpop.PNG","0","instructions","","","","","","","","","","","","","","","","","","","","","","","",""
"1918","","image-button-response_instructions","18","191538","0.0-18.0","A1S5SPI4NQPGSI","","0","instructions","","","","","","","","","","","","","","","","","","","","","","","",""
"6807","","survey-text","19","198371","0.0-19.0-0.0","A1S5SPI4NQPGSI","","","","{""Q0"":""but""}","","","","","","","","","","","","","","","","","","","","","","",""
"22937","","survey-text","20","221310","0.0-20.0-0.0","A1S5SPI4NQPGSI","","","","{""Q0"":""reminds me of melted ice cream not so much art""}","","","","","","","","","","","","","","","","","","","","","","",""
"5245","","image-slider-response","21","226560","0.0-21.0","A1S5SPI4NQPGSI","","","","","14","","","","","","","","","","","","","","","","","","","","","",""
"null","","image-button-response","22","231576","0.0-22.0","A1S5SPI4NQPGSI","img_art/ins/1.jpg","null","","","","","","","","","","","","","","","","","","","","","","","","",""
"4439","","image-button-response","23","236016","0.0-23.0","A1S5SPI4NQPGSI","img_art/ins/1.jpg","5","","","","","","","","","","","","","","","","","","","","","","","","",""
"4823","","image-button-response","24","240843","0.0-24.0-0.0","A1S5SPI4NQPGSI","img_art/ins/1.jpg","0","","","","","","","","","","","","","","","","","","","","","","","","",""
"3166","","image-button-response","25","244011","0.0-25.0-0.0","A1S5SPI4NQPGSI","img_art/ins/1.jpg","4","","","","","","","","","","","","","","","","","","","","","","","","",""
"null","","html-keyboard-response","26","245022","0.0-26.0","A1S5SPI4NQPGSI","<p style=""font-size: 48px;"">+</p>","","","","","null","allTrialResponses","1000","1","-2","img_art/ins/1.jpg","14","reminds me of melted ice cream not so much art","Allison,Ashley,Beth,Dora,Erika,Jen","looks like a lot of things going on in the mist,20,20,20","I just don't get why these type of art would be popular,-32,40,20","This color reminds me of poo,-46,60,20","looks like what my niece in 3rd grade did this afternoon,-50,80,20","I like the sophisticated brushwork,40,100,20","It reminds me of a candy land dream I had,36,120,20","Jen","It reminds me of a candy land dream I had,36,120,20","Allison","looks like a lot of things going on in the mist,20,20,20","Erika","I like the sophisticated brushwork,40,100,20","0"
"19914","","survey-text","27","264941","0.0-27.0-0.0","A1S5SPI4NQPGSI","","","","{""Q0"":""scraped together with a good mix of colors""}","","","","","","","","","","","","","","","","","","","","","","",""
"5734","","image-slider-response","28","270677","0.0-28.0","A1S5SPI4NQPGSI","","","","","15","","","","","","","","","","","","","","","","","","","","","",""
"null","","image-button-response","29","275684","0.0-29.0","A1S5SPI4NQPGSI","img_art/ins/2.jpg","null","","","","","","","","","","","","","","","","","","","","","","","","",""
"977","","image-button-response","30","276662","0.0-30.0","A1S5SPI4NQPGSI","img_art/ins/2.jpg","1","","","","","","","","","","","","","","","","","","","","","","","","",""
"886","","image-button-response","31","277551","0.0-31.0-0.0","A1S5SPI4NQPGSI","img_art/ins/2.jpg","0","","","","","","","","","","","","","","","","","","","","","","","","",""
"4846","","image-button-response","32","282399","0.0-32.0-0.0","A1S5SPI4NQPGSI","img_art/ins/2.jpg","5","","","","","","","","","","","","","","","","","","","","","","","","",""
"null","","html-keyboard-response","33","283907","0.0-33.0","A1S5SPI4NQPGSI","<p style=""font-size: 48px;"">+</p>","","","","","null","allTrialResponses","1500","1","-1","img_art/ins/2.jpg","15","scraped together with a good mix of colors","Allison,Kara,Katie,Jenna,Erika,Jen","I don't have strong feelings about this,10,20,20","I like the blocks of color arrangements,30,160,20","too much color!,-28,180,20","One of my pet peevs,-48,140,20","I would never be able to compose a sophisticated pallete like this,48,100,20","It reminds me of a fireplace,36,120,20","Kara","I like the blocks of color arrangements,30,160,20","Allison","I don't have strong feelings about this,10,20,20","Jen","It reminds me of a fireplace,36,120,20","0"
"22837","","survey-text","34","306751","0.0-34.0-0.0","A1S5SPI4NQPGSI","","","","{""Q0"":""blue lovers color""}","","","","","","","","","","","","","","","","","","","","","","",""
"5296","","image-slider-response","35","312049","0.0-35.0","A1S5SPI4NQPGSI","","","","","7","","","","","","","","","","","","","","","","","","","","","",""
"1526","","image-button-response","36","317054","0.0-36.0","A1S5SPI4NQPGSI","img_art/ins/3.jpg","0","","","","","","","","","","","","","","","","","","","","","","","","",""
"793","","image-button-response","37","317849","0.0-37.0","A1S5SPI4NQPGSI","img_art/ins/3.jpg","0","","","","","","","","","","","","","","","","","","","","","","","","",""
"2943","","image-button-response","38","320794","0.0-38.0-0.0","A1S5SPI4NQPGSI","img_art/ins/3.jpg","1","","","","","","","","","","","","","","","","","","","","","","","","",""
"1894","","image-button-response","39","322691","0.0-39.0-0.0","A1S5SPI4NQPGSI","img_art/ins/3.jpg","0","","","","","","","","","","","","","","","","","","","","","","","","",""
"4602","","image-button-response","40","331851","0.0-39.1-0.1","A1S5SPI4NQPGSI","img_art/ins/3.jpg","3","","","","","","","","","","","","","","","","","","","","","","","","",""
"null","","html-keyboard-response","41","333364","0.0-40.0","A1S5SPI4NQPGSI","<p style=""font-size: 48px;"">+</p>","","","","","null","allTrialResponses","1500","1","0","img_art/ins/3.jpg","7","blue lovers color","Allison,Kara,Rose,Leslie,Mary,Jen","enjoy the different shades of blue,22,20,20","calming blue is very nice,36,160,20","My daily routine, it's depressing,-20,240,20","It's an alright work,15,200,20","I like the overlapping of brushes,41,220,20","I can feel a rainy day from this painting,18,120,20","Allison","enjoy the different shades of blue,22,20,20","Kara","calming blue is very nice,36,160,20","Leslie","It's an alright work,15,200,20","2"
"4009","","image-button-response_instructions","42","337380","0.0-41.0","A1S5SPI4NQPGSI","","0","instructions","","","","","","","","","","","","","","","","","","","","","","","",""
"18779","","survey-likert","43","356162","0.0-42.0-0.0","A1S5SPI4NQPGSI","","","","{""Q0"":"""",""Q1"":0,""Q2"":1}","","","","","","","","","","","","","","","","","","","","","","",""
"5656","","survey-text","44","361822","0.0-43.0-0.0","A1S5SPI4NQPGSI","","","","{""Q0"":""rock""}","","","","","","","","","","","","","","","","","","","","","","",""
"24366","","survey-text","45","386190","0.0-44.0-0.0","A1S5SPI4NQPGSI","","","","{""Q0"":""city divided love the color scheme""}","","","","","","","","","","","","","","","","","","","","","","",""
"5205","","image-slider-response","46","391397","0.0-45.0","A1S5SPI4NQPGSI","","","","","22","","","","","","","","","","","","","","","","","","","","","",""
"2377","","image-button-response","47","396420","0.0-46.0","A1S5SPI4NQPGSI","img_art/12.jpg","2","","","","","","","","","","","","","","","","","","","","","","","","",""
"5706","","image-button-response","48","402128","0.0-47.0","A1S5SPI4NQPGSI","img_art/12.jpg","2","","","","","","","","","","","","","","","","","","","","","","","","",""
"4777","","image-button-response","49","406907","0.0-48.0-0.0","A1S5SPI4NQPGSI","img_art/12.jpg","3","","","","","","","","","","","","","","","","","","","","","","","","",""
"1651","","image-button-response","50","408561","0.0-49.0-0.0","A1S5SPI4NQPGSI","img_art/12.jpg","0","","","","","","","","","","","","","","","","","","","","","","","","",""
"null","","html-keyboard-response","51","409069","0.0-50.0","A1S5SPI4NQPGSI","<p style=""font-size: 48px;"">+</p>","","","","","null","allTrialResponses","500","1","1","img_art/12.jpg","22","city divided love the color scheme","Katelyn,Megan,Stephanie,Jacqueline,Mikayla,Tiffany","Just confuses me overall,-11,100,20","Blocky windowed, safe and selfish,-41,200,20","I like the pattern to it.,31,300,20","It's not particularly interesting or ugly.,-7,300,20","A little bit boring.,-24,300,20","The painting makes me uncomfortable. The smears in the boxes feel like a giant mess.,-16,360,20","Stephanie","I like the pattern to it.,31,300,20","Jacqueline","It's not particularly interesting or ugly.,-7,300,20","Katelyn","Just confuses me overall,-11,100,20","2"
"24516","","survey-text","52","433591","0.0-51.0-0.0","A1S5SPI4NQPGSI","","","","{""Q0"":""tangled mess of somehting maybe melting""}","","","","","","","","","","","","","","","","","","","","","","",""
"3204","","image-slider-response","53","436799","0.0-52.0","A1S5SPI4NQPGSI","","","","","-11","","","","","","","","","","","","","","","","","","","","","",""
"3375","","image-button-response","54","441812","0.0-53.0","A1S5SPI4NQPGSI","img_art/18.jpg","1","","","","","","","","","","","","","","","","","","","","","","","","",""
"1313","","image-button-response","55","443127","0.0-54.0","A1S5SPI4NQPGSI","img_art/18.jpg","3","","","","","","","","","","","","","","","","","","","","","","","","",""
"1926","","image-button-response","56","445055","0.0-55.0-0.0","A1S5SPI4NQPGSI","img_art/18.jpg","4","","","","","","","","","","","","","","","","","","","","","","","","",""
"1684","","image-button-response","57","446744","0.0-56.0-0.0","A1S5SPI4NQPGSI","img_art/18.jpg","5","","","","","","","","","","","","","","","","","","","","","","","","",""
"null","","html-keyboard-response","58","448248","0.0-57.0","A1S5SPI4NQPGSI","<p style=""font-size: 48px;"">+</p>","","","","","null","allTrialResponses","1500","1","2","img_art/18.jpg","-11","tangled mess of somehting maybe melting","Katelyn,Brianna,Stephanie,Jacqueline,Julia,Angela","It reminds me of ghosts on a boat. Makes me nervous.,-27,100,20","Very eerie and it's spooky,11,20,20","It made me think of a car crash,-39,300,20","Kinda neat, looks like cavalry, or a knight.,15,300,20","Very classy, I feel like it's the apocalypse.,25,40,20","like the grays and contrast of the yellow. This piece feels a bit angry,10,260,20","Jacqueline","Kinda neat, looks like cavalry, or a knight.,15,300,20","Julia","Very classy, I feel like it's the apocalypse.,25,40,20","Angela","like the grays and contrast of the yellow. This piece feels a bit angry,10,260,20","2"
"45076","","survey-text","59","493330","0.0-58.0-0.0","A1S5SPI4NQPGSI","","","","{""Q0"":""blocks in motion at least there are some things recognized""}","","","","","","","","","","","","","","","","","","","","","","",""
"4301","","image-slider-response","60","497633","0.0-59.0","A1S5SPI4NQPGSI","","","","","25","","","","","","","","","","","","","","","","","","","","","",""
"2101","","image-button-response","61","502636","0.0-60.0","A1S5SPI4NQPGSI","img_art/8.jpg","0","","","","","","","","","","","","","","","","","","","","","","","","",""
"1324","","image-button-response","62","503962","0.0-61.0","A1S5SPI4NQPGSI","img_art/8.jpg","2","","","","","","","","","","","","","","","","","","","","","","","","",""
"2201","","image-button-response","63","506163","0.0-62.0-0.0","A1S5SPI4NQPGSI","img_art/8.jpg","5","","","","","","","","","","","","","","","","","","","","","","","","",""
"1550","","image-button-response","64","507716","0.0-63.0-0.0","A1S5SPI4NQPGSI","img_art/8.jpg","3","","","","","","","","","","","","","","","","","","","","","","","","",""
"null","","html-keyboard-response","65","509227","0.0-64.0","A1S5SPI4NQPGSI","<p style=""font-size: 48px;"">+</p>","","","","","null","allTrialResponses","1500","1","3","img_art/8.jpg","25","blocks in motion at least there are some things recognized","Caroline,Kaitlin,Erika,Jacqueline,Julia,Angela","I love the colors in it and also the faces and door ways. Made me feel hopeful,35,100,20","wow - the colors were very well mixed,12,60,20","Striking, but not my taste,20,100,20","This is kind of neat. I really like how things are oriented and the shapes used.,18,300,20","it's a little too classical for my tastes,-25,40,20","Like the colors and the energy, but the face feels jarring to me,13,260,20","Erika","Striking, but not my taste,20,100,20","Angela","Like the colors and the energy, but the face feels jarring to me,13,260,20","Jacqueline","This is kind of neat. I really like how things are oriented and the shapes used.,18,300,20","2"
"16238","","survey-text","66","525469","0.0-65.0-0.0","A1S5SPI4NQPGSI","","","","{""Q0"":""someone scribbled on my art""}","","","","","","","","","","","","","","","","","","","","","","",""
"2861","","image-slider-response","67","528334","0.0-66.0","A1S5SPI4NQPGSI","","","","","-16","","","","","","","","","","","","","","","","","","","","","",""
"1830","","image-button-response","68","533337","0.0-67.0","A1S5SPI4NQPGSI","img_art/27.jpg","0","","","","","","","","","","","","","","","","","","","","","","","","",""
"725","","image-button-response","69","534063","0.0-68.0","A1S5SPI4NQPGSI","img_art/27.jpg","5","","","","","","","","","","","","","","","","","","","","","","","","",""
"2173","","image-button-response","70","536239","0.0-69.0-0.0","A1S5SPI4NQPGSI","img_art/27.jpg","3","","","","","","","","","","","","","","","","","","","","","","","","",""
"1685","","image-button-response","71","537926","0.0-70.0-0.0","A1S5SPI4NQPGSI","img_art/27.jpg","2","","","","","","","","","","","","","","","","","","","","","","","","",""
"null","","html-keyboard-response","72","539438","0.0-71.0","A1S5SPI4NQPGSI","<p style=""font-size: 48px;"">+</p>","","","","","null","allTrialResponses","1500","1","4","img_art/27.jpg","-16","someone scribbled on my art","Lauren,Isabella,Erika,Jacqueline,Catherine,Angela","Not a fan of the green; gives off the impression that someone else drew on it.,-20,340,20","Makes me feel warm inside,21,280,20","Nice color, but too vague,-12,100,20","I don't really see anything to this art.,-5,300,20","Angelic, childlike. happiness but also with sadness.,40,160,20","It's okay. Not really interesting to me.,-10,260,20","Angela","It's okay. Not really interesting to me.,-10,260,20","Jacqueline","I don't really see anything to this art.,-5,300,20","Erika","Nice color, but too vague,-12,100,20","2"
"56291","","survey-text","73","595734","0.0-72.0-0.0","A1S5SPI4NQPGSI","","","","{""Q0"":""blurred city streets muted color palette""}","","","","","","","","","","","","","","","","","","","","","","",""
"3335","","image-slider-response","74","599072","0.0-73.0","A1S5SPI4NQPGSI","","","","","25","","","","","","","","","","","","","","","","","","","","","",""
"1688","","image-button-response","75","604077","0.0-74.0","A1S5SPI4NQPGSI","img_art/11.jpg","0","","","","","","","","","","","","","","","","","","","","","","","","",""
"2635","","image-button-response","76","606713","0.0-75.0","A1S5SPI4NQPGSI","img_art/11.jpg","4","","","","","","","","","","","","","","","","","","","","","","","","",""
"1424","","image-button-response","77","608138","0.0-76.0-0.0","A1S5SPI4NQPGSI","img_art/11.jpg","5","","","","","","","","","","","","","","","","","","","","","","","","",""
"1156","","image-button-response","78","609297","0.0-77.0-0.0","A1S5SPI4NQPGSI","img_art/11.jpg","2","","","","","","","","","","","","","","","","","","","","","","","","",""
"null","","html-keyboard-response","79","610313","0.0-78.0","A1S5SPI4NQPGSI","<p style=""font-size: 48px;"">+</p>","","","","","null","allTrialResponses","1000","1","5","img_art/11.jpg","25","blurred city streets muted color palette","Shelby,Claire,Erika,Jacqueline,Cynthia,Angela","The movement in this one is extremely pleasent,40,240,20","the wavy lines are nice and pleasing,13,260,20","I want to know which skyline the artist is depicting,26,100,20","It's too dark and dingy.,-30,300,20","Sad but hopeful,43,320,20","I like this one very much, especially the shades of gray.,30,260,20","Cynthia","Sad but hopeful,43,320,20","Angela","I like this one very much, especially the shades of gray.,30,260,20","Erika","I want to know which skyline the artist is depicting,26,100,20","2"
"4904","","survey-text","80","615227","0.0-79.0-0.0","A1S5SPI4NQPGSI","","","","{""Q0"":""sky""}","","","","","","","","","","","","","","","","","","","","","","",""
"19883","","survey-text","81","635112","0.0-80.0-0.0","A1S5SPI4NQPGSI","","","","{""Q0"":""unfinished geometry""}","","","","","","","","","","","","","","","","","","","","","","",""
"4413","","image-slider-response","82","639528","0.0-81.0","A1S5SPI4NQPGSI","","","","","-25","","","","","","","","","","","","","","","","","","","","","",""
"2518","","image-button-response","83","644540","0.0-82.0","A1S5SPI4NQPGSI","img_art/5.jpg","2","","","","","","","","","","","","","","","","","","","","","","","","",""
"1559","","image-button-response","84","646101","0.0-83.0","A1S5SPI4NQPGSI","img_art/5.jpg","4","","","","","","","","","","","","","","","","","","","","","","","","",""
"799","","image-button-response","85","646902","0.0-84.0-0.0","A1S5SPI4NQPGSI","img_art/5.jpg","5","","","","","","","","","","","","","","","","","","","","","","","","",""
"1292","","image-button-response","86","648197","0.0-85.0-0.0","A1S5SPI4NQPGSI","img_art/5.jpg","2","","","","","","","","","","","","","","","","","","","","","","","","",""
"null","","html-keyboard-response","87","649710","0.0-86.0","A1S5SPI4NQPGSI","<p style=""font-size: 48px;"">+</p>","","","","","null","allTrialResponses","1500","1","6","img_art/5.jpg","-25","unfinished geometry","Taylor,Sara,Erika,Gabriela,Cynthia,Angela","Doesn't make me think anything,-1,340,20","It looks random,-10,160,20","Not sure what I'm looking at,-16,100,20","I am confused as to what this is supposed to be,6,140,20","boring and unsure,-25,320,20","I really dislike this. It's ugly and looks dirty.,-44,260,20","Cynthia","boring and unsure,-25,320,20","Angela","I really dislike this. It's ugly and looks dirty.,-44,260,20","Erika","Not sure what I'm looking at,-16,100,20","2"
"20656","","survey-text","88","670372","0.0-87.0-0.0","A1S5SPI4NQPGSI","","","","{""Q0"":""don't care fo these mixed and muted images""}","","","","","","","","","","","","","","","","","","","","","","",""
"3862","","image-slider-response","89","674236","0.0-88.0","A1S5SPI4NQPGSI","","","","","-21","","","","","","","","","","","","","","","","","","","","","",""
"2398","","image-button-response","90","679241","0.0-89.0","A1S5SPI4NQPGSI","img_art/1.jpg","1","","","","","","","","","","","","","","","","","","","","","","","","",""
"2796","","image-button-response","91","682038","0.0-90.0","A1S5SPI4NQPGSI","img_art/1.jpg","1","","","","","","","","","","","","","","","","","","","","","","","","",""
"934","","image-button-response","92","682974","0.0-91.0-0.0","A1S5SPI4NQPGSI","img_art/1.jpg","2","","","","","","","","","","","","","","","","","","","","","","","","",""
"3190","","image-button-response","93","686167","0.0-92.0-0.0","A1S5SPI4NQPGSI","img_art/1.jpg","0","","","","","","","","","","","","","","","","","","","","","","","","",""
"null","","html-keyboard-response","94","687669","0.0-93.0","A1S5SPI4NQPGSI","<p style=""font-size: 48px;"">+</p>","","","","","null","allTrialResponses","1500","1","7","img_art/1.jpg","-21","don't care fo these mixed and muted images","Miranda,Lindsey,Erika,Briana,Cynthia,Angela","Someone painted a landscape and decided they didn't like it so they covered it up.,13,320,20","Not a fan of the colors. Makes me think of the Australian bush fires.,-5,400,20","Vague and directionless,-14,100,20","I like the colors. But it doesnt look like anything,27,400,20","fishing on the lake surrounded by trees,42,320,20","Like the colors very much, and this piece makes me feel peaceful.,29,260,20","Lindsey","Not a fan of the colors. Makes me think of the Australian bush fires.,-5,400,20","Erika","Vague and directionless,-14,100,20","Miranda","Someone painted a landscape and decided they didn't like it so they covered it up.,13,320,20","2"
"34024","","survey-text","95","721699","0.0-94.0-0.0","A1S5SPI4NQPGSI","","","","{""Q0"":""i don't really know what this is""}","","","","","","","","","","","","","","","","","","","","","","",""
"5902","","image-slider-response","96","727604","0.0-95.0","A1S5SPI4NQPGSI","","","","","-20","","","","","","","","","","","","","","","","","","","","","",""
"4270","","image-button-response","97","732612","0.0-96.0","A1S5SPI4NQPGSI","img_art/14.jpg","0","","","","","","","","","","","","","","","","","","","","","","","","",""
"271","","image-button-response","98","732884","0.0-97.0","A1S5SPI4NQPGSI","img_art/14.jpg","0","","","","","","","","","","","","","","","","","","","","","","","","",""
"1797","","image-button-response","99","734684","0.0-98.0-0.0","A1S5SPI4NQPGSI","img_art/14.jpg","3","","","","","","","","","","","","","","","","","","","","","","","","",""
"3126","","image-button-response","100","737813","0.0-99.0-0.0","A1S5SPI4NQPGSI","img_art/14.jpg","1","","","","","","","","","","","","","","","","","","","","","","","","",""
"null","","html-keyboard-response","101","739319","0.0-100.0","A1S5SPI4NQPGSI","<p style=""font-size: 48px;"">+</p>","","","","","null","allTrialResponses","1500","1","8","img_art/14.jpg","-20","i don't really know what this is","Miranda,Lindsey,Erika,Michelle,Erica,Meghan","This just looks like a kids watercolor painting.,-30,320,20","Warm, positive, growth.,8,400,20","It's alright, something I'd see in a guest bedroom,10,100,20","Too abstract with annoying little details. Just draw a regular tree already,-6,280,20","positive colours, makes me to look at it and investigate what is going on,27,80,20","its okay nothing special,11,220,20","Miranda","This just looks like a kids watercolor painting.,-30,320,20","Michelle","Too abstract with annoying little details. Just draw a regular tree already,-6,280,20","Lindsey","Warm, positive, growth.,8,400,20","2"
"18226","","survey-text","102","757552","0.0-101.0-0.0","A1S5SPI4NQPGSI","","","","{""Q0"":""ink blots maybe""}","","","","","","","","","","","","","","","","","","","","","","",""
"4646","","image-slider-response","103","762199","0.0-102.0","A1S5SPI4NQPGSI","","","","","-15","","","","","","","","","","","","","","","","","","","","","",""
"2096","","image-button-response","104","767212","0.0-103.0","A1S5SPI4NQPGSI","img_art/15.jpg","1","","","","","","","","","","","","","","","","","","","","","","","","",""
"1597","","image-button-response","105","768810","0.0-104.0","A1S5SPI4NQPGSI","img_art/15.jpg","5","","","","","","","","","","","","","","","","","","","","","","","","",""
"3007","","image-button-response","106","771818","0.0-105.0-0.0","A1S5SPI4NQPGSI","img_art/15.jpg","2","","","","","","","","","","","","","","","","","","","","","","","","",""
"1094","","image-button-response","107","772914","0.0-106.0-0.0","A1S5SPI4NQPGSI","img_art/15.jpg","1","","","","","","","","","","","","","","","","","","","","","","","","",""
"null","","html-keyboard-response","108","773917","0.0-107.0","A1S5SPI4NQPGSI","<p style=""font-size: 48px;"">+</p>","","","","","null","allTrialResponses","1000","1","9","img_art/15.jpg","-15","ink blots maybe","Miranda,Lindsey,Emily,Michelle,Grace,Molly","This gives a skin crawling feeling. Like something that you could see under a mircoscope,10,320,20","Not a fan. This piece would only go with very specific decor in a modern home.,-35,400,20","Looks incomplete.,-19,40,20","Interesting to look at but I don't appreciate the abstraction,2,280,20","Interesting. Reminds me of a biopsy slide.,21,180,20","I can't see the meaning of the painting.,-30,340,20","Molly","I can't see the meaning of the painting.,-30,340,20","Emily","Looks incomplete.,-19,40,20","Lindsey","Not a fan. This piece would only go with very specific decor in a modern home.,-35,400,20","2"
"24115","","survey-text","109","798038","0.0-108.0-0.0","A1S5SPI4NQPGSI","","","","{""Q0"":""staggers the mind along with the pattern""}","","","","","","","","","","","","","","","","","","","","","","",""
"4734","","image-slider-response","110","802775","0.0-109.0","A1S5SPI4NQPGSI","","","","","-18","","","","","","","","","","","","","","","","","","","","","",""
"4646","","image-button-response","111","807777","0.0-110.0","A1S5SPI4NQPGSI","img_art/3.jpg","4","","","","","","","","","","","","","","","","","","","","","","","","",""
"709","","image-button-response","112","808488","0.0-111.0","A1S5SPI4NQPGSI","img_art/3.jpg","4","","","","","","","","","","","","","","","","","","","","","","","","",""
"1942","","image-button-response","113","810432","0.0-112.0-0.0","A1S5SPI4NQPGSI","img_art/3.jpg","1","","","","","","","","","","","","","","","","","","","","","","","","",""
"959","","image-button-response","114","811392","0.0-113.0-0.0","A1S5SPI4NQPGSI","img_art/3.jpg","2","","","","","","","","","","","","","","","","","","","","","","","","",""
"null","","html-keyboard-response","115","812395","0.0-114.0","A1S5SPI4NQPGSI","<p style=""font-size: 48px;"">+</p>","","","","","null","allTrialResponses","1000","1","10","img_art/3.jpg","-18","staggers the mind along with the pattern","Kayla,Lindsey,Emily,Bailey,Chelsea,Molly","Really have no idea what I'm looking at.,1,180,20","Angry red crayons, like a child throwing a tantrum. No thanks.,-10,400,20","Looks like someone mentalyl unstable drew and is ready to go a a killing spree.,-50,40,20","Just scribbles. People buy that?,-47,360,20","It looks like scribbles.,-40,180,20","Mysterious, remarkable.,30,340,20","Chelsea","It looks like scribbles.,-40,180,20","Lindsey","Angry red crayons, like a child throwing a tantrum. No thanks.,-10,400,20","Emily","Looks like someone mentalyl unstable drew and is ready to go a a killing spree.,-50,40,20","2"
"3984","","survey-text","116","816392","0.0-115.0-0.0","A1S5SPI4NQPGSI","","","","{""Q0"":""our""}","","","","","","","","","","","","","","","","","","","","","","",""
"27326","","survey-text","117","843721","0.0-116.0-0.0","A1S5SPI4NQPGSI","","","","{""Q0"":""would need an artist statement for this""}","","","","","","","","","","","","","","","","","","","","","","",""
"4255","","image-slider-response","118","847978","0.0-117.0","A1S5SPI4NQPGSI","","","","","-27","","","","","","","","","","","","","","","","","","","","","",""
"null","","image-button-response","119","852987","0.0-118.0","A1S5SPI4NQPGSI","img_art/2.jpg","null","","","","","","","","","","","","","","","","","","","","","","","","",""
"2664","","image-button-response","120","855652","0.0-119.0","A1S5SPI4NQPGSI","img_art/2.jpg","3","","","","","","","","","","","","","","","","","","","","","","","","",""
"3799","","image-button-response","121","859452","0.0-120.0-0.0","A1S5SPI4NQPGSI","img_art/2.jpg","1","","","","","","","","","","","","","","","","","","","","","","","","",""
"1742","","image-button-response","122","861196","0.0-121.0-0.0","A1S5SPI4NQPGSI","img_art/2.jpg","2","","","","","","","","","","","","","","","","","","","","","","","","",""
"null","","html-keyboard-response","123","861704","0.0-122.0","A1S5SPI4NQPGSI","<p style=""font-size: 48px;"">+</p>","","","","","null","allTrialResponses","500","1","11","img_art/2.jpg","-27","would need an artist statement for this","Sierra,Lindsey,Emily,Maria,Chelsea,Victoria","looks like a happy child,15,260,20","Not a fan of the colors or the style.,-31,400,20","Random colors and shapes mashed together. Nothing artistic, but better than some of the other ones.,-37,40,20","again, I struggle to see the art and I dislike the green in particular.,-31,120,20","Not sure what is happening. I'm not a big fan of the colors but they don't bother me either.,1,180,20","I like the colors,22,400,20","Maria","again, I struggle to see the art and I dislike the green in particular.,-31,120,20","Lindsey","Not a fan of the colors or the style.,-31,400,20","Emily","Random colors and shapes mashed together. Nothing artistic, but better than some of the other ones.,-37,40,20","2"
"27192","","survey-text","124","888902","0.0-123.0-0.0","A1S5SPI4NQPGSI","","","","{""Q0"":""zagged little bed in a zagged little scene""}","","","","","","","","","","","","","","","","","","","","","","",""
"3239","","image-slider-response","125","892142","0.0-124.0","A1S5SPI4NQPGSI","","","","","15","","","","","","","","","","","","","","","","","","","","","",""
"null","","image-button-response","126","897152","0.0-125.0","A1S5SPI4NQPGSI","img_art/9.jpg","null","","","","","","","","","","","","","","","","","","","","","","","","",""
"582","","image-button-response","127","897735","0.0-126.0","A1S5SPI4NQPGSI","img_art/9.jpg","0","","","","","","","","","","","","","","","","","","","","","","","","",""
"3445","","image-button-response","128","901183","0.0-127.0-0.0","A1S5SPI4NQPGSI","img_art/9.jpg","3","","","","","","","","","","","","","","","","","","","","","","","","",""
"1654","","image-button-response","129","902839","0.0-128.0-0.0","A1S5SPI4NQPGSI","img_art/9.jpg","4","","","","","","","","","","","","","","","","","","","","","","","","",""
"null","","html-keyboard-response","130","903848","0.0-129.0","A1S5SPI4NQPGSI","<p style=""font-size: 48px;"">+</p>","","","","","null","allTrialResponses","1000","1","12","img_art/9.jpg","15","zagged little bed in a zagged little scene","Vanessa,Lindsey,Emily,Maria,Abigail,Amanda","It's too abstract for my taste. I wish there were more definition.,-9,380,20","Looks like my niece's doodles.,-50,400,20","Looks like a young child drew it.,-45,40,20","while I don't dispute the art, it feels childish,-20,120,20","Reminds me of a cave in a scary movie,-21,20,20","Makes me feel angry, its not very clear,-50,180,20","Vanessa","It's too abstract for my taste. I wish there were more definition.,-9,380,20","Maria","while I don't dispute the art, it feels childish,-20,120,20","Abigail","Reminds me of a cave in a scary movie,-21,20,20","2"
"40450","","survey-text","131","944305","0.0-130.0-0.0","A1S5SPI4NQPGSI","","","","{""Q0"":""swishey lines with a blurred color scheme""}","","","","","","","","","","","","","","","","","","","","","","",""
"4472","","image-slider-response","132","948778","0.0-131.0","A1S5SPI4NQPGSI","","","","","-16","","","","","","","","","","","","","","","","","","","","","",""
"4696","","image-button-response","133","953795","0.0-132.0","A1S5SPI4NQPGSI","img_art/30.jpg","4","","","","","","","","","","","","","","","","","","","","","","","","",""
"767","","image-button-response","134","954564","0.0-133.0","A1S5SPI4NQPGSI","img_art/30.jpg","4","","","","","","","","","","","","","","","","","","","","","","","","",""
"3752","","image-button-response","135","958317","0.0-134.0-0.0","A1S5SPI4NQPGSI","img_art/30.jpg","0","","","","","","","","","","","","","","","","","","","","","","","","",""
"3068","","image-button-response","136","961387","0.0-135.0-0.0","A1S5SPI4NQPGSI","img_art/30.jpg","3","","","","","","","","","","","","","","","","","","","","","","","","",""
"null","","html-keyboard-response","137","962401","0.0-136.0","A1S5SPI4NQPGSI","<p style=""font-size: 48px;"">+</p>","","","","","null","allTrialResponses","1000","1","13","img_art/30.jpg","-16","swishey lines with a blurred color scheme","Vanessa,Samantha,Dominique,Maria,Abigail,Kristen","I like the red against the blue, but otherwise, it's not really my taste,4,380,20","Too much like childrens finger paint. I dont like the smear of blended colors,-50,140,20","Personal , calming conservative signature business ideal.,32,400,20","uplifted and yet calmed,15,120,20","Combination of colors arent good,-6,20,20","makes me think of a tunnel filled with graffiti,19,280,20","Abigail","Combination of colors arent good,-6,20,20","Vanessa","I like the red against the blue, but otherwise, it's not really my taste,4,380,20","Maria","uplifted and yet calmed,15,120,20","2"
"31512","","survey-text","138","993921","0.0-137.0-0.0","A1S5SPI4NQPGSI","","","","{""Q0"":""this looks like texture and inspires the imagination to wonder how""}","","","","","","","","","","","","","","","","","","","","","","",""
"5030","","image-slider-response","139","998953","0.0-138.0","A1S5SPI4NQPGSI","","","","","32","","","","","","","","","","","","","","","","","","","","","",""
"2333","","image-button-response","140","1003956","0.0-139.0","A1S5SPI4NQPGSI","img_art/7.jpg","1","","","","","","","","","","","","","","","","","","","","","","","","",""
"2732","","image-button-response","141","1006690","0.0-140.0","A1S5SPI4NQPGSI","img_art/7.jpg","3","","","","","","","","","","","","","","","","","","","","","","","","",""
"1405","","image-button-response","142","1008096","0.0-141.0-0.0","A1S5SPI4NQPGSI","img_art/7.jpg","5","","","","","","","","","","","","","","","","","","","","","","","","",""
"1545","","image-button-response","143","1009643","0.0-142.0-0.0","A1S5SPI4NQPGSI","img_art/7.jpg","1","","","","","","","","","","","","","","","","","","","","","","","","",""
"null","","html-keyboard-response","144","1010648","0.0-143.0","A1S5SPI4NQPGSI","<p style=""font-size: 48px;"">+</p>","","","","","null","allTrialResponses","1000","1","14","img_art/7.jpg","32","this looks like texture and inspires the imagination to wonder how","Vanessa,Melissa,Danielle,Maria,Abigail,Emma","This is borning and lifeless.,-50,380,20","textures are engaging,8,240,20","I don't like this kind of color scheme or look they went for,-50,340,20","elicits no real response,0,120,20","Looks like a skin disease,-31,20,20","Cool, makes me think of archeology,15,60,20","Maria","elicits no real response,0,120,20","Emma","Cool, makes me think of archeology,15,60,20","Melissa","textures are engaging,8,240,20","2"
"44390","","survey-text","145","1055045","0.0-144.0-0.0","A1S5SPI4NQPGSI","","","","{""Q0"":""no clue... smeared black on canvas""}","","","","","","","","","","","","","","","","","","","","","","",""
"5604","","image-slider-response","146","1060651","0.0-145.0","A1S5SPI4NQPGSI","","","","","-16","","","","","","","","","","","","","","","","","","","","","",""
"null","","image-button-response","147","1065662","0.0-146.0","A1S5SPI4NQPGSI","img_art/10.jpg","null","","","","","","","","","","","","","","","","","","","","","","","","",""
"1084","","image-button-response","148","1066749","0.0-147.0","A1S5SPI4NQPGSI","img_art/10.jpg","4","","","","","","","","","","","","","","","","","","","","","","","","",""
"1597","","image-button-response","149","1068349","0.0-148.0-0.0","A1S5SPI4NQPGSI","img_art/10.jpg","3","","","","","","","","","","","","","","","","","","","","","","","","",""
"1830","","image-button-response","150","1070182","0.0-149.0-0.0","A1S5SPI4NQPGSI","img_art/10.jpg","0","","","","","","","","","","","","","","","","","","","","","","","","",""
"null","","html-keyboard-response","151","1070693","0.0-150.0","A1S5SPI4NQPGSI","<p style=""font-size: 48px;"">+</p>","","","","","null","allTrialResponses","500","1","15","img_art/10.jpg","-16","no clue... smeared black on canvas","Jasmine,Melissa,Jamie,Maria,Cassidy,Emma","It's okay but not giving me the strongest reaction,6,340,20","shapes are appealing/relationship between the beige square and the black lines,24,240,20","Well done designs for being considered abstract,45,320,20","not sure what to make of this one,0,120,20","Looks like someone just smeared some paint and called it good. Do not like.,-6,140,20","Feels musical .....,40,60,20","Cassidy","Looks like someone just smeared some paint and called it good. Do not like.,-6,140,20","Maria","not sure what to make of this one,0,120,20","Jasmine","It's okay but not giving me the strongest reaction,6,340,20","2"
"5366","","survey-text","152","1076069","0.0-151.0-0.0","A1S5SPI4NQPGSI","","","","{""Q0"":""course""}","","","","","","","","","","","","","","","","","","","","","","",""
"20418","","survey-text","153","1096488","0.0-152.0-0.0","A1S5SPI4NQPGSI","","","","{""Q0"":""looks like new growth""}","","","","","","","","","","","","","","","","","","","","","","",""
"3821","","image-slider-response","154","1100311","0.0-153.0","A1S5SPI4NQPGSI","","","","","21","","","","","","","","","","","","","","","","","","","","","",""
"3959","","image-button-response","155","1105327","0.0-154.0","A1S5SPI4NQPGSI","img_art/6.jpg","2","","","","","","","","","","","","","","","","","","","","","","","","",""
"2831","","image-button-response","156","1108160","0.0-155.0","A1S5SPI4NQPGSI","img_art/6.jpg","2","","","","","","","","","","","","","","","","","","","","","","","","",""
"1169","","image-button-response","157","1109329","0.0-156.0-0.0","A1S5SPI4NQPGSI","img_art/6.jpg","1","","","","","","","","","","","","","","","","","","","","","","","","",""
"3071","","image-button-response","158","1112401","0.0-157.0-0.0","A1S5SPI4NQPGSI","img_art/6.jpg","3","","","","","","","","","","","","","","","","","","","","","","","","",""
"null","","html-keyboard-response","159","1112906","0.0-158.0","A1S5SPI4NQPGSI","<p style=""font-size: 48px;"">+</p>","","","","","null","allTrialResponses","500","1","16","img_art/6.jpg","21","looks like new growth","Jasmine,Kylie,Michaela,Maria,Cassidy,Ashley","Simple and clean,11,340,20","Reminds me of feeling incomplete,1,300,20","It looks like a bird looking away,32,260,20","intrigues me - not sure what I'm seeing, but I like combination of colour and texture,21,120,20","The background on the upper half is nice. I also like the contrast of the top and bottom halves,5,140,20","A lot of people will lvoe this, I do not.,1,320,20","Michaela","It looks like a bird looking away,32,260,20","Kylie","Reminds me of feeling incomplete,1,300,20","Maria","intrigues me - not sure what I'm seeing, but I like combination of colour and texture,21,120,20","2"
"24385","","survey-text","160","1137299","0.0-159.0-0.0","A1S5SPI4NQPGSI","","","","{""Q0"":""looks like mardi gras and feel happy""}","","","","","","","","","","","","","","","","","","","","","","",""
"3860","","image-slider-response","161","1141162","0.0-160.0","A1S5SPI4NQPGSI","","","","","34","","","","","","","","","","","","","","","","","","","","","",""
"2871","","image-button-response","162","1146173","0.0-161.0","A1S5SPI4NQPGSI","img_art/23.jpg","1","","","","","","","","","","","","","","","","","","","","","","","","",""
"1525","","image-button-response","163","1147700","0.0-162.0","A1S5SPI4NQPGSI","img_art/23.jpg","1","","","","","","","","","","","","","","","","","","","","","","","","",""
"2382","","image-button-response","164","1150083","0.0-163.0-0.0","A1S5SPI4NQPGSI","img_art/23.jpg","4","","","","","","","","","","","","","","","","","","","","","","","","",""
"2477","","image-button-response","165","1152562","0.0-164.0-0.0","A1S5SPI4NQPGSI","img_art/23.jpg","2","","","","","","","","","","","","","","","","","","","","","","","","",""
"null","","html-keyboard-response","166","1154077","0.0-165.0","A1S5SPI4NQPGSI","<p style=""font-size: 48px;"">+</p>","","","","","null","allTrialResponses","1500","1","17","img_art/23.jpg","34","looks like mardi gras and feel happy","Olivia,Kylie,Michaela,Maria,Mariah,Sydney","happiness in the universe,28,40,20","Universal celebration,40,300,20","This would make a great mural,37,260,20","the pattern of colours imbues in me a sense of infinity, which I find soothing,10,120,20","It feels active and vibrant.,20,140,20","The piece seems chaotic, and I dislike the random pop of white within so many colors.,-10,320,20","Kylie","Universal celebration,40,300,20","Mariah","It feels active and vibrant.,20,140,20","Michaela","This would make a great mural,37,260,20","2"
"26807","","survey-text","167","1180889","0.0-166.0-0.0","A1S5SPI4NQPGSI","","","","{""Q0"":""muted scene likely outdoors ""}","","","","","","","","","","","","","","","","","","","","","","",""
"3071","","image-slider-response","168","1183962","0.0-167.0","A1S5SPI4NQPGSI","","","","","17","","","","","","","","","","","","","","","","","","","","","",""
"2413","","image-button-response","169","1188967","0.0-168.0","A1S5SPI4NQPGSI","img_art/26.jpg","1","","","","","","","","","","","","","","","","","","","","","","","","",""
"689","","image-button-response","170","1189658","0.0-169.0","A1S5SPI4NQPGSI","img_art/26.jpg","1","","","","","","","","","","","","","","","","","","","","","","","","",""
"1109","","image-button-response","171","1190770","0.0-170.0-0.0","A1S5SPI4NQPGSI","img_art/26.jpg","2","","","","","","","","","","","","","","","","","","","","","","","","",""
"1752","","image-button-response","172","1192523","0.0-171.0-0.0","A1S5SPI4NQPGSI","img_art/26.jpg","5","","","","","","","","","","","","","","","","","","","","","","","","",""
"null","","html-keyboard-response","173","1194025","0.0-172.0","A1S5SPI4NQPGSI","<p style=""font-size: 48px;"">+</p>","","","","","null","allTrialResponses","1500","1","18","img_art/26.jpg","17","muted scene likely outdoors ","Sarah,Kylie,Michaela,Allison,Mariah,Alexandria","too hard to figure out if it's meant to be actual objects or impressions,-36,180,20","Picturesque little town,45,300,20","Elevator art but the watercolors are good,29,260,20","pretty colors, but sketch style isn't for me,10,140,20","Pleasant but bland.,10,140,20","makes me happy and reminds me of a paris courtyard,29,80,20","Kylie","Picturesque little town,45,300,20","Michaela","Elevator art but the watercolors are good,29,260,20","Alexandria","makes me happy and reminds me of a paris courtyard,29,80,20","2"
"51122","","survey-text","174","1245152","0.0-173.0-0.0","A1S5SPI4NQPGSI","","","","{""Q0"":""stuff always falls apart...put it back together""}","","","","","","","","","","","","","","","","","","","","","","",""
"4255","","image-slider-response","175","1249409","0.0-174.0","A1S5SPI4NQPGSI","","","","","22","","","","","","","","","","","","","","","","","","","","","",""
"3144","","image-button-response","176","1254424","0.0-175.0","A1S5SPI4NQPGSI","img_art/28.jpg","0","","","","","","","","","","","","","","","","","","","","","","","","",""
"1352","","image-button-response","177","1255778","0.0-176.0","A1S5SPI4NQPGSI","img_art/28.jpg","0","","","","","","","","","","","","","","","","","","","","","","","","",""
"1848","","image-button-response","178","1257627","0.0-177.0-0.0","A1S5SPI4NQPGSI","img_art/28.jpg","1","","","","","","","","","","","","","","","","","","","","","","","","",""
"2462","","image-button-response","179","1260091","0.0-178.0-0.0","A1S5SPI4NQPGSI","img_art/28.jpg","2","","","","","","","","","","","","","","","","","","","","","","","","",""
"null","","html-keyboard-response","180","1260595","0.0-179.0","A1S5SPI4NQPGSI","<p style=""font-size: 48px;"">+</p>","","","","","null","allTrialResponses","500","1","19","img_art/28.jpg","22","stuff always falls apart...put it back together","Margaret,Kylie,Michaela,Kaitlyn,Amber,Alexandria","i like the neutral color pallette but i dont know what i am looking at,26,100,20","Overpopulated city,35,300,20","Salvador Dali called and he thinks this looks pretty good,27,260,20","Not sure what way this picture is suppose to be oriented,-5,80,20","Colors are too dull.,-30,200,20","no clear colors or meaning to evoke emotions,-15,80,20","Margaret","i like the neutral color pallette but i dont know what i am looking at,26,100,20","Kylie","Overpopulated city,35,300,20","Michaela","Salvador Dali called and he thinks this looks pretty good,27,260,20","2"
"54372","","survey-text","181","1314972","0.0-180.0-0.0","A1S5SPI4NQPGSI","","","","{""Q0"":""i am the god of hells fire or maybe an emerald fire""}","","","","","","","","","","","","","","","","","","","","","","",""
"3965","","image-slider-response","182","1318940","0.0-181.0","A1S5SPI4NQPGSI","","","","","31","","","","","","","","","","","","","","","","","","","","","",""
"1877","","image-button-response","183","1323958","0.0-182.0","A1S5SPI4NQPGSI","img_art/25.jpg","0","","","","","","","","","","","","","","","","","","","","","","","","",""
"830","","image-button-response","184","1324789","0.0-183.0","A1S5SPI4NQPGSI","img_art/25.jpg","0","","","","","","","","","","","","","","","","","","","","","","","","",""
"2031","","image-button-response","185","1326821","0.0-184.0-0.0","A1S5SPI4NQPGSI","img_art/25.jpg","5","","","","","","","","","","","","","","","","","","","","","","","","",""
"5206","","image-button-response","186","1332030","0.0-185.0-0.0","A1S5SPI4NQPGSI","img_art/25.jpg","2","","","","","","","","","","","","","","","","","","","","","","","","",""
"null","","html-keyboard-response","187","1332534","0.0-186.0","A1S5SPI4NQPGSI","<p style=""font-size: 48px;"">+</p>","","","","","null","allTrialResponses","500","1","20","img_art/25.jpg","31","i am the god of hells fire or maybe an emerald fire","Margaret,Kylie,Michaela,Jessica,Destiny,Kelly","love the color and the contrast of the black on teal,50,100,20","Egyptian heiroglyphics and painting,15,300,20","It looks like people worshipping a statue,33,260,20","I really like how the lines form this piece.,8,400,20","creeeeeppyyyyyyy but mad cool,-26,360,20","I love the color. I don't know what exactly is going on but I like it.,24,220,20","Margaret","love the color and the contrast of the black on teal,50,100,20","Kelly","I love the color. I don't know what exactly is going on but I like it.,24,220,20","Michaela","It looks like people worshipping a statue,33,260,20","2"
"3010","","survey-text","188","1335557","0.0-187.0-0.0","A1S5SPI4NQPGSI","","","","{""Q0"":""we""}","","","","","","","","","","","","","","","","","","","","","","",""
"28442","","survey-text","189","1364000","0.0-188.0-0.0","A1S5SPI4NQPGSI","","","","{""Q0"":""awesome colors that represent nothing much""}","","","","","","","","","","","","","","","","","","","","","","",""
"3715","","image-slider-response","190","1367717","0.0-189.0","A1S5SPI4NQPGSI","","","","","20","","","","","","","","","","","","","","","","","","","","","",""
"4031","","image-button-response","191","1372720","0.0-190.0","A1S5SPI4NQPGSI","img_art/21.jpg","0","","","","","","","","","","","","","","","","","","","","","","","","",""
"1044","","image-button-response","192","1373767","0.0-191.0","A1S5SPI4NQPGSI","img_art/21.jpg","0","","","","","","","","","","","","","","","","","","","","","","","","",""
"2261","","image-button-response","193","1376030","0.0-192.0-0.0","A1S5SPI4NQPGSI","img_art/21.jpg","2","","","","","","","","","","","","","","","","","","","","","","","","",""
"2398","","image-button-response","194","1378431","0.0-193.0-0.0","A1S5SPI4NQPGSI","img_art/21.jpg","3","","","","","","","","","","","","","","","","","","","","","","","","",""
"null","","html-keyboard-response","195","1379439","0.0-194.0","A1S5SPI4NQPGSI","<p style=""font-size: 48px;"">+</p>","","","","","null","allTrialResponses","1000","1","21","img_art/21.jpg","20","awesome colors that represent nothing much","Margaret,Cheyenne,Michaela,Kaylee,Hannah,Kelly","i like the colors and the blending,17,100,20","Don't see anything special about it,-21,200,20","I love how vague it is but how you can imagine a story anyway, like clouds,45,260,20","looks like a sea during some war,27,200,20","Boring colors and look. Too much 1980s.,-20,240,20","It actually reminded me of a place I've been to. So I had a positive reaction to it.,22,220,20","Margaret","i like the colors and the blending,17,100,20","Michaela","I love how vague it is but how you can imagine a story anyway, like clouds,45,260,20","Kaylee","looks like a sea during some war,27,200,20","2"
"20699","","survey-text","196","1400145","0.0-195.0-0.0","A1S5SPI4NQPGSI","","","","{""Q0"":""my hand is out of control""}","","","","","","","","","","","","","","","","","","","","","","",""
"4119","","image-slider-response","197","1404266","0.0-196.0","A1S5SPI4NQPGSI","","","","","24","","","","","","","","","","","","","","","","","","","","","",""
"4719","","image-button-response","198","1409279","0.0-197.0","A1S5SPI4NQPGSI","img_art/4.jpg","2","","","","","","","","","","","","","","","","","","","","","","","","",""
"1407","","image-button-response","199","1410689","0.0-198.0","A1S5SPI4NQPGSI","img_art/4.jpg","2","","","","","","","","","","","","","","","","","","","","","","","","",""
"8673","","image-button-response","200","1419364","0.0-199.0-0.0","A1S5SPI4NQPGSI","img_art/4.jpg","3","","","","","","","","","","","","","","","","","","","","","","","","",""
"2188","","image-button-response","201","1421554","0.0-200.0-0.0","A1S5SPI4NQPGSI","img_art/4.jpg","0","","","","","","","","","","","","","","","","","","","","","","","","",""
"null","","html-keyboard-response","202","1422565","0.0-201.0","A1S5SPI4NQPGSI","<p style=""font-size: 48px;"">+</p>","","","","","null","allTrialResponses","1000","1","22","img_art/4.jpg","24","my hand is out of control","Margaret,Alexandra,Michaela,Kaylee,Andrea,Angelica","doesn't do anything for me,-4,100,20","This artwork looks like a child did it,-41,60,20","It reminds me of something a kid would make for their parents,13,260,20","just a scuffed hand,-15,200,20","I think it speaks to familial closeness but the tonality is offputting to me.,-10,240,20","This is ugly in color and in terms of the shape on it.,-32,280,20","Michaela","It reminds me of something a kid would make for their parents,13,260,20","Kaylee","just a scuffed hand,-15,200,20","Margaret","doesn't do anything for me,-4,100,20","2"
"15977","","survey-text","203","1438547","0.0-202.0-0.0","A1S5SPI4NQPGSI","","","","{""Q0"":""dirty water on a dirty window""}","","","","","","","","","","","","","","","","","","","","","","",""
"3262","","image-slider-response","204","1441812","0.0-203.0","A1S5SPI4NQPGSI","","","","","26","","","","","","","","","","","","","","","","","","","","","",""
"2711","","image-button-response","205","1446830","0.0-204.0","A1S5SPI4NQPGSI","img_art/13.jpg","0","","","","","","","","","","","","","","","","","","","","","","","","",""
"957","","image-button-response","206","1447789","0.0-205.0","A1S5SPI4NQPGSI","img_art/13.jpg","0","","","","","","","","","","","","","","","","","","","","","","","","",""
"1583","","image-button-response","207","1449373","0.0-206.0-0.0","A1S5SPI4NQPGSI","img_art/13.jpg","1","","","","","","","","","","","","","","","","","","","","","","","","",""
"2574","","image-button-response","208","1451950","0.0-207.0-0.0","A1S5SPI4NQPGSI","img_art/13.jpg","2","","","","","","","","","","","","","","","","","","","","","","","","",""
"null","","html-keyboard-response","209","1452960","0.0-208.0","A1S5SPI4NQPGSI","<p style=""font-size: 48px;"">+</p>","","","","","null","allTrialResponses","1000","1","23","img_art/13.jpg","26","dirty water on a dirty window","Margaret,Kelsey,Michaela,Kaylee,Jordan,Erin","i like the splatters and the colors,21,100,20","its like the ocean,24,240,20","The colors are really pretty together,39,260,20","its crazy to the point that i cant get it,-28,200,20","It's just paint splatter, no real meaning to me,-50,20,20","Color palette is complementary,40,120,20","Margaret","i like the splatters and the colors,21,100,20","Kelsey","its like the ocean,24,240,20","Michaela","The colors are really pretty together,39,260,20","2"
"26255","","survey-text","210","1479225","0.0-209.0-0.0","A1S5SPI4NQPGSI","","","","{""Q0"":""nice colors looks like a city scene""}","","","","","","","","","","","","","","","","","","","","","","",""
"4094","","image-slider-response","211","1483322","0.0-210.0","A1S5SPI4NQPGSI","","","","","10","","","","","","","","","","","","","","","","","","","","","",""
"1733","","image-button-response","212","1488330","0.0-211.0","A1S5SPI4NQPGSI","img_art/19.jpg","1","","","","","","","","","","","","","","","","","","","","","","","","",""
"1021","","image-button-response","213","1489353","0.0-212.0","A1S5SPI4NQPGSI","img_art/19.jpg","1","","","","","","","","","","","","","","","","","","","","","","","","",""
"1201","","image-button-response","214","1490554","0.0-213.0-0.0","A1S5SPI4NQPGSI","img_art/19.jpg","5","","","","","","","","","","","","","","","","","","","","","","","","",""
"1134","","image-button-response","215","1491691","0.0-214.0-0.0","A1S5SPI4NQPGSI","img_art/19.jpg","3","","","","","","","","","","","","","","","","","","","","","","","","",""
"null","","html-keyboard-response","216","1492204","0.0-215.0","A1S5SPI4NQPGSI","<p style=""font-size: 48px;"">+</p>","","","","","null","allTrialResponses","500","1","24","img_art/19.jpg","10","nice colors looks like a city scene","Margaret,Kelsey,Michaela,Savannah,Madison,Heather","i think it is ugly and hate the colors,-35,100,20","not sure if i like it or not,1,240,20","It's ok but it's nothing I would hang on my wall,11,260,20","Watercolor abstract? Strange.,1,200,20","Seems unfinished and sloppy,-11,60,20","love the images I can pick out of this art,1,260,20","Kelsey","not sure if i like it or not,1,240,20","Heather","love the images I can pick out of this art,1,260,20","Savannah","Watercolor abstract? Strange.,1,200,20","2"
"25731","","survey-text","217","1517940","0.0-216.0-0.0","A1S5SPI4NQPGSI","","","","{""Q0"":""waterfall in the amazon with vibrant colors""}","","","","","","","","","","","","","","","","","","","","","","",""
"3919","","image-slider-response","218","1521861","0.0-217.0","A1S5SPI4NQPGSI","","","","","32","","","","","","","","","","","","","","","","","","","","","",""
"3525","","image-button-response","219","1526865","0.0-218.0","A1S5SPI4NQPGSI","img_art/24.jpg","0","","","","","","","","","","","","","","","","","","","","","","","","",""
"849","","image-button-response","220","1527716","0.0-219.0","A1S5SPI4NQPGSI","img_art/24.jpg","0","","","","","","","","","","","","","","","","","","","","","","","","",""
"1800","","image-button-response","221","1529517","0.0-220.0-0.0","A1S5SPI4NQPGSI","img_art/24.jpg","2","","","","","","","","","","","","","","","","","","","","","","","","",""
"3229","","image-button-response","222","1532749","0.0-221.0-0.0","A1S5SPI4NQPGSI","img_art/24.jpg","5","","","","","","","","","","","","","","","","","","","","","","","","",""
"null","","html-keyboard-response","223","1533755","0.0-222.0","A1S5SPI4NQPGSI","<p style=""font-size: 48px;"">+</p>","","","","","null","allTrialResponses","1000","1","25","img_art/24.jpg","32","waterfall in the amazon with vibrant colors","Shannon,Kelsey,Rebecca,Savannah,Nicole,Heather","I like the way the colors are put together, and I can imagine this picture in real life.,40,220,20","this one is just a bit too harsh,-13,240,20","organized mess at first glance, would love to inspect this in closer proximity,39,100,20","This is gorgeous. Strong, saturated colors and clear meaning.,50,200,20","The colors and brush strokes make it feel adventurous,20,20,20","i feel peace and wanting. i love waterfalls,50,260,20","Shannon","I like the way the colors are put together, and I can imagine this picture in real life.,40,220,20","Rebecca","organized mess at first glance, would love to inspect this in closer proximity,39,100,20","Heather","i feel peace and wanting. i love waterfalls,50,260,20","2"
"7432","","survey-text","224","1541198","0.0-223.0-0.0","A1S5SPI4NQPGSI","","","","{""Q0"":""table""}","","","","","","","","","","","","","","","","","","","","","","",""
"36020","","survey-text","225","1577220","0.0-224.0-0.0","A1S5SPI4NQPGSI","","","","{""Q0"":""blurred something with good color scheme""}","","","","","","","","","","","","","","","","","","","","","","",""
"6021","","image-slider-response","226","1583243","0.0-225.0","A1S5SPI4NQPGSI","","","","","9","","","","","","","","","","","","","","","","","","","","","",""
"2415","","image-button-response","227","1588250","0.0-226.0","A1S5SPI4NQPGSI","img_art/20.jpg","0","","","","","","","","","","","","","","","","","","","","","","","","",""
"1672","","image-button-response","228","1589923","0.0-227.0","A1S5SPI4NQPGSI","img_art/20.jpg","0","","","","","","","","","","","","","","","","","","","","","","","","",""
"841","","image-button-response","229","1590765","0.0-228.0-0.0","A1S5SPI4NQPGSI","img_art/20.jpg","1","","","","","","","","","","","","","","","","","","","","","","","","",""
"1108","","image-button-response","230","1591877","0.0-229.0-0.0","A1S5SPI4NQPGSI","img_art/20.jpg","2","","","","","","","","","","","","","","","","","","","","","","","","",""
"null","","html-keyboard-response","231","1592888","0.0-230.0","A1S5SPI4NQPGSI","<p style=""font-size: 48px;"">+</p>","","","","","null","allTrialResponses","1000","1","26","img_art/20.jpg","9","blurred something with good color scheme","Shannon,Sabrina,Rebecca,Hailey,Alexis,Heather","I really like this. There are lots of objects the artist wanted to show and the colors are good.,38,220,20","I love the way it expresses dark nature and uncontrolled situations.,44,120,20","reminds me of georgia o'keeffe's skull,22,100,20","reminds me of a dead animal in the west. ugly,-25,200,20","I like the proportion of the car to the desert city, but too abstract for me,15,100,20","make me feel like its a little country maybe a tractor and a skull head of a bull,1,260,20","Shannon","I really like this. There are lots of objects the artist wanted to show and the colors are good.,38,220,20","Sabrina","I love the way it expresses dark nature and uncontrolled situations.,44,120,20","Rebecca","reminds me of georgia o'keeffe's skull,22,100,20","2"
"44013","","survey-text","232","1636907","0.0-231.0-0.0","A1S5SPI4NQPGSI","","","","{""Q0"":""tree invading  human space""}","","","","","","","","","","","","","","","","","","","","","","",""
"5240","","image-slider-response","233","1642149","0.0-232.0","A1S5SPI4NQPGSI","","","","","26","","","","","","","","","","","","","","","","","","","","","",""
"2830","","image-button-response","234","1647159","0.0-233.0","A1S5SPI4NQPGSI","img_art/17.jpg","0","","","","","","","","","","","","","","","","","","","","","","","","",""
"1078","","image-button-response","235","1648239","0.0-234.0","A1S5SPI4NQPGSI","img_art/17.jpg","0","","","","","","","","","","","","","","","","","","","","","","","","",""
"1927","","image-button-response","236","1650167","0.0-235.0-0.0","A1S5SPI4NQPGSI","img_art/17.jpg","1","","","","","","","","","","","","","","","","","","","","","","","","",""
"2909","","image-button-response","237","1653077","0.0-236.0-0.0","A1S5SPI4NQPGSI","img_art/17.jpg","2","","","","","","","","","","","","","","","","","","","","","","","","",""
"null","","html-keyboard-response","238","1653582","0.0-237.0","A1S5SPI4NQPGSI","<p style=""font-size: 48px;"">+</p>","","","","","null","allTrialResponses","500","1","27","img_art/17.jpg","26","tree invading  human space","Shannon,Sabrina,Rebecca,Anna,Kimberly,Brooke","I like the way the colors were used behind the tree. Makes the image colorful and interesting.,30,220,20","Messy shadow of loss and love,50,120,20","tree sprouting out of a box (house) the invasion of nature?,39,100,20","it brings a clear picture to my minds eye:,45,300,20","I like the trees, but the doors less so,19,260,20","doorways and trees are pleasant,30,60,20","Shannon","I like the way the colors were used behind the tree. Makes the image colorful and interesting.,30,220,20","Sabrina","Messy shadow of loss and love,50,120,20","Rebecca","tree sprouting out of a box (house) the invasion of nature?,39,100,20","2"
"40446","","survey-text","239","1694035","0.0-238.0-0.0","A1S5SPI4NQPGSI","","","","{""Q0"":""someones art space on canvas edges look unfinished""}","","","","","","","","","","","","","","","","","","","","","","",""
"5177","","image-slider-response","240","1699213","0.0-239.0","A1S5SPI4NQPGSI","","","","","11","","","","","","","","","","","","","","","","","","","","","",""
"2285","","image-button-response","241","1704218","0.0-240.0","A1S5SPI4NQPGSI","img_art/29.jpg","1","","","","","","","","","","","","","","","","","","","","","","","","",""
"761","","image-button-response","242","1704981","0.0-241.0","A1S5SPI4NQPGSI","img_art/29.jpg","1","","","","","","","","","","","","","","","","","","","","","","","","",""
"1374","","image-button-response","243","1706358","0.0-242.0-0.0","A1S5SPI4NQPGSI","img_art/29.jpg","2","","","","","","","","","","","","","","","","","","","","","","","","",""
"2334","","image-button-response","244","1708694","0.0-243.0-0.0","A1S5SPI4NQPGSI","img_art/29.jpg","3","","","","","","","","","","","","","","","","","","","","","","","","",""
"null","","html-keyboard-response","245","1709707","0.0-244.0","A1S5SPI4NQPGSI","<p style=""font-size: 48px;"">+</p>","","","","","null","allTrialResponses","1000","1","28","img_art/29.jpg","11","someones art space on canvas edges look unfinished","Shannon,Sabrina,Rebecca,Crystal,Breanna,Gabrielle","I think this image looks ugly and needs more colors so it looks nicer.,-30,220,20","I love the representation of a mess,50,120,20","love the texture, i don't know, i just really like it (and the paintbrush adds a nice touch),44,100,20","Reminiscent of Jackson Pollock with a hint of abstract structure with the bordering.,32,300,20","Makes me feel untidy,-9,380,20","it's OK, no clue to what's going on but good use of light and dark,4,160,20","Sabrina","I love the representation of a mess,50,120,20","Rebecca","love the texture, i don't know, i just really like it (and the paintbrush adds a nice touch),44,100,20","Crystal","Reminiscent of Jackson Pollock with a hint of abstract structure with the bordering.,32,300,20","2"
"37059","","survey-text","246","1746774","0.0-245.0-0.0","A1S5SPI4NQPGSI","","","","{""Q0"":""hot and cool color scheme with an unpredictable pattern""}","","","","","","","","","","","","","","","","","","","","","","",""
"3806","","image-slider-response","247","1750583","0.0-246.0","A1S5SPI4NQPGSI","","","","","18","","","","","","","","","","","","","","","","","","","","","",""
"2038","","image-button-response","248","1755589","0.0-247.0","A1S5SPI4NQPGSI","img_art/22.jpg","0","","","","","","","","","","","","","","","","","","","","","","","","",""
"241","","image-button-response","249","1755832","0.0-248.0","A1S5SPI4NQPGSI","img_art/22.jpg","0","","","","","","","","","","","","","","","","","","","","","","","","",""
"1598","","image-button-response","250","1757432","0.0-249.0-0.0","A1S5SPI4NQPGSI","img_art/22.jpg","2","","","","","","","","","","","","","","","","","","","","","","","","",""
"6687","","image-button-response","251","1764121","0.0-250.0-0.0","A1S5SPI4NQPGSI","img_art/22.jpg","3","","","","","","","","","","","","","","","","","","","","","","","","",""
"null","","html-keyboard-response","252","1764624","0.0-251.0","A1S5SPI4NQPGSI","<p style=""font-size: 48px;"">+</p>","","","","","null","allTrialResponses","500","1","29","img_art/22.jpg","18","hot and cool color scheme with an unpredictable pattern","Paige,Sabrina,Rebecca,Crystal,Morgan,Alexa","Happy. I like to colors,33,60,20","Just not feeling it,-19,120,20","colorful water (in front of castle?),17,100,20","Beautiful use of chalk or pastels. Love the abstract nature.,35,300,20","Glowing city of many emotions.,10,380,20","Really pretty. Love the colors.,30,40,20","Paige","Happy. I like to colors,33,60,20","Rebecca","colorful water (in front of castle?),17,100,20","Crystal","Beautiful use of chalk or pastels. Love the abstract nature.,35,300,20","2"
"22918","","survey-text","253","1787550","0.0-252.0-0.0","A1S5SPI4NQPGSI","","","","{""Q0"":""run bear there is a hot mess following you""}","","","","","","","","","","","","","","","","","","","","","","",""
"4769","","image-slider-response","254","1792319","0.0-253.0","A1S5SPI4NQPGSI","","","","","-9","","","","","","","","","","","","","","","","","","","","","",""
"3534","","image-button-response","255","1797324","0.0-254.0","A1S5SPI4NQPGSI","img_art/16.jpg","0","","","","","","","","","","","","","","","","","","","","","","","","",""
"2786","","image-button-response","256","1800112","0.0-255.0","A1S5SPI4NQPGSI","img_art/16.jpg","0","","","","","","","","","","","","","","","","","","","","","","","","",""
"926","","image-button-response","257","1801041","0.0-256.0-0.0","A1S5SPI4NQPGSI","img_art/16.jpg","1","","","","","","","","","","","","","","","","","","","","","","","","",""
"1221","","image-button-response","258","1802265","0.0-257.0-0.0","A1S5SPI4NQPGSI","img_art/16.jpg","3","","","","","","","","","","","","","","","","","","","","","","","","",""
"null","","html-keyboard-response","259","1803769","0.0-258.0","A1S5SPI4NQPGSI","<p style=""font-size: 48px;"">+</p>","","","","","null","allTrialResponses","1500","1","30","img_art/16.jpg","-9","run bear there is a hot mess following you","Paige,Katie,Rebecca,Crystal,Chloe,Jenna","very disturbed seening a gun in the same picture as a teddy bear,-50,60,20","Upsetting and disturbing. Random bear and indistinguishable objects. None of it goes together. Too chaotic and random,-50,160,20","don't know how to feel, I mean I respect it but I honestly don't know about this,-12,100,20","Garble and nonsense,-50,300,20","Fun but a little cheesy,15,220,20","very bizarre and confusing, but that feels purposeful, so i don't completely hate it.,-25,360,20","Paige","very disturbed seening a gun in the same picture as a teddy bear,-50,60,20","Katie","Upsetting and disturbing. Random bear and indistinguishable objects. None of it goes together. Too chaotic and random,-50,160,20","Crystal","Garble and nonsense,-50,300,20","2"
