"rt","url","trial_type","trial_index","time_elapsed","internal_node_id","participant_id","stimulus","button_pressed","Name","responses","response","key_press","variableName","fixationTime","condition","trial","photo","subjectRating","subjectResponse","agentsNames","agent_1_Response","agent_2_Response","agent_3_Response","agent_4_Response","agent_5_Response","agent_6_Response","kept_1_name","kept_1_response","kept_2_name","kept_2_response","kept_3_name","kept_3_response","errorCounter"
"20096","external_page_harvard.html","external-html","0","20233","0.0-0.0","A1S9N071I5RPE9","","","","","","","","","","","","","","","","","","","","","","","","","","",""
"1708","","image-button-response","1","21949","0.0-1.0","A1S9N071I5RPE9","","0","","","","","","","","","","","","","","","","","","","","","","","","",""
"1426","","image-button-response","2","23403","0.0-2.0-0.0","A1S9N071I5RPE9","","1","phone","","","","","","","","","","","","","","","","","","","","","","","",""
"12198","","survey-text","3","35612","0.0-3.0-0.0","A1S9N071I5RPE9","","","","{""Q0"":""A1S9N071I5RPE9""}","","","","","","","","","","","","","","","","","","","","","","",""
"13359","","image-button-response_instructions","4","48981","0.0-4.0","A1S9N071I5RPE9","","0","instructions","","","","","","","","","","","","","","","","","","","","","","","",""
"24988","","image-button-response_instructions","5","73986","0.0-5.0","A1S9N071I5RPE9","img_art/ins/popularity/ins1.png","0","instructions","","","","","","","","","","","","","","","","","","","","","","","",""
"80833","","image-button-response_instructions","6","154832","0.0-6.0","A1S9N071I5RPE9","img_art/ins/popularity/ins2.png","0","instructions","","","","","","","","","","","","","","","","","","","","","","","",""
"145585","","image-button-response_instructions","7","300426","0.0-7.0","A1S9N071I5RPE9","img_art/ins/popularity/ins2Extreme.png","0","instructions","","","","","","","","","","","","","","","","","","","","","","","",""
"5616","","image-button-response_instructions","8","306048","0.0-8.0","A1S9N071I5RPE9","img_art/ins/popularity/ins3KEEPpop.PNG","0","instructions","","","","","","","","","","","","","","","","","","","","","","","",""
"2348","","image-button-response_instructions","9","308408","0.0-9.0","A1S9N071I5RPE9","img_art/ins/popularity/ins3ANamepop.PNG","0","instructions","","","","","","","","","","","","","","","","","","","","","","","",""
"2468","","image-button-response_instructions","10","310882","0.0-10.0","A1S9N071I5RPE9","img_art/ins/popularity/ins3ARatingpop.png","0","instructions","","","","","","","","","","","","","","","","","","","","","","","",""
"1782","","image-button-response_instructions","11","312676","0.0-11.0","A1S9N071I5RPE9","img_art/ins/popularity/ins3ATextpop.png","0","instructions","","","","","","","","","","","","","","","","","","","","","","","",""
"19925","","image-button-response_instructions","12","332613","0.0-12.0","A1S9N071I5RPE9","img_art/ins/popularity/ins3ALikespop.png","0","instructions","","","","","","","","","","","","","","","","","","","","","","","",""
"3683","","image-button-response_instructions","13","336304","0.0-13.0","A1S9N071I5RPE9","img_art/ins/popularity/ins3KEEPpop.PNG","0","instructions","","","","","","","","","","","","","","","","","","","","","","","",""
"304704","","image-button-response_instructions","14","641017","0.0-14.0","A1S9N071I5RPE9","img_art/ins/popularity/ins3_5RED.png","0","instructions","","","","","","","","","","","","","","","","","","","","","","","",""
"38963","","image-button-response_instructions","15","679992","0.0-15.0","A1S9N071I5RPE9","img_art/ins/popularity/ins3KEEPpop.PNG","0","instructions","","","","","","","","","","","","","","","","","","","","","","","",""
"2409","","image-button-response_instructions","16","682408","0.0-16.0","A1S9N071I5RPE9","img_art/ins/popularity/ins4KEEPpop.PNG","0","instructions","","","","","","","","","","","","","","","","","","","","","","","",""
"2010","","image-button-response_instructions","17","684426","0.0-17.0","A1S9N071I5RPE9","img_art/ins/popularity/ins5KEEPpop.PNG","0","instructions","","","","","","","","","","","","","","","","","","","","","","","",""
"1543","","image-button-response_instructions","18","685979","0.0-18.0","A1S9N071I5RPE9","","0","instructions","","","","","","","","","","","","","","","","","","","","","","","",""
"8268","","survey-text","19","694334","0.0-19.0-0.0","A1S9N071I5RPE9","","","","{""Q0"":""but""}","","","","","","","","","","","","","","","","","","","","","","",""
"10838","","survey-text","20","705185","0.0-20.0-0.0","A1S9N071I5RPE9","","","","{""Q0"":""very nice calming color palette""}","","","","","","","","","","","","","","","","","","","","","","",""
"6155.400000002235","","image-slider-response","21","711354","0.0-21.0","A1S9N071I5RPE9","","","","","12","","","","","","","","","","","","","","","","","","","","","",""
"4726","","image-button-response","22","716371","0.0-22.0","A1S9N071I5RPE9","img_art/ins/1.jpg","3","","","","","","","","","","","","","","","","","","","","","","","","",""
"2159","","image-button-response","23","718552","0.0-23.0","A1S9N071I5RPE9","img_art/ins/1.jpg","3","","","","","","","","","","","","","","","","","","","","","","","","",""
"2486","","image-button-response","24","721053","0.0-24.0-0.0","A1S9N071I5RPE9","img_art/ins/1.jpg","4","","","","","","","","","","","","","","","","","","","","","","","","",""
"3062","","image-button-response","25","724133","0.0-25.0-0.0","A1S9N071I5RPE9","img_art/ins/1.jpg","5","","","","","","","","","","","","","","","","","","","","","","","","",""
"null","","html-keyboard-response","26","725143","0.0-26.0","A1S9N071I5RPE9","<p style=""font-size: 48px;"">+</p>","","","","","null","allTrialResponses","1000","1","-2","img_art/ins/1.jpg","12","very nice calming color palette","Adam,Alex,Ben,Carl,Daniel,Jack","Seems like doodles,-20,20,20","very creative work.,36,40,20","This color reminds me of poo,-46,60,20","very calming artwork,42,80,20","It looks like a murder scene.,-48,100,20","I like the sophisticated brushwork,40,120,20","Carl","very calming artwork,42,80,20","Daniel","It looks like a murder scene.,-48,100,20","Jack","I like the sophisticated brushwork,40,120,20","0"
"11809","","survey-text","27","736970","0.0-27.0-0.0","A1S9N071I5RPE9","","","","{""Q0"":""nice choice of colors""}","","","","","","","","","","","","","","","","","","","","","","",""
"3127.300000000745","","image-slider-response","28","740111","0.0-28.0","A1S9N071I5RPE9","","","","","12","","","","","","","","","","","","","","","","","","","","","",""
"null","","image-button-response","29","745120","0.0-29.0","A1S9N071I5RPE9","img_art/ins/2.jpg","null","","","","","","","","","","","","","","","","","","","","","","","","",""
"1194","","image-button-response","30","746326","0.0-30.0","A1S9N071I5RPE9","img_art/ins/2.jpg","1","","","","","","","","","","","","","","","","","","","","","","","","",""
"2639","","image-button-response","31","748977","0.0-31.0-0.0","A1S9N071I5RPE9","img_art/ins/2.jpg","5","","","","","","","","","","","","","","","","","","","","","","","","",""
"2009","","image-button-response","32","751003","0.0-32.0-0.0","A1S9N071I5RPE9","img_art/ins/2.jpg","3","","","","","","","","","","","","","","","","","","","","","","","","",""
"null","","html-keyboard-response","33","752508","0.0-33.0","A1S9N071I5RPE9","<p style=""font-size: 48px;"">+</p>","","","","","null","allTrialResponses","1500","1","-1","img_art/ins/2.jpg","12","nice choice of colors","James,John,Kyle,Carl,Daniel,Jack","looks too angry,-50,140,20","love the texture of paint,48,160,20","Idk, it is just annoying,-32,180,20","I can feel the artist's passion in it,45,80,20","One of my pet peevs,-48,100,20","I would never be able to compose a sophisticated pallete like this,48,120,20","John","love the texture of paint,48,160,20","Jack","I would never be able to compose a sophisticated pallete like this,48,120,20","Carl","I can feel the artist's passion in it,45,80,20","0"
"75243","","survey-text","34","827773","0.0-34.0-0.0","A1S9N071I5RPE9","","","","{""Q0"":""only word i can think of is cool""}","","","","","","","","","","","","","","","","","","","","","","",""
"2850.400000002235","","image-slider-response","35","830634","0.0-35.0","A1S9N071I5RPE9","","","","","23","","","","","","","","","","","","","","","","","","","","","",""
"4958","","image-button-response","36","835644","0.0-36.0","A1S9N071I5RPE9","img_art/ins/3.jpg","3","","","","","","","","","","","","","","","","","","","","","","","","",""
"99","","image-button-response","37","835757","0.0-37.0","A1S9N071I5RPE9","img_art/ins/3.jpg","3","","","","","","","","","","","","","","","","","","","","","","","","",""
"1691","","image-button-response","38","837459","0.0-38.0-0.0","A1S9N071I5RPE9","img_art/ins/3.jpg","0","","","","","","","","","","","","","","","","","","","","","","","","",""
"174","","image-button-response","39","837646","0.0-39.0-0.0","A1S9N071I5RPE9","img_art/ins/3.jpg","0","","","","","","","","","","","","","","","","","","","","","","","","",""
"1233","","image-button-response","40","842341","0.0-39.1-0.1","A1S9N071I5RPE9","img_art/ins/3.jpg","0","","","","","","","","","","","","","","","","","","","","","","","","",""
"1808","","image-button-response","41","850384","0.0-39.2-0.2","A1S9N071I5RPE9","img_art/ins/3.jpg","3","","","","","","","","","","","","","","","","","","","","","","","","",""
"2038","","image-button-response","42","854736","0.0-39.3-0.3","A1S9N071I5RPE9","img_art/ins/3.jpg","5","","","","","","","","","","","","","","","","","","","","","","","","",""
"null","","html-keyboard-response","43","855741","0.0-40.0","A1S9N071I5RPE9","<p style=""font-size: 48px;"">+</p>","","","","","null","allTrialResponses","1000","1","0","img_art/ins/3.jpg","23","only word i can think of is cool","Mike,John,Sam,Carl,Ron,Jack","enjoy the different shades of blue,22,200,20","I like the overlapping of brushes,41,160,20","I can feel a rainy day from this painting,18,240,20","It's an alright work,15,80,20","It looks depressing,-26,220,20","I feel connected to the artist,40,120,20","Carl","It's an alright work,15,80,20","Mike","enjoy the different shades of blue,22,200,20","Jack","I feel connected to the artist,40,120,20","6"
"2138","","image-button-response_instructions","44","857904","0.0-41.0","A1S9N071I5RPE9","","0","instructions","","","","","","","","","","","","","","","","","","","","","","","",""
"7745","","survey-likert","45","865659","0.0-42.0-0.0","A1S9N071I5RPE9","","","","{""Q0"":"""",""Q1"":0,""Q2"":1}","","","","","","","","","","","","","","","","","","","","","","",""
"6246","","survey-text","46","871944","0.0-43.0-0.0","A1S9N071I5RPE9","","","","{""Q0"":""rock""}","","","","","","","","","","","","","","","","","","","","","","",""
"17704","","survey-text","47","889657","0.0-44.0-0.0","A1S9N071I5RPE9","","","","{""Q0"":""looks like a cityscape at sunset""}","","","","","","","","","","","","","","","","","","","","","","",""
"3349.5","","image-slider-response","48","893017","0.0-45.0","A1S9N071I5RPE9","","","","","15","","","","","","","","","","","","","","","","","","","","","",""
"null","","image-button-response","49","898089","0.0-46.0","A1S9N071I5RPE9","img_art/22.jpg","null","","","","","","","","","","","","","","","","","","","","","","","","",""
"346","","image-button-response","50","898451","0.0-47.0","A1S9N071I5RPE9","img_art/22.jpg","2","","","","","","","","","","","","","","","","","","","","","","","","",""
"1856","","image-button-response","51","900319","0.0-48.0-0.0","A1S9N071I5RPE9","img_art/22.jpg","5","","","","","","","","","","","","","","","","","","","","","","","","",""
"2545","","image-button-response","52","902881","0.0-49.0-0.0","A1S9N071I5RPE9","img_art/22.jpg","3","","","","","","","","","","","","","","","","","","","","","","","","",""
"null","","html-keyboard-response","53","903887","0.0-50.0","A1S9N071I5RPE9","<p style=""font-size: 48px;"">+</p>","","","","","null","allTrialResponses","1000","1","1","img_art/22.jpg","15","looks like a cityscape at sunset","Brendan,Brandon,Edward,Eric,Dylan,Dustin","its just ugly for me,-50,340,20","Don't like this type of abstract work,-39,320,20","I like the use of primary colors in an interesting way,29,60,20","I don't normally like bright colors, but I like them in this. Don't like the random black paint.,30,100,20","The colors in this picture are nice.,32,40,20","Too much red. The red/yellow/orange make me think of heat/fire, which makes me anxious.,-10,20,20","Edward","I like the use of primary colors in an interesting way,29,60,20","Dustin","Too much red. The red/yellow/orange make me think of heat/fire, which makes me anxious.,-10,20,20","Eric","I don't normally like bright colors, but I like them in this. Don't like the random black paint.,30,100,20","6"
"6662","","survey-text","54","910570","0.0-51.0-0.0","A1S9N071I5RPE9","","","","{""Q0"":""funky art work""}","","","","","","","","","","","","","","","","","","","","","","",""
"2797","","image-slider-response","55","913379","0.0-52.0","A1S9N071I5RPE9","","","","","12","","","","","","","","","","","","","","","","","","","","","",""
"2949","","image-button-response","56","918393","0.0-53.0","A1S9N071I5RPE9","img_art/30.jpg","3","","","","","","","","","","","","","","","","","","","","","","","","",""
"1546","","image-button-response","57","919953","0.0-54.0","A1S9N071I5RPE9","img_art/30.jpg","5","","","","","","","","","","","","","","","","","","","","","","","","",""
"3711","","image-button-response","58","923679","0.0-55.0-0.0","A1S9N071I5RPE9","img_art/30.jpg","3","","","","","","","","","","","","","","","","","","","","","","","","",""
"1393","","image-button-response","59","925086","0.0-56.0-0.0","A1S9N071I5RPE9","img_art/30.jpg","0","","","","","","","","","","","","","","","","","","","","","","","","",""
"null","","html-keyboard-response","60","925591","0.0-57.0","A1S9N071I5RPE9","<p style=""font-size: 48px;"">+</p>","","","","","null","allTrialResponses","500","1","2","img_art/30.jpg","12","funky art work","Matthew,Jason,Edward,Eric,Ryan,Dustin","Decent abstract art, ncie colors.,23,120,20","Do not like the streaks,-14,20,20","My son made me a painting that looked like this,26,60,20","I love the colors, the style, and the uniqueness in this piece. I love everything.,50,100,20","Love how the red stands out,20,380,20","Soothing color palette, but doesn't look like anything. All I see are random brush strokes.,1,20,20","Dustin","Soothing color palette, but doesn't look like anything. All I see are random brush strokes.,1,20,20","Eric","I love the colors, the style, and the uniqueness in this piece. I love everything.,50,100,20","Matthew","Decent abstract art, ncie colors.,23,120,20","6"
"7912","","survey-text","61","933524","0.0-58.0-0.0","A1S9N071I5RPE9","","","","{""Q0"":""interesting palette ""}","","","","","","","","","","","","","","","","","","","","","","",""
"6259.800000000745","","image-slider-response","62","939794","0.0-59.0","A1S9N071I5RPE9","","","","","11","","","","","","","","","","","","","","","","","","","","","",""
"4337","","image-button-response","63","944804","0.0-60.0","A1S9N071I5RPE9","img_art/2.jpg","2","","","","","","","","","","","","","","","","","","","","","","","","",""
"822","","image-button-response","64","945637","0.0-61.0","A1S9N071I5RPE9","img_art/2.jpg","0","","","","","","","","","","","","","","","","","","","","","","","","",""
"1027","","image-button-response","65","946678","0.0-62.0-0.0","A1S9N071I5RPE9","img_art/2.jpg","2","","","","","","","","","","","","","","","","","","","","","","","","",""
"1981","","image-button-response","66","948671","0.0-63.0-0.0","A1S9N071I5RPE9","img_art/2.jpg","5","","","","","","","","","","","","","","","","","","","","","","","","",""
"null","","html-keyboard-response","67","949679","0.0-64.0","A1S9N071I5RPE9","<p style=""font-size: 48px;"">+</p>","","","","","null","allTrialResponses","1000","1","3","img_art/2.jpg","11","interesting palette ","Matthew,Adam,Dakota,Eric,Seth,Dustin","I think I can make out a face in there.,25,120,20","Hate the vomit green.,-31,40,20","active and kinetic- simplified,14,280,20","I like the color, but I feel like I see a creepy face which I dislike.,-5,100,20","I think I see people sitting in lawn chairs in a circle watching an event. Not really sure so I rated it lower.,-35,60,20","Doesn't look like anything. Just a blob of colors.,1,20,20","Matthew","I think I can make out a face in there.,25,120,20","Dakota","active and kinetic- simplified,14,280,20","Dustin","Doesn't look like anything. Just a blob of colors.,1,20,20","6"
"15863","","survey-text","68","965563","0.0-65.0-0.0","A1S9N071I5RPE9","","","","{""Q0"":""I love this piece. Very well done. Pleasant""}","","","","","","","","","","","","","","","","","","","","","","",""
"3790.699999999255","","image-slider-response","69","969368","0.0-66.0","A1S9N071I5RPE9","","","","","29","","","","","","","","","","","","","","","","","","","","","",""
"4897","","image-button-response","70","974382","0.0-67.0","A1S9N071I5RPE9","img_art/12.jpg","0","","","","","","","","","","","","","","","","","","","","","","","","",""
"1290","","image-button-response","71","975687","0.0-68.0","A1S9N071I5RPE9","img_art/12.jpg","0","","","","","","","","","","","","","","","","","","","","","","","","",""
"3637","","image-button-response","72","979337","0.0-69.0-0.0","A1S9N071I5RPE9","img_art/12.jpg","3","","","","","","","","","","","","","","","","","","","","","","","","",""
"653","","image-button-response","73","980003","0.0-70.0-0.0","A1S9N071I5RPE9","img_art/12.jpg","4","","","","","","","","","","","","","","","","","","","","","","","","",""
"null","","html-keyboard-response","74","981508","0.0-71.0","A1S9N071I5RPE9","<p style=""font-size: 48px;"">+</p>","","","","","null","allTrialResponses","1500","1","4","img_art/12.jpg","29","I love this piece. Very well done. Pleasant","Matthew,Travis,Dakota,Caleb,Alexis,Dustin","It's boxy, cubist immpressionism? Very ncie.,32,120,20","Neutral...just blocks.,3,260,20","angry, disturbed and sharp,-25,280,20","Almost natural flowing between abstract sections.,27,40,20","In my opinion, this photo has an old school vibe,22,140,20","Squares are rigid. I'm ambivalent.,1,20,20","Matthew","It's boxy, cubist immpressionism? Very ncie.,32,120,20","Caleb","Almost natural flowing between abstract sections.,27,40,20","Alexis","In my opinion, this photo has an old school vibe,22,140,20","6"
"12940","","survey-text","75","994470","0.0-72.0-0.0","A1S9N071I5RPE9","","","","{""Q0"":""psychedelic but understated""}","","","","","","","","","","","","","","","","","","","","","","",""
"28653.89999999851","","image-slider-response","76","1023135","0.0-73.0","A1S9N071I5RPE9","","","","","16","","","","","","","","","","","","","","","","","","","","","",""
"null","","image-button-response","77","1028150","0.0-74.0","A1S9N071I5RPE9","img_art/23.jpg","null","","","","","","","","","","","","","","","","","","","","","","","","",""
"3270","","image-button-response","78","1031433","0.0-75.0","A1S9N071I5RPE9","img_art/23.jpg","0","","","","","","","","","","","","","","","","","","","","","","","","",""
"954","","image-button-response","79","1032403","0.0-76.0-0.0","A1S9N071I5RPE9","img_art/23.jpg","1","","","","","","","","","","","","","","","","","","","","","","","","",""
"2265","","image-button-response","80","1034685","0.0-77.0-0.0","A1S9N071I5RPE9","img_art/23.jpg","4","","","","","","","","","","","","","","","","","","","","","","","","",""
"null","","html-keyboard-response","81","1035691","0.0-78.0","A1S9N071I5RPE9","<p style=""font-size: 48px;"">+</p>","","","","","null","allTrialResponses","1000","1","5","img_art/23.jpg","16","psychedelic but understated","Matthew,Brett,Chase,Caleb,Alexis,Evan","A line dance, it's really strinkingly beautiful.,50,120,20","Universal celebration,40,360,20","It's kind of neat with the white slash marks.,13,120,20","Very colorful. Nice contrasts.,26,40,20","It looks like a parade of musicians full of excitement. Makes me feel upbeat,33,140,20","It feels exciting,23,140,20","Matthew","A line dance, it's really strinkingly beautiful.,50,120,20","Brett","Universal celebration,40,360,20","Alexis","It looks like a parade of musicians full of excitement. Makes me feel upbeat,33,140,20","6"
"10574","","survey-text","82","1046299","0.0-79.0-0.0","A1S9N071I5RPE9","","","","{""Q0"":""sky""}","","","","","","","","","","","","","","","","","","","","","","",""
"8747","","survey-text","83","1055056","0.0-80.0-0.0","A1S9N071I5RPE9","","","","{""Q0"":""looks like kandinksy""}","","","","","","","","","","","","","","","","","","","","","","",""
"3885.60000000149","","image-slider-response","84","1058950","0.0-81.0","A1S9N071I5RPE9","","","","","11","","","","","","","","","","","","","","","","","","","","","",""
"4509","","image-button-response","85","1063959","0.0-82.0","A1S9N071I5RPE9","img_art/1.jpg","0","","","","","","","","","","","","","","","","","","","","","","","","",""
"985","","image-button-response","86","1064956","0.0-83.0","A1S9N071I5RPE9","img_art/1.jpg","0","","","","","","","","","","","","","","","","","","","","","","","","",""
"1217","","image-button-response","87","1066186","0.0-84.0-0.0","A1S9N071I5RPE9","img_art/1.jpg","4","","","","","","","","","","","","","","","","","","","","","","","","",""
"708","","image-button-response","88","1066908","0.0-85.0-0.0","A1S9N071I5RPE9","img_art/1.jpg","5","","","","","","","","","","","","","","","","","","","","","","","","",""
"null","","html-keyboard-response","89","1068413","0.0-86.0","A1S9N071I5RPE9","<p style=""font-size: 48px;"">+</p>","","","","","null","allTrialResponses","1500","1","6","img_art/1.jpg","11","looks like kandinksy","Matthew,Brett,Peter,Christopher,Alexis,Jonathan","More passable, colorful, abstract.,13,120,20","I don't know how I feel about this,1,360,20","Nothing whatsoever,2,320,20","it's boring despite all the colors,-2,160,20","This photo reminds me of a fall afternoon, serene,11,140,20","I love the colors but it's too intense sometimes,22,140,20","Matthew","More passable, colorful, abstract.,13,120,20","Alexis","This photo reminds me of a fall afternoon, serene,11,140,20","Jonathan","I love the colors but it's too intense sometimes,22,140,20","6"
"9671","","survey-text","90","1078107","0.0-87.0-0.0","A1S9N071I5RPE9","","","","{""Q0"":""I like everything but the bear""}","","","","","","","","","","","","","","","","","","","","","","",""
"4127.39999999851","","image-slider-response","91","1082246","0.0-88.0","A1S9N071I5RPE9","","","","","15","","","","","","","","","","","","","","","","","","","","","",""
"null","","image-button-response","92","1087262","0.0-89.0","A1S9N071I5RPE9","img_art/16.jpg","null","","","","","","","","","","","","","","","","","","","","","","","","",""
"1007","","image-button-response","93","1088285","0.0-90.0","A1S9N071I5RPE9","img_art/16.jpg","4","","","","","","","","","","","","","","","","","","","","","","","","",""
"1512","","image-button-response","94","1089809","0.0-91.0-0.0","A1S9N071I5RPE9","img_art/16.jpg","5","","","","","","","","","","","","","","","","","","","","","","","","",""
"5319","","image-button-response","95","1095142","0.0-92.0-0.0","A1S9N071I5RPE9","img_art/16.jpg","2","","","","","","","","","","","","","","","","","","","","","","","","",""
"null","","html-keyboard-response","96","1096146","0.0-93.0","A1S9N071I5RPE9","<p style=""font-size: 48px;"">+</p>","","","","","null","allTrialResponses","1000","1","7","img_art/16.jpg","15","I like everything but the bear","Matthew,Cody,Devon,Timothy,Alexis,Jonathan","A lot fo these could abstract or childrens work.,23,120,20","Kind of creepyyyyyy,-41,180,20","The teddy bear looks really scared,-30,400,20","This feels like images of a painful childhood,-50,240,20","It looks very generic, like items were pasted onto the background,-38,140,20","It's a little anxiety inducing in a good way,16,140,20","Alexis","It looks very generic, like items were pasted onto the background,-38,140,20","Jonathan","It's a little anxiety inducing in a good way,16,140,20","Devon","The teddy bear looks really scared,-30,400,20","6"
"12231","","survey-text","97","1108394","0.0-94.0-0.0","A1S9N071I5RPE9","","","","{""Q0"":""Looks generic but still good""}","","","","","","","","","","","","","","","","","","","","","","",""
"4184.699999999255","","image-slider-response","98","1112591","0.0-95.0","A1S9N071I5RPE9","","","","","9","","","","","","","","","","","","","","","","","","","","","",""
"2108","","image-button-response","99","1117605","0.0-96.0","A1S9N071I5RPE9","img_art/14.jpg","1","","","","","","","","","","","","","","","","","","","","","","","","",""
"664","","image-button-response","100","1118283","0.0-97.0","A1S9N071I5RPE9","img_art/14.jpg","1","","","","","","","","","","","","","","","","","","","","","","","","",""
"8102","","image-button-response","101","1126398","0.0-98.0-0.0","A1S9N071I5RPE9","img_art/14.jpg","4","","","","","","","","","","","","","","","","","","","","","","","","",""
"1730","","image-button-response","102","1128142","0.0-99.0-0.0","A1S9N071I5RPE9","img_art/14.jpg","3","","","","","","","","","","","","","","","","","","","","","","","","",""
"null","","html-keyboard-response","103","1128647","0.0-100.0","A1S9N071I5RPE9","<p style=""font-size: 48px;"">+</p>","","","","","null","allTrialResponses","500","1","8","img_art/14.jpg","9","Looks generic but still good","Dalton,Carlos,Devon,Jack,Alexis,Jonathan","nice simple art piece,2,300,20","The lighting feels like spring.,20,80,20","this would make a very beautiful art project,22,400,20","love the colors. despite their brightness it seems sad somehow.,41,320,20","It looks like a table centerpiece,-22,140,20","This reminds me of the Lion King somehow! Feels inspiring,30,140,20","Carlos","The lighting feels like spring.,20,80,20","Alexis","It looks like a table centerpiece,-22,140,20","Jack","love the colors. despite their brightness it seems sad somehow.,41,320,20","6"
"11849","","survey-text","104","1140518","0.0-101.0-0.0","A1S9N071I5RPE9","","","","{""Q0"":""kind of generic but not too bad""}","","","","","","","","","","","","","","","","","","","","","","",""
"3208.800000000745","","image-slider-response","105","1143738","0.0-102.0","A1S9N071I5RPE9","","","","","10","","","","","","","","","","","","","","","","","","","","","",""
"null","","image-button-response","106","1148749","0.0-103.0","A1S9N071I5RPE9","img_art/26.jpg","null","","","","","","","","","","","","","","","","","","","","","","","","",""
"15526","","image-button-response","107","1164286","0.0-104.0","A1S9N071I5RPE9","img_art/26.jpg","1","","","","","","","","","","","","","","","","","","","","","","","","",""
"1951","","image-button-response","108","1166247","0.0-105.0-0.0","A1S9N071I5RPE9","img_art/26.jpg","3","","","","","","","","","","","","","","","","","","","","","","","","",""
"817","","image-button-response","109","1167082","0.0-106.0-0.0","A1S9N071I5RPE9","img_art/26.jpg","5","","","","","","","","","","","","","","","","","","","","","","","","",""
"null","","html-keyboard-response","110","1168086","0.0-107.0","A1S9N071I5RPE9","<p style=""font-size: 48px;"">+</p>","","","","","null","allTrialResponses","1000","1","9","img_art/26.jpg","10","kind of generic but not too bad","Charles,Carlos,Richard,Jack,Alexis,Austin","It looks like I'm staring out of the window of a nice house, but the house is mine,20,100,20","Pleasant but bland.,10,80,20","subtle use of colors, city street view?,8,340,20","soft colors & brush work. very easy to look at. makes me happy.,50,320,20","it makes me feel normal and calm, I like the busy city street,10,140,20","Like the soft blend of colors,26,240,20","Carlos","Pleasant but bland.,10,80,20","Jack","soft colors & brush work. very easy to look at. makes me happy.,50,320,20","Austin","Like the soft blend of colors,26,240,20","6"
"10225","","survey-text","111","1178334","0.0-108.0-0.0","A1S9N071I5RPE9","","","","{""Q0"":""looks pretty good. Picasso""}","","","","","","","","","","","","","","","","","","","","","","",""
"4644","","image-slider-response","112","1182989","0.0-109.0","A1S9N071I5RPE9","","","","","14","","","","","","","","","","","","","","","","","","","","","",""
"2467","","image-button-response","113","1188004","0.0-110.0","A1S9N071I5RPE9","img_art/28.jpg","3","","","","","","","","","","","","","","","","","","","","","","","","",""
"1671","","image-button-response","114","1189690","0.0-111.0","A1S9N071I5RPE9","img_art/28.jpg","3","","","","","","","","","","","","","","","","","","","","","","","","",""
"1178","","image-button-response","115","1190886","0.0-112.0-0.0","A1S9N071I5RPE9","img_art/28.jpg","0","","","","","","","","","","","","","","","","","","","","","","","","",""
"1132","","image-button-response","116","1192029","0.0-113.0-0.0","A1S9N071I5RPE9","img_art/28.jpg","2","","","","","","","","","","","","","","","","","","","","","","","","",""
"null","","html-keyboard-response","117","1193035","0.0-114.0","A1S9N071I5RPE9","<p style=""font-size: 48px;"">+</p>","","","","","null","allTrialResponses","1000","1","10","img_art/28.jpg","14","looks pretty good. Picasso","Shane,Carlos,Bradley,Jack,Colton,Austin","This is also something I would see in a serious but safe environment,14,80,20","Colors are pleasing, shapes are vaguely unpleasant. Kidneys at a smoky bar.,5,80,20","I think this may have to do with humpty dumpty?,-7,300,20","looks like humanoid figures in distress. I like it, but makes me slightly uncomfortable,35,320,20","not a fan of the colors or strokes used,-27,220,20","Not really exciting,23,240,20","Jack","looks like humanoid figures in distress. I like it, but makes me slightly uncomfortable,35,320,20","Shane","This is also something I would see in a serious but safe environment,14,80,20","Bradley","I think this may have to do with humpty dumpty?,-7,300,20","6"
"5750","","survey-text","118","1198816","0.0-115.0-0.0","A1S9N071I5RPE9","","","","{""Q0"":""our""}","","","","","","","","","","","","","","","","","","","","","","",""
"11581","","survey-text","119","1210407","0.0-116.0-0.0","A1S9N071I5RPE9","","","","{""Q0"":""pretty generic. Don't really like the colors""}","","","","","","","","","","","","","","","","","","","","","","",""
"3162","","image-slider-response","120","1213583","0.0-117.0","A1S9N071I5RPE9","","","","","11","","","","","","","","","","","","","","","","","","","","","",""
"3381","","image-button-response","121","1218596","0.0-118.0","A1S9N071I5RPE9","img_art/24.jpg","1","","","","","","","","","","","","","","","","","","","","","","","","",""
"1543","","image-button-response","122","1220156","0.0-119.0","A1S9N071I5RPE9","img_art/24.jpg","3","","","","","","","","","","","","","","","","","","","","","","","","",""
"1237","","image-button-response","123","1221406","0.0-120.0-0.0","A1S9N071I5RPE9","img_art/24.jpg","4","","","","","","","","","","","","","","","","","","","","","","","","",""
"2216","","image-button-response","124","1223634","0.0-121.0-0.0","A1S9N071I5RPE9","img_art/24.jpg","1","","","","","","","","","","","","","","","","","","","","","","","","",""
"null","","html-keyboard-response","125","1225140","0.0-122.0","A1S9N071I5RPE9","<p style=""font-size: 48px;"">+</p>","","","","","null","allTrialResponses","1500","1","11","img_art/24.jpg","11","pretty generic. Don't really like the colors","Shane,Mason,Bradley,Jack,Hunter,Justin","A peaceful day by the river,42,80,20","Nature, abstract, I'd hang this in my house.,37,100,20","Hmm. Don't know what to make of this one.,1,300,20","colors are a bit cramped together. really unique take on a waterfall though.,32,320,20","feels overdone, but still executed well,0,240,20","Nice colors, but doesn't do much for me.,1,280,20","Jack","colors are a bit cramped together. really unique take on a waterfall though.,32,320,20","Hunter","feels overdone, but still executed well,0,240,20","Mason","Nature, abstract, I'd hang this in my house.,37,100,20","6"
"41828","","survey-text","126","1266992","0.0-123.0-0.0","A1S9N071I5RPE9","","","","{""Q0"":""decent looking painting. ""}","","","","","","","","","","","","","","","","","","","","","","",""
"1678.300000000745","","image-slider-response","127","1268684","0.0-124.0","A1S9N071I5RPE9","","","","","6","","","","","","","","","","","","","","","","","","","","","",""
"3986","","image-button-response","128","1273695","0.0-125.0","A1S9N071I5RPE9","img_art/21.jpg","4","","","","","","","","","","","","","","","","","","","","","","","","",""
"711","","image-button-response","129","1274426","0.0-126.0","A1S9N071I5RPE9","img_art/21.jpg","4","","","","","","","","","","","","","","","","","","","","","","","","",""
"628","","image-button-response","130","1275064","0.0-127.0-0.0","A1S9N071I5RPE9","img_art/21.jpg","5","","","","","","","","","","","","","","","","","","","","","","","","",""
"1607","","image-button-response","131","1276687","0.0-128.0-0.0","A1S9N071I5RPE9","img_art/21.jpg","2","","","","","","","","","","","","","","","","","","","","","","","","",""
"null","","html-keyboard-response","132","1277192","0.0-129.0","A1S9N071I5RPE9","<p style=""font-size: 48px;"">+</p>","","","","","null","allTrialResponses","500","1","12","img_art/21.jpg","6","decent looking painting. ","Joseph,Mason,Christian,Jack,Hunter,Thomas","I like that it reminds me of an abstract version of a Bob Ross painting.,36,220,20","Don't know why I like it, cant describe, maybe many landscapes?,47,100,20","stormy with gold lining,0,140,20","beautiful. reminds me of a storm brewing over sea. i love the white dots.,45,320,20","feels like a harbor scene,11,240,20","Again, I love the use of color,50,220,20","Hunter","feels like a harbor scene,11,240,20","Thomas","Again, I love the use of color,50,220,20","Christian","stormy with gold lining,0,140,20","6"
"4734","","survey-text","133","1281946","0.0-130.0-0.0","A1S9N071I5RPE9","","","","{""Q0"":""funky""}","","","","","","","","","","","","","","","","","","","","","","",""
"18596","","survey-text","134","1302248","0.0-130.1-0.1","A1S9N071I5RPE9","","","","{""Q0"":""funky, the red and turquiose/blue is a crazy combo""}","","","","","","","","","","","","","","","","","","","","","","",""
"3114.5","","image-slider-response","135","1305374","0.0-131.0","A1S9N071I5RPE9","","","","","8","","","","","","","","","","","","","","","","","","","","","",""
"3390","","image-button-response","136","1310388","0.0-132.0","A1S9N071I5RPE9","img_art/9.jpg","3","","","","","","","","","","","","","","","","","","","","","","","","",""
"20178","","image-button-response","137","1330581","0.0-133.0","A1S9N071I5RPE9","img_art/9.jpg","0","","","","","","","","","","","","","","","","","","","","","","","","",""
"3289","","image-button-response","138","1333885","0.0-134.0-0.0","A1S9N071I5RPE9","img_art/9.jpg","2","","","","","","","","","","","","","","","","","","","","","","","","",""
"1572","","image-button-response","139","1335477","0.0-135.0-0.0","A1S9N071I5RPE9","img_art/9.jpg","4","","","","","","","","","","","","","","","","","","","","","","","","",""
"null","","html-keyboard-response","140","1335983","0.0-136.0","A1S9N071I5RPE9","<p style=""font-size: 48px;"">+</p>","","","","","null","allTrialResponses","500","1","13","img_art/9.jpg","8","funky, the red and turquiose/blue is a crazy combo","Nicholas,Benjamin,Christian,Alex,Hunter,Thomas","Some nice colors but i do not like it,-18,240,20","looks like sleeping beauty in a garden,10,260,20","love the color palette, but I'm gonna be honest, I don't really understand it,14,140,20","Alright, I can see a reclining lady, I'm just glad to be able to tell what's in the picture,5,100,20","strong focal point, appealing use of selective line,11,240,20","I don't like the picture, but it wouldn't surprise me if someone did,-20,220,20","Nicholas","Some nice colors but i do not like it,-18,240,20","Christian","love the color palette, but I'm gonna be honest, I don't really understand it,14,140,20","Hunter","strong focal point, appealing use of selective line,11,240,20","6"
"24159","","survey-text","141","1360162","0.0-137.0-0.0","A1S9N071I5RPE9","","","","{""Q0"":""creepy but decent looking""}","","","","","","","","","","","","","","","","","","","","","","",""
"18865.5","","image-slider-response","142","1379040","0.0-138.0","A1S9N071I5RPE9","","","","","6","","","","","","","","","","","","","","","","","","","","","",""
"null","","image-button-response","143","1384054","0.0-139.0","A1S9N071I5RPE9","img_art/25.jpg","null","","","","","","","","","","","","","","","","","","","","","","","","",""
"3599","","image-button-response","144","1387666","0.0-140.0","A1S9N071I5RPE9","img_art/25.jpg","0","","","","","","","","","","","","","","","","","","","","","","","","",""
"736","","image-button-response","145","1388417","0.0-141.0-0.0","A1S9N071I5RPE9","img_art/25.jpg","1","","","","","","","","","","","","","","","","","","","","","","","","",""
"1815","","image-button-response","146","1390247","0.0-142.0-0.0","A1S9N071I5RPE9","img_art/25.jpg","5","","","","","","","","","","","","","","","","","","","","","","","","",""
"null","","html-keyboard-response","147","1390752","0.0-143.0","A1S9N071I5RPE9","<p style=""font-size: 48px;"">+</p>","","","","","null","allTrialResponses","500","1","14","img_art/25.jpg","6","creepy but decent looking","Nicholas,Tristan,Christian,Jeremy,Hunter,Marcus","It is interesting but too creapy for me,-29,240,20","The limited palette make this figure mysterious and interpret-able.,20,300,20","I'm sorry but I don't uderstand this,-20,140,20","reminds me of ancient history which makes me happy,40,60,20","do not like that color of green,-11,240,20","Ugly green color and don't like it at all,-30,60,20","Nicholas","It is interesting but too creapy for me,-29,240,20","Tristan","The limited palette make this figure mysterious and interpret-able.,20,300,20","Marcus","Ugly green color and don't like it at all,-30,60,20","6"
"9564","","survey-text","148","1400341","0.0-144.0-0.0","A1S9N071I5RPE9","","","","{""Q0"":""way too basic for me to really like""}","","","","","","","","","","","","","","","","","","","","","","",""
"6805.800000000745","","image-slider-response","149","1407160","0.0-145.0","A1S9N071I5RPE9","","","","","-8","","","","","","","","","","","","","","","","","","","","","",""
"null","","image-button-response","150","1412173","0.0-146.0","A1S9N071I5RPE9","img_art/4.jpg","null","","","","","","","","","","","","","","","","","","","","","","","","",""
"12617","","image-button-response","151","1424801","0.0-147.0","A1S9N071I5RPE9","img_art/4.jpg","1","","","","","","","","","","","","","","","","","","","","","","","","",""
"788","","image-button-response","152","1425605","0.0-148.0-0.0","A1S9N071I5RPE9","img_art/4.jpg","2","","","","","","","","","","","","","","","","","","","","","","","","",""
"1667","","image-button-response","153","1427282","0.0-149.0-0.0","A1S9N071I5RPE9","img_art/4.jpg","3","","","","","","","","","","","","","","","","","","","","","","","","",""
"null","","html-keyboard-response","154","1428287","0.0-150.0","A1S9N071I5RPE9","<p style=""font-size: 48px;"">+</p>","","","","","null","allTrialResponses","1000","1","15","img_art/4.jpg","-8","way too basic for me to really like","Nicholas,Tristan,Derek,Grant,Lucas,Marcus","I domt like the yellow black blended smear,-50,240,20","disturbing and uncomfortable.,10,300,20","A bit too plain for my tastes,-10,360,20","This elicits no reaction in me.,0,200,20","Not bad at all.,20,380,20","Really like the colors, but don't like the object/squiggle in darker gold and black,4,60,20","Tristan","disturbing and uncomfortable.,10,300,20","Derek","A bit too plain for my tastes,-10,360,20","Grant","This elicits no reaction in me.,0,200,20","6"
"3573","","survey-text","155","1431895","0.0-151.0-0.0","A1S9N071I5RPE9","","","","{""Q0"":""course""}","","","","","","","","","","","","","","","","","","","","","","",""
"18823","","survey-text","156","1450725","0.0-152.0-0.0","A1S9N071I5RPE9","","","","{""Q0"":""lot going on. very beautiful""}","","","","","","","","","","","","","","","","","","","","","","",""
"29728.10000000149","","image-slider-response","157","1480466","0.0-153.0","A1S9N071I5RPE9","","","","","34","","","","","","","","","","","","","","","","","","","","","",""
"null","","image-button-response","158","1485479","0.0-154.0","A1S9N071I5RPE9","img_art/8.jpg","null","","","","","","","","","","","","","","","","","","","","","","","","",""
"2255","","image-button-response","159","1487748","0.0-155.0","A1S9N071I5RPE9","img_art/8.jpg","1","","","","","","","","","","","","","","","","","","","","","","","","",""
"1827","","image-button-response","160","1489585","0.0-156.0-0.0","A1S9N071I5RPE9","img_art/8.jpg","3","","","","","","","","","","","","","","","","","","","","","","","","",""
"963","","image-button-response","161","1490567","0.0-157.0-0.0","A1S9N071I5RPE9","img_art/8.jpg","4","","","","","","","","","","","","","","","","","","","","","","","","",""
"null","","html-keyboard-response","162","1492072","0.0-158.0","A1S9N071I5RPE9","<p style=""font-size: 48px;"">+</p>","","","","","null","allTrialResponses","1500","1","16","img_art/8.jpg","34","lot going on. very beautiful","Gabriel,Tristan,Derek,Grant,Mitchell,Cameron","i like all the different faces,19,160,20","The definition and the colors give make this painting accessible and thought provoking.,30,300,20","It's simply gorgeous. This artist is very talented,50,360,20","The stylized faces remind me of German expressionism in a very good way.,40,200,20","Lost in a big city confuse as to where to go to next. No matter if you live in a mansion or homeless. Being bigger than what is going on around you,30,180,20","what's going on here. looks like scary town.,-25,60,20","Tristan","The definition and the colors give make this painting accessible and thought provoking.,30,300,20","Grant","The stylized faces remind me of German expressionism in a very good way.,40,200,20","Mitchell","Lost in a big city confuse as to where to go to next. No matter if you live in a mansion or homeless. Being bigger than what is going on around you,30,180,20","6"
"56650","","survey-text","163","1548746","0.0-159.0-0.0","A1S9N071I5RPE9","","","","{""Q0"":""very nice. Futuristic and creepy ""}","","","","","","","","","","","","","","","","","","","","","","",""
"4707.39999999851","","image-slider-response","164","1553466","0.0-160.0","A1S9N071I5RPE9","","","","","35","","","","","","","","","","","","","","","","","","","","","",""
"null","","image-button-response","165","1558479","0.0-161.0","A1S9N071I5RPE9","img_art/11.jpg","null","","","","","","","","","","","","","","","","","","","","","","","","",""
"4015","","image-button-response","166","1562503","0.0-162.0","A1S9N071I5RPE9","img_art/11.jpg","1","","","","","","","","","","","","","","","","","","","","","","","","",""
"784","","image-button-response","167","1563299","0.0-163.0-0.0","A1S9N071I5RPE9","img_art/11.jpg","2","","","","","","","","","","","","","","","","","","","","","","","","",""
"2888","","image-button-response","168","1566202","0.0-164.0-0.0","A1S9N071I5RPE9","img_art/11.jpg","4","","","","","","","","","","","","","","","","","","","","","","","","",""
"null","","html-keyboard-response","169","1566707","0.0-165.0","A1S9N071I5RPE9","<p style=""font-size: 48px;"">+</p>","","","","","null","allTrialResponses","500","1","17","img_art/11.jpg","35","very nice. Futuristic and creepy ","Kevin,Tristan,Kyle,Grant,Mitchell,Paul","Thats a creepy old rollercoasters abandoned,-2,320,20","Simple and complex. Hopeful yet dark. I love this,35,300,20","Reminds me of a city on a grey/rainy winter's day,25,340,20","This elicits no reaction in me.,0,200,20","Busy city life. transportation, anxiety.,10,180,20","I like how it reminds me of music and at the same time it looks like colorful train tracks.,10,300,20","Tristan","Simple and complex. Hopeful yet dark. I love this,35,300,20","Kyle","Reminds me of a city on a grey/rainy winter's day,25,340,20","Mitchell","Busy city life. transportation, anxiety.,10,180,20","6"
"27340","","survey-text","170","1594070","0.0-166.0-0.0","A1S9N071I5RPE9","","","","{""Q0"":""Like the colors. Feels like a truck run over in the desert. ""}","","","","","","","","","","","","","","","","","","","","","","",""
"2647.5","","image-slider-response","171","1596730","0.0-167.0","A1S9N071I5RPE9","","","","","22","","","","","","","","","","","","","","","","","","","","","",""
"null","","image-button-response","172","1601743","0.0-168.0","A1S9N071I5RPE9","img_art/20.jpg","null","","","","","","","","","","","","","","","","","","","","","","","","",""
"4614","","image-button-response","173","1606370","0.0-169.0","A1S9N071I5RPE9","img_art/20.jpg","0","","","","","","","","","","","","","","","","","","","","","","","","",""
"3124","","image-button-response","174","1609507","0.0-170.0-0.0","A1S9N071I5RPE9","img_art/20.jpg","3","","","","","","","","","","","","","","","","","","","","","","","","",""
"269401","","image-button-response","175","1878916","0.0-171.0-0.0","A1S9N071I5RPE9","img_art/20.jpg","1","","","","","","","","","","","","","","","","","","","","","","","","",""
"null","","html-keyboard-response","176","1880421","0.0-172.0","A1S9N071I5RPE9","<p style=""font-size: 48px;"">+</p>","","","","","null","allTrialResponses","1500","1","18","img_art/20.jpg","22","Like the colors. Feels like a truck run over in the desert. ","Logan,Tristan,Kyle,Victor,Mitchell,Jordan","truck? train? dead cow? plane?,10,360,20","Elements that are more defined are incongruous to the soft and melting nature of this painting,5,300,20","This one is okay but I don't really care for it,5,340,20","sort of pleasant to look at, but can't tell if it's supposed to be something,13,340,20","Interesting. Empty place, wondering what happened, leaving what you used to know.,10,180,20","A mountain vacation,46,160,20","Logan","truck? train? dead cow? plane?,10,360,20","Victor","sort of pleasant to look at, but can't tell if it's supposed to be something,13,340,20","Tristan","Elements that are more defined are incongruous to the soft and melting nature of this painting,5,300,20","6"
"5284","","survey-text","177","1885725","0.0-173.0-0.0","A1S9N071I5RPE9","","","","{""Q0"":""very basic""}","","","","","","","","","","","","","","","","","","","","","","",""
"5612.199999999255","","image-slider-response","178","1891346","0.0-174.0","A1S9N071I5RPE9","","","","","-8","","","","","","","","","","","","","","","","","","","","","",""
"1515","","image-button-response","179","1896358","0.0-175.0","A1S9N071I5RPE9","img_art/3.jpg","0","","","","","","","","","","","","","","","","","","","","","","","","",""
"1277","","image-button-response","180","1897644","0.0-176.0","A1S9N071I5RPE9","img_art/3.jpg","0","","","","","","","","","","","","","","","","","","","","","","","","",""
"774","","image-button-response","181","1898435","0.0-177.0-0.0","A1S9N071I5RPE9","img_art/3.jpg","2","","","","","","","","","","","","","","","","","","","","","","","","",""
"2069","","image-button-response","182","1900519","0.0-178.0-0.0","A1S9N071I5RPE9","img_art/3.jpg","1","","","","","","","","","","","","","","","","","","","","","","","","",""
"null","","html-keyboard-response","183","1902023","0.0-179.0","A1S9N071I5RPE9","<p style=""font-size: 48px;"">+</p>","","","","","null","allTrialResponses","1500","1","19","img_art/3.jpg","-8","very basic","Logan,Tristan,Tyler,Victor,Jake,Garrett","im just getting more agitated and less appreciative of art. I have absolutely no scale to base on,-34,360,20","i like the colors particulairly the contrast of foreground to background. Exciting and thoughtful.,10,300,20","This doesn't grab me. Perhaps the red is meant to be provocative; I find it gimmicky.,-9,320,20","Again, looks like a child's work. I don't get these types of pieces. Too simple,-47,340,20","This is angry and childish looking.,-49,360,20","I can't tell what this image is supposed to be it looks extremely ugly and color variety is boring.,-50,180,20","Logan","im just getting more agitated and less appreciative of art. I have absolutely no scale to base on,-34,360,20","Tyler","This doesn't grab me. Perhaps the red is meant to be provocative; I find it gimmicky.,-9,320,20","Tristan","i like the colors particulairly the contrast of foreground to background. Exciting and thoughtful.,10,300,20","6"
"9134","","survey-text","184","1911180","0.0-180.0-0.0","A1S9N071I5RPE9","","","","{""Q0"":""I cant really get into it. I dont know why""}","","","","","","","","","","","","","","","","","","","","","","",""
"8052.699999999255","","image-slider-response","185","1919245","0.0-181.0","A1S9N071I5RPE9","","","","","-17","","","","","","","","","","","","","","","","","","","","","",""
"null","","image-button-response","186","1924255","0.0-182.0","A1S9N071I5RPE9","img_art/27.jpg","null","","","","","","","","","","","","","","","","","","","","","","","","",""
"3964","","image-button-response","187","1928234","0.0-183.0","A1S9N071I5RPE9","img_art/27.jpg","3","","","","","","","","","","","","","","","","","","","","","","","","",""
"2808","","image-button-response","188","1931053","0.0-184.0-0.0","A1S9N071I5RPE9","img_art/27.jpg","1","","","","","","","","","","","","","","","","","","","","","","","","",""
"2546","","image-button-response","189","1933617","0.0-185.0-0.0","A1S9N071I5RPE9","img_art/27.jpg","4","","","","","","","","","","","","","","","","","","","","","","","","",""
"null","","html-keyboard-response","190","1934622","0.0-186.0","A1S9N071I5RPE9","<p style=""font-size: 48px;"">+</p>","","","","","null","allTrialResponses","1000","1","20","img_art/27.jpg","-17","I cant really get into it. I dont know why","Logan,Tristan,Tyler,Michael,Robert,Angel","demon vs angel brawl over lemon lime sprite,-10,360,20","The colors provide a complexity to the nearly child-like sketches.,5,300,20","The photographing is horribly distracting. I would feel more favorable toward the original colors/ brightness,1,320,20","Anyone could do that.,-31,140,20","The black sketchy over the colors doesn't fit.,-4,360,20","Makes me think of Japanese food. I perceive it as comfortable and healthy.,20,180,20","Michael","Anyone could do that.,-31,140,20","Tristan","The colors provide a complexity to the nearly child-like sketches.,5,300,20","Robert","The black sketchy over the colors doesn't fit.,-4,360,20","6"
"3184","","survey-text","191","1937844","0.0-187.0-0.0","A1S9N071I5RPE9","","","","{""Q0"":""we""}","","","","","","","","","","","","","","","","","","","","","","",""
"8101","","survey-text","192","1945956","0.0-188.0-0.0","A1S9N071I5RPE9","","","","{""Q0"":""I love it. Lot going on""}","","","","","","","","","","","","","","","","","","","","","","",""
"5137.39999999851","","image-slider-response","193","1951104","0.0-189.0","A1S9N071I5RPE9","","","","","41","","","","","","","","","","","","","","","","","","","","","",""
"null","","image-button-response","194","1956119","0.0-190.0","A1S9N071I5RPE9","img_art/18.jpg","null","","","","","","","","","","","","","","","","","","","","","","","","",""
"6599","","image-button-response","195","1962729","0.0-191.0","A1S9N071I5RPE9","img_art/18.jpg","0","","","","","","","","","","","","","","","","","","","","","","","","",""
"1208","","image-button-response","196","1963951","0.0-192.0-0.0","A1S9N071I5RPE9","img_art/18.jpg","1","","","","","","","","","","","","","","","","","","","","","","","","",""
"2648","","image-button-response","197","1966613","0.0-193.0-0.0","A1S9N071I5RPE9","img_art/18.jpg","2","","","","","","","","","","","","","","","","","","","","","","","","",""
"null","","html-keyboard-response","198","1967119","0.0-194.0","A1S9N071I5RPE9","<p style=""font-size: 48px;"">+</p>","","","","","null","allTrialResponses","500","1","21","img_art/18.jpg","41","I love it. Lot going on","Tanner,Tristan,Mark,Michael,Robert,Cole","pegssus going into battle,25,180,20","So much going on. Frightening and tumultous, brave and inspiring. I'd like to spend the rest of my life interpreting it.,30,300,20","I see an artistic representation of the riding of last of the four horseman. Its stunning.,45,80,20","Not my style but I can see some serious skill went int it.,21,140,20","It made me think of a car crash,-39,360,20","Two people fighting with one watching,17,200,20","Tanner","pegssus going into battle,25,180,20","Tristan","So much going on. Frightening and tumultous, brave and inspiring. I'd like to spend the rest of my life interpreting it.,30,300,20","Mark","I see an artistic representation of the riding of last of the four horseman. Its stunning.,45,80,20","6"
"25059","","survey-text","199","1992202","0.0-195.0-0.0","A1S9N071I5RPE9","","","","{""Q0"":""I kind of like it. Colors are weak""}","","","","","","","","","","","","","","","","","","","","","","",""
"3926.60000000149","","image-slider-response","200","1996138","0.0-196.0","A1S9N071I5RPE9","","","","","10","","","","","","","","","","","","","","","","","","","","","",""
"null","","image-button-response","201","2001152","0.0-197.0","A1S9N071I5RPE9","img_art/19.jpg","null","","","","","","","","","","","","","","","","","","","","","","","","",""
"3694","","image-button-response","202","2004857","0.0-198.0","A1S9N071I5RPE9","img_art/19.jpg","0","","","","","","","","","","","","","","","","","","","","","","","","",""
"799","","image-button-response","203","2005670","0.0-199.0-0.0","A1S9N071I5RPE9","img_art/19.jpg","1","","","","","","","","","","","","","","","","","","","","","","","","",""
"4286","","image-button-response","204","2009968","0.0-200.0-0.0","A1S9N071I5RPE9","img_art/19.jpg","5","","","","","","","","","","","","","","","","","","","","","","","","",""
"null","","html-keyboard-response","205","2011474","0.0-201.0","A1S9N071I5RPE9","<p style=""font-size: 48px;"">+</p>","","","","","null","allTrialResponses","1500","1","22","img_art/19.jpg","10","I kind of like it. Colors are weak","Tanner,Tristan,Mark,Zachary,Jorge,Juan","city, stress of urbanism, slightly panicked,2,180,20","Though provoking. Adventurous.,10,300,20","Feels like a cafe in Paris.,35,80,20","Reminds me of a busy town. Chaotic in nature.,-11,400,20","confused and emotional,-4,180,20","Again, this is too abstract.,-10,260,20","Tanner","city, stress of urbanism, slightly panicked,2,180,20","Tristan","Though provoking. Adventurous.,10,300,20","Juan","Again, this is too abstract.,-10,260,20","6"
"11129","","survey-text","206","2022628","0.0-202.0-0.0","A1S9N071I5RPE9","","","","{""Q0"":""Looks like a desert floor""}","","","","","","","","","","","","","","","","","","","","","","",""
"2228.39999999851","","image-slider-response","207","2024869","0.0-203.0","A1S9N071I5RPE9","","","","","-5","","","","","","","","","","","","","","","","","","","","","",""
"null","","image-button-response","208","2029882","0.0-204.0","A1S9N071I5RPE9","img_art/7.jpg","null","","","","","","","","","","","","","","","","","","","","","","","","",""
"2367","","image-button-response","209","2032260","0.0-205.0","A1S9N071I5RPE9","img_art/7.jpg","1","","","","","","","","","","","","","","","","","","","","","","","","",""
"728","","image-button-response","210","2033003","0.0-206.0-0.0","A1S9N071I5RPE9","img_art/7.jpg","4","","","","","","","","","","","","","","","","","","","","","","","","",""
"575","","image-button-response","211","2033593","0.0-207.0-0.0","A1S9N071I5RPE9","img_art/7.jpg","3","","","","","","","","","","","","","","","","","","","","","","","","",""
"null","","html-keyboard-response","212","2035098","0.0-208.0","A1S9N071I5RPE9","<p style=""font-size: 48px;"">+</p>","","","","","null","allTrialResponses","1500","1","23","img_art/7.jpg","-5","Looks like a desert floor","Tanner,Tristan,Adrian,Joshua,Alexander,Juan","sand, beach, tranquil,10,180,20","Limited emotional reaction for me. No focus and highly abstract,-20,300,20","It's dirty. I don't mind the colors so much as the way they are put together in this dirty-looking pattern.,-41,60,20","Looks almost like a photograph of nature.,11,240,20","Dead bugs on an insect battleground.,-10,120,20","This is borning and lifeless.,-50,260,20","Tristan","Limited emotional reaction for me. No focus and highly abstract,-20,300,20","Alexander","Dead bugs on an insect battleground.,-10,120,20","Joshua","Looks almost like a photograph of nature.,11,240,20","6"
"20288","","survey-text","213","2055414","0.0-209.0-0.0","A1S9N071I5RPE9","","","","{""Q0"":""I love it. Colors are great bit amateurish though""}","","","","","","","","","","","","","","","","","","","","","","",""
"6252.099999997765","","image-slider-response","214","2061676","0.0-210.0","A1S9N071I5RPE9","","","","","14","","","","","","","","","","","","","","","","","","","","","",""
"null","","image-button-response","215","2066686","0.0-211.0","A1S9N071I5RPE9","img_art/29.jpg","null","","","","","","","","","","","","","","","","","","","","","","","","",""
"10704","","image-button-response","216","2077401","0.0-212.0","A1S9N071I5RPE9","img_art/29.jpg","1","","","","","","","","","","","","","","","","","","","","","","","","",""
"949","","image-button-response","217","2078362","0.0-213.0-0.0","A1S9N071I5RPE9","img_art/29.jpg","2","","","","","","","","","","","","","","","","","","","","","","","","",""
"2932","","image-button-response","218","2081309","0.0-214.0-0.0","A1S9N071I5RPE9","img_art/29.jpg","4","","","","","","","","","","","","","","","","","","","","","","","","",""
"null","","html-keyboard-response","219","2082815","0.0-215.0","A1S9N071I5RPE9","<p style=""font-size: 48px;"">+</p>","","","","","null","allTrialResponses","1500","1","24","img_art/29.jpg","14","I love it. Colors are great bit amateurish though","Bryce,Tristan,Vincent,Joshua,Alexander,Brian","Its kinda scary,-35,20,20","The textures bring this painting alive. A window to another existence with infinite possibility.,25,300,20","Another great work of art and very conversational piece,33,360,20","I don't like the red X through it.,-20,240,20","Tested and failed a lot of ideas.,-20,120,20","it looks like a top-down battle arena,26,380,20","Tristan","The textures bring this painting alive. A window to another existence with infinite possibility.,25,300,20","Vincent","Another great work of art and very conversational piece,33,360,20","Alexander","Tested and failed a lot of ideas.,-20,120,20","6"
"10816","","survey-text","220","2093659","0.0-216.0-0.0","A1S9N071I5RPE9","","","","{""Q0"":""I love it. Simple. Good colors and decent texture""}","","","","","","","","","","","","","","","","","","","","","","",""
"3043.300000000745","","image-slider-response","221","2096714","0.0-217.0","A1S9N071I5RPE9","","","","","26","","","","","","","","","","","","","","","","","","","","","",""
"3650","","image-button-response","222","2101729","0.0-218.0","A1S9N071I5RPE9","img_art/10.jpg","0","","","","","","","","","","","","","","","","","","","","","","","","",""
"983","","image-button-response","223","2102734","0.0-219.0","A1S9N071I5RPE9","img_art/10.jpg","0","","","","","","","","","","","","","","","","","","","","","","","","",""
"529","","image-button-response","224","2103271","0.0-220.0-0.0","A1S9N071I5RPE9","img_art/10.jpg","1","","","","","","","","","","","","","","","","","","","","","","","","",""
"3336","","image-button-response","225","2106621","0.0-221.0-0.0","A1S9N071I5RPE9","img_art/10.jpg","3","","","","","","","","","","","","","","","","","","","","","","","","",""
"null","","html-keyboard-response","226","2107126","0.0-222.0","A1S9N071I5RPE9","<p style=""font-size: 48px;"">+</p>","","","","","null","allTrialResponses","500","1","25","img_art/10.jpg","26","I love it. Simple. Good colors and decent texture","Aaron,Tristan,Vincent,Jose,Alexander,Jeffrey","I like how simple but intricate it is.,30,20,20","Highly abstract and yet the shapes and colors provide an emotional accessibility for me.,20,300,20","A very conversational piece could be of many different ideas,38,360,20","This is pretty rad. The outline looks like a music staff,15,200,20","Roller coaster on an island.,9,120,20","Relaxing; a lot of going on but colours make it easy to look at,20,40,20","Aaron","I like how simple but intricate it is.,30,20,20","Tristan","Highly abstract and yet the shapes and colors provide an emotional accessibility for me.,20,300,20","Jose","This is pretty rad. The outline looks like a music staff,15,200,20","6"
"3086","","survey-text","227","2110253","0.0-223.0-0.0","A1S9N071I5RPE9","","","","{""Q0"":""table""}","","","","","","","","","","","","","","","","","","","","","","",""
"7882","","survey-text","228","2118146","0.0-224.0-0.0","A1S9N071I5RPE9","","","","{""Q0"":""Pretty generic but decent colors""}","","","","","","","","","","","","","","","","","","","","","","",""
"2243.099999997765","","image-slider-response","229","2120400","0.0-225.0","A1S9N071I5RPE9","","","","","8","","","","","","","","","","","","","","","","","","","","","",""
"3538","","image-button-response","230","2125415","0.0-226.0","A1S9N071I5RPE9","img_art/13.jpg","1","","","","","","","","","","","","","","","","","","","","","","","","",""
"1833","","image-button-response","231","2127261","0.0-227.0","A1S9N071I5RPE9","img_art/13.jpg","1","","","","","","","","","","","","","","","","","","","","","","","","",""
"604","","image-button-response","232","2127880","0.0-228.0-0.0","A1S9N071I5RPE9","img_art/13.jpg","2","","","","","","","","","","","","","","","","","","","","","","","","",""
"879","","image-button-response","233","2128777","0.0-229.0-0.0","A1S9N071I5RPE9","img_art/13.jpg","4","","","","","","","","","","","","","","","","","","","","","","","","",""
"null","","html-keyboard-response","234","2129282","0.0-230.0","A1S9N071I5RPE9","<p style=""font-size: 48px;"">+</p>","","","","","null","allTrialResponses","500","1","26","img_art/13.jpg","8","Pretty generic but decent colors","Aaron,Tristan,Daniel,Jose,Nathan,Bryan","It reminds me of a window on a rainy day.,40,20,20","I recognize the beauty of this but FOR ME its large degree of abstraction diminishes my emotional interaction.,-10,300,20","Average overly symmetrical safe,-26,320,20","Best color combo. i love this.,50,200,20","While it is a bit basic and doesn't speak to me much, I like the feeling it gives,40,200,20","Love the colors, love the abstractness, love this Jackson Pollock type painting.,48,400,20","Tristan","I recognize the beauty of this but FOR ME its large degree of abstraction diminishes my emotional interaction.,-10,300,20","Daniel","Average overly symmetrical safe,-26,320,20","Nathan","While it is a bit basic and doesn't speak to me much, I like the feeling it gives,40,200,20","6"
"5792","","survey-text","235","2135107","0.0-231.0-0.0","A1S9N071I5RPE9","","","","{""Q0"":""Pretty simple""}","","","","","","","","","","","","","","","","","","","","","","",""
"10305.39999999851","","image-slider-response","236","2145424","0.0-232.0","A1S9N071I5RPE9","","","","","6","","","","","","","","","","","","","","","","","","","","","",""
"3178","","image-button-response","237","2150437","0.0-233.0","A1S9N071I5RPE9","img_art/15.jpg","0","","","","","","","","","","","","","","","","","","","","","","","","",""
"520","","image-button-response","238","2150969","0.0-234.0","A1S9N071I5RPE9","img_art/15.jpg","0","","","","","","","","","","","","","","","","","","","","","","","","",""
"680","","image-button-response","239","2151660","0.0-235.0-0.0","A1S9N071I5RPE9","img_art/15.jpg","2","","","","","","","","","","","","","","","","","","","","","","","","",""
"1699","","image-button-response","240","2153374","0.0-236.0-0.0","A1S9N071I5RPE9","img_art/15.jpg","5","","","","","","","","","","","","","","","","","","","","","","","","",""
"null","","html-keyboard-response","241","2153879","0.0-237.0","A1S9N071I5RPE9","<p style=""font-size: 48px;"">+</p>","","","","","null","allTrialResponses","500","1","27","img_art/15.jpg","6","Pretty simple","Kenneth,Tristan,Daniel,Gregory,Nathan,Steven","I can't really make out what this is supposed to be.,-8,300,20","basic colors and pleasing shapes providing a calming effect,15,300,20","Dark, drab asymmetrical floral piece,-26,320,20","Black and blue is my favorite color combination,35,220,20","This is pretty nice, reminds me of dark peacock feathers, or perhaps a bush with berries in it?,15,200,20","I'm just not into it,-5,160,20","Kenneth","I can't really make out what this is supposed to be.,-8,300,20","Daniel","Dark, drab asymmetrical floral piece,-26,320,20","Steven","I'm just not into it,-5,160,20","6"
"19337","","survey-text","242","2173240","0.0-238.0-0.0","A1S9N071I5RPE9","","","","{""Q0"":""kind of boring""}","","","","","","","","","","","","","","","","","","","","","","",""
"5255.39999999851","","image-slider-response","243","2178504","0.0-239.0","A1S9N071I5RPE9","","","","","5","","","","","","","","","","","","","","","","","","","","","",""
"null","","image-button-response","244","2183515","0.0-240.0","A1S9N071I5RPE9","img_art/17.jpg","null","","","","","","","","","","","","","","","","","","","","","","","","",""
"8416","","image-button-response","245","2191941","0.0-241.0","A1S9N071I5RPE9","img_art/17.jpg","0","","","","","","","","","","","","","","","","","","","","","","","","",""
"1020","","image-button-response","246","2192973","0.0-242.0-0.0","A1S9N071I5RPE9","img_art/17.jpg","1","","","","","","","","","","","","","","","","","","","","","","","","",""
"366","","image-button-response","247","2193353","0.0-243.0-0.0","A1S9N071I5RPE9","img_art/17.jpg","2","","","","","","","","","","","","","","","","","","","","","","","","",""
"null","","html-keyboard-response","248","2193860","0.0-244.0","A1S9N071I5RPE9","<p style=""font-size: 48px;"">+</p>","","","","","null","allTrialResponses","500","1","28","img_art/17.jpg","5","kind of boring","Kenneth,Nathaniel,Daniel,John,Ian,Steven","I really like this, especially the tree.,23,300,20","I like the artistic sketching pattern.,24,220,20","2 paintings in 1 with shared colors,5,320,20","It gorgeous and i love how the tree is almost 3 dimensional.So many elements to it.,50,120,20","It seems a little dark but it is very beautiful,28,260,20","absolutely gorgeous, I feel solitude again, but the beauty is there also,50,160,20","Kenneth","I really like this, especially the tree.,23,300,20","Nathaniel","I like the artistic sketching pattern.,24,220,20","Daniel","2 paintings in 1 with shared colors,5,320,20","6"
"7109","","survey-text","249","2200998","0.0-245.0-0.0","A1S9N071I5RPE9","","","","{""Q0"":""sImple. pretty good""}","","","","","","","","","","","","","","","","","","","","","","",""
"2917.400000002235","","image-slider-response","250","2203929","0.0-246.0","A1S9N071I5RPE9","","","","","9","","","","","","","","","","","","","","","","","","","","","",""
"2746","","image-button-response","251","2208941","0.0-247.0","A1S9N071I5RPE9","img_art/5.jpg","0","","","","","","","","","","","","","","","","","","","","","","","","",""
"757","","image-button-response","252","2209712","0.0-248.0","A1S9N071I5RPE9","img_art/5.jpg","0","","","","","","","","","","","","","","","","","","","","","","","","",""
"784","","image-button-response","253","2210511","0.0-249.0-0.0","A1S9N071I5RPE9","img_art/5.jpg","3","","","","","","","","","","","","","","","","","","","","","","","","",""
"378","","image-button-response","254","2210908","0.0-250.0-0.0","A1S9N071I5RPE9","img_art/5.jpg","4","","","","","","","","","","","","","","","","","","","","","","","","",""
"null","","html-keyboard-response","255","2211412","0.0-251.0","A1S9N071I5RPE9","<p style=""font-size: 48px;"">+</p>","","","","","null","allTrialResponses","500","1","29","img_art/5.jpg","9","sImple. pretty good","Kenneth,Nathaniel,Daniel,Jacob,Andrew,Luke","It looks like daffy duck's leg with a random trail of pink.,-22,300,20","Not sure what that even is. Looks like a 2-year old drawing,-40,220,20","Cop out, easy money for artist for a 4 min piece,-29,320,20","Don't really know the point of this one.,-11,340,20","Doesn't make me think anything,-1,160,20","no clear emotion,-16,20,20","Kenneth","It looks like daffy duck's leg with a random trail of pink.,-22,300,20","Jacob","Don't really know the point of this one.,-11,340,20","Andrew","Doesn't make me think anything,-1,160,20","6"
"9936","","survey-text","256","2221373","0.0-252.0-0.0","A1S9N071I5RPE9","","","","{""Q0"":""Very simple. Not too bad though""}","","","","","","","","","","","","","","","","","","","","","","",""
"2492.099999997765","","image-slider-response","257","2223878","0.0-253.0","A1S9N071I5RPE9","","","","","3","","","","","","","","","","","","","","","","","","","","","",""
"4985","","image-button-response","258","2228891","0.0-254.0","A1S9N071I5RPE9","img_art/6.jpg","1","","","","","","","","","","","","","","","","","","","","","","","","",""
"2924","","image-button-response","259","2231825","0.0-255.0","A1S9N071I5RPE9","img_art/6.jpg","1","","","","","","","","","","","","","","","","","","","","","","","","",""
"861","","image-button-response","260","2232701","0.0-256.0-0.0","A1S9N071I5RPE9","img_art/6.jpg","3","","","","","","","","","","","","","","","","","","","","","","","","",""
"508","","image-button-response","261","2233224","0.0-257.0-0.0","A1S9N071I5RPE9","img_art/6.jpg","5","","","","","","","","","","","","","","","","","","","","","","","","",""
"null","","html-keyboard-response","262","2234227","0.0-258.0","A1S9N071I5RPE9","<p style=""font-size: 48px;"">+</p>","","","","","null","allTrialResponses","1000","1","30","img_art/6.jpg","3","Very simple. Not too bad though","Kenneth,Antonio,Sean,Jacob,Andrew,Isaiah","Simple and pretty.,18,300,20","Lonely and kinda sad,-25,220,20","reminds me a giant peach,19,40,20","Is this a leaf?,4,340,20","Reminds me of my friend's bird,21,160,20","The painting makes me happy. Like I'm looking at a little bird.,6,300,20","Antonio","Lonely and kinda sad,-25,220,20","Jacob","Is this a leaf?,4,340,20","Isaiah","The painting makes me happy. Like I'm looking at a little bird.,6,300,20","6"
"1488","","image-button-response_instructions","263","2235745","0.0-259.0","A1S9N071I5RPE9","","0","instructions","","","","","","","","","","","","","","","","","","","","","","","",""
"1275","","image-button-response","264","2237043","0.0-260.0","A1S9N071I5RPE9","","0","","","","","","","","","","","","","","","","","","","","","","","","",""
