"rt","url","trial_type","trial_index","time_elapsed","internal_node_id","participant_id","stimulus","button_pressed","Name","responses","response","key_press","variableName","fixationTime","condition","trial","photo","subjectRating","subjectResponse","agentsNames","agent_1_Response","agent_2_Response","agent_3_Response","agent_4_Response","agent_5_Response","agent_6_Response","kept_1_name","kept_1_response","kept_2_name","kept_2_response","kept_3_name","kept_3_response","errorCounter"
"7766","external_page_harvard.html","external-html","0","7878","0.0-0.0","A1SHLWKA0UH1IS","","","","","","","","","","","","","","","","","","","","","","","","","","",""
"1550","","image-button-response","1","9429","0.0-1.0","A1SHLWKA0UH1IS","","1","","","","","","","","","","","","","","","","","","","","","","","","",""
"1805","","image-button-response","2","11236","0.0-2.0-0.0","A1SHLWKA0UH1IS","","1","phone","","","","","","","","","","","","","","","","","","","","","","","",""
"2103","","survey-text","3","13341","0.0-3.0-0.0","A1SHLWKA0UH1IS","","","","{""Q0"":""A1SHLWKA0UH1IS""}","","","","","","","","","","","","","","","","","","","","","","",""
"4918","","image-button-response_instructions","4","18260","0.0-4.0","A1SHLWKA0UH1IS","","0","instructions","","","","","","","","","","","","","","","","","","","","","","","",""
"15263","","image-button-response_instructions","5","33524","0.0-5.0","A1SHLWKA0UH1IS","img_art/ins/popularity/ins1.png","0","instructions","","","","","","","","","","","","","","","","","","","","","","","",""
"3224","","image-button-response_instructions","6","36750","0.0-6.0","A1SHLWKA0UH1IS","img_art/ins/popularity/ins2.png","0","instructions","","","","","","","","","","","","","","","","","","","","","","","",""
"2709","","image-button-response_instructions","7","39461","0.0-7.0","A1SHLWKA0UH1IS","img_art/ins/popularity/ins2Extreme.png","0","instructions","","","","","","","","","","","","","","","","","","","","","","","",""
"3888","","image-button-response_instructions","8","43349","0.0-8.0","A1SHLWKA0UH1IS","img_art/ins/popularity/ins3KEEPpop.PNG","0","instructions","","","","","","","","","","","","","","","","","","","","","","","",""
"1599","","image-button-response_instructions","9","44949","0.0-9.0","A1SHLWKA0UH1IS","img_art/ins/popularity/ins3ANamepop.PNG","0","instructions","","","","","","","","","","","","","","","","","","","","","","","",""
"1975","","image-button-response_instructions","10","46925","0.0-10.0","A1SHLWKA0UH1IS","img_art/ins/popularity/ins3ARatingpop.png","0","instructions","","","","","","","","","","","","","","","","","","","","","","","",""
"1335","","image-button-response_instructions","11","48261","0.0-11.0","A1SHLWKA0UH1IS","img_art/ins/popularity/ins3ATextpop.png","0","instructions","","","","","","","","","","","","","","","","","","","","","","","",""
"5815","","image-button-response_instructions","12","54077","0.0-12.0","A1SHLWKA0UH1IS","img_art/ins/popularity/ins3ALikespop.png","0","instructions","","","","","","","","","","","","","","","","","","","","","","","",""
"6855","","image-button-response_instructions","13","60934","0.0-13.0","A1SHLWKA0UH1IS","img_art/ins/popularity/ins3KEEPpop.PNG","0","instructions","","","","","","","","","","","","","","","","","","","","","","","",""
"5488","","image-button-response_instructions","14","66422","0.0-14.0","A1SHLWKA0UH1IS","img_art/ins/popularity/ins3_5RED.png","0","instructions","","","","","","","","","","","","","","","","","","","","","","","",""
"2246","","image-button-response_instructions","15","68669","0.0-15.0","A1SHLWKA0UH1IS","img_art/ins/popularity/ins3KEEPpop.PNG","0","instructions","","","","","","","","","","","","","","","","","","","","","","","",""
"6688","","image-button-response_instructions","16","75358","0.0-16.0","A1SHLWKA0UH1IS","img_art/ins/popularity/ins4KEEPpop.PNG","0","instructions","","","","","","","","","","","","","","","","","","","","","","","",""
"3535","","image-button-response_instructions","17","78894","0.0-17.0","A1SHLWKA0UH1IS","img_art/ins/popularity/ins5KEEPpop.PNG","0","instructions","","","","","","","","","","","","","","","","","","","","","","","",""
"1551","","image-button-response_instructions","18","80446","0.0-18.0","A1SHLWKA0UH1IS","","0","instructions","","","","","","","","","","","","","","","","","","","","","","","",""
"5512","","survey-text","19","85975","0.0-19.0-0.0","A1SHLWKA0UH1IS","","","","{""Q0"":""but""}","","","","","","","","","","","","","","","","","","","","","","",""
"8094","","survey-text","20","94070","0.0-20.0-0.0","A1SHLWKA0UH1IS","","","","{""Q0"":""squiggly and child-like""}","","","","","","","","","","","","","","","","","","","","","","",""
"4887","","image-slider-response","21","98959","0.0-21.0","A1SHLWKA0UH1IS","","","","","-29","","","","","","","","","","","","","","","","","","","","","",""
"null","","image-button-response","22","103967","0.0-22.0","A1SHLWKA0UH1IS","img_art/ins/1.jpg","null","","","","","","","","","","","","","","","","","","","","","","","","",""
"5359","","image-button-response","23","109328","0.0-23.0","A1SHLWKA0UH1IS","img_art/ins/1.jpg","5","","","","","","","","","","","","","","","","","","","","","","","","",""
"8222","","image-button-response","24","117552","0.0-24.0-0.0","A1SHLWKA0UH1IS","img_art/ins/1.jpg","3","","","","","","","","","","","","","","","","","","","","","","","","",""
"1093","","image-button-response","25","118648","0.0-25.0-0.0","A1SHLWKA0UH1IS","img_art/ins/1.jpg","0","","","","","","","","","","","","","","","","","","","","","","","","",""
"null","","html-keyboard-response","26","119151","0.0-26.0","A1SHLWKA0UH1IS","<p style=""font-size: 48px;"">+</p>","","","","","null","allTrialResponses","500","1","-2","img_art/ins/1.jpg","-29","squiggly and child-like","Allison,Ashley,Beth,Dora,Erika,Jen","looks like a lot of things going on in the mist,20,20,20","I just don't get why these type of art would be popular,-32,40,20","This color reminds me of poo,-46,60,20","looks like what my niece in 3rd grade did this afternoon,-50,80,20","I like the sophisticated brushwork,40,100,20","It reminds me of a candy land dream I had,36,120,20","Jen","It reminds me of a candy land dream I had,36,120,20","Dora","looks like what my niece in 3rd grade did this afternoon,-50,80,20","Allison","looks like a lot of things going on in the mist,20,20,20","0"
"15743","","survey-text","27","134896","0.0-27.0-0.0","A1SHLWKA0UH1IS","","","","{""Q0"":""very abstract and dark, almost occult""}","","","","","","","","","","","","","","","","","","","","","","",""
"7254.5","","image-slider-response","28","142152","0.0-28.0","A1SHLWKA0UH1IS","","","","","17","","","","","","","","","","","","","","","","","","","","","",""
"null","","image-button-response","29","147157","0.0-29.0","A1SHLWKA0UH1IS","img_art/ins/2.jpg","null","","","","","","","","","","","","","","","","","","","","","","","","",""
"2378","","image-button-response","30","149537","0.0-30.0","A1SHLWKA0UH1IS","img_art/ins/2.jpg","0","","","","","","","","","","","","","","","","","","","","","","","","",""
"2110","","image-button-response","31","151649","0.0-31.0-0.0","A1SHLWKA0UH1IS","img_art/ins/2.jpg","3","","","","","","","","","","","","","","","","","","","","","","","","",""
"1278","","image-button-response","32","152928","0.0-32.0-0.0","A1SHLWKA0UH1IS","img_art/ins/2.jpg","0","","","","","","","","","","","","","","","","","","","","","","","","",""
"1094","","image-button-response","33","157409","0.0-32.1-0.1","A1SHLWKA0UH1IS","img_art/ins/2.jpg","4","","","","","","","","","","","","","","","","","","","","","","","","",""
"null","","html-keyboard-response","34","158413","0.0-33.0","A1SHLWKA0UH1IS","<p style=""font-size: 48px;"">+</p>","","","","","null","allTrialResponses","1000","1","-1","img_art/ins/2.jpg","17","very abstract and dark, almost occult","Allison,Jenna,Katie,Dora,Kara,Jen","I don't have strong feelings about this,10,20,20","One of my pet peevs,-48,140,20","too much color!,-28,180,20","looks too angry,-50,80,20","I like the blocks of color arrangements,30,160,20","It reminds me of a fireplace,36,120,20","Allison","I don't have strong feelings about this,10,20,20","Dora","looks too angry,-50,80,20","Kara","I like the blocks of color arrangements,30,160,20","2"
"11969","","survey-text","35","170385","0.0-34.0-0.0","A1SHLWKA0UH1IS","","","","{""Q0"":""I'm thinking of birds in the sky""}","","","","","","","","","","","","","","","","","","","","","","",""
"3783","","image-slider-response","36","174172","0.0-35.0","A1SHLWKA0UH1IS","","","","","6","","","","","","","","","","","","","","","","","","","","","",""
"null","","image-button-response","37","179179","0.0-36.0","A1SHLWKA0UH1IS","img_art/ins/3.jpg","null","","","","","","","","","","","","","","","","","","","","","","","","",""
"338","","image-button-response","38","179519","0.0-37.0","A1SHLWKA0UH1IS","img_art/ins/3.jpg","5","","","","","","","","","","","","","","","","","","","","","","","","",""
"3559","","image-button-response","39","183080","0.0-38.0-0.0","A1SHLWKA0UH1IS","img_art/ins/3.jpg","0","","","","","","","","","","","","","","","","","","","","","","","","",""
"3063","","image-button-response","40","186145","0.0-39.0-0.0","A1SHLWKA0UH1IS","img_art/ins/3.jpg","3","","","","","","","","","","","","","","","","","","","","","","","","",""
"null","","html-keyboard-response","41","187149","0.0-40.0","A1SHLWKA0UH1IS","<p style=""font-size: 48px;"">+</p>","","","","","null","allTrialResponses","1000","1","0","img_art/ins/3.jpg","6","I'm thinking of birds in the sky","Allison,Leslie,Mary,Dora,Kara,Rose","enjoy the different shades of blue,22,20,20","It's an alright work,15,200,20","I like the overlapping of brushes,41,220,20","My worst nightmare,-42,80,20","calming blue is very nice,36,160,20","My daily routine, it's depressing,-20,240,20","Rose","My daily routine, it's depressing,-20,240,20","Allison","enjoy the different shades of blue,22,20,20","Dora","My worst nightmare,-42,80,20","2"
"8001","","image-button-response_instructions","42","195154","0.0-41.0","A1SHLWKA0UH1IS","","0","instructions","","","","","","","","","","","","","","","","","","","","","","","",""
"9189","","survey-likert","43","204344","0.0-42.0-0.0","A1SHLWKA0UH1IS","","","","{""Q0"":"""",""Q1"":0,""Q2"":1}","","","","","","","","","","","","","","","","","","","","","","",""
"4827","","survey-text","44","209179","0.0-43.0-0.0","A1SHLWKA0UH1IS","","","","{""Q0"":""rock""}","","","","","","","","","","","","","","","","","","","","","","",""
"19912","","survey-text","45","229092","0.0-44.0-0.0","A1SHLWKA0UH1IS","","","","{""Q0"":""like paint splashed, pollock-like?""}","","","","","","","","","","","","","","","","","","","","","","",""
"5166.5","","image-slider-response","46","234260","0.0-45.0","A1SHLWKA0UH1IS","","","","","-38","","","","","","","","","","","","","","","","","","","","","",""
"null","","image-button-response","47","239278","0.0-46.0","A1SHLWKA0UH1IS","img_art/13.jpg","null","","","","","","","","","","","","","","","","","","","","","","","","",""
"2424","","image-button-response","48","241704","0.0-47.0","A1SHLWKA0UH1IS","img_art/13.jpg","2","","","","","","","","","","","","","","","","","","","","","","","","",""
"1756","","image-button-response","49","243461","0.0-48.0-0.0","A1SHLWKA0UH1IS","img_art/13.jpg","3","","","","","","","","","","","","","","","","","","","","","","","","",""
"7671","","image-button-response","50","251134","0.0-49.0-0.0","A1SHLWKA0UH1IS","img_art/13.jpg","4","","","","","","","","","","","","","","","","","","","","","","","","",""
"null","","html-keyboard-response","51","252638","0.0-50.0","A1SHLWKA0UH1IS","<p style=""font-size: 48px;"">+</p>","","","","","null","allTrialResponses","1500","1","1","img_art/13.jpg","-38","like paint splashed, pollock-like?","Caroline,Katelyn,Kylie,Jacqueline,Maria,Michaela","Pretty but didnt cause a reaction,33,100,20","Really like this. Its like looking out a window into a beautiful storm,39,100,20","Very abstract and soothing,40,300,20","Seems a little cold but I like the neuron looking splatters.,10,300,20","evokes a dampening feeling,-9,120,20","The colors are really pretty together,39,260,20","Kylie","Very abstract and soothing,40,300,20","Jacqueline","Seems a little cold but I like the neuron looking splatters.,10,300,20","Maria","evokes a dampening feeling,-9,120,20","2"
"26818","","survey-text","52","279462","0.0-51.0-0.0","A1SHLWKA0UH1IS","","","","{""Q0"":""very organic reminds me of slime mold""}","","","","","","","","","","","","","","","","","","","","","","",""
"3238","","image-slider-response","53","282702","0.0-52.0","A1SHLWKA0UH1IS","","","","","38","","","","","","","","","","","","","","","","","","","","","",""
"null","","image-button-response","54","287707","0.0-53.0","A1SHLWKA0UH1IS","img_art/15.jpg","null","","","","","","","","","","","","","","","","","","","","","","","","",""
"186","","image-button-response","55","287895","0.0-54.0","A1SHLWKA0UH1IS","img_art/15.jpg","5","","","","","","","","","","","","","","","","","","","","","","","","",""
"2697","","image-button-response","56","290593","0.0-55.0-0.0","A1SHLWKA0UH1IS","img_art/15.jpg","1","","","","","","","","","","","","","","","","","","","","","","","","",""
"764","","image-button-response","57","291359","0.0-56.0-0.0","A1SHLWKA0UH1IS","img_art/15.jpg","2","","","","","","","","","","","","","","","","","","","","","","","","",""
"null","","html-keyboard-response","58","292364","0.0-57.0","A1SHLWKA0UH1IS","<p style=""font-size: 48px;"">+</p>","","","","","null","allTrialResponses","1000","1","2","img_art/15.jpg","38","very organic reminds me of slime mold","Caitlin,Danielle,Kylie,Jacqueline,Maria,Mariah","Getting better.,10,80,20","This is pretty nice, reminds me of dark peacock feathers, or perhaps a bush with berries in it?,15,340,20","I don't know how I feel about this,31,300,20","I don't like how the black dots are aligned.,-20,300,20","i enjoy its apaprent simplicity (of colour and shape),32,120,20","It is visually appealing, stark and simple but natural.,41,140,20","Mariah","It is visually appealing, stark and simple but natural.,41,140,20","Danielle","This is pretty nice, reminds me of dark peacock feathers, or perhaps a bush with berries in it?,15,340,20","Kylie","I don't know how I feel about this,31,300,20","2"
"14321","","survey-text","59","306687","0.0-58.0-0.0","A1SHLWKA0UH1IS","","","","{""Q0"":""abstract yet human ""}","","","","","","","","","","","","","","","","","","","","","","",""
"2790.300000190735","","image-slider-response","60","309479","0.0-59.0","A1SHLWKA0UH1IS","","","","","9","","","","","","","","","","","","","","","","","","","","","",""
"4951","","image-button-response","61","314485","0.0-60.0","A1SHLWKA0UH1IS","img_art/28.jpg","5","","","","","","","","","","","","","","","","","","","","","","","","",""
"7513","","image-button-response","62","322000","0.0-61.0","A1SHLWKA0UH1IS","img_art/28.jpg","2","","","","","","","","","","","","","","","","","","","","","","","","",""
"950","","image-button-response","63","322952","0.0-62.0-0.0","A1SHLWKA0UH1IS","img_art/28.jpg","0","","","","","","","","","","","","","","","","","","","","","","","","",""
"6334","","image-button-response","64","329288","0.0-63.0-0.0","A1SHLWKA0UH1IS","img_art/28.jpg","1","","","","","","","","","","","","","","","","","","","","","","","","",""
"null","","html-keyboard-response","65","330292","0.0-64.0","A1SHLWKA0UH1IS","<p style=""font-size: 48px;"">+</p>","","","","","null","allTrialResponses","1000","1","3","img_art/28.jpg","9","abstract yet human ","Tiffany,Danielle,Kylie,Meghan,Haley,Mariah","It makes me feel happy, and a little anxious.,50,360,20","I enjoy the color themes, they seem gloomy and mysterious, and content in their own way, which I love.,20,340,20","Overpopulated city,35,300,20","I don't like the color choice,-30,220,20","I can't explain why, but I really love this one,50,220,20","Colors are pleasing, shapes are vaguely unpleasant. Kidneys at a smoky bar.,5,140,20","Kylie","Overpopulated city,35,300,20","Tiffany","It makes me feel happy, and a little anxious.,50,360,20","Danielle","I enjoy the color themes, they seem gloomy and mysterious, and content in their own way, which I love.,20,340,20","2"
"19994","","survey-text","66","350288","0.0-65.0-0.0","A1SHLWKA0UH1IS","","","","{""Q0"":""a rolling and rollicking city scape with busy people""}","","","","","","","","","","","","","","","","","","","","","","",""
"4598.100000143051","","image-slider-response","67","354889","0.0-66.0","A1SHLWKA0UH1IS","","","","","23","","","","","","","","","","","","","","","","","","","","","",""
"4846","","image-button-response","68","359893","0.0-67.0","A1SHLWKA0UH1IS","img_art/11.jpg","5","","","","","","","","","","","","","","","","","","","","","","","","",""
"5081","","image-button-response","69","364977","0.0-68.0","A1SHLWKA0UH1IS","img_art/11.jpg","1","","","","","","","","","","","","","","","","","","","","","","","","",""
"1542","","image-button-response","70","366521","0.0-69.0-0.0","A1SHLWKA0UH1IS","img_art/11.jpg","0","","","","","","","","","","","","","","","","","","","","","","","","",""
"1295","","image-button-response","71","367817","0.0-70.0-0.0","A1SHLWKA0UH1IS","img_art/11.jpg","4","","","","","","","","","","","","","","","","","","","","","","","","",""
"null","","html-keyboard-response","72","368318","0.0-71.0","A1SHLWKA0UH1IS","<p style=""font-size: 48px;"">+</p>","","","","","null","allTrialResponses","500","1","4","img_art/11.jpg","23","a rolling and rollicking city scape with busy people","Tiffany,Danielle,Kylie,Christina,Jennifer,Sierra","I feel excited, like I'm in the middle of a bustling city.,26,360,20","Reminds me of some of post-apocalyptic view of street lights or maybe a city,30,340,20","This looks like a busy highway system along a suburban background,40,300,20","I like how it looks like buildings but i'm not a fan of colors,20,240,20","The narrow groups of lines in the center make me feel uneasy for some reason,-31,380,20","i like the colors and patters and waves,5,260,20","Danielle","Reminds me of some of post-apocalyptic view of street lights or maybe a city,30,340,20","Tiffany","I feel excited, like I'm in the middle of a bustling city.,26,360,20","Jennifer","The narrow groups of lines in the center make me feel uneasy for some reason,-31,380,20","2"
"18680","","survey-text","73","387001","0.0-72.0-0.0","A1SHLWKA0UH1IS","","","","{""Q0"":""this looks like a kid's tv show mascot""}","","","","","","","","","","","","","","","","","","","","","","",""
"3559.5999999046326","","image-slider-response","74","390561","0.0-73.0","A1SHLWKA0UH1IS","","","","","-39","","","","","","","","","","","","","","","","","","","","","",""
"null","","image-button-response","75","395566","0.0-74.0","A1SHLWKA0UH1IS","img_art/2.jpg","null","","","","","","","","","","","","","","","","","","","","","","","","",""
"2513","","image-button-response","76","398082","0.0-75.0","A1SHLWKA0UH1IS","img_art/2.jpg","3","","","","","","","","","","","","","","","","","","","","","","","","",""
"4279","","image-button-response","77","402362","0.0-76.0-0.0","A1SHLWKA0UH1IS","img_art/2.jpg","1","","","","","","","","","","","","","","","","","","","","","","","","",""
"1359","","image-button-response","78","403722","0.0-77.0-0.0","A1SHLWKA0UH1IS","img_art/2.jpg","0","","","","","","","","","","","","","","","","","","","","","","","","",""
"null","","html-keyboard-response","79","405226","0.0-78.0","A1SHLWKA0UH1IS","<p style=""font-size: 48px;"">+</p>","","","","","null","allTrialResponses","1500","1","5","img_art/2.jpg","-39","this looks like a kid's tv show mascot","Tiffany,Danielle,Rebecca,Sarah,Jennifer,Mackenzie","I feel claustrophobic. I'm looking at a busy shop, but the simple shapes and continuous colors make it hectic.,-8,360,20","Not a fan of this style,-30,340,20","do not understand,-21,100,20","nope. just looks like a mess,-28,180,20","Ugly color scheme,-50,380,20","Muted green is overpowering,-10,20,20","Sarah","nope. just looks like a mess,-28,180,20","Danielle","Not a fan of this style,-30,340,20","Tiffany","I feel claustrophobic. I'm looking at a busy shop, but the simple shapes and continuous colors make it hectic.,-8,360,20","2"
"4052","","survey-text","80","409282","0.0-79.0-0.0","A1SHLWKA0UH1IS","","","","{""Q0"":""sky""}","","","","","","","","","","","","","","","","","","","","","","",""
"33000","","survey-text","81","442283","0.0-80.0-0.0","A1SHLWKA0UH1IS","","","","{""Q0"":""VERY ugly but maybe that's the point""}","","","","","","","","","","","","","","","","","","","","","","",""
"3070.0999999046326","","image-slider-response","82","445355","0.0-81.0","A1SHLWKA0UH1IS","","","","","-39","","","","","","","","","","","","","","","","","","","","","",""
"null","","image-button-response","83","450360","0.0-82.0","A1SHLWKA0UH1IS","img_art/29.jpg","null","","","","","","","","","","","","","","","","","","","","","","","","",""
"5378","","image-button-response","84","455740","0.0-83.0","A1SHLWKA0UH1IS","img_art/29.jpg","0","","","","","","","","","","","","","","","","","","","","","","","","",""
"830","","image-button-response","85","456572","0.0-84.0-0.0","A1SHLWKA0UH1IS","img_art/29.jpg","1","","","","","","","","","","","","","","","","","","","","","","","","",""
"1790","","image-button-response","86","458364","0.0-85.0-0.0","A1SHLWKA0UH1IS","img_art/29.jpg","5","","","","","","","","","","","","","","","","","","","","","","","","",""
"null","","html-keyboard-response","87","459370","0.0-86.0","A1SHLWKA0UH1IS","<p style=""font-size: 48px;"">+</p>","","","","","null","allTrialResponses","1000","1","6","img_art/29.jpg","-39","VERY ugly but maybe that's the point","Tiffany,Danielle,Gabrielle,Sarah,Amanda,Kristen","I feel a little disgust. There is something off-putting about the smooth shapes and dark colors.,-43,360,20","Quite ugly in my opinion,-30,340,20","it's OK, no clue to what's going on but good use of light and dark,4,160,20","it's interesting but not my style,9,180,20","Once again, very modern, activists will love,27,180,20","danger, crime scene,,10,280,20","Tiffany","I feel a little disgust. There is something off-putting about the smooth shapes and dark colors.,-43,360,20","Danielle","Quite ugly in my opinion,-30,340,20","Kristen","danger, crime scene,,10,280,20","2"
"13526","","survey-text","88","472899","0.0-87.0-0.0","A1SHLWKA0UH1IS","","","","{""Q0"":""so abstract I have no idea what to think""}","","","","","","","","","","","","","","","","","","","","","","",""
"3143.4000000953674","","image-slider-response","89","476044","0.0-88.0","A1SHLWKA0UH1IS","","","","","-17","","","","","","","","","","","","","","","","","","","","","",""
"null","","image-button-response","90","481046","0.0-89.0","A1SHLWKA0UH1IS","img_art/18.jpg","null","","","","","","","","","","","","","","","","","","","","","","","","",""
"117","","image-button-response","91","481165","0.0-90.0","A1SHLWKA0UH1IS","img_art/18.jpg","5","","","","","","","","","","","","","","","","","","","","","","","","",""
"2885","","image-button-response","92","484052","0.0-91.0-0.0","A1SHLWKA0UH1IS","img_art/18.jpg","4","","","","","","","","","","","","","","","","","","","","","","","","",""
"2087","","image-button-response","93","486141","0.0-92.0-0.0","A1SHLWKA0UH1IS","img_art/18.jpg","2","","","","","","","","","","","","","","","","","","","","","","","","",""
"null","","html-keyboard-response","94","486643","0.0-93.0","A1SHLWKA0UH1IS","<p style=""font-size: 48px;"">+</p>","","","","","null","allTrialResponses","500","1","7","img_art/18.jpg","-17","so abstract I have no idea what to think","Tiffany,Danielle,Stephanie,Kaitlyn,Alexandria,Kristen","I'm mildly disgusted by the colors, and can't piece together the story the figures are trying to tell.,-10,360,20","Doesn't really speak to me well but I can appreciate it,10,340,20","It made me think of a car crash,-39,300,20","Umclear what is present in the picture,0,80,20","the harsh lines with the smooth lines makes me think of wild animals,20,80,20","pegssus going into battle,25,280,20","Kristen","pegssus going into battle,25,280,20","Alexandria","the harsh lines with the smooth lines makes me think of wild animals,20,80,20","Stephanie","It made me think of a car crash,-39,300,20","2"
"22006","","survey-text","95","508653","0.0-94.0-0.0","A1SHLWKA0UH1IS","","","","{""Q0"":""a dragon is attacking a shore, strange""}","","","","","","","","","","","","","","","","","","","","","","",""
"2358.7999999523163","","image-slider-response","96","511013","0.0-95.0","A1SHLWKA0UH1IS","","","","","13","","","","","","","","","","","","","","","","","","","","","",""
"null","","image-button-response","97","516018","0.0-96.0","A1SHLWKA0UH1IS","img_art/21.jpg","null","","","","","","","","","","","","","","","","","","","","","","","","",""
"1690","","image-button-response","98","517710","0.0-97.0","A1SHLWKA0UH1IS","img_art/21.jpg","4","","","","","","","","","","","","","","","","","","","","","","","","",""
"886","","image-button-response","99","518598","0.0-98.0-0.0","A1SHLWKA0UH1IS","img_art/21.jpg","1","","","","","","","","","","","","","","","","","","","","","","","","",""
"1270","","image-button-response","100","519870","0.0-99.0-0.0","A1SHLWKA0UH1IS","img_art/21.jpg","0","","","","","","","","","","","","","","","","","","","","","","","","",""
"null","","html-keyboard-response","101","520876","0.0-100.0","A1SHLWKA0UH1IS","<p style=""font-size: 48px;"">+</p>","","","","","null","allTrialResponses","1000","1","8","img_art/21.jpg","13","a dragon is attacking a shore, strange","Jamie,Diana,Stephanie,Emma,Alexandria,Kristen","Contrast of fire and water looks cool,20,320,20","Makes me feel light and airy. Like I've gone back in time to 1700th century France.,43,380,20","A battle at sea, the red is a bomb exploding.,-31,300,20","Pretty, good colors,30,60,20","the vast colors make me happy,15,80,20","calm, ship at sea, sunset,16,280,20","Alexandria","the vast colors make me happy,15,80,20","Diana","Makes me feel light and airy. Like I've gone back in time to 1700th century France.,43,380,20","Jamie","Contrast of fire and water looks cool,20,320,20","2"
"15847","","survey-text","102","536726","0.0-101.0-0.0","A1SHLWKA0UH1IS","","","","{""Q0"":""she is comfortable in bed and dreaming of better times""}","","","","","","","","","","","","","","","","","","","","","","",""
"5446.099999904633","","image-slider-response","103","542174","0.0-102.0","A1SHLWKA0UH1IS","","","","","3","","","","","","","","","","","","","","","","","","","","","",""
"3270","","image-button-response","104","547179","0.0-103.0","A1SHLWKA0UH1IS","img_art/9.jpg","3","","","","","","","","","","","","","","","","","","","","","","","","",""
"2850","","image-button-response","105","550031","0.0-104.0","A1SHLWKA0UH1IS","img_art/9.jpg","1","","","","","","","","","","","","","","","","","","","","","","","","",""
"598","","image-button-response","106","550630","0.0-105.0-0.0","A1SHLWKA0UH1IS","img_art/9.jpg","2","","","","","","","","","","","","","","","","","","","","","","","","",""
"5359","","image-button-response","107","555991","0.0-106.0-0.0","A1SHLWKA0UH1IS","img_art/9.jpg","4","","","","","","","","","","","","","","","","","","","","","","","","",""
"null","","html-keyboard-response","108","556493","0.0-107.0","A1SHLWKA0UH1IS","<p style=""font-size: 48px;"">+</p>","","","","","null","allTrialResponses","500","1","9","img_art/9.jpg","3","she is comfortable in bed and dreaming of better times","Jamie,Diana,Taylor,Mary,Alexandria,Sophia","Mash up of colors and designs don't really go together,-5,320,20","I think it's sleeping beauty but I'm not sure. I didn't care for this piece.,-30,380,20","The peacock theme gives me negative connotations of my ex-sister-in-law,-10,340,20","How neat is this piece?  I love the angry expressive lines. Emotion is captured in it.,26,180,20","it makes me feel excited and draws my eye around,24,80,20","Yikes. I'm not sure what to make of this one.,-14,280,20","Diana","I think it's sleeping beauty but I'm not sure. I didn't care for this piece.,-30,380,20","Taylor","The peacock theme gives me negative connotations of my ex-sister-in-law,-10,340,20","Alexandria","it makes me feel excited and draws my eye around,24,80,20","2"
"20630","","survey-text","109","577127","0.0-108.0-0.0","A1SHLWKA0UH1IS","","","","{""Q0"":""love the body of the bird standing on a sun-like surface""}","","","","","","","","","","","","","","","","","","","","","","",""
"2270.9000000953674","","image-slider-response","110","579399","0.0-109.0","A1SHLWKA0UH1IS","","","","","44","","","","","","","","","","","","","","","","","","","","","",""
"null","","image-button-response","111","584404","0.0-110.0","A1SHLWKA0UH1IS","img_art/6.jpg","null","","","","","","","","","","","","","","","","","","","","","","","","",""
"1546","","image-button-response","112","585952","0.0-111.0","A1SHLWKA0UH1IS","img_art/6.jpg","0","","","","","","","","","","","","","","","","","","","","","","","","",""
"1926","","image-button-response","113","587880","0.0-112.0-0.0","A1SHLWKA0UH1IS","img_art/6.jpg","5","","","","","","","","","","","","","","","","","","","","","","","","",""
"2302","","image-button-response","114","590184","0.0-113.0-0.0","A1SHLWKA0UH1IS","img_art/6.jpg","3","","","","","","","","","","","","","","","","","","","","","","","","",""
"null","","html-keyboard-response","115","590686","0.0-114.0","A1SHLWKA0UH1IS","<p style=""font-size: 48px;"">+</p>","","","","","null","allTrialResponses","500","1","10","img_art/6.jpg","44","love the body of the bird standing on a sun-like surface","Julia,Diana,Taylor,Margaret,Alexandria,Nicole","this is too simple for me,-34,40,20","I love it. It reminds me of a bird sitting on a wall.,26,380,20","Reminds me of my friend's bird,21,340,20","reminds me of a happy edgar allen poe poem,8,100,20","i like it but it is very neutral,9,80,20","The colors and rough brush strokes make me nervous,-10,20,20","Julia","this is too simple for me,-34,40,20","Nicole","The colors and rough brush strokes make me nervous,-10,20,20","Margaret","reminds me of a happy edgar allen poe poem,8,100,20","2"
"3869","","survey-text","116","594559","0.0-115.0-0.0","A1SHLWKA0UH1IS","","","","{""Q0"":""our""}","","","","","","","","","","","","","","","","","","","","","","",""
"13872","","survey-text","117","608432","0.0-116.0-0.0","A1SHLWKA0UH1IS","","","","{""Q0"":""seems something a kid would do in 1st grade""}","","","","","","","","","","","","","","","","","","","","","","",""
"2830.300000190735","","image-slider-response","118","611264","0.0-117.0","A1SHLWKA0UH1IS","","","","","-50","","","","","","","","","","","","","","","","","","","","","",""
"null","","image-button-response","119","616269","0.0-118.0","A1SHLWKA0UH1IS","img_art/30.jpg","null","","","","","","","","","","","","","","","","","","","","","","","","",""
"178","","image-button-response","120","616448","0.0-119.0","A1SHLWKA0UH1IS","img_art/30.jpg","2","","","","","","","","","","","","","","","","","","","","","","","","",""
"3863","","image-button-response","121","620313","0.0-120.0-0.0","A1SHLWKA0UH1IS","img_art/30.jpg","5","","","","","","","","","","","","","","","","","","","","","","","","",""
"3142","","image-button-response","122","623457","0.0-121.0-0.0","A1SHLWKA0UH1IS","img_art/30.jpg","3","","","","","","","","","","","","","","","","","","","","","","","","",""
"null","","html-keyboard-response","123","624460","0.0-122.0","A1SHLWKA0UH1IS","<p style=""font-size: 48px;"">+</p>","","","","","null","allTrialResponses","1000","1","11","img_art/30.jpg","-50","seems something a kid would do in 1st grade","Julia,Abigail,Grace,Margaret,Shannon,Nicole","this is probably part of a neat series, but the abstraction doesn't speak to me,-17,40,20","Combination of colors arent good,-6,20,20","A little too dull. Would've liked brighter colors. Also looks washed out.,1,180,20","I dont like the colors whatsoever,-15,100,20","I feel like the colors are too repetitive and not very eyecatching.,-20,220,20","I like the softness of this but it doesn't make me feel that nice,5,20,20","Grace","A little too dull. Would've liked brighter colors. Also looks washed out.,1,180,20","Nicole","I like the softness of this but it doesn't make me feel that nice,5,20,20","Margaret","I dont like the colors whatsoever,-15,100,20","2"
"25402","","survey-text","124","649865","0.0-123.0-0.0","A1SHLWKA0UH1IS","","","","{""Q0"":""maybe Asian inspired? The red is intriguing""}","","","","","","","","","","","","","","","","","","","","","","",""
"2246.899999856949","","image-slider-response","125","652113","0.0-124.0","A1SHLWKA0UH1IS","","","","","13","","","","","","","","","","","","","","","","","","","","","",""
"3912","","image-button-response","126","657117","0.0-125.0","A1SHLWKA0UH1IS","img_art/3.jpg","5","","","","","","","","","","","","","","","","","","","","","","","","",""
"1066","","image-button-response","127","658186","0.0-126.0","A1SHLWKA0UH1IS","img_art/3.jpg","2","","","","","","","","","","","","","","","","","","","","","","","","",""
"1494","","image-button-response","128","659682","0.0-127.0-0.0","A1SHLWKA0UH1IS","img_art/3.jpg","1","","","","","","","","","","","","","","","","","","","","","","","","",""
"1398","","image-button-response","129","661082","0.0-128.0-0.0","A1SHLWKA0UH1IS","img_art/3.jpg","0","","","","","","","","","","","","","","","","","","","","","","","","",""
"null","","html-keyboard-response","130","662586","0.0-129.0","A1SHLWKA0UH1IS","<p style=""font-size: 48px;"">+</p>","","","","","null","allTrialResponses","1500","1","12","img_art/3.jpg","13","maybe Asian inspired? The red is intriguing","Hailey,Chelsea,Grace,Margaret,Shelby,Nicole","painted by a 2 year old. cold and boring,-30,200,20","It looks like scribbles.,-40,180,20","Just no. I love red but this looks like blood splatter on a wall from a horrific killing.,-45,180,20","seems distressing. a blood scene,-3,100,20","This makes me feel a bit disturbed,-35,240,20","Something I'd paint when I'm mad. I feel that,20,20,20","Grace","Just no. I love red but this looks like blood splatter on a wall from a horrific killing.,-45,180,20","Chelsea","It looks like scribbles.,-40,180,20","Hailey","painted by a 2 year old. cold and boring,-30,200,20","2"
"18533","","survey-text","131","681122","0.0-130.0-0.0","A1SHLWKA0UH1IS","","","","{""Q0"":""A nice, serene soothing city by a body of water""}","","","","","","","","","","","","","","","","","","","","","","",""
"3054.4000000953674","","image-slider-response","132","684178","0.0-131.0","A1SHLWKA0UH1IS","","","","","30","","","","","","","","","","","","","","","","","","","","","",""
"2063","","image-button-response","133","689184","0.0-132.0","A1SHLWKA0UH1IS","img_art/19.jpg","4","","","","","","","","","","","","","","","","","","","","","","","","",""
"1817","","image-button-response","134","691003","0.0-133.0","A1SHLWKA0UH1IS","img_art/19.jpg","3","","","","","","","","","","","","","","","","","","","","","","","","",""
"1519","","image-button-response","135","692524","0.0-134.0-0.0","A1SHLWKA0UH1IS","img_art/19.jpg","2","","","","","","","","","","","","","","","","","","","","","","","","",""
"1045","","image-button-response","136","693571","0.0-135.0-0.0","A1SHLWKA0UH1IS","img_art/19.jpg","5","","","","","","","","","","","","","","","","","","","","","","","","",""
"null","","html-keyboard-response","137","694575","0.0-136.0","A1SHLWKA0UH1IS","<p style=""font-size: 48px;"">+</p>","","","","","null","allTrialResponses","1000","1","13","img_art/19.jpg","30","A nice, serene soothing city by a body of water","Hailey,Chelsea,Grace,Monica,Leah,Alexis","an old cityfrom many years ago. its ok,6,200,20","It is too busy.,-34,180,20","Looks like a child's rendering of a city street but not too sure.,0,180,20","The shapes make me recall a city scene but it looks dirty,-22,360,20","Very abstract but I like it, it's busy, lots of colors,43,360,20","Not a fan of the blobbiness,-22,100,20","Monica","The shapes make me recall a city scene but it looks dirty,-22,360,20","Grace","Looks like a child's rendering of a city street but not too sure.,0,180,20","Alexis","Not a fan of the blobbiness,-22,100,20","2"
"21384","","survey-text","138","715963","0.0-137.0-0.0","A1SHLWKA0UH1IS","","","","{""Q0"":""looks like something a 4 year old could paint, not a fan""}","","","","","","","","","","","","","","","","","","","","","","",""
"2270.0999999046326","","image-slider-response","139","718235","0.0-138.0","A1SHLWKA0UH1IS","","","","","-36","","","","","","","","","","","","","","","","","","","","","",""
"4983","","image-button-response","140","723240","0.0-139.0","A1SHLWKA0UH1IS","img_art/27.jpg","4","","","","","","","","","","","","","","","","","","","","","","","","",""
"3035","","image-button-response","141","726276","0.0-140.0","A1SHLWKA0UH1IS","img_art/27.jpg","5","","","","","","","","","","","","","","","","","","","","","","","","",""
"2061","","image-button-response","142","728340","0.0-141.0-0.0","A1SHLWKA0UH1IS","img_art/27.jpg","2","","","","","","","","","","","","","","","","","","","","","","","","",""
"2309","","image-button-response","143","730652","0.0-142.0-0.0","A1SHLWKA0UH1IS","img_art/27.jpg","0","","","","","","","","","","","","","","","","","","","","","","","","",""
"null","","html-keyboard-response","144","731657","0.0-143.0","A1SHLWKA0UH1IS","<p style=""font-size: 48px;"">+</p>","","","","","null","allTrialResponses","1000","1","14","img_art/27.jpg","-36","looks like something a 4 year old could paint, not a fan","Alicia,Erika,Grace,Monica,Elizabeth,Alexis","dont like it, don't hate it, meh.,2,120,20","Nice color, but too vague,-12,100,20","Not fond of the bad pencil drawing mixed with the drab colors.,-21,180,20","It tries to remind me of the autumn season but it's grey and looks dirty,-5,360,20","Like the abstractness of this picture,20,20,20","Too abstract, doesn't remind me of anything,-42,100,20","Alexis","Too abstract, doesn't remind me of anything,-42,100,20","Grace","Not fond of the bad pencil drawing mixed with the drab colors.,-21,180,20","Alicia","dont like it, don't hate it, meh.,2,120,20","2"
"21992","","survey-text","145","753653","0.0-144.0-0.0","A1SHLWKA0UH1IS","","","","{""Q0"":""getting inside the mind of a disturbed child""}","","","","","","","","","","","","","","","","","","","","","","",""
"4270.300000190735","","image-slider-response","146","757924","0.0-145.0","A1SHLWKA0UH1IS","","","","","37","","","","","","","","","","","","","","","","","","","","","",""
"4646","","image-button-response","147","762929","0.0-146.0","A1SHLWKA0UH1IS","img_art/16.jpg","2","","","","","","","","","","","","","","","","","","","","","","","","",""
"682","","image-button-response","148","763613","0.0-147.0","A1SHLWKA0UH1IS","img_art/16.jpg","2","","","","","","","","","","","","","","","","","","","","","","","","",""
"1966","","image-button-response","149","765581","0.0-148.0-0.0","A1SHLWKA0UH1IS","img_art/16.jpg","1","","","","","","","","","","","","","","","","","","","","","","","","",""
"2111","","image-button-response","150","767694","0.0-149.0-0.0","A1SHLWKA0UH1IS","img_art/16.jpg","5","","","","","","","","","","","","","","","","","","","","","","","","",""
"null","","html-keyboard-response","151","768195","0.0-150.0","A1SHLWKA0UH1IS","<p style=""font-size: 48px;"">+</p>","","","","","null","allTrialResponses","500","1","15","img_art/16.jpg","37","getting inside the mind of a disturbed child","Alicia,Megan,Grace,Kathryn,Brooke,Alexis","Don't get it. Hate it. ugly.,-44,120,20","Ugly, broken up and mismatched,-50,200,20","Something terrible happened. Either the figure on the right is the victim or another shredded toy.,-49,180,20","I see something that is supposed to be comforting but it's been discarded and lost.,-20,140,20","Don't like teddy bears in art. I could draw that house.,-20,60,20","Don't like this technique. Too serial killer.,-50,100,20","Grace","Something terrible happened. Either the figure on the right is the victim or another shredded toy.,-49,180,20","Megan","Ugly, broken up and mismatched,-50,200,20","Alexis","Don't like this technique. Too serial killer.,-50,100,20","2"
"4828","","survey-text","152","773028","0.0-151.0-0.0","A1SHLWKA0UH1IS","","","","{""Q0"":""course""}","","","","","","","","","","","","","","","","","","","","","","",""
"15280","","survey-text","153","788309","0.0-152.0-0.0","A1SHLWKA0UH1IS","","","","{""Q0"":""looks like the sun setting in a city, nicely abstract""}","","","","","","","","","","","","","","","","","","","","","","",""
"2214.5","","image-slider-response","154","790526","0.0-153.0","A1SHLWKA0UH1IS","","","","","9","","","","","","","","","","","","","","","","","","","","","",""
"3902","","image-button-response","155","795530","0.0-154.0","A1SHLWKA0UH1IS","img_art/22.jpg","2","","","","","","","","","","","","","","","","","","","","","","","","",""
"1827","","image-button-response","156","797358","0.0-155.0","A1SHLWKA0UH1IS","img_art/22.jpg","0","","","","","","","","","","","","","","","","","","","","","","","","",""
"1606","","image-button-response","157","798966","0.0-156.0-0.0","A1SHLWKA0UH1IS","img_art/22.jpg","5","","","","","","","","","","","","","","","","","","","","","","","","",""
"1742","","image-button-response","158","800711","0.0-157.0-0.0","A1SHLWKA0UH1IS","img_art/22.jpg","4","","","","","","","","","","","","","","","","","","","","","","","","",""
"null","","html-keyboard-response","159","802217","0.0-158.0","A1SHLWKA0UH1IS","<p style=""font-size: 48px;"">+</p>","","","","","null","allTrialResponses","1500","1","16","img_art/22.jpg","9","looks like the sun setting in a city, nicely abstract","Miranda,Megan,Grace,Samantha,Sara,Alexis","Its very warm, it reminds of someone not liking their painting so they destoryed it,26,320,20","Organic sun spot on a flexible grid,18,200,20","Love vibrant colors & the abstractness.,43,180,20","Pretty colors but something seems sinister about it,25,140,20","Looks like a warm sunset to me i like it,42,160,20","Don't like this type of abstract work,-39,100,20","Miranda","Its very warm, it reminds of someone not liking their painting so they destoryed it,26,320,20","Alexis","Don't like this type of abstract work,-39,100,20","Sara","Looks like a warm sunset to me i like it,42,160,20","2"
"11954","","survey-text","160","814174","0.0-159.0-0.0","A1SHLWKA0UH1IS","","","","{""Q0"":""beauty in nature, very pleasant""}","","","","","","","","","","","","","","","","","","","","","","",""
"3190.7000000476837","","image-slider-response","161","817366","0.0-160.0","A1SHLWKA0UH1IS","","","","","25","","","","","","","","","","","","","","","","","","","","","",""
"2479","","image-button-response","162","822369","0.0-161.0","A1SHLWKA0UH1IS","img_art/24.jpg","3","","","","","","","","","","","","","","","","","","","","","","","","",""
"1980","","image-button-response","163","824351","0.0-162.0","A1SHLWKA0UH1IS","img_art/24.jpg","2","","","","","","","","","","","","","","","","","","","","","","","","",""
"4430","","image-button-response","164","828783","0.0-163.0-0.0","A1SHLWKA0UH1IS","img_art/24.jpg","5","","","","","","","","","","","","","","","","","","","","","","","","",""
"710","","image-button-response","165","829495","0.0-164.0-0.0","A1SHLWKA0UH1IS","img_art/24.jpg","0","","","","","","","","","","","","","","","","","","","","","","","","",""
"null","","html-keyboard-response","166","830500","0.0-165.0","A1SHLWKA0UH1IS","<p style=""font-size: 48px;"">+</p>","","","","","null","allTrialResponses","1000","1","17","img_art/24.jpg","25","beauty in nature, very pleasant","Miranda,Amber,Jenna,Kayla,Sara,Alexis","I find the colors work really well. It's very pretty but I have no idea as what it is.,34,320,20","peaceful and calm yet joyous.,50,200,20","colors are a bit cramped together. really unique take on a waterfall though.,32,360,20","It looks like a poor dead bunny in a field of flowers. I don't want the bunny to be dead.,-37,180,20","Beautiful scenic drawing with perfect color coordination,43,160,20","Simple. Not too abstract. Love the different flower colors.,20,100,20","Jenna","colors are a bit cramped together. really unique take on a waterfall though.,32,360,20","Alexis","Simple. Not too abstract. Love the different flower colors.,20,100,20","Miranda","I find the colors work really well. It's very pretty but I have no idea as what it is.,34,320,20","2"
"22391","","survey-text","167","852895","0.0-166.0-0.0","A1SHLWKA0UH1IS","","","","{""Q0"":""a musical score over the ocean with a sinking boat, very artiste!""}","","","","","","","","","","","","","","","","","","","","","","",""
"2799.5","","image-slider-response","168","855695","0.0-167.0","A1SHLWKA0UH1IS","","","","","40","","","","","","","","","","","","","","","","","","","","","",""
"4359","","image-button-response","169","860700","0.0-168.0","A1SHLWKA0UH1IS","img_art/10.jpg","4","","","","","","","","","","","","","","","","","","","","","","","","",""
"2106","","image-button-response","170","862808","0.0-169.0","A1SHLWKA0UH1IS","img_art/10.jpg","0","","","","","","","","","","","","","","","","","","","","","","","","",""
"1158","","image-button-response","171","863968","0.0-170.0-0.0","A1SHLWKA0UH1IS","img_art/10.jpg","5","","","","","","","","","","","","","","","","","","","","","","","","",""
"3422","","image-button-response","172","867392","0.0-171.0-0.0","A1SHLWKA0UH1IS","img_art/10.jpg","1","","","","","","","","","","","","","","","","","","","","","","","","",""
"null","","html-keyboard-response","173","868897","0.0-172.0","A1SHLWKA0UH1IS","<p style=""font-size: 48px;"">+</p>","","","","","null","allTrialResponses","1500","1","18","img_art/10.jpg","40","a musical score over the ocean with a sinking boat, very artiste!","Miranda,Katherine,Jenna,Brittany,Sydney,Alexis","It reminds me of how my dog has to run all over the place just to poop in one specific location.,-20,320,20","This is pretty rad. The outline looks like a music staff,15,120,20","this piece is okay. I wish it was more colorful, but it is certainly intriguing.,23,360,20","The design is dynamic and interesting.,14,40,20","This piece is unusual in a way that makes me uncomfortable.,-5,320,20","Too abstract and it doesn't really remind me of anything,-40,100,20","Miranda","It reminds me of how my dog has to run all over the place just to poop in one specific location.,-20,320,20","Alexis","Too abstract and it doesn't really remind me of anything,-40,100,20","Katherine","This is pretty rad. The outline looks like a music staff,15,120,20","2"
"35580","","survey-text","174","904480","0.0-173.0-0.0","A1SHLWKA0UH1IS","","","","{""Q0"":""looks like a packed hard clay ground with broken pottery ground in - don't get it""}","","","","","","","","","","","","","","","","","","","","","","",""
"3567.4000000953674","","image-slider-response","175","908049","0.0-174.0","A1SHLWKA0UH1IS","","","","","-23","","","","","","","","","","","","","","","","","","","","","",""
"4311","","image-button-response","176","913051","0.0-175.0","A1SHLWKA0UH1IS","img_art/7.jpg","0","","","","","","","","","","","","","","","","","","","","","","","","",""
"669","","image-button-response","177","913721","0.0-176.0","A1SHLWKA0UH1IS","img_art/7.jpg","0","","","","","","","","","","","","","","","","","","","","","","","","",""
"983","","image-button-response","178","914706","0.0-177.0-0.0","A1SHLWKA0UH1IS","img_art/7.jpg","2","","","","","","","","","","","","","","","","","","","","","","","","",""
"886","","image-button-response","179","915594","0.0-178.0-0.0","A1SHLWKA0UH1IS","img_art/7.jpg","5","","","","","","","","","","","","","","","","","","","","","","","","",""
"null","","html-keyboard-response","180","916598","0.0-179.0","A1SHLWKA0UH1IS","<p style=""font-size: 48px;"">+</p>","","","","","null","allTrialResponses","1000","1","19","img_art/7.jpg","-23","looks like a packed hard clay ground with broken pottery ground in - don't get it","Miranda,Katherine,Briana,Hannah,Cynthia,Alexis","This looks like a literal picture of the ground so I'm really not too sure about this one.,-42,320,20","Reminds me of bugs, I hate bugs,-7,120,20","Are these ancient cave paintings?,-7,400,20","Looks almost like a photograph of nature.,11,240,20","time and change,1,320,20","Looks like bad wallpaper,-29,100,20","Miranda","This looks like a literal picture of the ground so I'm really not too sure about this one.,-42,320,20","Briana","Are these ancient cave paintings?,-7,400,20","Alexis","Looks like bad wallpaper,-29,100,20","2"
"18119","","survey-text","181","934722","0.0-180.0-0.0","A1SHLWKA0UH1IS","","","","{""Q0"":""a volcanic eruption as seen by a child?""}","","","","","","","","","","","","","","","","","","","","","","",""
"3950.600000143051","","image-slider-response","182","938674","0.0-181.0","A1SHLWKA0UH1IS","","","","","-40","","","","","","","","","","","","","","","","","","","","","",""
"3838","","image-button-response","183","943680","0.0-182.0","A1SHLWKA0UH1IS","img_art/5.jpg","5","","","","","","","","","","","","","","","","","","","","","","","","",""
"649","","image-button-response","184","944331","0.0-183.0","A1SHLWKA0UH1IS","img_art/5.jpg","2","","","","","","","","","","","","","","","","","","","","","","","","",""
"1167","","image-button-response","185","945499","0.0-184.0-0.0","A1SHLWKA0UH1IS","img_art/5.jpg","1","","","","","","","","","","","","","","","","","","","","","","","","",""
"494","","image-button-response","186","945994","0.0-185.0-0.0","A1SHLWKA0UH1IS","img_art/5.jpg","0","","","","","","","","","","","","","","","","","","","","","","","","",""
"null","","html-keyboard-response","187","947498","0.0-186.0","A1SHLWKA0UH1IS","<p style=""font-size: 48px;"">+</p>","","","","","null","allTrialResponses","1500","1","20","img_art/5.jpg","-40","a volcanic eruption as seen by a child?","Miranda,Rachel,Briana,Courtney,Allison,Alexis","This either looks like a bell or aliens finishing the pyramids,-34,320,20","Not sure what to make of this one.,-1,80,20","It looks like a poorly drawn pear,17,400,20","A rabbits head.,4,280,20","Too loud. Dislike the bright yellow.,-5,140,20","Kindergarten art. I really don't like this style.,-50,100,20","Briana","It looks like a poorly drawn pear,17,400,20","Rachel","Not sure what to make of this one.,-1,80,20","Miranda","This either looks like a bell or aliens finishing the pyramids,-34,320,20","2"
"4860","","survey-text","188","952362","0.0-187.0-0.0","A1SHLWKA0UH1IS","","","","{""Q0"":""we""}","","","","","","","","","","","","","","","","","","","","","","",""
"23030","","survey-text","189","975395","0.0-188.0-0.0","A1SHLWKA0UH1IS","","","","{""Q0"":""people who took ecstasy at a rave, nicely done I guess""}","","","","","","","","","","","","","","","","","","","","","","",""
"3382.899999856949","","image-slider-response","190","978779","0.0-189.0","A1SHLWKA0UH1IS","","","","","17","","","","","","","","","","","","","","","","","","","","","",""
"4543","","image-button-response","191","983785","0.0-190.0","A1SHLWKA0UH1IS","img_art/23.jpg","3","","","","","","","","","","","","","","","","","","","","","","","","",""
"976","","image-button-response","192","984763","0.0-191.0","A1SHLWKA0UH1IS","img_art/23.jpg","4","","","","","","","","","","","","","","","","","","","","","","","","",""
"2198","","image-button-response","193","986963","0.0-192.0-0.0","A1SHLWKA0UH1IS","img_art/23.jpg","2","","","","","","","","","","","","","","","","","","","","","","","","",""
"711","","image-button-response","194","987676","0.0-193.0-0.0","A1SHLWKA0UH1IS","img_art/23.jpg","1","","","","","","","","","","","","","","","","","","","","","","","","",""
"null","","html-keyboard-response","195","989180","0.0-194.0","A1SHLWKA0UH1IS","<p style=""font-size: 48px;"">+</p>","","","","","null","allTrialResponses","1500","1","21","img_art/23.jpg","17","people who took ecstasy at a rave, nicely done I guess","Miranda,Rachel,Briana,Cassandra,Andrea,Amy","It's very colorful and different, the white looks like people dancing,26,320,20","Vivid colors and the white in the middle looks like people dancing.,31,80,20","White in the middle look like people dancing naked,19,400,20","I had a very neutral feeling to this,no feelings at all.,1,120,20","I see souls in torment and that makes me feel uneasy.,-21,240,20","So exciting and full of the night.,20,220,20","Andrea","I see souls in torment and that makes me feel uneasy.,-21,240,20","Briana","White in the middle look like people dancing naked,19,400,20","Rachel","Vivid colors and the white in the middle looks like people dancing.,31,80,20","2"
"23180","","survey-text","196","1012364","0.0-195.0-0.0","A1SHLWKA0UH1IS","","","","{""Q0"":""a soul in anguish who loves trees and nature""}","","","","","","","","","","","","","","","","","","","","","","",""
"4366.299999952316","","image-slider-response","197","1016732","0.0-196.0","A1SHLWKA0UH1IS","","","","","15","","","","","","","","","","","","","","","","","","","","","",""
"4918","","image-button-response","198","1021738","0.0-197.0","A1SHLWKA0UH1IS","img_art/17.jpg","4","","","","","","","","","","","","","","","","","","","","","","","","",""
"713","","image-button-response","199","1022453","0.0-198.0","A1SHLWKA0UH1IS","img_art/17.jpg","4","","","","","","","","","","","","","","","","","","","","","","","","",""
"2278","","image-button-response","200","1024733","0.0-199.0-0.0","A1SHLWKA0UH1IS","img_art/17.jpg","3","","","","","","","","","","","","","","","","","","","","","","","","",""
"1062","","image-button-response","201","1025796","0.0-200.0-0.0","A1SHLWKA0UH1IS","img_art/17.jpg","2","","","","","","","","","","","","","","","","","","","","","","","","",""
"null","","html-keyboard-response","202","1027301","0.0-201.0","A1SHLWKA0UH1IS","<p style=""font-size: 48px;"">+</p>","","","","","null","allTrialResponses","1500","1","22","img_art/17.jpg","15","a soul in anguish who loves trees and nature","Dominique,Rachel,Briana,Gabriela,Andrea,Alexa","Another favorite a relaxing day with nature a day to take it all In,34,400,20","Reminds me of a beautiful tree growing in a courtyard. I like the light and airy technique used.,34,80,20","It looks unfinished,-7,400,20","This makes me feel inspired and happy. I love everything about this portrait,45,140,20","A coming storm but I think I would appreciate it more with more contrast.,-12,240,20","The colors are beautiful and the painting itself is magnificent,50,40,20","Andrea","A coming storm but I think I would appreciate it more with more contrast.,-12,240,20","Gabriela","This makes me feel inspired and happy. I love everything about this portrait,45,140,20","Briana","It looks unfinished,-7,400,20","2"
"22500","","survey-text","203","1049805","0.0-202.0-0.0","A1SHLWKA0UH1IS","","","","{""Q0"":""an ancient crop god maybe, too simple though""}","","","","","","","","","","","","","","","","","","","","","","",""
"2695.0999999046326","","image-slider-response","204","1052501","0.0-203.0","A1SHLWKA0UH1IS","","","","","-12","","","","","","","","","","","","","","","","","","","","","",""
"4334","","image-button-response","205","1057507","0.0-204.0","A1SHLWKA0UH1IS","img_art/25.jpg","1","","","","","","","","","","","","","","","","","","","","","","","","",""
"89","","image-button-response","206","1057598","0.0-205.0","A1SHLWKA0UH1IS","img_art/25.jpg","2","","","","","","","","","","","","","","","","","","","","","","","","",""
"926","","image-button-response","207","1058525","0.0-206.0-0.0","A1SHLWKA0UH1IS","img_art/25.jpg","0","","","","","","","","","","","","","","","","","","","","","","","","",""
"1479","","image-button-response","208","1060006","0.0-207.0-0.0","A1SHLWKA0UH1IS","img_art/25.jpg","3","","","","","","","","","","","","","","","","","","","","","","","","",""
"null","","html-keyboard-response","209","1061511","0.0-208.0","A1SHLWKA0UH1IS","<p style=""font-size: 48px;"">+</p>","","","","","null","allTrialResponses","1500","1","23","img_art/25.jpg","-12","an ancient crop god maybe, too simple though","Madeline,Erin,Briana,Gabriela,Andrea,Heather","It looks a bit strange to me, neck too long,-19,40,20","Looks like glow in the dark halloween decoration,-38,120,20","Its scary. It looks like someone overlooking hell,-34,400,20","It looks like a person at a graveyard,18,140,20","Looks like Burning Man, dont care for the colors.,-5,240,20","This reminds me of royalty and servants.,32,260,20","Briana","Its scary. It looks like someone overlooking hell,-34,400,20","Madeline","It looks a bit strange to me, neck too long,-19,40,20","Gabriela","It looks like a person at a graveyard,18,140,20","2"
"6426","","survey-text","210","1067941","0.0-209.0-0.0","A1SHLWKA0UH1IS","","","","{""Q0"":""way too blocky""}","","","","","","","","","","","","","","","","","","","","","","",""
"2247.0999999046326","","image-slider-response","211","1070190","0.0-210.0","A1SHLWKA0UH1IS","","","","","-41","","","","","","","","","","","","","","","","","","","","","",""
"null","","image-button-response","212","1075195","0.0-211.0","A1SHLWKA0UH1IS","img_art/12.jpg","null","","","","","","","","","","","","","","","","","","","","","","","","",""
"185","","image-button-response","213","1075382","0.0-212.0","A1SHLWKA0UH1IS","img_art/12.jpg","3","","","","","","","","","","","","","","","","","","","","","","","","",""
"1568","","image-button-response","214","1076950","0.0-213.0-0.0","A1SHLWKA0UH1IS","img_art/12.jpg","1","","","","","","","","","","","","","","","","","","","","","","","","",""
"3870","","image-button-response","215","1080822","0.0-214.0-0.0","A1SHLWKA0UH1IS","img_art/12.jpg","0","","","","","","","","","","","","","","","","","","","","","","","","",""
"null","","html-keyboard-response","216","1081827","0.0-215.0","A1SHLWKA0UH1IS","<p style=""font-size: 48px;"">+</p>","","","","","null","allTrialResponses","1000","1","24","img_art/12.jpg","-41","way too blocky","Madeline,Lauren,Briana,Gabriela,Angela,Sabrina","Love the shapes here,12,40,20","This doesn't invoke anything. Just a mosaic of random images.,0,340,20","Interesting colors. I really dont like modern art though,24,400,20","In my opinion, this photo has an old school vibe,22,140,20","I like the colors in the bottom half of the painting,10,260,20","I like the fact it shares both light and edgy,32,120,20","Gabriela","In my opinion, this photo has an old school vibe,22,140,20","Lauren","This doesn't invoke anything. Just a mosaic of random images.,0,340,20","Madeline","Love the shapes here,12,40,20","2"
"16312","","survey-text","217","1098142","0.0-216.0-0.0","A1SHLWKA0UH1IS","","","","{""Q0"":""an average ho-hum scene as seen by a kid""}","","","","","","","","","","","","","","","","","","","","","","",""
"2270.9000000953674","","image-slider-response","218","1100415","0.0-217.0","A1SHLWKA0UH1IS","","","","","-42","","","","","","","","","","","","","","","","","","","","","",""
"3158","","image-button-response","219","1105418","0.0-218.0","A1SHLWKA0UH1IS","img_art/26.jpg","0","","","","","","","","","","","","","","","","","","","","","","","","",""
"547","","image-button-response","220","1105967","0.0-219.0","A1SHLWKA0UH1IS","img_art/26.jpg","5","","","","","","","","","","","","","","","","","","","","","","","","",""
"551","","image-button-response","221","1106519","0.0-220.0-0.0","A1SHLWKA0UH1IS","img_art/26.jpg","4","","","","","","","","","","","","","","","","","","","","","","","","",""
"1621","","image-button-response","222","1108143","0.0-221.0-0.0","A1SHLWKA0UH1IS","img_art/26.jpg","3","","","","","","","","","","","","","","","","","","","","","","","","",""
"null","","html-keyboard-response","223","1108643","0.0-222.0","A1SHLWKA0UH1IS","<p style=""font-size: 48px;"">+</p>","","","","","null","allTrialResponses","500","1","25","img_art/26.jpg","-42","an average ho-hum scene as seen by a kid","Madeline,Lauren,Jordan,Gabriela,Laura,Madison","I like the shapes but needs more detail i think,3,40,20","The piece doesn't really invoke anything for me.,0,340,20","This one is nicer, looks like a walk in a small, dreamy city,20,20,20","it makes me feel normal and calm, I like the busy city street,10,140,20","juvenile, faint and weak,-41,320,20","Colors look glum; photograph is not properly contrasted and does not reflect the appropriate amount of natural light.,-10,60,20","Madison","Colors look glum; photograph is not properly contrasted and does not reflect the appropriate amount of natural light.,-10,60,20","Laura","juvenile, faint and weak,-41,320,20","Gabriela","it makes me feel normal and calm, I like the busy city street,10,140,20","2"
"5181","","survey-text","224","1113831","0.0-223.0-0.0","A1SHLWKA0UH1IS","","","","{""Q0"":""table""}","","","","","","","","","","","","","","","","","","","","","","",""
"15311","","survey-text","225","1129144","0.0-224.0-0.0","A1SHLWKA0UH1IS","","","","{""Q0"":""a city destroyed, this is scary""}","","","","","","","","","","","","","","","","","","","","","","",""
"2830.4000000953674","","image-slider-response","226","1131976","0.0-225.0","A1SHLWKA0UH1IS","","","","","17","","","","","","","","","","","","","","","","","","","","","",""
"3270","","image-button-response","227","1136980","0.0-226.0","A1SHLWKA0UH1IS","img_art/20.jpg","3","","","","","","","","","","","","","","","","","","","","","","","","",""
"515","","image-button-response","228","1137496","0.0-227.0","A1SHLWKA0UH1IS","img_art/20.jpg","2","","","","","","","","","","","","","","","","","","","","","","","","",""
"903","","image-button-response","229","1138400","0.0-228.0-0.0","A1SHLWKA0UH1IS","img_art/20.jpg","1","","","","","","","","","","","","","","","","","","","","","","","","",""
"919","","image-button-response","230","1139320","0.0-229.0-0.0","A1SHLWKA0UH1IS","img_art/20.jpg","0","","","","","","","","","","","","","","","","","","","","","","","","",""
"null","","html-keyboard-response","231","1140323","0.0-230.0","A1SHLWKA0UH1IS","<p style=""font-size: 48px;"">+</p>","","","","","null","allTrialResponses","1000","1","26","img_art/20.jpg","17","a city destroyed, this is scary","Kimberly,Alexandra,Marissa,Gabriela,Laura,Madison","Something bad has happened TO reality,-23,260,20","The white blob looks like a face and it's creepy,-30,60,20","I feel intrigued and impressed,34,160,20","it is a bit disturbing, like a monster or ghost floating away from a bleak building,-8,140,20","very fluid and mysterious,37,320,20","This is not abstract art, it is representative.,0,60,20","Marissa","I feel intrigued and impressed,34,160,20","Alexandra","The white blob looks like a face and it's creepy,-30,60,20","Kimberly","Something bad has happened TO reality,-23,260,20","2"
"14321","","survey-text","232","1154648","0.0-231.0-0.0","A1SHLWKA0UH1IS","","","","{""Q0"":""man dominating art and nature""}","","","","","","","","","","","","","","","","","","","","","","",""
"2622.2000000476837","","image-slider-response","233","1157272","0.0-232.0","A1SHLWKA0UH1IS","","","","","-28","","","","","","","","","","","","","","","","","","","","","",""
"2511","","image-button-response","234","1162274","0.0-233.0","A1SHLWKA0UH1IS","img_art/8.jpg","0","","","","","","","","","","","","","","","","","","","","","","","","",""
"1189","","image-button-response","235","1163465","0.0-234.0","A1SHLWKA0UH1IS","img_art/8.jpg","4","","","","","","","","","","","","","","","","","","","","","","","","",""
"766","","image-button-response","236","1164233","0.0-235.0-0.0","A1SHLWKA0UH1IS","img_art/8.jpg","3","","","","","","","","","","","","","","","","","","","","","","","","",""
"1055","","image-button-response","237","1165289","0.0-236.0-0.0","A1SHLWKA0UH1IS","img_art/8.jpg","5","","","","","","","","","","","","","","","","","","","","","","","","",""
"null","","html-keyboard-response","238","1166294","0.0-237.0","A1SHLWKA0UH1IS","<p style=""font-size: 48px;"">+</p>","","","","","null","allTrialResponses","1000","1","27","img_art/8.jpg","-28","man dominating art and nature","Kimberly,Alexandra,Marissa,Kelsey,Ashley,Morgan","Feels very 90's but I like the doorway,15,260,20","The colors are nice but the big face in the sky is creepy,-11,60,20","I can't tell if this is supposed to portray just city life or a town crumbling,-5,160,20","i like all the different faces,19,240,20","Escher? Dali? Could be their lovechild?,50,320,20","Falling into a city's heart.,10,380,20","Ashley","Escher? Dali? Could be their lovechild?,50,320,20","Kelsey","i like all the different faces,19,240,20","Morgan","Falling into a city's heart.,10,380,20","2"
"33856","","survey-text","239","1200154","0.0-238.0-0.0","A1SHLWKA0UH1IS","","","","{""Q0"":""a person based in reality yet with their head in the air""}","","","","","","","","","","","","","","","","","","","","","","",""
"2910.5","","image-slider-response","240","1203066","0.0-239.0","A1SHLWKA0UH1IS","","","","","21","","","","","","","","","","","","","","","","","","","","","",""
"null","","image-button-response","241","1208068","0.0-240.0","A1SHLWKA0UH1IS","img_art/14.jpg","null","","","","","","","","","","","","","","","","","","","","","","","","",""
"1293","","image-button-response","242","1209363","0.0-241.0","A1SHLWKA0UH1IS","img_art/14.jpg","1","","","","","","","","","","","","","","","","","","","","","","","","",""
"2774","","image-button-response","243","1212139","0.0-242.0-0.0","A1SHLWKA0UH1IS","img_art/14.jpg","4","","","","","","","","","","","","","","","","","","","","","","","","",""
"2718","","image-button-response","244","1214859","0.0-243.0-0.0","A1SHLWKA0UH1IS","img_art/14.jpg","0","","","","","","","","","","","","","","","","","","","","","","","","",""
"null","","html-keyboard-response","245","1215360","0.0-244.0","A1SHLWKA0UH1IS","<p style=""font-size: 48px;"">+</p>","","","","","null","allTrialResponses","500","1","28","img_art/14.jpg","21","a person based in reality yet with their head in the air","Savannah,Crystal,Autumn,Kelsey,Ashley,Morgan","Again. This is pretty neutral, leaning dislike.,-18,200,20","It looks like a tree but the bleeding water colors lack borders and makes it hard to appreciate the message.,-41,300,20","It's too basic.,23,340,20","i like this one!,23,240,20","I like the color tone, it's kind of disturbing.,35,320,20","Angled, colored, boxy.,10,380,20","Crystal","It looks like a tree but the bleeding water colors lack borders and makes it hard to appreciate the message.,-41,300,20","Ashley","I like the color tone, it's kind of disturbing.,35,320,20","Savannah","Again. This is pretty neutral, leaning dislike.,-18,200,20","2"
"20590","","survey-text","246","1235955","0.0-245.0-0.0","A1SHLWKA0UH1IS","","","","{""Q0"":""very miasmic, heading into the unknown in a canoe""}","","","","","","","","","","","","","","","","","","","","","","",""
"3262.2000000476837","","image-slider-response","247","1239219","0.0-246.0","A1SHLWKA0UH1IS","","","","","13","","","","","","","","","","","","","","","","","","","","","",""
"null","","image-button-response","248","1244224","0.0-247.0","A1SHLWKA0UH1IS","img_art/1.jpg","null","","","","","","","","","","","","","","","","","","","","","","","","",""
"202","","image-button-response","249","1244427","0.0-248.0","A1SHLWKA0UH1IS","img_art/1.jpg","2","","","","","","","","","","","","","","","","","","","","","","","","",""
"3527","","image-button-response","250","1247956","0.0-249.0-0.0","A1SHLWKA0UH1IS","img_art/1.jpg","3","","","","","","","","","","","","","","","","","","","","","","","","",""
"3830","","image-button-response","251","1251788","0.0-250.0-0.0","A1SHLWKA0UH1IS","img_art/1.jpg","5","","","","","","","","","","","","","","","","","","","","","","","","",""
"null","","html-keyboard-response","252","1253292","0.0-251.0","A1SHLWKA0UH1IS","<p style=""font-size: 48px;"">+</p>","","","","","null","allTrialResponses","1500","1","29","img_art/1.jpg","13","very miasmic, heading into the unknown in a canoe","Savannah,Crystal,Lindsey,Melissa,Ashley,Emily","Its simply okay.,3,200,20","Interesting color scheme but to bled to me,11,300,20","Not a fan of the colors. Makes me think of the Australian bush fires.,-5,400,20","muddy and uninteresting,-16,240,20","More passable, colorful, abstract.,13,320,20","Just a mess though a better mess than some others.,-11,40,20","Lindsey","Not a fan of the colors. Makes me think of the Australian bush fires.,-5,400,20","Melissa","muddy and uninteresting,-16,240,20","Emily","Just a mess though a better mess than some others.,-11,40,20","2"
"22060","","survey-text","253","1275356","0.0-252.0-0.0","A1SHLWKA0UH1IS","","","","{""Q0"":""a pair of scissors stuck in a piece of wood, uninteresting""}","","","","","","","","","","","","","","","","","","","","","","",""
"2390.7000000476837","","image-slider-response","254","1277748","0.0-253.0","A1SHLWKA0UH1IS","","","","","-36","","","","","","","","","","","","","","","","","","","","","",""
"null","","image-button-response","255","1282752","0.0-254.0","A1SHLWKA0UH1IS","img_art/4.jpg","null","","","","","","","","","","","","","","","","","","","","","","","","",""
"1315","","image-button-response","256","1284069","0.0-255.0","A1SHLWKA0UH1IS","img_art/4.jpg","2","","","","","","","","","","","","","","","","","","","","","","","","",""
"1206","","image-button-response","257","1285276","0.0-256.0-0.0","A1SHLWKA0UH1IS","img_art/4.jpg","0","","","","","","","","","","","","","","","","","","","","","","","","",""
"1815","","image-button-response","258","1287093","0.0-257.0-0.0","A1SHLWKA0UH1IS","img_art/4.jpg","0","","","","","","","","","","","","","","","","","","","","","","","","",""
"1199","","image-button-response","259","1291605","0.0-257.1-0.1","A1SHLWKA0UH1IS","img_art/4.jpg","3","","","","","","","","","","","","","","","","","","","","","","","","",""
"null","","html-keyboard-response","260","1293107","0.0-258.0","A1SHLWKA0UH1IS","<p style=""font-size: 48px;"">+</p>","","","","","null","allTrialResponses","1500","1","30","img_art/4.jpg","-36","a pair of scissors stuck in a piece of wood, uninteresting","Kaitlin,Alyssa,Lindsey,Melissa,Cassidy,Emily","heart symbol - this tells a story of hidden love,30,60,20","Extremely simple and like not alot of time was put into it,-20,160,20","Looks like feces smeared on the canvas. I hate it.,-50,400,20","appealing warm palette,6,240,20","Hate the color, and just do not get the point.,-13,140,20","Looks like a child did it.,-42,40,20","Lindsey","Looks like feces smeared on the canvas. I hate it.,-50,400,20","Kaitlin","heart symbol - this tells a story of hidden love,30,60,20","Melissa","appealing warm palette,6,240,20","4"
"2596","","image-button-response_instructions","261","1295709","0.0-259.0","A1SHLWKA0UH1IS","","0","instructions","","","","","","","","","","","","","","","","","","","","","","","",""
"1124","","image-button-response","262","1296837","0.0-260.0","A1SHLWKA0UH1IS","","0","","","","","","","","","","","","","","","","","","","","","","","","",""
