"rt","url","trial_type","trial_index","time_elapsed","internal_node_id","participant_id","stimulus","button_pressed","Name","responses","response","key_press","variableName","fixationTime","condition","trial","photo","subjectRating","subjectResponse","agentsNames","agent_1_Response","agent_2_Response","agent_3_Response","agent_4_Response","agent_5_Response","agent_6_Response","kept_1_name","kept_1_response","kept_2_name","kept_2_response","kept_3_name","kept_3_response","errorCounter"
"9784","external_page_harvard.html","external-html","0","9794","0.0-0.0","A1SMVF4MXT0RIH","","","","","","","","","","","","","","","","","","","","","","","","","","",""
"61964","","image-button-response","1","71760","0.0-1.0","A1SMVF4MXT0RIH","","0","","","","","","","","","","","","","","","","","","","","","","","","",""
"3744","","image-button-response","2","75512","0.0-2.0-0.0","A1SMVF4MXT0RIH","","1","phone","","","","","","","","","","","","","","","","","","","","","","","",""
"143217","","survey-text","3","218730","0.0-3.0-0.0","A1SMVF4MXT0RIH","","","","{""Q0"":""A1SMVF4MXT0RIH""}","","","","","","","","","","","","","","","","","","","","","","",""
"2067","","image-button-response_instructions","4","220800","0.0-4.0","A1SMVF4MXT0RIH","","0","instructions","","","","","","","","","","","","","","","","","","","","","","","",""
"4453","","image-button-response_instructions","5","225255","0.0-5.0","A1SMVF4MXT0RIH","img_art/ins/popularity/ins1.png","0","instructions","","","","","","","","","","","","","","","","","","","","","","","",""
"2365","","image-button-response_instructions","6","227622","0.0-6.0","A1SMVF4MXT0RIH","img_art/ins/popularity/ins2.png","0","instructions","","","","","","","","","","","","","","","","","","","","","","","",""
"4935","","image-button-response_instructions","7","232558","0.0-7.0","A1SMVF4MXT0RIH","img_art/ins/popularity/ins2Extreme.png","0","instructions","","","","","","","","","","","","","","","","","","","","","","","",""
"1968","","image-button-response_instructions","8","234529","0.0-8.0","A1SMVF4MXT0RIH","img_art/ins/popularity/ins3KEEPpop.PNG","0","instructions","","","","","","","","","","","","","","","","","","","","","","","",""
"7154","","image-button-response_instructions","9","241685","0.0-9.0","A1SMVF4MXT0RIH","img_art/ins/popularity/ins3ANamepop.PNG","0","instructions","","","","","","","","","","","","","","","","","","","","","","","",""
"3039","","image-button-response_instructions","10","244725","0.0-10.0","A1SMVF4MXT0RIH","img_art/ins/popularity/ins3ARatingpop.png","0","instructions","","","","","","","","","","","","","","","","","","","","","","","",""
"2047","","image-button-response_instructions","11","246774","0.0-11.0","A1SMVF4MXT0RIH","img_art/ins/popularity/ins3ATextpop.png","0","instructions","","","","","","","","","","","","","","","","","","","","","","","",""
"1864","","image-button-response_instructions","12","248640","0.0-12.0","A1SMVF4MXT0RIH","img_art/ins/popularity/ins3ALikespop.png","0","instructions","","","","","","","","","","","","","","","","","","","","","","","",""
"1740","","image-button-response_instructions","13","250382","0.0-13.0","A1SMVF4MXT0RIH","img_art/ins/popularity/ins3KEEPpop.PNG","0","instructions","","","","","","","","","","","","","","","","","","","","","","","",""
"1809","","image-button-response_instructions","14","252193","0.0-14.0","A1SMVF4MXT0RIH","img_art/ins/popularity/ins3_5RED.png","0","instructions","","","","","","","","","","","","","","","","","","","","","","","",""
"1612","","image-button-response_instructions","15","253806","0.0-15.0","A1SMVF4MXT0RIH","img_art/ins/popularity/ins3KEEPpop.PNG","0","instructions","","","","","","","","","","","","","","","","","","","","","","","",""
"1998","","image-button-response_instructions","16","255806","0.0-16.0","A1SMVF4MXT0RIH","img_art/ins/popularity/ins4KEEPpop.PNG","0","instructions","","","","","","","","","","","","","","","","","","","","","","","",""
"96192","","image-button-response_instructions","17","352000","0.0-17.0","A1SMVF4MXT0RIH","img_art/ins/popularity/ins5KEEPpop.PNG","0","instructions","","","","","","","","","","","","","","","","","","","","","","","",""
"1676","","image-button-response_instructions","18","353678","0.0-18.0","A1SMVF4MXT0RIH","","0","instructions","","","","","","","","","","","","","","","","","","","","","","","",""
"14666","","survey-text","19","368376","0.0-19.0-0.0","A1SMVF4MXT0RIH","","","","{""Q0"":""BUT""}","","","","","","","","","","","","","","","","","","","","","","",""
"4497","","survey-text","20","377399","0.0-19.1-0.1","A1SMVF4MXT0RIH","","","","{""Q0"":""but""}","","","","","","","","","","","","","","","","","","","","","","",""
"13582","","survey-text","21","390982","0.0-20.0-0.0","A1SMVF4MXT0RIH","","","","{""Q0"":""It looks amazing to watch.""}","","","","","","","","","","","","","","","","","","","","","","",""
"3973.5","","image-slider-response","22","394958","0.0-21.0","A1SMVF4MXT0RIH","","","","","17","","","","","","","","","","","","","","","","","","","","","",""
"3622","","image-button-response","23","399967","0.0-22.0","A1SMVF4MXT0RIH","img_art/ins/1.jpg","2","","","","","","","","","","","","","","","","","","","","","","","","",""
"6720","","image-button-response","24","406689","0.0-23.0","A1SMVF4MXT0RIH","img_art/ins/1.jpg","5","","","","","","","","","","","","","","","","","","","","","","","","",""
"3371","","image-button-response","25","410062","0.0-24.0-0.0","A1SMVF4MXT0RIH","img_art/ins/1.jpg","3","","","","","","","","","","","","","","","","","","","","","","","","",""
"1679","","image-button-response","26","411745","0.0-25.0-0.0","A1SMVF4MXT0RIH","img_art/ins/1.jpg","1","","","","","","","","","","","","","","","","","","","","","","","","",""
"null","","html-keyboard-response","27","412247","0.0-26.0","A1SMVF4MXT0RIH","<p style=""font-size: 48px;"">+</p>","","","","","null","allTrialResponses","500","1","-2","img_art/ins/1.jpg","17","It looks amazing to watch.","Adam,Alex,Ben,Carl,Daniel,Jack","Seems like doodles,-20,20,20","very creative work.,36,40,20","This color reminds me of poo,-46,60,20","very calming artwork,42,80,20","It looks like a murder scene.,-48,100,20","I like the sophisticated brushwork,40,120,20","Jack","I like the sophisticated brushwork,40,120,20","Carl","very calming artwork,42,80,20","Alex","very creative work.,36,40,20","1"
"104845","","survey-text","28","517097","0.0-27.0-0.0","A1SMVF4MXT0RIH","","","","{""Q0"":""It was awesome to watch.""}","","","","","","","","","","","","","","","","","","","","","","",""
"4644.899999856949","","image-slider-response","29","521744","0.0-28.0","A1SMVF4MXT0RIH","","","","","27","","","","","","","","","","","","","","","","","","","","","",""
"1947","","image-button-response","30","526750","0.0-29.0","A1SMVF4MXT0RIH","img_art/ins/2.jpg","4","","","","","","","","","","","","","","","","","","","","","","","","",""
"760","","image-button-response","31","527512","0.0-30.0","A1SMVF4MXT0RIH","img_art/ins/2.jpg","5","","","","","","","","","","","","","","","","","","","","","","","","",""
"6832","","image-button-response","32","534346","0.0-31.0-0.0","A1SMVF4MXT0RIH","img_art/ins/2.jpg","4","","","","","","","","","","","","","","","","","","","","","","","","",""
"1331","","image-button-response","33","535680","0.0-32.0-0.0","A1SMVF4MXT0RIH","img_art/ins/2.jpg","1","","","","","","","","","","","","","","","","","","","","","","","","",""
"null","","html-keyboard-response","34","536182","0.0-33.0","A1SMVF4MXT0RIH","<p style=""font-size: 48px;"">+</p>","","","","","null","allTrialResponses","500","1","-1","img_art/ins/2.jpg","27","It was awesome to watch.","James,Alex,Kyle,Carl,John,Jack","looks too angry,-50,140,20","I like the blocks of color arrangements,30,40,20","Idk, it is just annoying,-32,180,20","I can feel the artist's passion in it,45,80,20","love the texture of paint,48,160,20","I would never be able to compose a sophisticated pallete like this,48,120,20","Jack","I would never be able to compose a sophisticated pallete like this,48,120,20","John","love the texture of paint,48,160,20","Alex","I like the blocks of color arrangements,30,40,20","1"
"28838","","survey-text","35","565024","0.0-34.0-0.0","A1SMVF4MXT0RIH","","","","{""Q0"":""It was not good to look.""}","","","","","","","","","","","","","","","","","","","","","","",""
"18797.60000014305","","image-slider-response","36","583824","0.0-35.0","A1SMVF4MXT0RIH","","","","","-22","","","","","","","","","","","","","","","","","","","","","",""
"4925","","image-button-response","37","588833","0.0-36.0","A1SMVF4MXT0RIH","img_art/ins/3.jpg","2","","","","","","","","","","","","","","","","","","","","","","","","",""
"1845","","image-button-response","38","590680","0.0-37.0","A1SMVF4MXT0RIH","img_art/ins/3.jpg","2","","","","","","","","","","","","","","","","","","","","","","","","",""
"2199","","image-button-response","39","592880","0.0-38.0-0.0","A1SMVF4MXT0RIH","img_art/ins/3.jpg","1","","","","","","","","","","","","","","","","","","","","","","","","",""
"5597","","image-button-response","40","598480","0.0-39.0-0.0","A1SMVF4MXT0RIH","img_art/ins/3.jpg","5","","","","","","","","","","","","","","","","","","","","","","","","",""
"null","","html-keyboard-response","41","598983","0.0-40.0","A1SMVF4MXT0RIH","<p style=""font-size: 48px;"">+</p>","","","","","null","allTrialResponses","500","1","0","img_art/ins/3.jpg","-22","It was not good to look.","Sam,Alex,Ron,Mike,John,Jack","I can feel a rainy day from this painting,18,240,20","calming blue is very nice,36,40,20","It looks depressing,-26,220,20","enjoy the different shades of blue,22,200,20","I like the overlapping of brushes,41,160,20","I feel connected to the artist,40,120,20","Ron","It looks depressing,-26,220,20","Alex","calming blue is very nice,36,40,20","Jack","I feel connected to the artist,40,120,20","1"
"8085","","image-button-response_instructions","42","607072","0.0-41.0","A1SMVF4MXT0RIH","","0","instructions","","","","","","","","","","","","","","","","","","","","","","","",""
"23286","","survey-likert","43","630361","0.0-42.0-0.0","A1SMVF4MXT0RIH","","","","{""Q0"":"""",""Q1"":0,""Q2"":1}","","","","","","","","","","","","","","","","","","","","","","",""
"10053","","survey-text","44","640423","0.0-43.0-0.0","A1SMVF4MXT0RIH","","","","{""Q0"":""ROCK""}","","","","","","","","","","","","","","","","","","","","","","",""
"271546","","survey-text","45","913757","0.0-43.1-0.1","A1SMVF4MXT0RIH","","","","{""Q0"":""rock""}","","","","","","","","","","","","","","","","","","","","","","",""
"65520","","survey-text","46","979279","0.0-44.0-0.0","A1SMVF4MXT0RIH","","","","{""Q0"":""It looks amazing to watch. I love the way the art was designed.""}","","","","","","","","","","","","","","","","","","","","","","",""
"4429.5","","image-slider-response","47","983710","0.0-45.0","A1SMVF4MXT0RIH","","","","","18","","","","","","","","","","","","","","","","","","","","","",""
"3623","","image-button-response","48","988741","0.0-46.0","A1SMVF4MXT0RIH","img_art/25.jpg","1","","","","","","","","","","","","","","","","","","","","","","","","",""
"874","","image-button-response","49","989617","0.0-47.0","A1SMVF4MXT0RIH","img_art/25.jpg","1","","","","","","","","","","","","","","","","","","","","","","","","",""
"1381","","image-button-response","50","991000","0.0-48.0-0.0","A1SMVF4MXT0RIH","img_art/25.jpg","2","","","","","","","","","","","","","","","","","","","","","","","","",""
"1092","","image-button-response","51","992094","0.0-49.0-0.0","A1SMVF4MXT0RIH","img_art/25.jpg","5","","","","","","","","","","","","","","","","","","","","","","","","",""
"null","","html-keyboard-response","52","992609","0.0-50.0","A1SMVF4MXT0RIH","<p style=""font-size: 48px;"">+</p>","","","","","null","allTrialResponses","500","1","1","img_art/25.jpg","18","It looks amazing to watch. I love the way the art was designed.","Sean,Victor,William,Luke,Shane,Steven","my response to the picture its weird,-9,40,20","Love the colors, and how it's simple yet complex,25,340,20","makes me think of a scary movie,-20,380,20","the contrasting colors are very interesting,24,20,20","I love the green and the figure is black but the green makes it pop,29,80,20","It's fine, belongs in a church, or somewhere else mystical,15,160,20","Victor","Love the colors, and how it's simple yet complex,25,340,20","William","makes me think of a scary movie,-20,380,20","Steven","It's fine, belongs in a church, or somewhere else mystical,15,160,20","2"
"19459","","survey-text","53","1012072","0.0-51.0-0.0","A1SMVF4MXT0RIH","","","","{""Q0"":""It looks amazing to watch.""}","","","","","","","","","","","","","","","","","","","","","","",""
"3002.2999999523163","","image-slider-response","54","1015077","0.0-52.0","A1SMVF4MXT0RIH","","","","","19","","","","","","","","","","","","","","","","","","","","","",""
"1846","","image-button-response","55","1020082","0.0-53.0","A1SMVF4MXT0RIH","img_art/15.jpg","1","","","","","","","","","","","","","","","","","","","","","","","","",""
"8610","","image-button-response","56","1028694","0.0-54.0","A1SMVF4MXT0RIH","img_art/15.jpg","1","","","","","","","","","","","","","","","","","","","","","","","","",""
"996","","image-button-response","57","1029693","0.0-55.0-0.0","A1SMVF4MXT0RIH","img_art/15.jpg","2","","","","","","","","","","","","","","","","","","","","","","","","",""
"2165","","image-button-response","58","1031861","0.0-56.0-0.0","A1SMVF4MXT0RIH","img_art/15.jpg","3","","","","","","","","","","","","","","","","","","","","","","","","",""
"null","","html-keyboard-response","59","1033373","0.0-57.0","A1SMVF4MXT0RIH","<p style=""font-size: 48px;"">+</p>","","","","","null","allTrialResponses","1500","1","2","img_art/15.jpg","19","It looks amazing to watch.","Brian,Victor,William,Samuel,Christopher,Steven","This is simply too ""old-school"",-27,380,20","I like the random blue dabs to break up the black, but it looks unfinished.,4,340,20","makes me feel calm,40,380,20","Black reminds me of darkness,-18,400,20","this is really pretty! i like the pops of blue in all the black,26,160,20","I'm just not into it,-5,160,20","Victor","I like the random blue dabs to break up the black, but it looks unfinished.,4,340,20","William","makes me feel calm,40,380,20","Samuel","Black reminds me of darkness,-18,400,20","2"
"36219","","survey-text","60","1069597","0.0-58.0-0.0","A1SMVF4MXT0RIH","","","","{""Q0"":""It was not good to look. I hate this art.""}","","","","","","","","","","","","","","","","","","","","","","",""
"4030.2000000476837","","image-slider-response","61","1073629","0.0-59.0","A1SMVF4MXT0RIH","","","","","-39","","","","","","","","","","","","","","","","","","","","","",""
"3901","","image-button-response","62","1078632","0.0-60.0","A1SMVF4MXT0RIH","img_art/29.jpg","4","","","","","","","","","","","","","","","","","","","","","","","","",""
"804","","image-button-response","63","1079438","0.0-61.0","A1SMVF4MXT0RIH","img_art/29.jpg","5","","","","","","","","","","","","","","","","","","","","","","","","",""
"681","","image-button-response","64","1080121","0.0-62.0-0.0","A1SMVF4MXT0RIH","img_art/29.jpg","4","","","","","","","","","","","","","","","","","","","","","","","","",""
"5513","","image-button-response","65","1085637","0.0-63.0-0.0","A1SMVF4MXT0RIH","img_art/29.jpg","0","","","","","","","","","","","","","","","","","","","","","","","","",""
"null","","html-keyboard-response","66","1087139","0.0-64.0","A1SMVF4MXT0RIH","<p style=""font-size: 48px;"">+</p>","","","","","null","allTrialResponses","1500","1","3","img_art/29.jpg","-39","It was not good to look. I hate this art.","Gregory,Victor,William,Samuel,Edward,Alejandro","3D looks is really cool,30,220,20","I like the colors but it looks very amateur,1,340,20","makes me think of destruction,-20,380,20","too challenging to comprehend,-28,400,20","Like a crime scene. It's neat and different,30,60,20","Reminiscent of Jackson Pollock with a hint of abstract structure with the bordering.,32,80,20","Alejandro","Reminiscent of Jackson Pollock with a hint of abstract structure with the bordering.,32,80,20","Edward","Like a crime scene. It's neat and different,30,60,20","Gregory","3D looks is really cool,30,220,20","2"
"22892","","survey-text","67","1110037","0.0-65.0-0.0","A1SMVF4MXT0RIH","","","","{""Q0"":""It was really good to look and amazing to watch.""}","","","","","","","","","","","","","","","","","","","","","","",""
"3981","","image-slider-response","68","1114020","0.0-66.0","A1SMVF4MXT0RIH","","","","","29","","","","","","","","","","","","","","","","","","","","","",""
"4635","","image-button-response","69","1119039","0.0-67.0","A1SMVF4MXT0RIH","img_art/6.jpg","1","","","","","","","","","","","","","","","","","","","","","","","","",""
"1045","","image-button-response","70","1120087","0.0-68.0","A1SMVF4MXT0RIH","img_art/6.jpg","1","","","","","","","","","","","","","","","","","","","","","","","","",""
"763","","image-button-response","71","1120853","0.0-69.0-0.0","A1SMVF4MXT0RIH","img_art/6.jpg","2","","","","","","","","","","","","","","","","","","","","","","","","",""
"925","","image-button-response","72","1121780","0.0-70.0-0.0","A1SMVF4MXT0RIH","img_art/6.jpg","0","","","","","","","","","","","","","","","","","","","","","","","","",""
"null","","html-keyboard-response","73","1122283","0.0-71.0","A1SMVF4MXT0RIH","<p style=""font-size: 48px;"">+</p>","","","","","null","allTrialResponses","500","1","4","img_art/6.jpg","29","It was really good to look and amazing to watch.","Gregory,Jacob,John,Dustin,Edward,Alejandro","Tree growing in a desert. Gives me feelings of hope,5,220,20","Is this a leaf?,4,340,20","It makes me stop and think about what the artist is trying to say.It creates a feeling of solitude and tranqulity,30,120,20","I like the warmth of the orange. But, I feel like it's a partial view. I'm frustrated I can't see the entirety.,-20,20,20","It looks like a bird looking away,32,60,20","Gives me a feeling of solitude and nothingness,11,80,20","Jacob","Is this a leaf?,4,340,20","John","It makes me stop and think about what the artist is trying to say.It creates a feeling of solitude and tranqulity,30,120,20","Gregory","Tree growing in a desert. Gives me feelings of hope,5,220,20","2"
"23065","","survey-text","74","1145354","0.0-72.0-0.0","A1SMVF4MXT0RIH","","","","{""Q0"":""It was not good to look.""}","","","","","","","","","","","","","","","","","","","","","","",""
"4007.2999999523163","","image-slider-response","75","1149364","0.0-73.0","A1SMVF4MXT0RIH","","","","","-15","","","","","","","","","","","","","","","","","","","","","",""
"4574","","image-button-response","76","1154367","0.0-74.0","A1SMVF4MXT0RIH","img_art/5.jpg","4","","","","","","","","","","","","","","","","","","","","","","","","",""
"253","","image-button-response","77","1154621","0.0-75.0","A1SMVF4MXT0RIH","img_art/5.jpg","5","","","","","","","","","","","","","","","","","","","","","","","","",""
"1141","","image-button-response","78","1155765","0.0-76.0-0.0","A1SMVF4MXT0RIH","img_art/5.jpg","4","","","","","","","","","","","","","","","","","","","","","","","","",""
"2773","","image-button-response","79","1158541","0.0-77.0-0.0","A1SMVF4MXT0RIH","img_art/5.jpg","0","","","","","","","","","","","","","","","","","","","","","","","","",""
"null","","html-keyboard-response","80","1159545","0.0-78.0","A1SMVF4MXT0RIH","<p style=""font-size: 48px;"">+</p>","","","","","null","allTrialResponses","1000","1","5","img_art/5.jpg","-15","It was not good to look.","Gregory,Jacob,John,Hunter,Gabriel,Tristan","Don't really see it and yellow/pink don't go well together,-35,220,20","Don't really know the point of this one.,-11,340,20","It has a sense of vague familiarity that i like.Like a stick starting a fire at a campsite.,30,120,20","strong appeal in contrast,27,240,20","too abstract, looks like a pyramid,-22,160,20","Nearly white background gives a lack of context. Questionable skills,-45,300,20","Tristan","Nearly white background gives a lack of context. Questionable skills,-45,300,20","Gabriel","too abstract, looks like a pyramid,-22,160,20","Gregory","Don't really see it and yellow/pink don't go well together,-35,220,20","2"
"4734","","survey-text","81","1164292","0.0-79.0-0.0","A1SMVF4MXT0RIH","","","","{""Q0"":""sky""}","","","","","","","","","","","","","","","","","","","","","","",""
"204741","","survey-text","82","1369036","0.0-80.0-0.0","A1SMVF4MXT0RIH","","","","{""Q0"":""It was good to look and awesome art by the artist.""}","","","","","","","","","","","","","","","","","","","","","","",""
"4150.700000047684","","image-slider-response","83","1373189","0.0-81.0","A1SMVF4MXT0RIH","","","","","33","","","","","","","","","","","","","","","","","","","","","",""
"null","","image-button-response","84","1378202","0.0-82.0","A1SMVF4MXT0RIH","img_art/19.jpg","null","","","","","","","","","","","","","","","","","","","","","","","","",""
"6344","","image-button-response","85","1384549","0.0-83.0","A1SMVF4MXT0RIH","img_art/19.jpg","5","","","","","","","","","","","","","","","","","","","","","","","","",""
"1524","","image-button-response","86","1386076","0.0-84.0-0.0","A1SMVF4MXT0RIH","img_art/19.jpg","2","","","","","","","","","","","","","","","","","","","","","","","","",""
"1197","","image-button-response","87","1387276","0.0-85.0-0.0","A1SMVF4MXT0RIH","img_art/19.jpg","1","","","","","","","","","","","","","","","","","","","","","","","","",""
"null","","html-keyboard-response","88","1388779","0.0-86.0","A1SMVF4MXT0RIH","<p style=""font-size: 48px;"">+</p>","","","","","null","allTrialResponses","1500","1","6","img_art/19.jpg","33","It was good to look and awesome art by the artist.","Gregory,Kyle,Andrew,Jorge,Gabriel,Tristan","Looks like a busy port,10,220,20","Just stirred a negative reaction. Don't really like it perhaps because of the structure?,-8,340,20","It reminds me of sitting at a cafe on the side of a river.,45,160,20","confused and emotional,-4,180,20","not sure if i like it or not,1,160,20","Though provoking. Adventurous.,10,300,20","Tristan","Though provoking. Adventurous.,10,300,20","Andrew","It reminds me of sitting at a cafe on the side of a river.,45,160,20","Kyle","Just stirred a negative reaction. Don't really like it perhaps because of the structure?,-8,340,20","2"
"35525","","survey-text","89","1424309","0.0-87.0-0.0","A1SMVF4MXT0RIH","","","","{""Q0"":""It was really good to look. I love to see an art like this.""}","","","","","","","","","","","","","","","","","","","","","","",""
"2777.5","","image-slider-response","90","1427088","0.0-88.0","A1SMVF4MXT0RIH","","","","","22","","","","","","","","","","","","","","","","","","","","","",""
"null","","image-button-response","91","1432094","0.0-89.0","A1SMVF4MXT0RIH","img_art/27.jpg","null","","","","","","","","","","","","","","","","","","","","","","","","",""
"31084","","image-button-response","92","1463181","0.0-90.0","A1SMVF4MXT0RIH","img_art/27.jpg","5","","","","","","","","","","","","","","","","","","","","","","","","",""
"3101","","image-button-response","93","1466285","0.0-91.0-0.0","A1SMVF4MXT0RIH","img_art/27.jpg","0","","","","","","","","","","","","","","","","","","","","","","","","",""
"1006","","image-button-response","94","1467294","0.0-92.0-0.0","A1SMVF4MXT0RIH","img_art/27.jpg","4","","","","","","","","","","","","","","","","","","","","","","","","",""
"null","","html-keyboard-response","95","1468795","0.0-93.0","A1SMVF4MXT0RIH","<p style=""font-size: 48px;"">+</p>","","","","","null","allTrialResponses","1500","1","7","img_art/27.jpg","22","It was really good to look. I love to see an art like this.","Alexis,Kyle,Andrew,Colton,Cameron,Tristan","I like hoe it looks like a fall day in a city,45,140,20","I have no strong reactions to this,-1,340,20","Reminds me of a town on fire,-15,160,20","looks like a little kid did it,-30,220,20","Like it, autumn colors, trees and foliage scene.,25,60,20","The colors provide a complexity to the nearly child-like sketches.,5,300,20","Tristan","The colors provide a complexity to the nearly child-like sketches.,5,300,20","Alexis","I like hoe it looks like a fall day in a city,45,140,20","Cameron","Like it, autumn colors, trees and foliage scene.,25,60,20","2"
"16870","","survey-text","96","1485670","0.0-94.0-0.0","A1SMVF4MXT0RIH","","","","{""Q0"":""It was the best I had ever seen in my life.""}","","","","","","","","","","","","","","","","","","","","","","",""
"2358.7000000476837","","image-slider-response","97","1488030","0.0-95.0","A1SMVF4MXT0RIH","","","","","24","","","","","","","","","","","","","","","","","","","","","",""
"4397","","image-button-response","98","1493035","0.0-96.0","A1SMVF4MXT0RIH","img_art/18.jpg","5","","","","","","","","","","","","","","","","","","","","","","","","",""
"522","","image-button-response","99","1493560","0.0-97.0","A1SMVF4MXT0RIH","img_art/18.jpg","5","","","","","","","","","","","","","","","","","","","","","","","","",""
"1771","","image-button-response","100","1495334","0.0-98.0-0.0","A1SMVF4MXT0RIH","img_art/18.jpg","2","","","","","","","","","","","","","","","","","","","","","","","","",""
"3285","","image-button-response","101","1498622","0.0-99.0-0.0","A1SMVF4MXT0RIH","img_art/18.jpg","0","","","","","","","","","","","","","","","","","","","","","","","","",""
"null","","html-keyboard-response","102","1500137","0.0-100.0","A1SMVF4MXT0RIH","<p style=""font-size: 48px;"">+</p>","","","","","null","allTrialResponses","1500","1","8","img_art/18.jpg","24","It was the best I had ever seen in my life.","Alexis,Jeffrey,Cole,Jesus,Cameron,Tristan","It's possibly of a mermaid luring in a ship,15,140,20","Makes me to look at it and investigate what it is about and what is going on,17,40,20","Two people fighting with one watching,17,200,20","The shapes are very fun to interpret,30,100,20","Don't like the color scheme. Or the theme.,-5,60,20","So much going on. Frightening and tumultous, brave and inspiring. I'd like to spend the rest of my life interpreting it.,30,300,20","Tristan","So much going on. Frightening and tumultous, brave and inspiring. I'd like to spend the rest of my life interpreting it.,30,300,20","Cole","Two people fighting with one watching,17,200,20","Alexis","It's possibly of a mermaid luring in a ship,15,140,20","2"
"23191","","survey-text","103","1523333","0.0-101.0-0.0","A1SMVF4MXT0RIH","","","","{""Q0"":""I don't like this art. It was not interesting to look.""}","","","","","","","","","","","","","","","","","","","","","","",""
"3446.899999856949","","image-slider-response","104","1526782","0.0-102.0","A1SMVF4MXT0RIH","","","","","-28","","","","","","","","","","","","","","","","","","","","","",""
"4540","","image-button-response","105","1531785","0.0-103.0","A1SMVF4MXT0RIH","img_art/20.jpg","0","","","","","","","","","","","","","","","","","","","","","","","","",""
"658","","image-button-response","106","1532445","0.0-104.0","A1SMVF4MXT0RIH","img_art/20.jpg","0","","","","","","","","","","","","","","","","","","","","","","","","",""
"4919","","image-button-response","107","1537366","0.0-105.0-0.0","A1SMVF4MXT0RIH","img_art/20.jpg","5","","","","","","","","","","","","","","","","","","","","","","","","",""
"1900","","image-button-response","108","1539269","0.0-106.0-0.0","A1SMVF4MXT0RIH","img_art/20.jpg","3","","","","","","","","","","","","","","","","","","","","","","","","",""
"null","","html-keyboard-response","109","1540270","0.0-107.0","A1SMVF4MXT0RIH","<p style=""font-size: 48px;"">+</p>","","","","","null","allTrialResponses","1000","1","9","img_art/20.jpg","-28","I don't like this art. It was not interesting to look.","Alexis,Evan,Cole,Scott,Ian,Tristan","it is a bit disturbing, like a monster or ghost floating away from a bleak building,-8,140,20","I feel intrigued and impressed,34,140,20","Someone trying to be dali,-15,200,20","feels distorted and uncomfortable,-41,20,20","A painting within a painting, the inner painting looks like a car crash with a semi truck.,21,260,20","Elements that are more defined are incongruous to the soft and melting nature of this painting,5,300,20","Alexis","it is a bit disturbing, like a monster or ghost floating away from a bleak building,-8,140,20","Tristan","Elements that are more defined are incongruous to the soft and melting nature of this painting,5,300,20","Scott","feels distorted and uncomfortable,-41,20,20","2"
"27251","","survey-text","110","1567526","0.0-108.0-0.0","A1SMVF4MXT0RIH","","","","{""Q0"":""It was really good to look. I love the design.""}","","","","","","","","","","","","","","","","","","","","","","",""
"2566.5999999046326","","image-slider-response","111","1570095","0.0-109.0","A1SMVF4MXT0RIH","","","","","23","","","","","","","","","","","","","","","","","","","","","",""
"1933","","image-button-response","112","1575098","0.0-110.0","A1SMVF4MXT0RIH","img_art/9.jpg","0","","","","","","","","","","","","","","","","","","","","","","","","",""
"416","","image-button-response","113","1575517","0.0-111.0","A1SMVF4MXT0RIH","img_art/9.jpg","0","","","","","","","","","","","","","","","","","","","","","","","","",""
"1412","","image-button-response","114","1576931","0.0-112.0-0.0","A1SMVF4MXT0RIH","img_art/9.jpg","1","","","","","","","","","","","","","","","","","","","","","","","","",""
"2705","","image-button-response","115","1579638","0.0-113.0-0.0","A1SMVF4MXT0RIH","img_art/9.jpg","5","","","","","","","","","","","","","","","","","","","","","","","","",""
"null","","html-keyboard-response","116","1580142","0.0-114.0","A1SMVF4MXT0RIH","<p style=""font-size: 48px;"">+</p>","","","","","null","allTrialResponses","500","1","10","img_art/9.jpg","23","It was really good to look. I love the design.","Alexis,Connor,Benjamin,Scott,Patrick,Tristan","This photo make me feel peaceful. It looks like a woman sleeping in a garden,42,140,20","Framing is overwhelming,-35,240,20","looks like sleeping beauty in a garden,10,260,20","looks like someone resting,12,20,20","Spiral patterns are not my thing,-30,280,20","The busyness and harsh nature of the lines in this painting  mute my emotional response.,-10,300,20","Alexis","This photo make me feel peaceful. It looks like a woman sleeping in a garden,42,140,20","Connor","Framing is overwhelming,-35,240,20","Tristan","The busyness and harsh nature of the lines in this painting  mute my emotional response.,-10,300,20","2"
"11887","","survey-text","117","1592038","0.0-115.0-0.0","A1SMVF4MXT0RIH","","","","{""Q0"":""ouR""}","","","","","","","","","","","","","","","","","","","","","","",""
"4242","","survey-text","118","1597854","0.0-115.1-0.1","A1SMVF4MXT0RIH","","","","{""Q0"":""our""}","","","","","","","","","","","","","","","","","","","","","","",""
"11342","","survey-text","119","1609198","0.0-116.0-0.0","A1SMVF4MXT0RIH","","","","{""Q0"":""It was not good to look.""}","","","","","","","","","","","","","","","","","","","","","","",""
"1872.4000000953674","","image-slider-response","120","1611072","0.0-117.0","A1SMVF4MXT0RIH","","","","","-21","","","","","","","","","","","","","","","","","","","","","",""
"2282","","image-button-response","121","1617004","0.0-118.0","A1SMVF4MXT0RIH","img_art/7.jpg","1","","","","","","","","","","","","","","","","","","","","","","","","",""
"7078","","image-button-response","122","1624085","0.0-119.0","A1SMVF4MXT0RIH","img_art/7.jpg","3","","","","","","","","","","","","","","","","","","","","","","","","",""
"1126","","image-button-response","123","1625213","0.0-120.0-0.0","A1SMVF4MXT0RIH","img_art/7.jpg","0","","","","","","","","","","","","","","","","","","","","","","","","",""
"1446","","image-button-response","124","1626662","0.0-121.0-0.0","A1SMVF4MXT0RIH","img_art/7.jpg","0","","","","","","","","","","","","","","","","","","","","","","","","",""
"4700","","image-button-response","125","1634861","0.0-121.1-0.1","A1SMVF4MXT0RIH","img_art/7.jpg","1","","","","","","","","","","","","","","","","","","","","","","","","",""
"null","","html-keyboard-response","126","1635865","0.0-122.0","A1SMVF4MXT0RIH","<p style=""font-size: 48px;"">+</p>","","","","","null","allTrialResponses","1000","1","11","img_art/7.jpg","-21","It was not good to look.","Alexis,Connor,Dylan,Nathan,Christian,Tristan","it looks like an ant farm,12,140,20","Color is bland and looks damaged,-37,240,20","I do not like the boring colors in this.,-20,40,20","I don't like this kind of color scheme or look they went for,-50,200,20","would love to take a closer look at the texture,15,140,20","Limited emotional reaction for me. No focus and highly abstract,-20,300,20","Nathan","I don't like this kind of color scheme or look they went for,-50,200,20","Alexis","it looks like an ant farm,12,140,20","Connor","Color is bland and looks damaged,-37,240,20","5"
"13470","","survey-text","127","1649341","0.0-123.0-0.0","A1SMVF4MXT0RIH","","","","{""Q0"":""It was good to look. I love the art.""}","","","","","","","","","","","","","","","","","","","","","","",""
"3109.300000190735","","image-slider-response","128","1652452","0.0-124.0","A1SMVF4MXT0RIH","","","","","46","","","","","","","","","","","","","","","","","","","","","",""
"3678","","image-button-response","129","1657455","0.0-125.0","A1SMVF4MXT0RIH","img_art/24.jpg","0","","","","","","","","","","","","","","","","","","","","","","","","",""
"308","","image-button-response","130","1657765","0.0-126.0","A1SMVF4MXT0RIH","img_art/24.jpg","0","","","","","","","","","","","","","","","","","","","","","","","","",""
"1271","","image-button-response","131","1659038","0.0-127.0-0.0","A1SMVF4MXT0RIH","img_art/24.jpg","3","","","","","","","","","","","","","","","","","","","","","","","","",""
"1269","","image-button-response","132","1660311","0.0-128.0-0.0","A1SMVF4MXT0RIH","img_art/24.jpg","5","","","","","","","","","","","","","","","","","","","","","","","","",""
"null","","html-keyboard-response","133","1661815","0.0-129.0","A1SMVF4MXT0RIH","<p style=""font-size: 48px;"">+</p>","","","","","null","allTrialResponses","1500","1","12","img_art/24.jpg","46","It was good to look. I love the art.","Alexis,Connor,Kevin,Nathan,Alexander,Lucas","I love how bold and vibrant the colors are,40,140,20","Too literal, not abstract,-29,240,20","What a nice refreshing waterfall.,39,320,20","Looks like a mystical type of forest/waterfall. Love it,40,200,20","Water through the fruit.,15,120,20","Extraordinary and unusual.,30,380,20","Alexis","I love how bold and vibrant the colors are,40,140,20","Nathan","Looks like a mystical type of forest/waterfall. Love it,40,200,20","Lucas","Extraordinary and unusual.,30,380,20","5"
"32696","","survey-text","134","1694516","0.0-130.0-0.0","A1SMVF4MXT0RIH","","","","{""Q0"":""I was really lucky to see an art like this.""}","","","","","","","","","","","","","","","","","","","","","","",""
"3017.2999999523163","","image-slider-response","135","1697535","0.0-131.0","A1SMVF4MXT0RIH","","","","","30","","","","","","","","","","","","","","","","","","","","","",""
"4801","","image-button-response","136","1702539","0.0-132.0","A1SMVF4MXT0RIH","img_art/28.jpg","3","","","","","","","","","","","","","","","","","","","","","","","","",""
"878","","image-button-response","137","1703420","0.0-133.0","A1SMVF4MXT0RIH","img_art/28.jpg","3","","","","","","","","","","","","","","","","","","","","","","","","",""
"1903","","image-button-response","138","1705324","0.0-134.0-0.0","A1SMVF4MXT0RIH","img_art/28.jpg","0","","","","","","","","","","","","","","","","","","","","","","","","",""
"3031","","image-button-response","139","1708357","0.0-135.0-0.0","A1SMVF4MXT0RIH","img_art/28.jpg","0","","","","","","","","","","","","","","","","","","","","","","","","",""
"704","","image-button-response","140","1713501","0.0-135.1-0.1","A1SMVF4MXT0RIH","img_art/28.jpg","4","","","","","","","","","","","","","","","","","","","","","","","","",""
"null","","html-keyboard-response","141","1714504","0.0-136.0","A1SMVF4MXT0RIH","<p style=""font-size: 48px;"">+</p>","","","","","null","allTrialResponses","1000","1","13","img_art/28.jpg","30","I was really lucky to see an art like this.","Alexis,Paul,Chase,Nathan,James,Lucas","The brown and green colors used look dull and unappealing,-30,140,20","The dark colors make it look dirty and the shapes make me uncomfortable,-50,300,20","I don't like the washed out colors.,-15,120,20","I enjoy the color themes, they seem gloomy and mysterious, and content in their own way, which I love.,20,200,20","My grandparents would like this, maybe my great grandparents. It's not my style.,-30,380,20","This painting is mysterious, it makes me curious.,5,380,20","Nathan","I enjoy the color themes, they seem gloomy and mysterious, and content in their own way, which I love.,20,200,20","Alexis","The brown and green colors used look dull and unappealing,-30,140,20","James","My grandparents would like this, maybe my great grandparents. It's not my style.,-30,380,20","7"
"14055","","survey-text","142","1728564","0.0-137.0-0.0","A1SMVF4MXT0RIH","","","","{""Q0"":""It was not really good to look.""}","","","","","","","","","","","","","","","","","","","","","","",""
"3046","","image-slider-response","143","1731612","0.0-138.0","A1SMVF4MXT0RIH","","","","","26","","","","","","","","","","","","","","","","","","","","","",""
"4648","","image-button-response","144","1736615","0.0-139.0","A1SMVF4MXT0RIH","img_art/13.jpg","5","","","","","","","","","","","","","","","","","","","","","","","","",""
"1092","","image-button-response","145","1737709","0.0-140.0","A1SMVF4MXT0RIH","img_art/13.jpg","4","","","","","","","","","","","","","","","","","","","","","","","","",""
"412","","image-button-response","146","1738123","0.0-141.0-0.0","A1SMVF4MXT0RIH","img_art/13.jpg","5","","","","","","","","","","","","","","","","","","","","","","","","",""
"2222","","image-button-response","147","1740348","0.0-142.0-0.0","A1SMVF4MXT0RIH","img_art/13.jpg","3","","","","","","","","","","","","","","","","","","","","","","","","",""
"null","","html-keyboard-response","148","1741351","0.0-143.0","A1SMVF4MXT0RIH","<p style=""font-size: 48px;"">+</p>","","","","","null","allTrialResponses","1000","1","14","img_art/13.jpg","26","It was not really good to look.","Alexis,Ethan,Jeremy,Nathan,James,Jordan","It looks too common, is a bit boring,-41,140,20","I do not care for the colors in this art. it doesnt go well at all.,-15,120,20","Pleased. I like to combination of colors,17,60,20","While it is a bit basic and doesn't speak to me much, I like the feeling it gives,40,200,20","This is a very cool painting, something an art teacher or professor would own.,22,380,20","This is easy to look at,46,160,20","James","This is a very cool painting, something an art teacher or professor would own.,22,380,20","Jordan","This is easy to look at,46,160,20","Nathan","While it is a bit basic and doesn't speak to me much, I like the feeling it gives,40,200,20","7"
"15313","","survey-text","149","1756668","0.0-144.0-0.0","A1SMVF4MXT0RIH","","","","{""Q0"":""I love to see this art.""}","","","","","","","","","","","","","","","","","","","","","","",""
"2013.8999998569489","","image-slider-response","150","1758684","0.0-145.0","A1SMVF4MXT0RIH","","","","","32","","","","","","","","","","","","","","","","","","","","","",""
"4439","","image-button-response","151","1763687","0.0-146.0","A1SMVF4MXT0RIH","img_art/1.jpg","4","","","","","","","","","","","","","","","","","","","","","","","","",""
"1083","","image-button-response","152","1764772","0.0-147.0","A1SMVF4MXT0RIH","img_art/1.jpg","4","","","","","","","","","","","","","","","","","","","","","","","","",""
"294","","image-button-response","153","1765068","0.0-148.0-0.0","A1SMVF4MXT0RIH","img_art/1.jpg","5","","","","","","","","","","","","","","","","","","","","","","","","",""
"1040","","image-button-response","154","1766109","0.0-149.0-0.0","A1SMVF4MXT0RIH","img_art/1.jpg","0","","","","","","","","","","","","","","","","","","","","","","","","",""
"null","","html-keyboard-response","155","1767112","0.0-150.0","A1SMVF4MXT0RIH","<p style=""font-size: 48px;"">+</p>","","","","","null","allTrialResponses","1000","1","15","img_art/1.jpg","32","I love to see this art.","Devin,Cody,Joseph,Nathan,James,Jordan","Quite messy looking,-22,380,20","Pretty, nice use of color,40,180,20","Happy! Reminds me of hiking in tennesee.,18,220,20","Not a fan of the mood, overly party-ish and bright colors do not suit my taste,-40,200,20","It's very colorful, and I like it,11,380,20","I like the warmth of the picture,21,160,20","James","It's very colorful, and I like it,11,380,20","Jordan","I like the warmth of the picture,21,160,20","Devin","Quite messy looking,-22,380,20","7"
"20643","","survey-text","156","1787763","0.0-151.0-0.0","A1SMVF4MXT0RIH","","","","{""Q0"":""course""}","","","","","","","","","","","","","","","","","","","","","","",""
"17323","","survey-text","157","1805089","0.0-152.0-0.0","A1SMVF4MXT0RIH","","","","{""Q0"":""It was really good to look. I love the design.""}","","","","","","","","","","","","","","","","","","","","","","",""
"3424.600000143051","","image-slider-response","158","1808516","0.0-153.0","A1SMVF4MXT0RIH","","","","","42","","","","","","","","","","","","","","","","","","","","","",""
"2254","","image-button-response","159","1813534","0.0-154.0","A1SMVF4MXT0RIH","img_art/11.jpg","4","","","","","","","","","","","","","","","","","","","","","","","","",""
"43595","","image-button-response","160","1857132","0.0-155.0","A1SMVF4MXT0RIH","img_art/11.jpg","4","","","","","","","","","","","","","","","","","","","","","","","","",""
"849","","image-button-response","161","1857983","0.0-156.0-0.0","A1SMVF4MXT0RIH","img_art/11.jpg","3","","","","","","","","","","","","","","","","","","","","","","","","",""
"1394","","image-button-response","162","1859381","0.0-157.0-0.0","A1SMVF4MXT0RIH","img_art/11.jpg","5","","","","","","","","","","","","","","","","","","","","","","","","",""
"null","","html-keyboard-response","163","1859883","0.0-158.0","A1SMVF4MXT0RIH","<p style=""font-size: 48px;"">+</p>","","","","","null","allTrialResponses","500","1","16","img_art/11.jpg","42","It was really good to look. I love the design.","Devin,Matthew,Eric,Carlos,James,Jordan","I like the vibe of the painting,-3,380,20","Dark but bright, city but ocean, musical scales.,50,120,20","I don't like the gloomy color, but it reminds me of a city which I like.,35,100,20","The colors are lovely. February getting ready to yield to March.,41,80,20","I like dark colors.,31,380,20","Rainy highways in RI,20,160,20","James","I like dark colors.,31,380,20","Carlos","The colors are lovely. February getting ready to yield to March.,41,80,20","Jordan","Rainy highways in RI,20,160,20","7"
"18076","","survey-text","164","1877965","0.0-159.0-0.0","A1SMVF4MXT0RIH","","","","{""Q0"":""I love the design. It was really good.""}","","","","","","","","","","","","","","","","","","","","","","",""
"3308.0999999046326","","image-slider-response","165","1881275","0.0-160.0","A1SMVF4MXT0RIH","","","","","32","","","","","","","","","","","","","","","","","","","","","",""
"4246","","image-button-response","166","1886278","0.0-161.0","A1SMVF4MXT0RIH","img_art/30.jpg","4","","","","","","","","","","","","","","","","","","","","","","","","",""
"448","","image-button-response","167","1886728","0.0-162.0","A1SMVF4MXT0RIH","img_art/30.jpg","1","","","","","","","","","","","","","","","","","","","","","","","","",""
"170","","image-button-response","168","1886900","0.0-163.0-0.0","A1SMVF4MXT0RIH","img_art/30.jpg","1","","","","","","","","","","","","","","","","","","","","","","","","",""
"537","","image-button-response","169","1890542","0.0-163.1-0.1","A1SMVF4MXT0RIH","img_art/30.jpg","4","","","","","","","","","","","","","","","","","","","","","","","","",""
"424","","image-button-response","170","1890968","0.0-164.0-0.0","A1SMVF4MXT0RIH","img_art/30.jpg","5","","","","","","","","","","","","","","","","","","","","","","","","",""
"null","","html-keyboard-response","171","1891470","0.0-165.0","A1SMVF4MXT0RIH","<p style=""font-size: 48px;"">+</p>","","","","","null","allTrialResponses","500","1","17","img_art/30.jpg","32","I love the design. It was really good.","Nicholas,Michael,Zachary,Carlos,James,Jordan","Too much like childrens finger paint. I dont like the smear of blended colors,-50,240,20","It looks like a child did it. There is nothing talented or special about it.,-16,140,20","I like this one because I am a mom and it reminds me of a child finger-painting.,20,400,20","It just feels hasty and not well composed. Has an angsty teen feel,-31,80,20","I like the fact that it's a painting.,21,380,20","Combination of colors arent good,-6,160,20","Michael","It looks like a child did it. There is nothing talented or special about it.,-16,140,20","James","I like the fact that it's a painting.,21,380,20","Jordan","Combination of colors arent good,-6,160,20","9"
"232423","","survey-text","172","2123898","0.0-166.0-0.0","A1SMVF4MXT0RIH","","","","{""Q0"":""I love the painting. It was really good to see.""}","","","","","","","","","","","","","","","","","","","","","","",""
"2190.9000000953674","","image-slider-response","173","2126092","0.0-167.0","A1SMVF4MXT0RIH","","","","","24","","","","","","","","","","","","","","","","","","","","","",""
"1636","","image-button-response","174","2131097","0.0-168.0","A1SMVF4MXT0RIH","img_art/14.jpg","5","","","","","","","","","","","","","","","","","","","","","","","","",""
"96727","","image-button-response","175","2227827","0.0-169.0","A1SMVF4MXT0RIH","img_art/14.jpg","4","","","","","","","","","","","","","","","","","","","","","","","","",""
"489","","image-button-response","176","2228318","0.0-170.0-0.0","A1SMVF4MXT0RIH","img_art/14.jpg","3","","","","","","","","","","","","","","","","","","","","","","","","",""
"763","","image-button-response","177","2229085","0.0-171.0-0.0","A1SMVF4MXT0RIH","img_art/14.jpg","5","","","","","","","","","","","","","","","","","","","","","","","","",""
"null","","html-keyboard-response","178","2230087","0.0-172.0","A1SMVF4MXT0RIH","<p style=""font-size: 48px;"">+</p>","","","","","null","allTrialResponses","1000","1","18","img_art/14.jpg","24","I love the painting. It was really good to see.","Jack,Michael,David,Marcus,James,Jordan","love the colors. despite their brightness it seems sad somehow.,41,320,20","Looks like there is some skill but also at the same time parts look unskilled.,-16,140,20","I like how balanced the piece is with its symmetrical design.,20,340,20","I like the colors and the shapes are interesting,11,60,20","It uses interesting techniques on this picture, but I have no feelings for or against.,1,380,20","Reminds me of art class,22,160,20","James","It uses interesting techniques on this picture, but I have no feelings for or against.,1,380,20","Marcus","I like the colors and the shapes are interesting,11,60,20","Jordan","Reminds me of art class,22,160,20","9"
"115713","","survey-text","179","2345809","0.0-173.0-0.0","A1SMVF4MXT0RIH","","","","{""Q0"":""It was really good to look.""}","","","","","","","","","","","","","","","","","","","","","","",""
"2869.5999999046326","","image-slider-response","180","2348681","0.0-174.0","A1SMVF4MXT0RIH","","","","","23","","","","","","","","","","","","","","","","","","","","","",""
"1960","","image-button-response","181","2353684","0.0-175.0","A1SMVF4MXT0RIH","img_art/4.jpg","5","","","","","","","","","","","","","","","","","","","","","","","","",""
"133651","","image-button-response","182","2487336","0.0-176.0","A1SMVF4MXT0RIH","img_art/4.jpg","4","","","","","","","","","","","","","","","","","","","","","","","","",""
"624","","image-button-response","183","2487963","0.0-177.0-0.0","A1SMVF4MXT0RIH","img_art/4.jpg","3","","","","","","","","","","","","","","","","","","","","","","","","",""
"612","","image-button-response","184","2488578","0.0-178.0-0.0","A1SMVF4MXT0RIH","img_art/4.jpg","5","","","","","","","","","","","","","","","","","","","","","","","","",""
"null","","html-keyboard-response","185","2489580","0.0-179.0","A1SMVF4MXT0RIH","<p style=""font-size: 48px;"">+</p>","","","","","null","allTrialResponses","1000","1","19","img_art/4.jpg","23","It was really good to look.","Alex,Miguel,Jake,Marcus,James,Jordan","Looks like more paint smearing but at least there is structure,-5,100,20","I don't like murky colors.,-40,160,20","This is ugly in color and in terms of the shape on it.,-32,360,20","Really like the colors, but don't like the object/squiggle in darker gold and black,4,60,20","Really don't care for the yellowish brown color in the center.,-19,380,20","A hand reaching for something it cannot obtain,-9,160,20","James","Really don't care for the yellowish brown color in the center.,-19,380,20","Marcus","Really like the colors, but don't like the object/squiggle in darker gold and black,4,60,20","Jordan","A hand reaching for something it cannot obtain,-9,160,20","9"
"5918","","survey-text","186","2495504","0.0-180.0-0.0","A1SMVF4MXT0RIH","","","","{""Q0"":""It was not good to look.""}","","","","","","","","","","","","","","","","","","","","","","",""
"3582.5999999046326","","image-slider-response","187","2499089","0.0-181.0","A1SMVF4MXT0RIH","","","","","-25","","","","","","","","","","","","","","","","","","","","","",""
"4911","","image-button-response","188","2504091","0.0-182.0","A1SMVF4MXT0RIH","img_art/3.jpg","4","","","","","","","","","","","","","","","","","","","","","","","","",""
"276","","image-button-response","189","2504369","0.0-183.0","A1SMVF4MXT0RIH","img_art/3.jpg","4","","","","","","","","","","","","","","","","","","","","","","","","",""
"174","","image-button-response","190","2504546","0.0-184.0-0.0","A1SMVF4MXT0RIH","img_art/3.jpg","4","","","","","","","","","","","","","","","","","","","","","","","","",""
"371","","image-button-response","191","2509058","0.0-184.1-0.1","A1SMVF4MXT0RIH","img_art/3.jpg","3","","","","","","","","","","","","","","","","","","","","","","","","",""
"669","","image-button-response","192","2509730","0.0-185.0-0.0","A1SMVF4MXT0RIH","img_art/3.jpg","1","","","","","","","","","","","","","","","","","","","","","","","","",""
"null","","html-keyboard-response","193","2510733","0.0-186.0","A1SMVF4MXT0RIH","<p style=""font-size: 48px;"">+</p>","","","","","null","allTrialResponses","1000","1","20","img_art/3.jpg","-25","It was not good to look.","Mason,Justin,Brandon,Marcus,James,Jordan","scribbles in red. 2 minute piece.,-30,100,20","I don't care for art that looks like it was just scribbled.,-19,280,20","Just scribbles. Not a fan.,-40,320,20","Like the colors and energy of this work.,10,60,20","It's very plain,-20,380,20","Reminded me of blood or something bad,-21,160,20","James","It's very plain,-20,380,20","Marcus","Like the colors and energy of this work.,10,60,20","Justin","I don't care for art that looks like it was just scribbled.,-19,280,20","11"
"3482","","survey-text","194","2514225","0.0-187.0-0.0","A1SMVF4MXT0RIH","","","","{""Q0"":""we""}","","","","","","","","","","","","","","","","","","","","","","",""
"22234","","survey-text","195","2536460","0.0-188.0-0.0","A1SMVF4MXT0RIH","","","","{""Q0"":""It was just amazing to look.""}","","","","","","","","","","","","","","","","","","","","","","",""
"3037.399999856949","","image-slider-response","196","2539499","0.0-189.0","A1SMVF4MXT0RIH","","","","","30","","","","","","","","","","","","","","","","","","","","","",""
"1621","","image-button-response","197","2544503","0.0-190.0","A1SMVF4MXT0RIH","img_art/23.jpg","5","","","","","","","","","","","","","","","","","","","","","","","","",""
"295975","","image-button-response","198","2840479","0.0-191.0","A1SMVF4MXT0RIH","img_art/23.jpg","1","","","","","","","","","","","","","","","","","","","","","","","","",""
"744","","image-button-response","199","2841226","0.0-192.0-0.0","A1SMVF4MXT0RIH","img_art/23.jpg","2","","","","","","","","","","","","","","","","","","","","","","","","",""
"954","","image-button-response","200","2842183","0.0-193.0-0.0","A1SMVF4MXT0RIH","img_art/23.jpg","0","","","","","","","","","","","","","","","","","","","","","","","","",""
"null","","html-keyboard-response","201","2843685","0.0-194.0","A1SMVF4MXT0RIH","<p style=""font-size: 48px;"">+</p>","","","","","null","allTrialResponses","1500","1","21","img_art/23.jpg","30","It was just amazing to look.","Isaiah,Justin,Devon,Marcus,James,Anthony","I feel happy and a little excited. Like watching fireworks with family.,26,300,20","The white paint through the middle really draws the eye.,30,280,20","i cannot breath in this,-10,400,20","Like the background colors and the energy, but the white bits ruin it for me,-7,60,20","I love the rainbow!,12,380,20","The cluster of white silhouettes against the colorful background makes me feel uneasy for some reason,-36,200,20","Justin","The white paint through the middle really draws the eye.,30,280,20","Devon","i cannot breath in this,-10,400,20","Isaiah","I feel happy and a little excited. Like watching fireworks with family.,26,300,20","11"
"6886","","survey-text","202","2850578","0.0-195.0-0.0","A1SMVF4MXT0RIH","","","","{""Q0"":""It was not good to look.""}","","","","","","","","","","","","","","","","","","","","","","",""
"2709.800000190735","","image-slider-response","203","2853290","0.0-196.0","A1SMVF4MXT0RIH","","","","","-27","","","","","","","","","","","","","","","","","","","","","",""
"4613","","image-button-response","204","2858299","0.0-197.0","A1SMVF4MXT0RIH","img_art/21.jpg","4","","","","","","","","","","","","","","","","","","","","","","","","",""
"1272","","image-button-response","205","2859573","0.0-198.0","A1SMVF4MXT0RIH","img_art/21.jpg","4","","","","","","","","","","","","","","","","","","","","","","","","",""
"387","","image-button-response","206","2859962","0.0-199.0-0.0","A1SMVF4MXT0RIH","img_art/21.jpg","3","","","","","","","","","","","","","","","","","","","","","","","","",""
"888","","image-button-response","207","2860852","0.0-200.0-0.0","A1SMVF4MXT0RIH","img_art/21.jpg","5","","","","","","","","","","","","","","","","","","","","","","","","",""
"null","","html-keyboard-response","208","2861854","0.0-201.0","A1SMVF4MXT0RIH","<p style=""font-size: 48px;"">+</p>","","","","","null","allTrialResponses","1000","1","22","img_art/21.jpg","-27","It was not good to look.","Isaiah,Justin,Devon,Taylor,Vincent,Tanner","I feel the same serene excitement that I feel watching a sunrise on a beach.,38,300,20","Alright. I like the colors.,5,280,20","waterpaint is attractive,13,400,20","Remove the rocks(?) on the lower right.,5,200,20","Love the colors have to say this is my favorite above all,37,360,20","calm, ship at sea, sunset,16,180,20","Vincent","Love the colors have to say this is my favorite above all,37,360,20","Taylor","Remove the rocks(?) on the lower right.,5,200,20","Tanner","calm, ship at sea, sunset,16,180,20","11"
"17524","","survey-text","209","2879386","0.0-202.0-0.0","A1SMVF4MXT0RIH","","","","{""Q0"":""It was really good to look.""}","","","","","","","","","","","","","","","","","","","","","","",""
"2885","","image-slider-response","210","2882274","0.0-203.0","A1SMVF4MXT0RIH","","","","","35","","","","","","","","","","","","","","","","","","","","","",""
"3254","","image-button-response","211","2887278","0.0-204.0","A1SMVF4MXT0RIH","img_art/2.jpg","5","","","","","","","","","","","","","","","","","","","","","","","","",""
"171496","","image-button-response","212","3058777","0.0-205.0","A1SMVF4MXT0RIH","img_art/2.jpg","1","","","","","","","","","","","","","","","","","","","","","","","","",""
"1310","","image-button-response","213","3060089","0.0-206.0-0.0","A1SMVF4MXT0RIH","img_art/2.jpg","3","","","","","","","","","","","","","","","","","","","","","","","","",""
"294","","image-button-response","214","3060386","0.0-207.0-0.0","A1SMVF4MXT0RIH","img_art/2.jpg","4","","","","","","","","","","","","","","","","","","","","","","","","",""
"null","","html-keyboard-response","215","3061388","0.0-208.0","A1SMVF4MXT0RIH","<p style=""font-size: 48px;"">+</p>","","","","","null","allTrialResponses","1000","1","23","img_art/2.jpg","35","It was really good to look.","Kenneth,Timothy,Isaac,Taylor,Vincent,Tanner","I cant tell whats happening here and that shade of green is just not my thing.,-17,300,20","The contrasting colors are a bit harsh,-10,240,20","Not sure what is happening. I'm not a big fan of the colors but they don't bother me either.,1,280,20","Have now advanced from kindergarten to the first grade.,-5,200,20","This reminds me of a peaceful day out alone shopping and spending some me time,41,360,20","smilely face, soulful,11,180,20","Timothy","The contrasting colors are a bit harsh,-10,240,20","Taylor","Have now advanced from kindergarten to the first grade.,-5,200,20","Vincent","This reminds me of a peaceful day out alone shopping and spending some me time,41,360,20","11"
"8526","","survey-text","216","3069920","0.0-209.0-0.0","A1SMVF4MXT0RIH","","","","{""Q0"":""i love the art.""}","","","","","","","","","","","","","","","","","","","","","","",""
"3431.4000000953674","","image-slider-response","217","3073353","0.0-210.0","A1SMVF4MXT0RIH","","","","","27","","","","","","","","","","","","","","","","","","","","","",""
"4469","","image-button-response","218","3078356","0.0-211.0","A1SMVF4MXT0RIH","img_art/16.jpg","0","","","","","","","","","","","","","","","","","","","","","","","","",""
"538","","image-button-response","219","3078896","0.0-212.0","A1SMVF4MXT0RIH","img_art/16.jpg","1","","","","","","","","","","","","","","","","","","","","","","","","",""
"511","","image-button-response","220","3079409","0.0-213.0-0.0","A1SMVF4MXT0RIH","img_art/16.jpg","2","","","","","","","","","","","","","","","","","","","","","","","","",""
"758","","image-button-response","221","3080170","0.0-214.0-0.0","A1SMVF4MXT0RIH","img_art/16.jpg","4","","","","","","","","","","","","","","","","","","","","","","","","",""
"null","","html-keyboard-response","222","3081671","0.0-215.0","A1SMVF4MXT0RIH","<p style=""font-size: 48px;"">+</p>","","","","","null","allTrialResponses","1500","1","24","img_art/16.jpg","27","i love the art.","Peter,Timothy,Thomas,Taylor,Vincent,Dakota","It's a little unsettling,2,320,20","This feels like images of a painful childhood,-50,240,20","Makes me want to know more,5,220,20","It is sick to put a teddy bear and a gun on the same piece of canvas.,-40,200,20","Toys toys toys. Happy playful free spirit,30,360,20","depressing and confrontational,-9,280,20","Timothy","This feels like images of a painful childhood,-50,240,20","Thomas","Makes me want to know more,5,220,20","Vincent","Toys toys toys. Happy playful free spirit,30,360,20","11"
"25878","","survey-text","223","3107560","0.0-216.0-0.0","A1SMVF4MXT0RIH","","","","{""Q0"":""I love the design of the art.""}","","","","","","","","","","","","","","","","","","","","","","",""
"3030.5","","image-slider-response","224","3110592","0.0-217.0","A1SMVF4MXT0RIH","","","","","40","","","","","","","","","","","","","","","","","","","","","",""
"null","","image-button-response","225","3115601","0.0-218.0","A1SMVF4MXT0RIH","img_art/22.jpg","null","","","","","","","","","","","","","","","","","","","","","","","","",""
"10277","","image-button-response","226","3125881","0.0-219.0","A1SMVF4MXT0RIH","img_art/22.jpg","4","","","","","","","","","","","","","","","","","","","","","","","","",""
"265","","image-button-response","227","3126149","0.0-220.0-0.0","A1SMVF4MXT0RIH","img_art/22.jpg","3","","","","","","","","","","","","","","","","","","","","","","","","",""
"879","","image-button-response","228","3127033","0.0-221.0-0.0","A1SMVF4MXT0RIH","img_art/22.jpg","5","","","","","","","","","","","","","","","","","","","","","","","","",""
"null","","html-keyboard-response","229","3127539","0.0-222.0","A1SMVF4MXT0RIH","<p style=""font-size: 48px;"">+</p>","","","","","null","allTrialResponses","500","1","25","img_art/22.jpg","40","I love the design of the art.","Antonio,Timothy,Thomas,Corey,Vincent,Angel","Felt blah. Bunch of nothingness,-42,220,20","This painting has a very nostalgic feel,20,240,20","Beautiful. I love the color contrast and gradients.,50,220,20","i feel like this is a a basic art piece that a school would have on the wall,-24,260,20","Can fit with anyone. And in any home a great piece of art,35,360,20","This piece gives off a cool vibe. Reminds me of being out in the city at night.,20,180,20","Vincent","Can fit with anyone. And in any home a great piece of art,35,360,20","Corey","i feel like this is a a basic art piece that a school would have on the wall,-24,260,20","Angel","This piece gives off a cool vibe. Reminds me of being out in the city at night.,20,180,20","11"
"5531","","survey-text","230","3133135","0.0-223.0-0.0","A1SMVF4MXT0RIH","","","","{""Q0"":""table""}","","","","","","","","","","","","","","","","","","","","","","",""
"8383","","survey-text","231","3141520","0.0-224.0-0.0","A1SMVF4MXT0RIH","","","","{""Q0"":""It was not bad.""}","","","","","","","","","","","","","","","","","","","","","","",""
"3213.399999856949","","image-slider-response","232","3144735","0.0-225.0","A1SMVF4MXT0RIH","","","","","17","","","","","","","","","","","","","","","","","","","","","",""
"null","","image-button-response","233","3150023","0.0-226.0","A1SMVF4MXT0RIH","img_art/26.jpg","null","","","","","","","","","","","","","","","","","","","","","","","","",""
"9390","","image-button-response","234","3159416","0.0-227.0","A1SMVF4MXT0RIH","img_art/26.jpg","0","","","","","","","","","","","","","","","","","","","","","","","","",""
"318","","image-button-response","235","3159737","0.0-228.0-0.0","A1SMVF4MXT0RIH","img_art/26.jpg","1","","","","","","","","","","","","","","","","","","","","","","","","",""
"308","","image-button-response","236","3160048","0.0-229.0-0.0","A1SMVF4MXT0RIH","img_art/26.jpg","2","","","","","","","","","","","","","","","","","","","","","","","","",""
"null","","html-keyboard-response","237","3161553","0.0-230.0","A1SMVF4MXT0RIH","<p style=""font-size: 48px;"">+</p>","","","","","null","allTrialResponses","1500","1","26","img_art/26.jpg","17","It was not bad.","Brett,Stephen,Adrian,Corey,Vincent,Angel","Picturesque little town,45,360,20","No strong reaction but the color scheme is nice,10,140,20","I see a suburban neighborhood with townhouses and trees. Not a fan of the colors or style.,-16,60,20","its boring and i dont like the color palette,3,260,20","Small town and home feel on A nice day.,28,360,20","This piece feels pretty chill like it's just a normal day in the city.,10,180,20","Brett","Picturesque little town,45,360,20","Stephen","No strong reaction but the color scheme is nice,10,140,20","Adrian","I see a suburban neighborhood with townhouses and trees. Not a fan of the colors or style.,-16,60,20","11"
"13118","","survey-text","238","3174680","0.0-231.0-0.0","A1SMVF4MXT0RIH","","","","{""Q0"":""I don't like this picture.""}","","","","","","","","","","","","","","","","","","","","","","",""
"4446.200000047684","","image-slider-response","239","3179128","0.0-232.0","A1SMVF4MXT0RIH","","","","","-24","","","","","","","","","","","","","","","","","","","","","",""
"null","","image-button-response","240","3184143","0.0-233.0","A1SMVF4MXT0RIH","img_art/8.jpg","null","","","","","","","","","","","","","","","","","","","","","","","","",""
"887","","image-button-response","241","3185032","0.0-234.0","A1SMVF4MXT0RIH","img_art/8.jpg","1","","","","","","","","","","","","","","","","","","","","","","","","",""
"375","","image-button-response","242","3185410","0.0-235.0-0.0","A1SMVF4MXT0RIH","img_art/8.jpg","2","","","","","","","","","","","","","","","","","","","","","","","","",""
"452","","image-button-response","243","3185864","0.0-236.0-0.0","A1SMVF4MXT0RIH","img_art/8.jpg","0","","","","","","","","","","","","","","","","","","","","","","","","",""
"null","","html-keyboard-response","244","3187368","0.0-237.0","A1SMVF4MXT0RIH","<p style=""font-size: 48px;"">+</p>","","","","","null","allTrialResponses","1500","1","27","img_art/8.jpg","-24","I don't like this picture.","Brett,Stephen,Adrian,Brendan,Malik,Aaron","Very abstract and seems symbolic,45,360,20","Has nice depth to it.,12,140,20","Pleasant colors, lots of interest. Not sure what's going on but I like it.,20,60,20","beautiful buildings,32,340,20","Striking, but not my taste,20,40,20","The shapes and colors work well together.,40,20,20","Stephen","Has nice depth to it.,12,140,20","Adrian","Pleasant colors, lots of interest. Not sure what's going on but I like it.,20,60,20","Brett","Very abstract and seems symbolic,45,360,20","11"
"9656","","survey-text","245","3197034","0.0-238.0-0.0","A1SMVF4MXT0RIH","","","","{""Q0"":""I don't like this picture.""}","","","","","","","","","","","","","","","","","","","","","","",""
"2755.7000000476837","","image-slider-response","246","3199793","0.0-239.0","A1SMVF4MXT0RIH","","","","","-24","","","","","","","","","","","","","","","","","","","","","",""
"null","","image-button-response","247","3204797","0.0-240.0","A1SMVF4MXT0RIH","img_art/10.jpg","null","","","","","","","","","","","","","","","","","","","","","","","","",""
"1006","","image-button-response","248","3205805","0.0-241.0","A1SMVF4MXT0RIH","img_art/10.jpg","5","","","","","","","","","","","","","","","","","","","","","","","","",""
"337","","image-button-response","249","3206144","0.0-242.0-0.0","A1SMVF4MXT0RIH","img_art/10.jpg","4","","","","","","","","","","","","","","","","","","","","","","","","",""
"861","","image-button-response","250","3207008","0.0-243.0-0.0","A1SMVF4MXT0RIH","img_art/10.jpg","1","","","","","","","","","","","","","","","","","","","","","","","","",""
"null","","html-keyboard-response","251","3207512","0.0-244.0","A1SMVF4MXT0RIH","<p style=""font-size: 48px;"">+</p>","","","","","null","allTrialResponses","500","1","28","img_art/10.jpg","-24","I don't like this picture.","Brett,Stephen,Adrian,Luis,Noah,Nathaniel","Musical guitar whimsy,45,360,20","Very nice painting, would like it more with different color choice.,6,140,20","Looks like a violin. Not a fan of the smudges and smears, but my initial reaction was positive.,11,60,20","I love the dark and edgy nature of this,50,400,20","not sure what to make of this one,0,260,20","For black and white, this is pretty vibrant and cool. I like this.,39,220,20","Nathaniel","For black and white, this is pretty vibrant and cool. I like this.,39,220,20","Noah","not sure what to make of this one,0,260,20","Stephen","Very nice painting, would like it more with different color choice.,6,140,20","11"
"14129","","survey-text","252","3221648","0.0-245.0-0.0","A1SMVF4MXT0RIH","","","","{""Q0"":""I love the design of the art.""}","","","","","","","","","","","","","","","","","","","","","","",""
"3248.5","","image-slider-response","253","3224898","0.0-246.0","A1SMVF4MXT0RIH","","","","","17","","","","","","","","","","","","","","","","","","","","","",""
"null","","image-button-response","254","3229914","0.0-247.0","A1SMVF4MXT0RIH","img_art/12.jpg","null","","","","","","","","","","","","","","","","","","","","","","","","",""
"13332","","image-button-response","255","3243248","0.0-248.0","A1SMVF4MXT0RIH","img_art/12.jpg","1","","","","","","","","","","","","","","","","","","","","","","","","",""
"413","","image-button-response","256","3243664","0.0-249.0-0.0","A1SMVF4MXT0RIH","img_art/12.jpg","0","","","","","","","","","","","","","","","","","","","","","","","","",""
"606","","image-button-response","257","3244272","0.0-250.0-0.0","A1SMVF4MXT0RIH","img_art/12.jpg","2","","","","","","","","","","","","","","","","","","","","","","","","",""
"null","","html-keyboard-response","258","3246039","0.0-251.0","A1SMVF4MXT0RIH","<p style=""font-size: 48px;"">+</p>","","","","","null","allTrialResponses","1500","1","29","img_art/12.jpg","17","I love the design of the art.","Logan,Stephen,Caleb,Jose,Noah,Nathaniel","giving me major endless summer vibes,26,360,20","Comes off as a bit boring.,-11,140,20","Almost natural flowing between abstract sections.,27,40,20","Not sure why but this is my favorite. I'd put it on my wall,50,200,20","evokes the 80s, and not in a necessarily good way,-10,260,20","Too many blocks. I can't see a purpose or a focal point,-44,220,20","Stephen","Comes off as a bit boring.,-11,140,20","Logan","giving me major endless summer vibes,26,360,20","Caleb","Almost natural flowing between abstract sections.,27,40,20","11"
"109773","","survey-text","259","3355832","0.0-252.0-0.0","A1SMVF4MXT0RIH","","","","{""Q0"":""I love to see this art.""}","","","","","","","","","","","","","","","","","","","","","","",""
"3087.800000190735","","image-slider-response","260","3358922","0.0-253.0","A1SMVF4MXT0RIH","","","","","22","","","","","","","","","","","","","","","","","","","","","",""
"null","","image-button-response","261","3363927","0.0-254.0","A1SMVF4MXT0RIH","img_art/17.jpg","null","","","","","","","","","","","","","","","","","","","","","","","","",""
"634079","","image-button-response","262","3998009","0.0-255.0","A1SMVF4MXT0RIH","img_art/17.jpg","4","","","","","","","","","","","","","","","","","","","","","","","","",""
"413","","image-button-response","263","3998425","0.0-256.0-0.0","A1SMVF4MXT0RIH","img_art/17.jpg","3","","","","","","","","","","","","","","","","","","","","","","","","",""
"364","","image-button-response","264","3998793","0.0-257.0-0.0","A1SMVF4MXT0RIH","img_art/17.jpg","5","","","","","","","","","","","","","","","","","","","","","","","","",""
"null","","html-keyboard-response","265","4000295","0.0-258.0","A1SMVF4MXT0RIH","<p style=""font-size: 48px;"">+</p>","","","","","null","allTrialResponses","1500","1","30","img_art/17.jpg","22","I love to see this art.","Logan,Stephen,Caleb,Ryan,Derek,Richard","similar to last one, still pretty cool but I liked arrangement of last one better,13,360,20","I like the colorfulness.,17,140,20","Not even abstract to me, very clear meaning.,44,40,20","Feels supernatural and scary,-16,380,20","The colors are beautiful and the painting itself is magnificent,50,360,20","nice composition and colors, fairy land,28,340,20","Derek","The colors are beautiful and the painting itself is magnificent,50,360,20","Ryan","Feels supernatural and scary,-16,380,20","Richard","nice composition and colors, fairy land,28,340,20","11"
"7947","","image-button-response_instructions","266","4008254","0.0-259.0","A1SMVF4MXT0RIH","","0","instructions","","","","","","","","","","","","","","","","","","","","","","","",""
"1721","","image-button-response","267","4009982","0.0-260.0","A1SMVF4MXT0RIH","","0","","","","","","","","","","","","","","","","","","","","","","","","",""
