"rt","url","trial_type","trial_index","time_elapsed","internal_node_id","participant_id","stimulus","button_pressed","Name","responses","response","key_press","variableName","fixationTime","condition","trial","photo","subjectRating","subjectResponse","agentsNames","agent_1_Response","agent_2_Response","agent_3_Response","agent_4_Response","agent_5_Response","agent_6_Response","kept_1_name","kept_1_response","kept_2_name","kept_2_response","kept_3_name","kept_3_response","errorCounter"
"4097","external_page_harvard.html","external-html","0","4166","0.0-0.0","A1TARNH07A75CG","","","","","","","","","","","","","","","","","","","","","","","","","","",""
"1108","","image-button-response","1","5277","0.0-1.0","A1TARNH07A75CG","","0","","","","","","","","","","","","","","","","","","","","","","","","",""
"1167","","image-button-response","2","6451","0.0-2.0-0.0","A1TARNH07A75CG","","1","phone","","","","","","","","","","","","","","","","","","","","","","","",""
"3997","","survey-text","3","10452","0.0-3.0-0.0","A1TARNH07A75CG","","","","{""Q0"":""A1TARNH07A75CG""}","","","","","","","","","","","","","","","","","","","","","","",""
"3365","","image-button-response_instructions","4","13820","0.0-4.0","A1TARNH07A75CG","","0","instructions","","","","","","","","","","","","","","","","","","","","","","","",""
"8625","","image-button-response_instructions","5","22448","0.0-5.0","A1TARNH07A75CG","img_art/ins/popularity/ins1.png","0","instructions","","","","","","","","","","","","","","","","","","","","","","","",""
"4817","","image-button-response_instructions","6","27267","0.0-6.0","A1TARNH07A75CG","img_art/ins/popularity/ins2.png","0","instructions","","","","","","","","","","","","","","","","","","","","","","","",""
"1198","","image-button-response_instructions","7","28466","0.0-7.0","A1TARNH07A75CG","img_art/ins/popularity/ins2Extreme.png","0","instructions","","","","","","","","","","","","","","","","","","","","","","","",""
"3728","","image-button-response_instructions","8","32196","0.0-8.0","A1TARNH07A75CG","img_art/ins/popularity/ins3KEEPpop.PNG","0","instructions","","","","","","","","","","","","","","","","","","","","","","","",""
"1509","","image-button-response_instructions","9","33707","0.0-9.0","A1TARNH07A75CG","img_art/ins/popularity/ins3ANamepop.PNG","0","instructions","","","","","","","","","","","","","","","","","","","","","","","",""
"2726","","image-button-response_instructions","10","36435","0.0-10.0","A1TARNH07A75CG","img_art/ins/popularity/ins3ARatingpop.png","0","instructions","","","","","","","","","","","","","","","","","","","","","","","",""
"687","","image-button-response_instructions","11","37127","0.0-11.0","A1TARNH07A75CG","img_art/ins/popularity/ins3ATextpop.png","0","instructions","","","","","","","","","","","","","","","","","","","","","","","",""
"634","","image-button-response_instructions","12","37762","0.0-12.0","A1TARNH07A75CG","img_art/ins/popularity/ins3ALikespop.png","0","instructions","","","","","","","","","","","","","","","","","","","","","","","",""
"3146","","image-button-response_instructions","13","40909","0.0-13.0","A1TARNH07A75CG","img_art/ins/popularity/ins3KEEPpop.PNG","0","instructions","","","","","","","","","","","","","","","","","","","","","","","",""
"748","","image-button-response_instructions","14","41658","0.0-14.0","A1TARNH07A75CG","img_art/ins/popularity/ins3_5RED.png","0","instructions","","","","","","","","","","","","","","","","","","","","","","","",""
"623","","image-button-response_instructions","15","42282","0.0-15.0","A1TARNH07A75CG","img_art/ins/popularity/ins3KEEPpop.PNG","0","instructions","","","","","","","","","","","","","","","","","","","","","","","",""
"751","","image-button-response_instructions","16","43035","0.0-16.0","A1TARNH07A75CG","img_art/ins/popularity/ins4KEEPpop.PNG","0","instructions","","","","","","","","","","","","","","","","","","","","","","","",""
"711","","image-button-response_instructions","17","43747","0.0-17.0","A1TARNH07A75CG","img_art/ins/popularity/ins5KEEPpop.PNG","0","instructions","","","","","","","","","","","","","","","","","","","","","","","",""
"863","","image-button-response_instructions","18","44611","0.0-18.0","A1TARNH07A75CG","","0","instructions","","","","","","","","","","","","","","","","","","","","","","","",""
"7839","","survey-text","19","52492","0.0-19.0-0.0","A1TARNH07A75CG","","","","{""Q0"":""but""}","","","","","","","","","","","","","","","","","","","","","","",""
"11108","","survey-text","20","63603","0.0-20.0-0.0","A1TARNH07A75CG","","","","{""Q0"":""it looks like a child drew it""}","","","","","","","","","","","","","","","","","","","","","","",""
"2083","","image-slider-response","21","65691","0.0-21.0","A1TARNH07A75CG","","","","","-35","","","","","","","","","","","","","","","","","","","","","",""
"null","","image-button-response","22","70694","0.0-22.0","A1TARNH07A75CG","img_art/ins/1.jpg","null","","","","","","","","","","","","","","","","","","","","","","","","",""
"7475","","image-button-response","23","78172","0.0-23.0","A1TARNH07A75CG","img_art/ins/1.jpg","0","","","","","","","","","","","","","","","","","","","","","","","","",""
"2749","","image-button-response","24","80924","0.0-24.0-0.0","A1TARNH07A75CG","img_art/ins/1.jpg","2","","","","","","","","","","","","","","","","","","","","","","","","",""
"4669","","image-button-response","25","85596","0.0-25.0-0.0","A1TARNH07A75CG","img_art/ins/1.jpg","0","","","","","","","","","","","","","","","","","","","","","","","","",""
"1237","","image-button-response","26","91516","0.0-25.1-0.1","A1TARNH07A75CG","img_art/ins/1.jpg","2","","","","","","","","","","","","","","","","","","","","","","","","",""
"5383","","image-button-response","27","99180","0.0-25.2-0.2","A1TARNH07A75CG","img_art/ins/1.jpg","4","","","","","","","","","","","","","","","","","","","","","","","","",""
"null","","html-keyboard-response","28","99684","0.0-26.0","A1TARNH07A75CG","<p style=""font-size: 48px;"">+</p>","","","","","null","allTrialResponses","500","1","-2","img_art/ins/1.jpg","-35","it looks like a child drew it","Adam,Alex,Ben,Carl,Daniel,Jack","Seems like doodles,-20,20,20","very creative work.,36,40,20","This color reminds me of poo,-46,60,20","very calming artwork,42,80,20","It looks like a murder scene.,-48,100,20","I like the sophisticated brushwork,40,120,20","Adam","Seems like doodles,-20,20,20","Ben","This color reminds me of poo,-46,60,20","Daniel","It looks like a murder scene.,-48,100,20","4"
"14441","","survey-text","29","114131","0.0-27.0-0.0","A1TARNH07A75CG","","","","{""Q0"":""it looks bad""}","","","","","","","","","","","","","","","","","","","","","","",""
"2262","","image-slider-response","30","116395","0.0-28.0","A1TARNH07A75CG","","","","","-50","","","","","","","","","","","","","","","","","","","","","",""
"3829","","image-button-response","31","121397","0.0-29.0","A1TARNH07A75CG","img_art/ins/2.jpg","0","","","","","","","","","","","","","","","","","","","","","","","","",""
"379","","image-button-response","32","121779","0.0-30.0","A1TARNH07A75CG","img_art/ins/2.jpg","2","","","","","","","","","","","","","","","","","","","","","","","","",""
"3558","","image-button-response","33","125339","0.0-31.0-0.0","A1TARNH07A75CG","img_art/ins/2.jpg","3","","","","","","","","","","","","","","","","","","","","","","","","",""
"831","","image-button-response","34","126173","0.0-32.0-0.0","A1TARNH07A75CG","img_art/ins/2.jpg","5","","","","","","","","","","","","","","","","","","","","","","","","",""
"null","","html-keyboard-response","35","127233","0.0-33.0","A1TARNH07A75CG","<p style=""font-size: 48px;"">+</p>","","","","","null","allTrialResponses","1000","1","-1","img_art/ins/2.jpg","-50","it looks bad","Adam,John,Ben,James,Daniel,Kyle","too much color,-18,20,20","love the texture of paint,48,160,20","meaningless painting,-45,60,20","looks too angry,-50,140,20","One of my pet peevs,-48,100,20","Idk, it is just annoying,-32,180,20","Ben","meaningless painting,-45,60,20","James","looks too angry,-50,140,20","Kyle","Idk, it is just annoying,-32,180,20","4"
"10861","","survey-text","36","138103","0.0-34.0-0.0","A1TARNH07A75CG","","","","{""Q0"":""looks like the north pole""}","","","","","","","","","","","","","","","","","","","","","","",""
"9601","","image-slider-response","37","147707","0.0-35.0","A1TARNH07A75CG","","","","","0","","","","","","","","","","","","","","","","","","","","","",""
"4588","","image-button-response","38","152712","0.0-36.0","A1TARNH07A75CG","img_art/ins/3.jpg","4","","","","","","","","","","","","","","","","","","","","","","","","",""
"1056","","image-button-response","39","153772","0.0-37.0","A1TARNH07A75CG","img_art/ins/3.jpg","2","","","","","","","","","","","","","","","","","","","","","","","","",""
"1900","","image-button-response","40","155675","0.0-38.0-0.0","A1TARNH07A75CG","img_art/ins/3.jpg","4","","","","","","","","","","","","","","","","","","","","","","","","",""
"655","","image-button-response","41","156341","0.0-39.0-0.0","A1TARNH07A75CG","img_art/ins/3.jpg","5","","","","","","","","","","","","","","","","","","","","","","","","",""
"null","","html-keyboard-response","42","157432","0.0-40.0","A1TARNH07A75CG","<p style=""font-size: 48px;"">+</p>","","","","","null","allTrialResponses","1000","1","0","img_art/ins/3.jpg","0","looks like the north pole","Sam,Mike,Ben,James,Ron,Kyle","I can feel a rainy day from this painting,18,240,20","enjoy the different shades of blue,22,200,20","This thing gives me anxiety,-41,60,20","My worst nightmare,-42,140,20","It looks depressing,-26,220,20","It looks like a playground for bats,-36,180,20","Ben","This thing gives me anxiety,-41,60,20","Ron","It looks depressing,-26,220,20","Kyle","It looks like a playground for bats,-36,180,20","4"
"8186","","image-button-response_instructions","43","165650","0.0-41.0","A1TARNH07A75CG","","0","instructions","","","","","","","","","","","","","","","","","","","","","","","",""
"7638","","survey-likert","44","173291","0.0-42.0-0.0","A1TARNH07A75CG","","","","{""Q0"":"""",""Q1"":0,""Q2"":1}","","","","","","","","","","","","","","","","","","","","","","",""
"5672","","survey-text","45","178971","0.0-43.0-0.0","A1TARNH07A75CG","","","","{""Q0"":""rock""}","","","","","","","","","","","","","","","","","","","","","","",""
"8741","","survey-text","46","187714","0.0-44.0-0.0","A1TARNH07A75CG","","","","{""Q0"":""looks like a graveyard""}","","","","","","","","","","","","","","","","","","","","","","",""
"4734","","image-slider-response","47","192450","0.0-45.0","A1TARNH07A75CG","","","","","0","","","","","","","","","","","","","","","","","","","","","",""
"2516","","image-button-response","48","197494","0.0-46.0","A1TARNH07A75CG","img_art/25.jpg","3","","","","","","","","","","","","","","","","","","","","","","","","",""
"1130","","image-button-response","49","198627","0.0-47.0","A1TARNH07A75CG","img_art/25.jpg","3","","","","","","","","","","","","","","","","","","","","","","","","",""
"981","","image-button-response","50","199611","0.0-48.0-0.0","A1TARNH07A75CG","img_art/25.jpg","4","","","","","","","","","","","","","","","","","","","","","","","","",""
"8597","","image-button-response","51","208211","0.0-49.0-0.0","A1TARNH07A75CG","img_art/25.jpg","5","","","","","","","","","","","","","","","","","","","","","","","","",""
"null","","html-keyboard-response","52","209216","0.0-50.0","A1TARNH07A75CG","<p style=""font-size: 48px;"">+</p>","","","","","null","allTrialResponses","1000","1","1","img_art/25.jpg","0","looks like a graveyard","Trevor,Samuel,Austin,Jake,Mark,Seth","nice colors and it looks like a native work,32,280,20","reminds me of burning man,18,400,20","Love the color hues and the texture it creates,50,240,20","This is strange and poorly done.,-2,360,20","Looks like Burning Man, dont care for the colors.,-5,80,20","This piece feels cultural. Like it represents something culturally.,22,60,20","Jake","This is strange and poorly done.,-2,360,20","Mark","Looks like Burning Man, dont care for the colors.,-5,80,20","Seth","This piece feels cultural. Like it represents something culturally.,22,60,20","4"
"17372","","survey-text","53","226594","0.0-51.0-0.0","A1TARNH07A75CG","","","","{""Q0"":""It looks like a ghost""}","","","","","","","","","","","","","","","","","","","","","","",""
"2140","","image-slider-response","54","228738","0.0-52.0","A1TARNH07A75CG","","","","","2","","","","","","","","","","","","","","","","","","","","","",""
"1710","","image-button-response","55","233741","0.0-53.0","A1TARNH07A75CG","img_art/18.jpg","0","","","","","","","","","","","","","","","","","","","","","","","","",""
"891","","image-button-response","56","234635","0.0-54.0","A1TARNH07A75CG","img_art/18.jpg","3","","","","","","","","","","","","","","","","","","","","","","","","",""
"1622","","image-button-response","57","236259","0.0-55.0-0.0","A1TARNH07A75CG","img_art/18.jpg","0","","","","","","","","","","","","","","","","","","","","","","","","",""
"2525","","image-button-response","58","238787","0.0-56.0-0.0","A1TARNH07A75CG","img_art/18.jpg","2","","","","","","","","","","","","","","","","","","","","","","","","",""
"null","","html-keyboard-response","59","239288","0.0-57.0","A1TARNH07A75CG","<p style=""font-size: 48px;"">+</p>","","","","","null","allTrialResponses","500","1","2","img_art/18.jpg","2","It looks like a ghost","Gregory,Kevin,Scott,Jake,Mark,Seth","Mash up of colors and don't see a grander picture,-10,220,20","Pirate ship in stormy seas before it sank.,11,320,20","reminds me of sailors on a boat,17,20,20","It looks grotesque and violent.,-50,360,20","I see an artistic representation of the riding of last of the four horseman. Its stunning.,45,80,20","This painting reminds me of the 4 horsemen of the apocalypse. It feels haunting.,31,60,20","Jake","It looks grotesque and violent.,-50,360,20","Gregory","Mash up of colors and don't see a grander picture,-10,220,20","Scott","reminds me of sailors on a boat,17,20,20","4"
"7772","","survey-text","60","247066","0.0-58.0-0.0","A1TARNH07A75CG","","","","{""Q0"":""reminds me of a bird""}","","","","","","","","","","","","","","","","","","","","","","",""
"2725","","image-slider-response","61","249794","0.0-59.0","A1TARNH07A75CG","","","","","19","","","","","","","","","","","","","","","","","","","","","",""
"2494","","image-button-response","62","254797","0.0-60.0","A1TARNH07A75CG","img_art/6.jpg","1","","","","","","","","","","","","","","","","","","","","","","","","",""
"1995","","image-button-response","63","256796","0.0-61.0","A1TARNH07A75CG","img_art/6.jpg","5","","","","","","","","","","","","","","","","","","","","","","","","",""
"1412","","image-button-response","64","258211","0.0-62.0-0.0","A1TARNH07A75CG","img_art/6.jpg","4","","","","","","","","","","","","","","","","","","","","","","","","",""
"1845","","image-button-response","65","260059","0.0-63.0-0.0","A1TARNH07A75CG","img_art/6.jpg","2","","","","","","","","","","","","","","","","","","","","","","","","",""
"null","","html-keyboard-response","66","260560","0.0-64.0","A1TARNH07A75CG","<p style=""font-size: 48px;"">+</p>","","","","","null","allTrialResponses","500","1","3","img_art/6.jpg","19","reminds me of a bird","Gregory,Elijah,Scott,Jake,William,Jacob","Tree growing in a desert. Gives me feelings of hope,5,220,20","Not impressed, just very plain,-10,80,20","reminds me of a bird,31,20,20","It feels sad but it's nice to look at.,4,360,20","makes me think of nature,30,380,20","Is this a leaf?,4,340,20","Jacob","Is this a leaf?,4,340,20","William","makes me think of nature,30,380,20","Scott","reminds me of a bird,31,20,20","4"
"14790","","survey-text","67","275355","0.0-65.0-0.0","A1TARNH07A75CG","","","","{""Q0"":""Reminds me of an old town""}","","","","","","","","","","","","","","","","","","","","","","",""
"2285","","image-slider-response","68","277642","0.0-66.0","A1TARNH07A75CG","","","","","7","","","","","","","","","","","","","","","","","","","","","",""
"4852","","image-button-response","69","282648","0.0-67.0","A1TARNH07A75CG","img_art/19.jpg","1","","","","","","","","","","","","","","","","","","","","","","","","",""
"1032","","image-button-response","70","283683","0.0-68.0","A1TARNH07A75CG","img_art/19.jpg","1","","","","","","","","","","","","","","","","","","","","","","","","",""
"701","","image-button-response","71","284387","0.0-69.0-0.0","A1TARNH07A75CG","img_art/19.jpg","2","","","","","","","","","","","","","","","","","","","","","","","","",""
"3414","","image-button-response","72","287803","0.0-70.0-0.0","A1TARNH07A75CG","img_art/19.jpg","3","","","","","","","","","","","","","","","","","","","","","","","","",""
"null","","html-keyboard-response","73","289305","0.0-71.0","A1TARNH07A75CG","<p style=""font-size: 48px;"">+</p>","","","","","null","allTrialResponses","1500","1","4","img_art/19.jpg","7","Reminds me of an old town","James,Malik,Scott,David,William,Jacob","I don't know what's going on, and I realise that I don't like it,-21,380,20","Very dreamlike,26,40,20","looks like a shopping center,20,20,20","The image doesn't really invoke any emotions strongly.,0,340,20","to much going on,-22,380,20","Vibrant and colorful,13,340,20","Malik","Very dreamlike,26,40,20","Scott","looks like a shopping center,20,20,20","David","The image doesn't really invoke any emotions strongly.,0,340,20","4"
"14816","","survey-text","74","304131","0.0-72.0-0.0","A1TARNH07A75CG","","","","{""Q0"":""Looks like someone playing the saxophone""}","","","","","","","","","","","","","","","","","","","","","","",""
"3710","","image-slider-response","75","307844","0.0-73.0","A1TARNH07A75CG","","","","","4","","","","","","","","","","","","","","","","","","","","","",""
"1988","","image-button-response","76","312848","0.0-74.0","A1TARNH07A75CG","img_art/28.jpg","4","","","","","","","","","","","","","","","","","","","","","","","","",""
"1921","","image-button-response","77","314772","0.0-75.0","A1TARNH07A75CG","img_art/28.jpg","1","","","","","","","","","","","","","","","","","","","","","","","","",""
"6414","","image-button-response","78","321188","0.0-76.0-0.0","A1TARNH07A75CG","img_art/28.jpg","4","","","","","","","","","","","","","","","","","","","","","","","","",""
"1235","","image-button-response","79","322428","0.0-77.0-0.0","A1TARNH07A75CG","img_art/28.jpg","5","","","","","","","","","","","","","","","","","","","","","","","","",""
"null","","html-keyboard-response","80","323429","0.0-78.0","A1TARNH07A75CG","<p style=""font-size: 48px;"">+</p>","","","","","null","allTrialResponses","1000","1","5","img_art/28.jpg","4","Looks like someone playing the saxophone","Tyler,Malik,Scott,David,Christian,Matthew","It's okay. There is harmony and balance.,11,320,20","Invokes curiosity, I want to know it's story.,15,40,20","I don't like the color choice,-30,20,20","I feel that the image is invoking a sense of negativity.,-15,340,20","the color scheme is very well matched but i just didn't like it,-6,140,20","Normally don't react well to abstract art, but it looks almost like something's there.,28,120,20","Malik","Invokes curiosity, I want to know it's story.,15,40,20","Christian","the color scheme is very well matched but i just didn't like it,-6,140,20","Matthew","Normally don't react well to abstract art, but it looks almost like something's there.,28,120,20","4"
"5016","","survey-text","81","328459","0.0-79.0-0.0","A1TARNH07A75CG","","","","{""Q0"":""sky""}","","","","","","","","","","","","","","","","","","","","","","",""
"10694","","survey-text","82","339155","0.0-80.0-0.0","A1TARNH07A75CG","","","","{""Q0"":""doesn't do anything for me""}","","","","","","","","","","","","","","","","","","","","","","",""
"6526","","image-slider-response","83","345683","0.0-81.0","A1TARNH07A75CG","","","","","-12","","","","","","","","","","","","","","","","","","","","","",""
"null","","image-button-response","84","350685","0.0-82.0","A1TARNH07A75CG","img_art/8.jpg","null","","","","","","","","","","","","","","","","","","","","","","","","",""
"2421","","image-button-response","85","353109","0.0-83.0","A1TARNH07A75CG","img_art/8.jpg","1","","","","","","","","","","","","","","","","","","","","","","","","",""
"692","","image-button-response","86","353804","0.0-84.0-0.0","A1TARNH07A75CG","img_art/8.jpg","0","","","","","","","","","","","","","","","","","","","","","","","","",""
"1565","","image-button-response","87","355379","0.0-85.0-0.0","A1TARNH07A75CG","img_art/8.jpg","0","","","","","","","","","","","","","","","","","","","","","","","","",""
"518","","image-button-response","88","358643","0.0-85.1-0.1","A1TARNH07A75CG","img_art/8.jpg","2","","","","","","","","","","","","","","","","","","","","","","","","",""
"null","","html-keyboard-response","89","360144","0.0-86.0","A1TARNH07A75CG","<p style=""font-size: 48px;"">+</p>","","","","","null","allTrialResponses","1500","1","6","img_art/8.jpg","-12","doesn't do anything for me","Blake,Malik,Colton,Grant,Christian,Matthew","cold city controlled by evil gods,-17,280,20","Striking, but not my taste,20,40,20","looks like an aerial view, very pretty,32,220,20","The stylized faces remind me of German expressionism in a very good way.,40,200,20","gives off inception vibes <3,50,140,20","Escher? Dali? Could be their lovechild?,50,120,20","Malik","Striking, but not my taste,20,40,20","Blake","cold city controlled by evil gods,-17,280,20","Colton","looks like an aerial view, very pretty,32,220,20","6"
"13274","","survey-text","90","373426","0.0-87.0-0.0","A1TARNH07A75CG","","","","{""Q0"":""looks like scribble scrabble ""}","","","","","","","","","","","","","","","","","","","","","","",""
"2534","","image-slider-response","91","375962","0.0-88.0","A1TARNH07A75CG","","","","","-25","","","","","","","","","","","","","","","","","","","","","",""
"1533","","image-button-response","92","380965","0.0-89.0","A1TARNH07A75CG","img_art/3.jpg","0","","","","","","","","","","","","","","","","","","","","","","","","",""
"2473","","image-button-response","93","383443","0.0-90.0","A1TARNH07A75CG","img_art/3.jpg","0","","","","","","","","","","","","","","","","","","","","","","","","",""
"1486","","image-button-response","94","384931","0.0-91.0-0.0","A1TARNH07A75CG","img_art/3.jpg","2","","","","","","","","","","","","","","","","","","","","","","","","",""
"766","","image-button-response","95","385699","0.0-92.0-0.0","A1TARNH07A75CG","img_art/3.jpg","4","","","","","","","","","","","","","","","","","","","","","","","","",""
"null","","html-keyboard-response","96","387202","0.0-93.0","A1TARNH07A75CG","<p style=""font-size: 48px;"">+</p>","","","","","null","allTrialResponses","1500","1","7","img_art/3.jpg","-25","looks like scribble scrabble ","Blake,Malik,Colton,Brendan,Corey,Daniel","painted by a 2 year old. cold and boring,-30,280,20","Unaure what the artist  was doing, needs context,11,40,20","looks like a kid scribbled with crayon,-35,220,20","i really cant get it,-44,340,20","seems distressing. a blood scene,-3,260,20","5 min scribble by a 3 year old,-46,320,20","Blake","painted by a 2 year old. cold and boring,-30,280,20","Colton","looks like a kid scribbled with crayon,-35,220,20","Corey","seems distressing. a blood scene,-3,260,20","6"
"14520","","survey-text","97","401730","0.0-94.0-0.0","A1TARNH07A75CG","","","","{""Q0"":""I don't know what to think of this one""}","","","","","","","","","","","","","","","","","","","","","","",""
"4862","","image-slider-response","98","406594","0.0-95.0","A1TARNH07A75CG","","","","","0","","","","","","","","","","","","","","","","","","","","","",""
"1789","","image-button-response","99","411598","0.0-96.0","A1TARNH07A75CG","img_art/29.jpg","4","","","","","","","","","","","","","","","","","","","","","","","","",""
"458","","image-button-response","100","412059","0.0-97.0","A1TARNH07A75CG","img_art/29.jpg","4","","","","","","","","","","","","","","","","","","","","","","","","",""
"1661","","image-button-response","101","413722","0.0-98.0-0.0","A1TARNH07A75CG","img_art/29.jpg","1","","","","","","","","","","","","","","","","","","","","","","","","",""
"1413","","image-button-response","102","415139","0.0-99.0-0.0","A1TARNH07A75CG","img_art/29.jpg","2","","","","","","","","","","","","","","","","","","","","","","","","",""
"null","","html-keyboard-response","103","415641","0.0-100.0","A1TARNH07A75CG","<p style=""font-size: 48px;"">+</p>","","","","","null","allTrialResponses","500","1","8","img_art/29.jpg","0","I don't know what to think of this one","Blake,Peter,Colton,Vincent,Corey,Alejandro","a hot fireplace with things to burn. warm,12,280,20","Looks like a jail cell,-15,320,20","interesting, but I wouldn't put it on my wall,8,220,20","Another great work of art and very conversational piece,33,360,20","this does nothing for me. hate the colors. hate the design,-50,260,20","Reminiscent of Jackson Pollock with a hint of abstract structure with the bordering.,32,80,20","Corey","this does nothing for me. hate the colors. hate the design,-50,260,20","Peter","Looks like a jail cell,-15,320,20","Colton","interesting, but I wouldn't put it on my wall,8,220,20","6"
"9652","","survey-text","104","425299","0.0-101.0-0.0","A1TARNH07A75CG","","","","{""Q0"":""looks like a summer day""}","","","","","","","","","","","","","","","","","","","","","","",""
"6253","","image-slider-response","105","431555","0.0-102.0","A1TARNH07A75CG","","","","","9","","","","","","","","","","","","","","","","","","","","","",""
"1902","","image-button-response","106","436557","0.0-103.0","A1TARNH07A75CG","img_art/27.jpg","0","","","","","","","","","","","","","","","","","","","","","","","","",""
"2412","","image-button-response","107","438972","0.0-104.0","A1TARNH07A75CG","img_art/27.jpg","1","","","","","","","","","","","","","","","","","","","","","","","","",""
"454","","image-button-response","108","439429","0.0-105.0-0.0","A1TARNH07A75CG","img_art/27.jpg","2","","","","","","","","","","","","","","","","","","","","","","","","",""
"522","","image-button-response","109","439954","0.0-106.0-0.0","A1TARNH07A75CG","img_art/27.jpg","0","","","","","","","","","","","","","","","","","","","","","","","","",""
"null","","html-keyboard-response","110","441456","0.0-107.0","A1TARNH07A75CG","<p style=""font-size: 48px;"">+</p>","","","","","null","allTrialResponses","1500","1","9","img_art/27.jpg","9","looks like a summer day","Bradley,Peter,Colton,Victor,Corey,Taylor","Yikes. I think I made this in kindergarten.,-20,300,20","Calming sky , relaxing,23,320,20","looks like a little kid did it,-30,220,20","doesn't look like any effort was put into this piece.,-19,340,20","this is ugly and does nothing for me,-35,260,20","Looks like a child added his own interpretation with a black marker.,-5,200,20","Peter","Calming sky , relaxing,23,320,20","Colton","looks like a little kid did it,-30,220,20","Bradley","Yikes. I think I made this in kindergarten.,-20,300,20","6"
"12194","","survey-text","111","453659","0.0-108.0-0.0","A1TARNH07A75CG","","","","{""Q0"":""I see a horse and a ship""}","","","","","","","","","","","","","","","","","","","","","","",""
"3414","","image-slider-response","112","457075","0.0-109.0","A1TARNH07A75CG","","","","","1","","","","","","","","","","","","","","","","","","","","","",""
"null","","image-button-response","113","462080","0.0-110.0","A1TARNH07A75CG","img_art/10.jpg","null","","","","","","","","","","","","","","","","","","","","","","","","",""
"683","","image-button-response","114","462765","0.0-111.0","A1TARNH07A75CG","img_art/10.jpg","0","","","","","","","","","","","","","","","","","","","","","","","","",""
"5836","","image-button-response","115","468604","0.0-112.0-0.0","A1TARNH07A75CG","img_art/10.jpg","4","","","","","","","","","","","","","","","","","","","","","","","","",""
"301","","image-button-response","116","468908","0.0-113.0-0.0","A1TARNH07A75CG","img_art/10.jpg","5","","","","","","","","","","","","","","","","","","","","","","","","",""
"null","","html-keyboard-response","117","470420","0.0-114.0","A1TARNH07A75CG","<p style=""font-size: 48px;"">+</p>","","","","","null","allTrialResponses","1500","1","10","img_art/10.jpg","1","I see a horse and a ship","Bradley,Peter,Colton,Steven,Cole,Mitchell","This piece is very intriguing to me.,3,300,20","I don't hate but don't like it because it looks like a oil slick,2,320,20","it looks very musical,24,220,20","I dont like it, there is too much going on,-19,160,20","It confuses me. I dont know whats going on,14,200,20","Circle of life, with highs and lows, good and bad. You always weather the storm and come out on top.,40,180,20","Bradley","This piece is very intriguing to me.,3,300,20","Cole","It confuses me. I dont know whats going on,14,200,20","Mitchell","Circle of life, with highs and lows, good and bad. You always weather the storm and come out on top.,40,180,20","6"
"6244","","survey-text","118","476674","0.0-115.0-0.0","A1TARNH07A75CG","","","","{""Q0"":""our""}","","","","","","","","","","","","","","","","","","","","","","",""
"10973","","survey-text","119","487650","0.0-116.0-0.0","A1TARNH07A75CG","","","","{""Q0"":""Doesn't do anything for me""}","","","","","","","","","","","","","","","","","","","","","","",""
"7133","","image-slider-response","120","494786","0.0-117.0","A1TARNH07A75CG","","","","","0","","","","","","","","","","","","","","","","","","","","","",""
"null","","image-button-response","121","499789","0.0-118.0","A1TARNH07A75CG","img_art/14.jpg","null","","","","","","","","","","","","","","","","","","","","","","","","",""
"108","","image-button-response","122","499899","0.0-119.0","A1TARNH07A75CG","img_art/14.jpg","4","","","","","","","","","","","","","","","","","","","","","","","","",""
"798","","image-button-response","123","500699","0.0-120.0-0.0","A1TARNH07A75CG","img_art/14.jpg","5","","","","","","","","","","","","","","","","","","","","","","","","",""
"949","","image-button-response","124","501651","0.0-121.0-0.0","A1TARNH07A75CG","img_art/14.jpg","2","","","","","","","","","","","","","","","","","","","","","","","","",""
"null","","html-keyboard-response","125","502152","0.0-122.0","A1TARNH07A75CG","<p style=""font-size: 48px;"">+</p>","","","","","null","allTrialResponses","500","1","11","img_art/14.jpg","0","Doesn't do anything for me","Bradley,Tristan,Thomas,Evan,Cole,Mitchell","I don't know why, but this piece makes me happy.,20,300,20","In others I might say the colors are garish. Here it works perfectly. The balance is wondrous and unlimiting.,25,300,20","I like the colors in the background, but not the bottom/center. It almost looks sloppy.,-20,220,20","I like the sharpness of the lines,20,140,20","Simplistic. Looks like a child did it,14,200,20","Tornado, nature. trees falling and displaced creatures. Love the colors though.,1,180,20","Cole","Simplistic. Looks like a child did it,14,200,20","Mitchell","Tornado, nature. trees falling and displaced creatures. Love the colors though.,1,180,20","Thomas","I like the colors in the background, but not the bottom/center. It almost looks sloppy.,-20,220,20","6"
"11667","","survey-text","126","513826","0.0-123.0-0.0","A1TARNH07A75CG","","","","{""Q0"":""I hate this one""}","","","","","","","","","","","","","","","","","","","","","","",""
"2261","","image-slider-response","127","516089","0.0-124.0","A1TARNH07A75CG","","","","","-50","","","","","","","","","","","","","","","","","","","","","",""
"4031","","image-button-response","128","521092","0.0-125.0","A1TARNH07A75CG","img_art/21.jpg","0","","","","","","","","","","","","","","","","","","","","","","","","",""
"652","","image-button-response","129","521746","0.0-126.0","A1TARNH07A75CG","img_art/21.jpg","0","","","","","","","","","","","","","","","","","","","","","","","","",""
"878","","image-button-response","130","522627","0.0-127.0-0.0","A1TARNH07A75CG","img_art/21.jpg","4","","","","","","","","","","","","","","","","","","","","","","","","",""
"4560","","image-button-response","131","527190","0.0-128.0-0.0","A1TARNH07A75CG","img_art/21.jpg","1","","","","","","","","","","","","","","","","","","","","","","","","",""
"null","","html-keyboard-response","132","527692","0.0-129.0","A1TARNH07A75CG","<p style=""font-size: 48px;"">+</p>","","","","","null","allTrialResponses","500","1","12","img_art/21.jpg","-50","I hate this one","Stephen,Nathaniel,Thomas,Miguel,Cole,Mitchell","Don't see anything special about it,-21,140,20","Looks like two ships on fire. Cool image.,12,220,20","Again, I love the use of color,50,220,20","Amazing colors.,34,160,20","Unfinished. Confusing to look at,-12,200,20","Nature, water, ever changing. Cold then warm. Reaction is mostly positive and some negative,30,180,20","Stephen","Don't see anything special about it,-21,140,20","Cole","Unfinished. Confusing to look at,-12,200,20","Nathaniel","Looks like two ships on fire. Cool image.,12,220,20","6"
"11533","","survey-text","133","539233","0.0-130.0-0.0","A1TARNH07A75CG","","","","{""Q0"":""looks like ghostly trees""}","","","","","","","","","","","","","","","","","","","","","","",""
"5518","","image-slider-response","134","544753","0.0-131.0","A1TARNH07A75CG","","","","","-1","","","","","","","","","","","","","","","","","","","","","",""
"4774","","image-button-response","135","549758","0.0-132.0","A1TARNH07A75CG","img_art/17.jpg","4","","","","","","","","","","","","","","","","","","","","","","","","",""
"1281","","image-button-response","136","551042","0.0-133.0","A1TARNH07A75CG","img_art/17.jpg","4","","","","","","","","","","","","","","","","","","","","","","","","",""
"420","","image-button-response","137","551467","0.0-134.0-0.0","A1TARNH07A75CG","img_art/17.jpg","5","","","","","","","","","","","","","","","","","","","","","","","","",""
"1723","","image-button-response","138","553194","0.0-135.0-0.0","A1TARNH07A75CG","img_art/17.jpg","0","","","","","","","","","","","","","","","","","","","","","","","","",""
"null","","html-keyboard-response","139","554696","0.0-136.0","A1TARNH07A75CG","<p style=""font-size: 48px;"">+</p>","","","","","null","allTrialResponses","1500","1","13","img_art/17.jpg","-1","looks like ghostly trees","Stephen,Nathaniel,Cameron,Justin,Cole,Bryce","I like the colorfulness.,17,140,20","I like the artistic sketching pattern.,24,220,20","doorways and trees are pleasant,30,60,20","I like the colors and the design.,20,280,20","It looks unfinished,-7,200,20","Doesnt really do anythingb for me.,4,20,20","Cole","It looks unfinished,-7,200,20","Bryce","Doesnt really do anythingb for me.,4,20,20","Stephen","I like the colorfulness.,17,140,20","6"
"17690","","survey-text","140","572394","0.0-137.0-0.0","A1TARNH07A75CG","","","","{""Q0"":""this looks like a brownie with rainbow sprinkles""}","","","","","","","","","","","","","","","","","","","","","","",""
"3773","","image-slider-response","141","576169","0.0-138.0","A1TARNH07A75CG","","","","","0","","","","","","","","","","","","","","","","","","","","","",""
"4862","","image-button-response","142","581172","0.0-139.0","A1TARNH07A75CG","img_art/23.jpg","0","","","","","","","","","","","","","","","","","","","","","","","","",""
"891","","image-button-response","143","582066","0.0-140.0","A1TARNH07A75CG","img_art/23.jpg","0","","","","","","","","","","","","","","","","","","","","","","","","",""
"661","","image-button-response","144","582730","0.0-141.0-0.0","A1TARNH07A75CG","img_art/23.jpg","3","","","","","","","","","","","","","","","","","","","","","","","","",""
"1437","","image-button-response","145","584170","0.0-142.0-0.0","A1TARNH07A75CG","img_art/23.jpg","1","","","","","","","","","","","","","","","","","","","","","","","","",""
"null","","html-keyboard-response","146","584671","0.0-143.0","A1TARNH07A75CG","<p style=""font-size: 48px;"">+</p>","","","","","null","allTrialResponses","500","1","14","img_art/23.jpg","0","this looks like a brownie with rainbow sprinkles","Stephen,Juan,Kenneth,Dalton,Cole,Bryce","Solid colors but the white throws it off for me.,4,140,20","This is ugly and weird.,-50,260,20","Love this. I love the white, really pops with the colors surrounding it.,44,300,20","illegible wording with a graffiti background,1,300,20","White in the middle look like people dancing naked,19,200,20","So beautiful with the white accents.,50,20,20","Stephen","Solid colors but the white throws it off for me.,4,140,20","Dalton","illegible wording with a graffiti background,1,300,20","Juan","This is ugly and weird.,-50,260,20","6"
"16225","","survey-text","147","600906","0.0-144.0-0.0","A1TARNH07A75CG","","","","{""Q0"":""looks like a child did it""}","","","","","","","","","","","","","","","","","","","","","","",""
"1661","","image-slider-response","148","602569","0.0-145.0","A1TARNH07A75CG","","","","","-20","","","","","","","","","","","","","","","","","","","","","",""
"2452","","image-button-response","149","607573","0.0-146.0","A1TARNH07A75CG","img_art/1.jpg","1","","","","","","","","","","","","","","","","","","","","","","","","",""
"475","","image-button-response","150","608050","0.0-147.0","A1TARNH07A75CG","img_art/1.jpg","0","","","","","","","","","","","","","","","","","","","","","","","","",""
"326","","image-button-response","151","608378","0.0-148.0-0.0","A1TARNH07A75CG","img_art/1.jpg","1","","","","","","","","","","","","","","","","","","","","","","","","",""
"358","","image-button-response","152","608738","0.0-149.0-0.0","A1TARNH07A75CG","img_art/1.jpg","2","","","","","","","","","","","","","","","","","","","","","","","","",""
"null","","html-keyboard-response","153","609759","0.0-150.0","A1TARNH07A75CG","<p style=""font-size: 48px;"">+</p>","","","","","null","allTrialResponses","1000","1","15","img_art/1.jpg","-20","looks like a child did it","Stephen,Juan,Nathan,Dalton,Robert,Chase","Nothing really going on but good color choices.,-3,140,20","I don't like how this one makes me feel.,-32,260,20","Not a fan of the mood, overly party-ish and bright colors do not suit my taste,-40,200,20","the colors are vibrant and beautiful,1,300,20","Pretty colors. Fall day in the East Coast of USA.,42,360,20","It's alright but lacks any depth.,-5,120,20","Stephen","Nothing really going on but good color choices.,-3,140,20","Juan","I don't like how this one makes me feel.,-32,260,20","Nathan","Not a fan of the mood, overly party-ish and bright colors do not suit my taste,-40,200,20","6"
"5204","","survey-text","154","614978","0.0-151.0-0.0","A1TARNH07A75CG","","","","{""Q0"":""course""}","","","","","","","","","","","","","","","","","","","","","","",""
"16925","","survey-text","155","631906","0.0-152.0-0.0","A1TARNH07A75CG","","","","{""Q0"":""it looks like someone copied and pasted""}","","","","","","","","","","","","","","","","","","","","","","",""
"3157","","image-slider-response","156","635065","0.0-153.0","A1TARNH07A75CG","","","","","-7","","","","","","","","","","","","","","","","","","","","","",""
"null","","image-button-response","157","640067","0.0-154.0","A1TARNH07A75CG","img_art/16.jpg","null","","","","","","","","","","","","","","","","","","","","","","","","",""
"2205","","image-button-response","158","642274","0.0-155.0","A1TARNH07A75CG","img_art/16.jpg","1","","","","","","","","","","","","","","","","","","","","","","","","",""
"2245","","image-button-response","159","644522","0.0-156.0-0.0","A1TARNH07A75CG","img_art/16.jpg","4","","","","","","","","","","","","","","","","","","","","","","","","",""
"555","","image-button-response","160","645082","0.0-157.0-0.0","A1TARNH07A75CG","img_art/16.jpg","5","","","","","","","","","","","","","","","","","","","","","","","","",""
"null","","html-keyboard-response","161","646583","0.0-158.0","A1TARNH07A75CG","<p style=""font-size: 48px;"">+</p>","","","","","null","allTrialResponses","1500","1","16","img_art/16.jpg","-7","it looks like someone copied and pasted","Stephen,Juan,Nathan,Benjamin,Cody,Nicholas","Cute but there's a lot going on.,7,140,20","This is too bizarre.,-39,260,20","I enjoy how slightly strange this is, while seeming to still have some message,20,200,20","Don't like the teddy bear. It takes away from the painting.,-39,260,20","Kind of creepyyyyyy,-41,180,20","Creepy teddybear,-50,240,20","Juan","This is too bizarre.,-39,260,20","Cody","Kind of creepyyyyyy,-41,180,20","Nicholas","Creepy teddybear,-50,240,20","6"
"18410","","survey-text","162","665002","0.0-159.0-0.0","A1TARNH07A75CG","","","","{""Q0"":""I see a building and trees""}","","","","","","","","","","","","","","","","","","","","","","",""
"2301","","image-slider-response","163","667306","0.0-160.0","A1TARNH07A75CG","","","","","2","","","","","","","","","","","","","","","","","","","","","",""
"3741","","image-button-response","164","672319","0.0-161.0","A1TARNH07A75CG","img_art/26.jpg","3","","","","","","","","","","","","","","","","","","","","","","","","",""
"1744","","image-button-response","165","674067","0.0-162.0","A1TARNH07A75CG","img_art/26.jpg","3","","","","","","","","","","","","","","","","","","","","","","","","",""
"949","","image-button-response","166","675018","0.0-163.0-0.0","A1TARNH07A75CG","img_art/26.jpg","1","","","","","","","","","","","","","","","","","","","","","","","","",""
"821","","image-button-response","167","675842","0.0-164.0-0.0","A1TARNH07A75CG","img_art/26.jpg","2","","","","","","","","","","","","","","","","","","","","","","","","",""
"null","","html-keyboard-response","168","677343","0.0-165.0","A1TARNH07A75CG","<p style=""font-size: 48px;"">+</p>","","","","","null","allTrialResponses","1500","1","17","img_art/26.jpg","2","I see a building and trees","Hunter,Juan,Gabriel,Marcus,Cody,Nicholas","feels incomplete,-50,240,20","Something I'd see in a thrift store. It looks like not much effort was used to paint this.,9,260,20","this is nice!! i like the muted colors,34,160,20","Nice, but not very interesting. I do like the blue tree though.,6,60,20","Looks unfinished,-31,180,20","I like the colors and trees. Seems cheap vintage retail store art but i love it anyways,50,240,20","Marcus","Nice, but not very interesting. I do like the blue tree though.,6,60,20","Juan","Something I'd see in a thrift store. It looks like not much effort was used to paint this.,9,260,20","Gabriel","this is nice!! i like the muted colors,34,160,20","6"
"7841","","survey-text","169","685193","0.0-166.0-0.0","A1TARNH07A75CG","","","","{""Q0"":""old town road""}","","","","","","","","","","","","","","","","","","","","","","",""
"2588","","image-slider-response","170","687786","0.0-167.0","A1TARNH07A75CG","","","","","-38","","","","","","","","","","","","","","","","","","","","","",""
"3205","","image-button-response","171","692789","0.0-168.0","A1TARNH07A75CG","img_art/20.jpg","0","","","","","","","","","","","","","","","","","","","","","","","","",""
"597","","image-button-response","172","693389","0.0-169.0","A1TARNH07A75CG","img_art/20.jpg","0","","","","","","","","","","","","","","","","","","","","","","","","",""
"825","","image-button-response","173","694218","0.0-170.0-0.0","A1TARNH07A75CG","img_art/20.jpg","1","","","","","","","","","","","","","","","","","","","","","","","","",""
"773","","image-button-response","174","694994","0.0-171.0-0.0","A1TARNH07A75CG","img_art/20.jpg","2","","","","","","","","","","","","","","","","","","","","","","","","",""
"null","","html-keyboard-response","175","695495","0.0-172.0","A1TARNH07A75CG","<p style=""font-size: 48px;"">+</p>","","","","","null","allTrialResponses","500","1","18","img_art/20.jpg","-38","old town road","Luke,Juan,Gabriel,Marcus,Jose,Antonio","it looks like a car crash which is depressing,-19,20,20","I like the deep blues, but I don't like the way this picture makes me feel.,-13,260,20","i almost feel like i can recognize what this is,-6,160,20","I like the blues, and the sense of foreboding it makes me feel.,20,60,20","More dark colors and blurry objects.,13,200,20","Makes me feel weary,21,220,20","Luke","it looks like a car crash which is depressing,-19,20,20","Juan","I like the deep blues, but I don't like the way this picture makes me feel.,-13,260,20","Gabriel","i almost feel like i can recognize what this is,-6,160,20","6"
"11010","","survey-text","176","706514","0.0-173.0-0.0","A1TARNH07A75CG","","","","{""Q0"":""I see a mouth and big teeth""}","","","","","","","","","","","","","","","","","","","","","","",""
"2469","","image-slider-response","177","708985","0.0-174.0","A1TARNH07A75CG","","","","","13","","","","","","","","","","","","","","","","","","","","","",""
"null","","image-button-response","178","713988","0.0-175.0","A1TARNH07A75CG","img_art/9.jpg","null","","","","","","","","","","","","","","","","","","","","","","","","",""
"561","","image-button-response","179","714554","0.0-176.0","A1TARNH07A75CG","img_art/9.jpg","3","","","","","","","","","","","","","","","","","","","","","","","","",""
"5420","","image-button-response","180","719978","0.0-177.0-0.0","A1TARNH07A75CG","img_art/9.jpg","5","","","","","","","","","","","","","","","","","","","","","","","","",""
"3397","","image-button-response","181","723378","0.0-178.0-0.0","A1TARNH07A75CG","img_art/9.jpg","4","","","","","","","","","","","","","","","","","","","","","","","","",""
"null","","html-keyboard-response","182","724381","0.0-179.0","A1TARNH07A75CG","<p style=""font-size: 48px;"">+</p>","","","","","null","allTrialResponses","1000","1","19","img_art/9.jpg","13","I see a mouth and big teeth","Luke,Juan,Gabriel,Shane,Angel,Kyle","it makes me feel excited and draws my eye around,24,20,20","It's too abstract for my taste. I wish there were more definition.,-9,260,20","i like the colors but not the composition,-17,160,20","Angry beast mouth,-37,80,20","This feels dreamy. Like I'm seeing inside someone's head while they're sleeping.,20,180,20","I like abstract art that looks that there is more than random brush strokes. This one looks the former,10,340,20","Shane","Angry beast mouth,-37,80,20","Kyle","I like abstract art that looks that there is more than random brush strokes. This one looks the former,10,340,20","Angel","This feels dreamy. Like I'm seeing inside someone's head while they're sleeping.,20,180,20","6"
"22683","","survey-text","183","747073","0.0-180.0-0.0","A1TARNH07A75CG","","","","{""Q0"":""It looks like NYC in the 80's""}","","","","","","","","","","","","","","","","","","","","","","",""
"2261","","image-slider-response","184","749338","0.0-181.0","A1TARNH07A75CG","","","","","21","","","","","","","","","","","","","","","","","","","","","",""
"4892","","image-button-response","185","754342","0.0-182.0","A1TARNH07A75CG","img_art/30.jpg","0","","","","","","","","","","","","","","","","","","","","","","","","",""
"489","","image-button-response","186","754834","0.0-183.0","A1TARNH07A75CG","img_art/30.jpg","0","","","","","","","","","","","","","","","","","","","","","","","","",""
"398","","image-button-response","187","755234","0.0-184.0-0.0","A1TARNH07A75CG","img_art/30.jpg","1","","","","","","","","","","","","","","","","","","","","","","","","",""
"1029","","image-button-response","188","756266","0.0-185.0-0.0","A1TARNH07A75CG","img_art/30.jpg","4","","","","","","","","","","","","","","","","","","","","","","","","",""
"null","","html-keyboard-response","189","756767","0.0-186.0","A1TARNH07A75CG","<p style=""font-size: 48px;"">+</p>","","","","","null","allTrialResponses","500","1","20","img_art/30.jpg","21","It looks like NYC in the 80's","Lucas,Dylan,Carlos,Shane,Angel,Kyle","I like the way the artist has painted his work.,40,380,20","I really love the pastel colors and the 3D design in this,43,40,20","It just feels hasty and not well composed. Has an angsty teen feel,-31,80,20","I like the back but the red lines in the front distress me,-7,80,20","It's like a child's art piece: carefree and not trying to conform to anything.,10,180,20","Pretty neutral about this one,0,340,20","Lucas","I like the way the artist has painted his work.,40,380,20","Dylan","I really love the pastel colors and the 3D design in this,43,40,20","Angel","It's like a child's art piece: carefree and not trying to conform to anything.,10,180,20","6"
"4122","","survey-text","190","760905","0.0-187.0-0.0","A1TARNH07A75CG","","","","{""Q0"":""we""}","","","","","","","","","","","","","","","","","","","","","","",""
"15262","","survey-text","191","776169","0.0-188.0-0.0","A1TARNH07A75CG","","","","{""Q0"":""white fur in the forest""}","","","","","","","","","","","","","","","","","","","","","","",""
"2382","","image-slider-response","192","778553","0.0-189.0","A1TARNH07A75CG","","","","","21","","","","","","","","","","","","","","","","","","","","","",""
"4486","","image-button-response","193","783556","0.0-190.0","A1TARNH07A75CG","img_art/24.jpg","0","","","","","","","","","","","","","","","","","","","","","","","","",""
"419","","image-button-response","194","783978","0.0-191.0","A1TARNH07A75CG","img_art/24.jpg","0","","","","","","","","","","","","","","","","","","","","","","","","",""
"517","","image-button-response","195","784498","0.0-192.0-0.0","A1TARNH07A75CG","img_art/24.jpg","1","","","","","","","","","","","","","","","","","","","","","","","","",""
"701","","image-button-response","196","785203","0.0-193.0-0.0","A1TARNH07A75CG","img_art/24.jpg","2","","","","","","","","","","","","","","","","","","","","","","","","",""
"null","","html-keyboard-response","197","786204","0.0-194.0","A1TARNH07A75CG","<p style=""font-size: 48px;"">+</p>","","","","","null","allTrialResponses","1000","1","21","img_art/24.jpg","21","white fur in the forest","Lucas,Dylan,Eric,Adam,Angel,Edward","Extraordinary and unusual.,30,380,20","This reminds me of a creek or a river. It puts me a peace,42,40,20","I'm reminded of a waterfall, but I feel like it could've been better portrayed.,5,100,20","I appreciate the earth tones. Soothing.,5,40,20","This is clear and healthy. It makes me think of unspoiled nature.,20,180,20","Very pretty and soft,37,60,20","Lucas","Extraordinary and unusual.,30,380,20","Dylan","This reminds me of a creek or a river. It puts me a peace,42,40,20","Eric","I'm reminded of a waterfall, but I feel like it could've been better portrayed.,5,100,20","6"
"11713","","survey-text","198","797929","0.0-195.0-0.0","A1TARNH07A75CG","","","","{""Q0"":""looks like little tiny bugs""}","","","","","","","","","","","","","","","","","","","","","","",""
"2633","","image-slider-response","199","800564","0.0-196.0","A1TARNH07A75CG","","","","","-17","","","","","","","","","","","","","","","","","","","","","",""
"4859","","image-button-response","200","805569","0.0-197.0","A1TARNH07A75CG","img_art/15.jpg","0","","","","","","","","","","","","","","","","","","","","","","","","",""
"262","","image-button-response","201","805833","0.0-198.0","A1TARNH07A75CG","img_art/15.jpg","0","","","","","","","","","","","","","","","","","","","","","","","","",""
"726","","image-button-response","202","806562","0.0-199.0-0.0","A1TARNH07A75CG","img_art/15.jpg","2","","","","","","","","","","","","","","","","","","","","","","","","",""
"294","","image-button-response","203","806858","0.0-200.0-0.0","A1TARNH07A75CG","img_art/15.jpg","2","","","","","","","","","","","","","","","","","","","","","","","","",""
"222","","image-button-response","204","809082","0.0-200.1-0.1","A1TARNH07A75CG","img_art/15.jpg","3","","","","","","","","","","","","","","","","","","","","","","","","",""
"null","","html-keyboard-response","205","811094","0.0-201.0","A1TARNH07A75CG","<p style=""font-size: 48px;"">+</p>","","","","","null","allTrialResponses","1500","1","22","img_art/15.jpg","-17","looks like little tiny bugs","Lucas,Dylan,Eric,Travis,John,Sean","I can't see the meaning of the painting.,-30,380,20","This is sort of ugly, but I do like the design.,10,40,20","This picture is too confusing for me. I wouldn't want to stare at it to figure it out.,-10,100,20","Hate it...black dots.,-47,260,20","Uninteresting and too much black,-30,120,20","my response to the picture is that I dont know what I am looking at,-25,40,20","Lucas","I can't see the meaning of the painting.,-30,380,20","Eric","This picture is too confusing for me. I wouldn't want to stare at it to figure it out.,-10,100,20","Travis","Hate it...black dots.,-47,260,20","8"
"135924","","survey-text","206","947041","0.0-202.0-0.0","A1TARNH07A75CG","","","","{""Q0"":""I like what I see""}","","","","","","","","","","","","","","","","","","","","","","",""
"2380","","image-slider-response","207","949425","0.0-203.0","A1TARNH07A75CG","","","","","32","","","","","","","","","","","","","","","","","","","","","",""
"null","","image-button-response","208","954429","0.0-204.0","A1TARNH07A75CG","img_art/12.jpg","null","","","","","","","","","","","","","","","","","","","","","","","","",""
"3322","","image-button-response","209","957754","0.0-205.0","A1TARNH07A75CG","img_art/12.jpg","2","","","","","","","","","","","","","","","","","","","","","","","","",""
"855","","image-button-response","210","958612","0.0-206.0-0.0","A1TARNH07A75CG","img_art/12.jpg","0","","","","","","","","","","","","","","","","","","","","","","","","",""
"4427","","image-button-response","211","963043","0.0-207.0-0.0","A1TARNH07A75CG","img_art/12.jpg","3","","","","","","","","","","","","","","","","","","","","","","","","",""
"null","","html-keyboard-response","212","963545","0.0-208.0","A1TARNH07A75CG","<p style=""font-size: 48px;"">+</p>","","","","","null","allTrialResponses","500","1","23","img_art/12.jpg","32","I like what I see","Lucas,Noah,Eric,Travis,Devon,Zachary","Seems to be puzzles.,25,380,20","evokes the 80s, and not in a necessarily good way,-10,260,20","I don't like the dark black with the bright colors, but this as a whole is nice.,25,100,20","Neutral...just blocks.,3,260,20","too much - just overcrowded,-20,400,20","I like how it's split into tiny squares, but otherwise, not very intriguing.,-18,400,20","Eric","I don't like the dark black with the bright colors, but this as a whole is nice.,25,100,20","Lucas","Seems to be puzzles.,25,380,20","Travis","Neutral...just blocks.,3,260,20","8"
"11244","","survey-text","213","974801","0.0-209.0-0.0","A1TARNH07A75CG","","","","{""Q0"":""looks like rain drops""}","","","","","","","","","","","","","","","","","","","","","","",""
"9222","","image-slider-response","214","984025","0.0-210.0","A1TARNH07A75CG","","","","","8","","","","","","","","","","","","","","","","","","","","","",""
"1708","","image-button-response","215","989028","0.0-211.0","A1TARNH07A75CG","img_art/13.jpg","1","","","","","","","","","","","","","","","","","","","","","","","","",""
"539","","image-button-response","216","989570","0.0-212.0","A1TARNH07A75CG","img_art/13.jpg","0","","","","","","","","","","","","","","","","","","","","","","","","",""
"390","","image-button-response","217","989962","0.0-213.0-0.0","A1TARNH07A75CG","img_art/13.jpg","1","","","","","","","","","","","","","","","","","","","","","","","","",""
"2597","","image-button-response","218","992562","0.0-214.0-0.0","A1TARNH07A75CG","img_art/13.jpg","3","","","","","","","","","","","","","","","","","","","","","","","","",""
"null","","html-keyboard-response","219","993564","0.0-215.0","A1TARNH07A75CG","<p style=""font-size: 48px;"">+</p>","","","","","null","allTrialResponses","1000","1","24","img_art/13.jpg","8","looks like rain drops","Lucas,Jordan,Eric,Travis,Ian,Garrett","Incredible, curious.,20,380,20","This is easy to look at,46,160,20","I love the style of this piece, but the color choice could've been more eye catching or calming.,40,100,20","I love the colors and the texture,37,260,20","This looks like something that could be made off of windows paint, not a huge fan.,-30,260,20","It looks like someone splattered a bunch of different colors to make a picture; I think its ugly.,-40,180,20","Lucas","Incredible, curious.,20,380,20","Jordan","This is easy to look at,46,160,20","Travis","I love the colors and the texture,37,260,20","8"
"12949","","survey-text","220","1006521","0.0-216.0-0.0","A1TARNH07A75CG","","","","{""Q0"":""looks like a busy town""}","","","","","","","","","","","","","","","","","","","","","","",""
"2517","","image-slider-response","221","1009041","0.0-217.0","A1TARNH07A75CG","","","","","0","","","","","","","","","","","","","","","","","","","","","",""
"4693","","image-button-response","222","1014043","0.0-218.0","A1TARNH07A75CG","img_art/11.jpg","1","","","","","","","","","","","","","","","","","","","","","","","","",""
"323","","image-button-response","223","1014370","0.0-219.0","A1TARNH07A75CG","img_art/11.jpg","1","","","","","","","","","","","","","","","","","","","","","","","","",""
"917","","image-button-response","224","1015290","0.0-220.0-0.0","A1TARNH07A75CG","img_art/11.jpg","1","","","","","","","","","","","","","","","","","","","","","","","","",""
"527","","image-button-response","225","1018474","0.0-220.1-0.1","A1TARNH07A75CG","img_art/11.jpg","4","","","","","","","","","","","","","","","","","","","","","","","","",""
"525","","image-button-response","226","1019002","0.0-221.0-0.0","A1TARNH07A75CG","img_art/11.jpg","5","","","","","","","","","","","","","","","","","","","","","","","","",""
"null","","html-keyboard-response","227","1020005","0.0-222.0","A1TARNH07A75CG","<p style=""font-size: 48px;"">+</p>","","","","","null","allTrialResponses","1000","1","25","img_art/11.jpg","0","looks like a busy town","Lucas,Jordan,Jeffrey,Travis,Brian,Jason","Astounding, extraordinary.,25,380,20","Rainy highways in RI,20,160,20","a lot of dark colours,-8,40,20","I liked it it looked like an roller coasters at an amusment park.,16,260,20","this looks like a beautiful rainy day in a hellish urban mountain city,14,380,20","Interesting use of color,9,20,20","Jordan","Rainy highways in RI,20,160,20","Brian","this looks like a beautiful rainy day in a hellish urban mountain city,14,380,20","Jason","Interesting use of color,9,20,20","10"
"4893","","survey-text","228","1024913","0.0-223.0-0.0","A1TARNH07A75CG","","","","{""Q0"":""table""}","","","","","","","","","","","","","","","","","","","","","","",""
"16133","","survey-text","229","1041049","0.0-224.0-0.0","A1TARNH07A75CG","","","","{""Q0"":""it's boring""}","","","","","","","","","","","","","","","","","","","","","","",""
"3566","","image-slider-response","230","1044617","0.0-225.0","A1TARNH07A75CG","","","","","-27","","","","","","","","","","","","","","","","","","","","","",""
"3062","","image-button-response","231","1049620","0.0-226.0","A1TARNH07A75CG","img_art/5.jpg","2","","","","","","","","","","","","","","","","","","","","","","","","",""
"694","","image-button-response","232","1050317","0.0-227.0","A1TARNH07A75CG","img_art/5.jpg","3","","","","","","","","","","","","","","","","","","","","","","","","",""
"1914","","image-button-response","233","1052234","0.0-228.0-0.0","A1TARNH07A75CG","img_art/5.jpg","2","","","","","","","","","","","","","","","","","","","","","","","","",""
"805","","image-button-response","234","1053042","0.0-229.0-0.0","A1TARNH07A75CG","img_art/5.jpg","5","","","","","","","","","","","","","","","","","","","","","","","","",""
"null","","html-keyboard-response","235","1053543","0.0-230.0","A1TARNH07A75CG","<p style=""font-size: 48px;"">+</p>","","","","","null","allTrialResponses","500","1","26","img_art/5.jpg","-27","it's boring","Joseph,Jordan,Devin,Aaron,Brian,Jason","I like that the pyramid is putting off a beacon of light.,11,220,20","Reminds me of a broken umbrella,-9,160,20","A bit too messy in my eyes,-4,380,20","It's kind of boring.,-20,20,20","I like this one but wish it had more context around it,18,380,20","Wish the background had been kept clean; distracts from main object,11,20,20","Aaron","It's kind of boring.,-20,20,20","Devin","A bit too messy in my eyes,-4,380,20","Jason","Wish the background had been kept clean; distracts from main object,11,20,20","10"
"15378","","survey-text","236","1068930","0.0-231.0-0.0","A1TARNH07A75CG","","","","{""Q0"":""reminds me of crabs in the sand""}","","","","","","","","","","","","","","","","","","","","","","",""
"276606","","image-slider-response","237","1345539","0.0-232.0","A1TARNH07A75CG","","","","","10","","","","","","","","","","","","","","","","","","","","","",""
"null","","image-button-response","238","1351519","0.0-233.0","A1TARNH07A75CG","img_art/7.jpg","null","","","","","","","","","","","","","","","","","","","","","","","","",""
"50705","","image-button-response","239","1402243","0.0-234.0","A1TARNH07A75CG","img_art/7.jpg","1","","","","","","","","","","","","","","","","","","","","","","","","",""
"254","","image-button-response","240","1402500","0.0-235.0-0.0","A1TARNH07A75CG","img_art/7.jpg","0","","","","","","","","","","","","","","","","","","","","","","","","",""
"378","","image-button-response","241","1402881","0.0-236.0-0.0","A1TARNH07A75CG","img_art/7.jpg","2","","","","","","","","","","","","","","","","","","","","","","","","",""
"null","","html-keyboard-response","242","1403882","0.0-237.0","A1TARNH07A75CG","<p style=""font-size: 48px;"">+</p>","","","","","null","allTrialResponses","1000","1","27","img_art/7.jpg","10","reminds me of crabs in the sand","Jorge,Luis,Devin,Aaron,Brett,Jason","time and change,1,180,20","Not getting the vibe i would like from this,-30,400,20","Not very big on the sameness here,-20,380,20","It's kind of ugly but I like the texture.,10,20,20","No particular reaction to this,10,360,20","Boring  and lacks color,-11,20,20","Luis","Not getting the vibe i would like from this,-30,400,20","Jorge","time and change,1,180,20","Devin","Not very big on the sameness here,-20,380,20","10"
"11053","","survey-text","243","1414953","0.0-238.0-0.0","A1TARNH07A75CG","","","","{""Q0"":""looks like a big pretzel ""}","","","","","","","","","","","","","","","","","","","","","","",""
"75766","","image-slider-response","244","1490720","0.0-239.0","A1TARNH07A75CG","","","","","-1","","","","","","","","","","","","","","","","","","","","","",""
"4949","","image-button-response","245","1495723","0.0-240.0","A1TARNH07A75CG","img_art/4.jpg","3","","","","","","","","","","","","","","","","","","","","","","","","",""
"124","","image-button-response","246","1495849","0.0-241.0","A1TARNH07A75CG","img_art/4.jpg","3","","","","","","","","","","","","","","","","","","","","","","","","",""
"134","","image-button-response","247","1495985","0.0-242.0-0.0","A1TARNH07A75CG","img_art/4.jpg","3","","","","","","","","","","","","","","","","","","","","","","","","",""
"302","","image-button-response","248","1498153","0.0-242.1-0.1","A1TARNH07A75CG","img_art/4.jpg","4","","","","","","","","","","","","","","","","","","","","","","","","",""
"315","","image-button-response","249","1498473","0.0-243.0-0.0","A1TARNH07A75CG","img_art/4.jpg","5","","","","","","","","","","","","","","","","","","","","","","","","",""
"null","","html-keyboard-response","250","1498975","0.0-244.0","A1TARNH07A75CG","<p style=""font-size: 48px;"">+</p>","","","","","null","allTrialResponses","500","1","28","img_art/4.jpg","-1","looks like a big pretzel ","Jorge,Luis,Devin,Brandon,Logan,Ryan","creepy as it looks like fingernails,-23,180,20","Its just not giving the vibe i should be finding,-31,400,20","Not impressed really,-20,380,20","Really don't like this. Kindergarten art, sorry.,-50,320,20","it looks like a preschooler just dragged his fingers around,-36,360,20","Looks like an abstract version of the Scream painting,-50,380,20","Brandon","Really don't like this. Kindergarten art, sorry.,-50,320,20","Logan","it looks like a preschooler just dragged his fingers around,-36,360,20","Ryan","Looks like an abstract version of the Scream painting,-50,380,20","12"
"18701","","survey-text","251","1517688","0.0-245.0-0.0","A1TARNH07A75CG","","","","{""Q0"":""I like the way the colors blend together""}","","","","","","","","","","","","","","","","","","","","","","",""
"2564","","image-slider-response","252","1520256","0.0-246.0","A1TARNH07A75CG","","","","","17","","","","","","","","","","","","","","","","","","","","","",""
"3076","","image-button-response","253","1525259","0.0-247.0","A1TARNH07A75CG","img_art/2.jpg","0","","","","","","","","","","","","","","","","","","","","","","","","",""
"339","","image-button-response","254","1525601","0.0-248.0","A1TARNH07A75CG","img_art/2.jpg","0","","","","","","","","","","","","","","","","","","","","","","","","",""
"1068","","image-button-response","255","1526673","0.0-249.0-0.0","A1TARNH07A75CG","img_art/2.jpg","4","","","","","","","","","","","","","","","","","","","","","","","","",""
"469","","image-button-response","256","1527145","0.0-250.0-0.0","A1TARNH07A75CG","img_art/2.jpg","5","","","","","","","","","","","","","","","","","","","","","","","","",""
"null","","html-keyboard-response","257","1528146","0.0-251.0","A1TARNH07A75CG","<p style=""font-size: 48px;"">+</p>","","","","","null","allTrialResponses","1000","1","29","img_art/2.jpg","17","I like the way the colors blend together","Dakota,Patrick,Mason,Brandon,Logan,Ryan","active and kinetic- simplified,14,280,20","Dark tone feels sad,-30,280,20","retro, amateurish, not a fan of the colors together.,-10,100,20","Do not like this type of abstract work,-50,320,20","omg she's so cute look at that little smile those eyelashes ugh love it,30,360,20","Very simple and childish,40,380,20","Dakota","active and kinetic- simplified,14,280,20","Logan","omg she's so cute look at that little smile those eyelashes ugh love it,30,360,20","Ryan","Very simple and childish,40,380,20","12"
"5605","","survey-text","258","1533760","0.0-252.0-0.0","A1TARNH07A75CG","","","","{""Q0"":""looks simple ""}","","","","","","","","","","","","","","","","","","","","","","",""
"4661","","image-slider-response","259","1538424","0.0-253.0","A1TARNH07A75CG","","","","","0","","","","","","","","","","","","","","","","","","","","","",""
"null","","image-button-response","260","1543426","0.0-254.0","A1TARNH07A75CG","img_art/22.jpg","null","","","","","","","","","","","","","","","","","","","","","","","","",""
"2696","","image-button-response","261","1546125","0.0-255.0","A1TARNH07A75CG","img_art/22.jpg","3","","","","","","","","","","","","","","","","","","","","","","","","",""
"800","","image-button-response","262","1546930","0.0-256.0-0.0","A1TARNH07A75CG","img_art/22.jpg","5","","","","","","","","","","","","","","","","","","","","","","","","",""
"1077","","image-button-response","263","1548010","0.0-257.0-0.0","A1TARNH07A75CG","img_art/22.jpg","0","","","","","","","","","","","","","","","","","","","","","","","","",""
"null","","html-keyboard-response","264","1549012","0.0-258.0","A1TARNH07A75CG","<p style=""font-size: 48px;"">+</p>","","","","","null","allTrialResponses","1000","1","30","img_art/22.jpg","0","looks simple ","Dakota,Paul,Isaiah,Michael,Logan,Ryan","muddy and rough,14,280,20","I really like the bright colors and sunset feel,31,300,20","The painting makes me feel a little sad.,12,300,20","There is some flow and organization.,10,140,20","so boring. Wow you made some circles some squares very nice,-40,360,20","Very generic, seen many times before,-43,380,20","Michael","There is some flow and organization.,10,140,20","Ryan","Very generic, seen many times before,-43,380,20","Dakota","muddy and rough,14,280,20","12"
"2540","","image-button-response_instructions","265","1551561","0.0-259.0","A1TARNH07A75CG","","0","instructions","","","","","","","","","","","","","","","","","","","","","","","",""
"989","","image-button-response","266","1552561","0.0-260.0","A1TARNH07A75CG","","0","","","","","","","","","","","","","","","","","","","","","","","","",""
