"rt","url","trial_type","trial_index","time_elapsed","internal_node_id","participant_id","stimulus","button_pressed","Name","responses","response","key_press","variableName","fixationTime","condition","trial","photo","subjectRating","subjectResponse","agentsNames","agent_1_Response","agent_2_Response","agent_3_Response","agent_4_Response","agent_5_Response","agent_6_Response","kept_1_name","kept_1_response","kept_2_name","kept_2_response","kept_3_name","kept_3_response","errorCounter"
"4646","external_page_harvard.html","external-html","0","4665","0.0-0.0","A1TW2BZRRS874Z","","","","","","","","","","","","","","","","","","","","","","","","","","",""
"1829","","image-button-response","1","6498","0.0-1.0","A1TW2BZRRS874Z","","0","","","","","","","","","","","","","","","","","","","","","","","","",""
"1145","","image-button-response","2","7658","0.0-2.0-0.0","A1TW2BZRRS874Z","","1","phone","","","","","","","","","","","","","","","","","","","","","","","",""
"2641","","survey-text","3","10304","0.0-3.0-0.0","A1TW2BZRRS874Z","","","","{""Q0"":""A1TW2BZRRS874Z""}","","","","","","","","","","","","","","","","","","","","","","",""
"7123","","image-button-response_instructions","4","17434","0.0-4.0","A1TW2BZRRS874Z","","0","instructions","","","","","","","","","","","","","","","","","","","","","","","",""
"4589","","image-button-response_instructions","5","22026","0.0-5.0","A1TW2BZRRS874Z","img_art/ins/popularity/ins1.png","0","instructions","","","","","","","","","","","","","","","","","","","","","","","",""
"2868","","image-button-response_instructions","6","24898","0.0-6.0","A1TW2BZRRS874Z","img_art/ins/popularity/ins2.png","0","instructions","","","","","","","","","","","","","","","","","","","","","","","",""
"15149","","image-button-response_instructions","7","40053","0.0-7.0","A1TW2BZRRS874Z","img_art/ins/popularity/ins2Extreme.png","0","instructions","","","","","","","","","","","","","","","","","","","","","","","",""
"5298","","image-button-response_instructions","8","45354","0.0-8.0","A1TW2BZRRS874Z","img_art/ins/popularity/ins3KEEPpop.PNG","0","instructions","","","","","","","","","","","","","","","","","","","","","","","",""
"4718","","image-button-response_instructions","9","50076","0.0-9.0","A1TW2BZRRS874Z","img_art/ins/popularity/ins3ANamepop.PNG","0","instructions","","","","","","","","","","","","","","","","","","","","","","","",""
"2845","","image-button-response_instructions","10","52924","0.0-10.0","A1TW2BZRRS874Z","img_art/ins/popularity/ins3ARatingpop.png","0","instructions","","","","","","","","","","","","","","","","","","","","","","","",""
"2963","","image-button-response_instructions","11","55890","0.0-11.0","A1TW2BZRRS874Z","img_art/ins/popularity/ins3ATextpop.png","0","instructions","","","","","","","","","","","","","","","","","","","","","","","",""
"4440","","image-button-response_instructions","12","60333","0.0-12.0","A1TW2BZRRS874Z","img_art/ins/popularity/ins3ALikespop.png","0","instructions","","","","","","","","","","","","","","","","","","","","","","","",""
"8180","","image-button-response_instructions","13","68517","0.0-13.0","A1TW2BZRRS874Z","img_art/ins/popularity/ins3KEEPpop.PNG","0","instructions","","","","","","","","","","","","","","","","","","","","","","","",""
"20272","","image-button-response_instructions","14","88791","0.0-14.0","A1TW2BZRRS874Z","img_art/ins/popularity/ins3_5RED.png","0","instructions","","","","","","","","","","","","","","","","","","","","","","","",""
"18085","","image-button-response_instructions","15","106880","0.0-15.0","A1TW2BZRRS874Z","img_art/ins/popularity/ins3KEEPpop.PNG","0","instructions","","","","","","","","","","","","","","","","","","","","","","","",""
"26391","","image-button-response_instructions","16","133274","0.0-16.0","A1TW2BZRRS874Z","img_art/ins/popularity/ins4KEEPpop.PNG","0","instructions","","","","","","","","","","","","","","","","","","","","","","","",""
"7260","","image-button-response_instructions","17","140538","0.0-17.0","A1TW2BZRRS874Z","img_art/ins/popularity/ins5KEEPpop.PNG","0","instructions","","","","","","","","","","","","","","","","","","","","","","","",""
"3894","","image-button-response_instructions","18","144434","0.0-18.0","A1TW2BZRRS874Z","","0","instructions","","","","","","","","","","","","","","","","","","","","","","","",""
"9795","","survey-text","19","154275","0.0-19.0-0.0","A1TW2BZRRS874Z","","","","{""Q0"":""but""}","","","","","","","","","","","","","","","","","","","","","","",""
"10969","","survey-text","20","165252","0.0-20.0-0.0","A1TW2BZRRS874Z","","","","{""Q0"":""its too messy for me""}","","","","","","","","","","","","","","","","","","","","","","",""
"2302.699999988079","","image-slider-response","21","167564","0.0-21.0","A1TW2BZRRS874Z","","","","","-36","","","","","","","","","","","","","","","","","","","","","",""
"null","","image-button-response","22","172574","0.0-22.0","A1TW2BZRRS874Z","img_art/ins/1.jpg","null","","","","","","","","","","","","","","","","","","","","","","","","",""
"26253","","image-button-response","23","198831","0.0-23.0","A1TW2BZRRS874Z","img_art/ins/1.jpg","1","","","","","","","","","","","","","","","","","","","","","","","","",""
"1808","","image-button-response","24","200647","0.0-24.0-0.0","A1TW2BZRRS874Z","img_art/ins/1.jpg","1","","","","","","","","","","","","","","","","","","","","","","","","",""
"2306","","image-button-response","25","209799","0.0-24.1-0.1","A1TW2BZRRS874Z","img_art/ins/1.jpg","1","","","","","","","","","","","","","","","","","","","","","","","","",""
"979","","image-button-response","26","213905","0.0-24.2-0.2","A1TW2BZRRS874Z","img_art/ins/1.jpg","2","","","","","","","","","","","","","","","","","","","","","","","","",""
"1519","","image-button-response","27","215432","0.0-25.0-0.0","A1TW2BZRRS874Z","img_art/ins/1.jpg","4","","","","","","","","","","","","","","","","","","","","","","","","",""
"null","","html-keyboard-response","28","216439","0.0-26.0","A1TW2BZRRS874Z","<p style=""font-size: 48px;"">+</p>","","","","","null","allTrialResponses","1000","1","-2","img_art/ins/1.jpg","-36","its too messy for me","Adam,Alex,Ben,Carl,Daniel,Jack","Seems like doodles,-20,20,20","very creative work.,36,40,20","This color reminds me of poo,-46,60,20","very calming artwork,42,80,20","It looks like a murder scene.,-48,100,20","I like the sophisticated brushwork,40,120,20","Alex","very creative work.,36,40,20","Ben","This color reminds me of poo,-46,60,20","Daniel","It looks like a murder scene.,-48,100,20","4"
"12442","","survey-text","29","228895","0.0-27.0-0.0","A1TW2BZRRS874Z","","","","{""Q0"":""looks a bit scary ""}","","","","","","","","","","","","","","","","","","","","","","",""
"3010.800000011921","","image-slider-response","30","231912","0.0-28.0","A1TW2BZRRS874Z","","","","","14","","","","","","","","","","","","","","","","","","","","","",""
"null","","image-button-response","31","236919","0.0-29.0","A1TW2BZRRS874Z","img_art/ins/2.jpg","null","","","","","","","","","","","","","","","","","","","","","","","","",""
"4413","","image-button-response","32","241335","0.0-30.0","A1TW2BZRRS874Z","img_art/ins/2.jpg","3","","","","","","","","","","","","","","","","","","","","","","","","",""
"3221","","image-button-response","33","244562","0.0-31.0-0.0","A1TW2BZRRS874Z","img_art/ins/2.jpg","5","","","","","","","","","","","","","","","","","","","","","","","","",""
"5905","","image-button-response","34","250475","0.0-32.0-0.0","A1TW2BZRRS874Z","img_art/ins/2.jpg","1","","","","","","","","","","","","","","","","","","","","","","","","",""
"null","","html-keyboard-response","35","251480","0.0-33.0","A1TW2BZRRS874Z","<p style=""font-size: 48px;"">+</p>","","","","","null","allTrialResponses","1000","1","-1","img_art/ins/2.jpg","14","looks a bit scary ","John,Alex,Ben,James,Daniel,Kyle","love the texture of paint,48,160,20","I like the blocks of color arrangements,30,40,20","meaningless painting,-45,60,20","looks too angry,-50,140,20","One of my pet peevs,-48,100,20","Idk, it is just annoying,-32,180,20","James","looks too angry,-50,140,20","Kyle","Idk, it is just annoying,-32,180,20","Alex","I like the blocks of color arrangements,30,40,20","4"
"11902","","survey-text","36","263394","0.0-34.0-0.0","A1TW2BZRRS874Z","","","","{""Q0"":""Kinda refreshing to look at""}","","","","","","","","","","","","","","","","","","","","","","",""
"3194.9000000059605","","image-slider-response","37","266594","0.0-35.0","A1TW2BZRRS874Z","","","","","7","","","","","","","","","","","","","","","","","","","","","",""
"4954","","image-button-response","38","271601","0.0-36.0","A1TW2BZRRS874Z","img_art/ins/3.jpg","1","","","","","","","","","","","","","","","","","","","","","","","","",""
"516","","image-button-response","39","272124","0.0-37.0","A1TW2BZRRS874Z","img_art/ins/3.jpg","1","","","","","","","","","","","","","","","","","","","","","","","","",""
"5658","","image-button-response","40","277789","0.0-38.0-0.0","A1TW2BZRRS874Z","img_art/ins/3.jpg","2","","","","","","","","","","","","","","","","","","","","","","","","",""
"1122","","image-button-response","41","278917","0.0-39.0-0.0","A1TW2BZRRS874Z","img_art/ins/3.jpg","0","","","","","","","","","","","","","","","","","","","","","","","","",""
"null","","html-keyboard-response","42","280421","0.0-40.0","A1TW2BZRRS874Z","<p style=""font-size: 48px;"">+</p>","","","","","null","allTrialResponses","1500","1","0","img_art/ins/3.jpg","7","Kinda refreshing to look at","Mike,Alex,Sam,James,Ron,Kyle","enjoy the different shades of blue,22,200,20","calming blue is very nice,36,40,20","I can feel a rainy day from this painting,18,240,20","My worst nightmare,-42,140,20","It looks depressing,-26,220,20","It looks like a playground for bats,-36,180,20","Alex","calming blue is very nice,36,40,20","Sam","I can feel a rainy day from this painting,18,240,20","Mike","enjoy the different shades of blue,22,200,20","4"
"8472","","image-button-response_instructions","43","288908","0.0-41.0","A1TW2BZRRS874Z","","0","instructions","","","","","","","","","","","","","","","","","","","","","","","",""
"19100","","survey-likert","44","308014","0.0-42.0-0.0","A1TW2BZRRS874Z","","","","{""Q0"":"""",""Q1"":0,""Q2"":1}","","","","","","","","","","","","","","","","","","","","","","",""
"8819","","survey-text","45","316847","0.0-43.0-0.0","A1TW2BZRRS874Z","","","","{""Q0"":""rock""}","","","","","","","","","","","","","","","","","","","","","","",""
"12723","","survey-text","46","329575","0.0-44.0-0.0","A1TW2BZRRS874Z","","","","{""Q0"":""a bit messy but interesting""}","","","","","","","","","","","","","","","","","","","","","","",""
"3097.5","","image-slider-response","47","332679","0.0-45.0","A1TW2BZRRS874Z","","","","","-8","","","","","","","","","","","","","","","","","","","","","",""
"4555","","image-button-response","48","337724","0.0-46.0","A1TW2BZRRS874Z","img_art/19.jpg","1","","","","","","","","","","","","","","","","","","","","","","","","",""
"309","","image-button-response","49","338040","0.0-47.0","A1TW2BZRRS874Z","img_art/19.jpg","1","","","","","","","","","","","","","","","","","","","","","","","","",""
"6593","","image-button-response","50","344641","0.0-48.0-0.0","A1TW2BZRRS874Z","img_art/19.jpg","4","","","","","","","","","","","","","","","","","","","","","","","","",""
"2147","","image-button-response","51","346794","0.0-49.0-0.0","A1TW2BZRRS874Z","img_art/19.jpg","5","","","","","","","","","","","","","","","","","","","","","","","","",""
"null","","html-keyboard-response","52","347299","0.0-50.0","A1TW2BZRRS874Z","<p style=""font-size: 48px;"">+</p>","","","","","null","allTrialResponses","500","1","1","img_art/19.jpg","-8","a bit messy but interesting","Bryan,John,Vincent,Angel,Dustin,Jeffrey","Looks like a child's rendering of a city street but not too sure.,0,400,20","There's alot of elements to it bordering on clutter and chaotic,-20,120,20","I really like the colors and feel of this one and alot of life,41,360,20","This one feels pretty neutral. Like a window into someone's life, one person in a bustling metropolis.,0,180,20","Too busy, makes me anxious and frustrated. Lots of movement in the brush strokes.,-9,20,20","very lively and colourful,21,40,20","John","There's alot of elements to it bordering on clutter and chaotic,-20,120,20","Dustin","Too busy, makes me anxious and frustrated. Lots of movement in the brush strokes.,-9,20,20","Jeffrey","very lively and colourful,21,40,20","4"
"459154","","survey-text","53","806471","0.0-51.0-0.0","A1TW2BZRRS874Z","","","","{""Q0"":""very distubing""}","","","","","","","","","","","","","","","","","","","","","","",""
"3025.199999988079","","image-slider-response","54","809504","0.0-52.0","A1TW2BZRRS874Z","","","","","33","","","","","","","","","","","","","","","","","","","","","",""
"4479","","image-button-response","55","814513","0.0-53.0","A1TW2BZRRS874Z","img_art/16.jpg","1","","","","","","","","","","","","","","","","","","","","","","","","",""
"744","","image-button-response","56","815262","0.0-54.0","A1TW2BZRRS874Z","img_art/16.jpg","1","","","","","","","","","","","","","","","","","","","","","","","","",""
"5494","","image-button-response","57","820761","0.0-55.0-0.0","A1TW2BZRRS874Z","img_art/16.jpg","3","","","","","","","","","","","","","","","","","","","","","","","","",""
"5303","","image-button-response","58","826074","0.0-56.0-0.0","A1TW2BZRRS874Z","img_art/16.jpg","4","","","","","","","","","","","","","","","","","","","","","","","","",""
"null","","html-keyboard-response","59","827582","0.0-57.0","A1TW2BZRRS874Z","<p style=""font-size: 48px;"">+</p>","","","","","null","allTrialResponses","1500","1","2","img_art/16.jpg","33","very distubing","Cameron,John,Isaac,Jared,Dustin,Jeffrey","Don't like teddy bears in art. I could draw that house.,-20,60,20","It creeps me out.,-50,120,20","I wouldn't hang it up on my wall but I like the colors of the bear.,25,280,20","it looks psychotic,-31,400,20","Upsetting and disturbing. Random bear and indistinguishable objects. None of it goes together. Too chaotic and random,-50,20,20","Teddy bear calls positive emotional response but then I get worried about what is about to happen,18,40,20","John","It creeps me out.,-50,120,20","Jared","it looks psychotic,-31,400,20","Dustin","Upsetting and disturbing. Random bear and indistinguishable objects. None of it goes together. Too chaotic and random,-50,20,20","4"
"19256","","survey-text","60","846865","0.0-58.0-0.0","A1TW2BZRRS874Z","","","","{""Q0"":""very eerie  ""}","","","","","","","","","","","","","","","","","","","","","","",""
"3833.5","","image-slider-response","61","850706","0.0-59.0","A1TW2BZRRS874Z","","","","","16","","","","","","","","","","","","","","","","","","","","","",""
"null","","image-button-response","62","855712","0.0-60.0","A1TW2BZRRS874Z","img_art/25.jpg","null","","","","","","","","","","","","","","","","","","","","","","","","",""
"798","","image-button-response","63","856515","0.0-61.0","A1TW2BZRRS874Z","img_art/25.jpg","1","","","","","","","","","","","","","","","","","","","","","","","","",""
"6310","","image-button-response","64","862834","0.0-62.0-0.0","A1TW2BZRRS874Z","img_art/25.jpg","4","","","","","","","","","","","","","","","","","","","","","","","","",""
"5365","","image-button-response","65","868204","0.0-63.0-0.0","A1TW2BZRRS874Z","img_art/25.jpg","0","","","","","","","","","","","","","","","","","","","","","","","","",""
"null","","html-keyboard-response","66","868708","0.0-64.0","A1TW2BZRRS874Z","<p style=""font-size: 48px;"">+</p>","","","","","null","allTrialResponses","500","1","3","img_art/25.jpg","16","very eerie  ","Trevor,John,Chase,Jared,Dustin,Stephen","nice colors and it looks like a native work,32,280,20","Dark silhouette against the murky background Illicites an ominous feeling. Don't really like it.,-20,120,20","Not particularly interesting for me. The green color is strange mixed with this.,-11,120,20","the green is serene. the figure is scare crow like,7,400,20","Reminds me of ancient civilization art. I like the aqua color; soothing to me.,1,20,20","It's nice but nothing special.,7,140,20","John","Dark silhouette against the murky background Illicites an ominous feeling. Don't really like it.,-20,120,20","Dustin","Reminds me of ancient civilization art. I like the aqua color; soothing to me.,1,20,20","Trevor","nice colors and it looks like a native work,32,280,20","4"
"14444","","survey-text","67","883164","0.0-65.0-0.0","A1TW2BZRRS874Z","","","","{""Q0"":""very trippy and crazy looking""}","","","","","","","","","","","","","","","","","","","","","","",""
"3273.7999999821186","","image-slider-response","68","886444","0.0-66.0","A1TW2BZRRS874Z","","","","","43","","","","","","","","","","","","","","","","","","","","","",""
"null","","image-button-response","69","891453","0.0-67.0","A1TW2BZRRS874Z","img_art/8.jpg","null","","","","","","","","","","","","","","","","","","","","","","","","",""
"2315","","image-button-response","70","893774","0.0-68.0","A1TW2BZRRS874Z","img_art/8.jpg","1","","","","","","","","","","","","","","","","","","","","","","","","",""
"2570","","image-button-response","71","896348","0.0-69.0-0.0","A1TW2BZRRS874Z","img_art/8.jpg","2","","","","","","","","","","","","","","","","","","","","","","","","",""
"5269","","image-button-response","72","901625","0.0-70.0-0.0","A1TW2BZRRS874Z","img_art/8.jpg","5","","","","","","","","","","","","","","","","","","","","","","","","",""
"null","","html-keyboard-response","73","903131","0.0-71.0","A1TW2BZRRS874Z","<p style=""font-size: 48px;"">+</p>","","","","","null","allTrialResponses","1500","1","4","img_art/8.jpg","43","very trippy and crazy looking","Trevor,John,Lucas,Scott,Dustin,Connor","it looks very 80's and kind of scary,-11,280,20","I like how the more you like at it there are more things to discover.Very creative.,33,120,20","Different styles make this picture outstanding.,20,380,20","the face is creepy,-49,20,20","I like the colors. But I don't like the faces, they look distraught. Faces and sharp shapes make me anxious,1,20,20","Lots of depth, faces, city, arch,3,240,20","John","I like how the more you like at it there are more things to discover.Very creative.,33,120,20","Lucas","Different styles make this picture outstanding.,20,380,20","Connor","Lots of depth, faces, city, arch,3,240,20","4"
"10612","","survey-text","74","913757","0.0-72.0-0.0","A1TW2BZRRS874Z","","","","{""Q0"":""that just looks like a mess""}","","","","","","","","","","","","","","","","","","","","","","",""
"2439.199999988079","","image-slider-response","75","916199","0.0-73.0","A1TW2BZRRS874Z","","","","","-45","","","","","","","","","","","","","","","","","","","","","",""
"4501","","image-button-response","76","921202","0.0-74.0","A1TW2BZRRS874Z","img_art/5.jpg","0","","","","","","","","","","","","","","","","","","","","","","","","",""
"426","","image-button-response","77","921631","0.0-75.0","A1TW2BZRRS874Z","img_art/5.jpg","0","","","","","","","","","","","","","","","","","","","","","","","","",""
"4043","","image-button-response","78","925680","0.0-76.0-0.0","A1TW2BZRRS874Z","img_art/5.jpg","2","","","","","","","","","","","","","","","","","","","","","","","","",""
"1810","","image-button-response","79","927496","0.0-77.0-0.0","A1TW2BZRRS874Z","img_art/5.jpg","0","","","","","","","","","","","","","","","","","","","","","","","","",""
"770","","image-button-response","80","931465","0.0-77.1-0.1","A1TW2BZRRS874Z","img_art/5.jpg","3","","","","","","","","","","","","","","","","","","","","","","","","",""
"null","","html-keyboard-response","81","931970","0.0-78.0","A1TW2BZRRS874Z","<p style=""font-size: 48px;"">+</p>","","","","","null","allTrialResponses","500","1","5","img_art/5.jpg","-45","that just looks like a mess","Blake,John,Lucas,Cole,Christian,Connor","puke yellow with nothing but sadness,-35,280,20","It has a sense of vague familiarity that i like.Like a stick starting a fire at a campsite.,30,120,20","Very non-dynamic painting, dislike it.,-10,380,20","It looks like a poorly drawn pear,17,200,20","sorry not my style,-37,140,20","Flame, candle, wind,30,240,20","Blake","puke yellow with nothing but sadness,-35,280,20","Lucas","Very non-dynamic painting, dislike it.,-10,380,20","Cole","It looks like a poorly drawn pear,17,200,20","6"
"7565","","survey-text","82","939552","0.0-79.0-0.0","A1TW2BZRRS874Z","","","","{""Q0"":""sky""}","","","","","","","","","","","","","","","","","","","","","","",""
"18115","","survey-text","83","957673","0.0-80.0-0.0","A1TW2BZRRS874Z","","","","{""Q0"":""messy but comes together nicely""}","","","","","","","","","","","","","","","","","","","","","","",""
"2578","","image-slider-response","84","960255","0.0-81.0","A1TW2BZRRS874Z","","","","","10","","","","","","","","","","","","","","","","","","","","","",""
"3791","","image-button-response","85","965258","0.0-82.0","A1TW2BZRRS874Z","img_art/14.jpg","1","","","","","","","","","","","","","","","","","","","","","","","","",""
"4252","","image-button-response","86","969515","0.0-83.0","A1TW2BZRRS874Z","img_art/14.jpg","2","","","","","","","","","","","","","","","","","","","","","","","","",""
"1520","","image-button-response","87","971041","0.0-84.0-0.0","A1TW2BZRRS874Z","img_art/14.jpg","4","","","","","","","","","","","","","","","","","","","","","","","","",""
"1781","","image-button-response","88","972825","0.0-85.0-0.0","A1TW2BZRRS874Z","img_art/14.jpg","0","","","","","","","","","","","","","","","","","","","","","","","","",""
"null","","html-keyboard-response","89","973827","0.0-86.0","A1TW2BZRRS874Z","<p style=""font-size: 48px;"">+</p>","","","","","null","allTrialResponses","1000","1","6","img_art/14.jpg","10","messy but comes together nicely","Blake,Jason,Lucas,Cole,Devon,Daniel","fuzzy and confused. ok then well,16,280,20","Focal point is interesting,5,20,20","In my opinion it's spectacular.,35,380,20","Simplistic. Looks like a child did it,14,200,20","this would make a very beautiful art project,22,400,20","Baby's room palette with tree confusion in a more confused substrate.,-15,320,20","Lucas","In my opinion it's spectacular.,35,380,20","Devon","this would make a very beautiful art project,22,400,20","Blake","fuzzy and confused. ok then well,16,280,20","6"
"58147","","survey-text","90","1031989","0.0-87.0-0.0","A1TW2BZRRS874Z","","","","{""Q0"":""decent color arrangement but still all over the place""}","","","","","","","","","","","","","","","","","","","","","","",""
"3155.300000011921","","image-slider-response","91","1035149","0.0-88.0","A1TW2BZRRS874Z","","","","","-25","","","","","","","","","","","","","","","","","","","","","",""
"4540","","image-button-response","92","1040154","0.0-89.0","A1TW2BZRRS874Z","img_art/1.jpg","0","","","","","","","","","","","","","","","","","","","","","","","","",""
"800","","image-button-response","93","1040960","0.0-90.0","A1TW2BZRRS874Z","img_art/1.jpg","0","","","","","","","","","","","","","","","","","","","","","","","","",""
"5314","","image-button-response","94","1046281","0.0-91.0-0.0","A1TW2BZRRS874Z","img_art/1.jpg","3","","","","","","","","","","","","","","","","","","","","","","","","",""
"4174","","image-button-response","95","1050462","0.0-92.0-0.0","A1TW2BZRRS874Z","img_art/1.jpg","2","","","","","","","","","","","","","","","","","","","","","","","","",""
"null","","html-keyboard-response","96","1050965","0.0-93.0","A1TW2BZRRS874Z","<p style=""font-size: 48px;"">+</p>","","","","","null","allTrialResponses","500","1","7","img_art/1.jpg","-25","decent color arrangement but still all over the place","Blake,Tyler,Lucas,Zachary,Devon,Brian","colors that are fairly warm. its ok,8,280,20","This looks like the same artist as the first picture, but cropped? Looks incomplete.,28,320,20","The colors match and create a nice artistic disorder.,20,380,20","While I like the colors, I find nothing interesting or thought provoking about it.,10,400,20","I see happiness from different aspects of life,31,400,20","I don't feel like much is happening in this painting,-25,380,20","Blake","colors that are fairly warm. its ok,8,280,20","Zachary","While I like the colors, I find nothing interesting or thought provoking about it.,10,400,20","Lucas","The colors match and create a nice artistic disorder.,20,380,20","6"
"18166","","survey-text","97","1069144","0.0-94.0-0.0","A1TW2BZRRS874Z","","","","{""Q0"":""I really like the colors and different sections""}","","","","","","","","","","","","","","","","","","","","","","",""
"3268.2000000178814","","image-slider-response","98","1072415","0.0-95.0","A1TW2BZRRS874Z","","","","","31","","","","","","","","","","","","","","","","","","","","","",""
"4990","","image-button-response","99","1077419","0.0-96.0","A1TW2BZRRS874Z","img_art/13.jpg","1","","","","","","","","","","","","","","","","","","","","","","","","",""
"576","","image-button-response","100","1078000","0.0-97.0","A1TW2BZRRS874Z","img_art/13.jpg","1","","","","","","","","","","","","","","","","","","","","","","","","",""
"1508","","image-button-response","101","1079512","0.0-98.0-0.0","A1TW2BZRRS874Z","img_art/13.jpg","2","","","","","","","","","","","","","","","","","","","","","","","","",""
"1270","","image-button-response","102","1080788","0.0-99.0-0.0","A1TW2BZRRS874Z","img_art/13.jpg","3","","","","","","","","","","","","","","","","","","","","","","","","",""
"null","","html-keyboard-response","103","1081793","0.0-100.0","A1TW2BZRRS874Z","<p style=""font-size: 48px;"">+</p>","","","","","null","allTrialResponses","1000","1","8","img_art/13.jpg","31","I really like the colors and different sections","Blake,Luis,Lucas,Zachary,Eric,Joshua","warm splash of salt water from ocean,16,280,20","I love the edgy nature,50,400,20","Incredible, curious.,20,380,20","Peaceful colors.,20,400,20","I love the style of this piece, but the color choice could've been more eye catching or calming.,40,100,20","Like this a lot and would hang in my house.,27,240,20","Luis","I love the edgy nature,50,400,20","Lucas","Incredible, curious.,20,380,20","Zachary","Peaceful colors.,20,400,20","6"
"13832","","survey-text","104","1095642","0.0-101.0-0.0","A1TW2BZRRS874Z","","","","{""Q0"":""very peaceful piece of art""}","","","","","","","","","","","","","","","","","","","","","","",""
"2553.5","","image-slider-response","105","1098202","0.0-102.0","A1TW2BZRRS874Z","","","","","19","","","","","","","","","","","","","","","","","","","","","",""
"4323","","image-button-response","106","1103207","0.0-103.0","A1TW2BZRRS874Z","img_art/24.jpg","0","","","","","","","","","","","","","","","","","","","","","","","","",""
"337","","image-button-response","107","1103548","0.0-104.0","A1TW2BZRRS874Z","img_art/24.jpg","0","","","","","","","","","","","","","","","","","","","","","","","","",""
"3674","","image-button-response","108","1107228","0.0-105.0-0.0","A1TW2BZRRS874Z","img_art/24.jpg","3","","","","","","","","","","","","","","","","","","","","","","","","",""
"3359","","image-button-response","109","1110594","0.0-106.0-0.0","A1TW2BZRRS874Z","img_art/24.jpg","4","","","","","","","","","","","","","","","","","","","","","","","","",""
"null","","html-keyboard-response","110","1111097","0.0-107.0","A1TW2BZRRS874Z","<p style=""font-size: 48px;"">+</p>","","","","","null","allTrialResponses","500","1","9","img_art/24.jpg","19","very peaceful piece of art","Kevin,Luis,Lucas,Zachary,Dylan,Charles","What a nice refreshing waterfall.,39,320,20","Love the natural vibe,50,400,20","Extraordinary and unusual.,30,380,20","Looks like a beautiful stream rolling through terrain of rocks and flowers.,43,400,20","This reminds me of a creek or a river. It puts me a peace,42,40,20","It just feels a little bland for me,-23,100,20","Kevin","What a nice refreshing waterfall.,39,320,20","Zachary","Looks like a beautiful stream rolling through terrain of rocks and flowers.,43,400,20","Dylan","This reminds me of a creek or a river. It puts me a peace,42,40,20","6"
"29509","","survey-text","111","1140621","0.0-108.0-0.0","A1TW2BZRRS874Z","","","","{""Q0"":""I think it shows the complexity of city transit but could be totally wrong.""}","","","","","","","","","","","","","","","","","","","","","","",""
"3084.5","","image-slider-response","112","1143710","0.0-109.0","A1TW2BZRRS874Z","","","","","21","","","","","","","","","","","","","","","","","","","","","",""
"3499","","image-button-response","113","1148715","0.0-110.0","A1TW2BZRRS874Z","img_art/11.jpg","0","","","","","","","","","","","","","","","","","","","","","","","","",""
"482","","image-button-response","114","1149202","0.0-111.0","A1TW2BZRRS874Z","img_art/11.jpg","0","","","","","","","","","","","","","","","","","","","","","","","","",""
"8450","","image-button-response","115","1157656","0.0-112.0-0.0","A1TW2BZRRS874Z","img_art/11.jpg","5","","","","","","","","","","","","","","","","","","","","","","","","",""
"1207","","image-button-response","116","1158870","0.0-113.0-0.0","A1TW2BZRRS874Z","img_art/11.jpg","2","","","","","","","","","","","","","","","","","","","","","","","","",""
"null","","html-keyboard-response","117","1160372","0.0-114.0","A1TW2BZRRS874Z","<p style=""font-size: 48px;"">+</p>","","","","","null","allTrialResponses","1500","1","10","img_art/11.jpg","21","I think it shows the complexity of city transit but could be totally wrong.","Kevin,Ryan,Alexander,Zachary,Dylan,Seth","Thats a creepy old rollercoasters abandoned,-2,320,20","It makes me feel angry and overwhelmed,-29,380,20","Waves of signs.,15,120,20","Makes me think of a futuristic scene of vehicles flying in the sky in a city.,36,400,20","I normally would not like this photo, but the design is nice.,21,40,20","It makes my head feel dizzy. So I rated it lower.,-25,60,20","Kevin","Thats a creepy old rollercoasters abandoned,-2,320,20","Seth","It makes my head feel dizzy. So I rated it lower.,-25,60,20","Alexander","Waves of signs.,15,120,20","6"
"6940","","survey-text","118","1167334","0.0-115.0-0.0","A1TW2BZRRS874Z","","","","{""Q0"":""our""}","","","","","","","","","","","","","","","","","","","","","","",""
"17088","","survey-text","119","1184425","0.0-116.0-0.0","A1TW2BZRRS874Z","","","","{""Q0"":""I'm not a fan of this blotted nonsense""}","","","","","","","","","","","","","","","","","","","","","","",""
"2272.699999988079","","image-slider-response","120","1186705","0.0-117.0","A1TW2BZRRS874Z","","","","","-43","","","","","","","","","","","","","","","","","","","","","",""
"null","","image-button-response","121","1191711","0.0-118.0","A1TW2BZRRS874Z","img_art/15.jpg","null","","","","","","","","","","","","","","","","","","","","","","","","",""
"2463","","image-button-response","122","1194179","0.0-119.0","A1TW2BZRRS874Z","img_art/15.jpg","4","","","","","","","","","","","","","","","","","","","","","","","","",""
"1018","","image-button-response","123","1195202","0.0-120.0-0.0","A1TW2BZRRS874Z","img_art/15.jpg","5","","","","","","","","","","","","","","","","","","","","","","","","",""
"2428","","image-button-response","124","1197636","0.0-121.0-0.0","A1TW2BZRRS874Z","img_art/15.jpg","1","","","","","","","","","","","","","","","","","","","","","","","","",""
"null","","html-keyboard-response","125","1198639","0.0-122.0","A1TW2BZRRS874Z","<p style=""font-size: 48px;"">+</p>","","","","","null","allTrialResponses","1000","1","11","img_art/15.jpg","-43","I'm not a fan of this blotted nonsense","Kevin,Gabriel,Alexander,Austin,Justin,Seth","Weird fuzzball bush.,22,320,20","i kinda like this one but wouldnt buy it for myself,17,160,20","Leafs spread on the ground.,27,120,20","Perfect Abstract painting,50,240,20","Color scheme and design are rather boring.,-10,280,20","There should be more space between the black marks. The black comes off harsh and the blue between the trees can barely be seen.,-21,60,20","Justin","Color scheme and design are rather boring.,-10,280,20","Seth","There should be more space between the black marks. The black comes off harsh and the blue between the trees can barely be seen.,-21,60,20","Gabriel","i kinda like this one but wouldnt buy it for myself,17,160,20","6"
"13886","","survey-text","126","1212539","0.0-123.0-0.0","A1TW2BZRRS874Z","","","","{""Q0"":""Super cool looking and a little creepy""}","","","","","","","","","","","","","","","","","","","","","","",""
"2354.5999999940395","","image-slider-response","127","1214899","0.0-124.0","A1TW2BZRRS874Z","","","","","31","","","","","","","","","","","","","","","","","","","","","",""
"null","","image-button-response","128","1219905","0.0-125.0","A1TW2BZRRS874Z","img_art/29.jpg","null","","","","","","","","","","","","","","","","","","","","","","","","",""
"4341","","image-button-response","129","1224253","0.0-126.0","A1TW2BZRRS874Z","img_art/29.jpg","4","","","","","","","","","","","","","","","","","","","","","","","","",""
"3624","","image-button-response","130","1227885","0.0-127.0-0.0","A1TW2BZRRS874Z","img_art/29.jpg","3","","","","","","","","","","","","","","","","","","","","","","","","",""
"6104","","image-button-response","131","1233997","0.0-128.0-0.0","A1TW2BZRRS874Z","img_art/29.jpg","0","","","","","","","","","","","","","","","","","","","","","","","","",""
"null","","html-keyboard-response","132","1235503","0.0-129.0","A1TW2BZRRS874Z","<p style=""font-size: 48px;"">+</p>","","","","","null","allTrialResponses","1500","1","12","img_art/29.jpg","31","Super cool looking and a little creepy","Caleb,Gabriel,Corey,Shane,Justin,Seth","Looks wrong. Like a real painting was vandalized.,-50,40,20","dont like this one,-20,160,20","this does nothing for me. hate the colors. hate the design,-50,260,20","Darkness and torment,-50,80,20","It looks likes there's a lot going on, but they don't fit together.,2,280,20","I rated it lower because it looked like a crime scene. It didn't make me feel good.,-44,60,20","Justin","It looks likes there's a lot going on, but they don't fit together.,2,280,20","Shane","Darkness and torment,-50,80,20","Caleb","Looks wrong. Like a real painting was vandalized.,-50,40,20","6"
"16463","","survey-text","133","1251973","0.0-130.0-0.0","A1TW2BZRRS874Z","","","","{""Q0"":""absolute nonsense if you ask me.""}","","","","","","","","","","","","","","","","","","","","","","",""
"3528.800000011921","","image-slider-response","134","1255508","0.0-131.0","A1TW2BZRRS874Z","","","","","-43","","","","","","","","","","","","","","","","","","","","","",""
"null","","image-button-response","135","1260512","0.0-132.0","A1TW2BZRRS874Z","img_art/21.jpg","null","","","","","","","","","","","","","","","","","","","","","","","","",""
"1187","","image-button-response","136","1261702","0.0-133.0","A1TW2BZRRS874Z","img_art/21.jpg","3","","","","","","","","","","","","","","","","","","","","","","","","",""
"1266","","image-button-response","137","1262973","0.0-134.0-0.0","A1TW2BZRRS874Z","img_art/21.jpg","4","","","","","","","","","","","","","","","","","","","","","","","","",""
"1493","","image-button-response","138","1264473","0.0-135.0-0.0","A1TW2BZRRS874Z","img_art/21.jpg","5","","","","","","","","","","","","","","","","","","","","","","","","",""
"null","","html-keyboard-response","139","1265977","0.0-136.0","A1TW2BZRRS874Z","<p style=""font-size: 48px;"">+</p>","","","","","null","allTrialResponses","1500","1","13","img_art/21.jpg","-43","absolute nonsense if you ask me.","Caleb,Tanner,Jake,Shane,Justin,Brendan","Almost appears like the background of an old renaissance painting.,40,40,20","calm, ship at sea, sunset,16,180,20","It looks epic and is nice to look at in terms of colors/style.,23,360,20","It reminds me of war, red blood and dark blue reminds me of an army,-20,80,20","Alright. I like the colors.,5,280,20","looks like a sea during some war,27,340,20","Shane","It reminds me of war, red blood and dark blue reminds me of an army,-20,80,20","Justin","Alright. I like the colors.,5,280,20","Brendan","looks like a sea during some war,27,340,20","6"
"41289","","survey-text","140","1307281","0.0-137.0-0.0","A1TW2BZRRS874Z","","","","{""Q0"":""evil troll sketch using colored pencils. kinda neat""}","","","","","","","","","","","","","","","","","","","","","","",""
"2113.699999988079","","image-slider-response","141","1309400","0.0-138.0","A1TW2BZRRS874Z","","","","","12","","","","","","","","","","","","","","","","","","","","","",""
"3788","","image-button-response","142","1314406","0.0-139.0","A1TW2BZRRS874Z","img_art/9.jpg","0","","","","","","","","","","","","","","","","","","","","","","","","",""
"4990","","image-button-response","143","1319401","0.0-140.0","A1TW2BZRRS874Z","img_art/9.jpg","2","","","","","","","","","","","","","","","","","","","","","","","","",""
"3533","","image-button-response","144","1322940","0.0-141.0-0.0","A1TW2BZRRS874Z","img_art/9.jpg","3","","","","","","","","","","","","","","","","","","","","","","","","",""
"1607","","image-button-response","145","1324556","0.0-142.0-0.0","A1TW2BZRRS874Z","img_art/9.jpg","4","","","","","","","","","","","","","","","","","","","","","","","","",""
"null","","html-keyboard-response","146","1325061","0.0-143.0","A1TW2BZRRS874Z","<p style=""font-size: 48px;"">+</p>","","","","","null","allTrialResponses","500","1","14","img_art/9.jpg","12","evil troll sketch using colored pencils. kinda neat","Gregory,Jordan,Alex,Shane,Justin,Brendan","Mash up of colors and designs don't really go together,-5,220,20","Reminds me of a cave in a scary movie,-21,160,20","Alright, I can see a reclining lady, I'm just glad to be able to tell what's in the picture,5,100,20","Angry beast mouth,-37,80,20","It reminds me of an illustration for a fairy tale.,19,280,20","not my type of art,-33,340,20","Alex","Alright, I can see a reclining lady, I'm just glad to be able to tell what's in the picture,5,100,20","Shane","Angry beast mouth,-37,80,20","Justin","It reminds me of an illustration for a fairy tale.,19,280,20","6"
"16710","","survey-text","147","1341787","0.0-144.0-0.0","A1TW2BZRRS874Z","","","","{""Q0"":""looks like a crow, simplistic but works""}","","","","","","","","","","","","","","","","","","","","","","",""
"2305.4000000059605","","image-slider-response","148","1344099","0.0-145.0","A1TW2BZRRS874Z","","","","","21","","","","","","","","","","","","","","","","","","","","","",""
"2563","","image-button-response","149","1349105","0.0-146.0","A1TW2BZRRS874Z","img_art/6.jpg","0","","","","","","","","","","","","","","","","","","","","","","","","",""
"703","","image-button-response","150","1349813","0.0-147.0","A1TW2BZRRS874Z","img_art/6.jpg","0","","","","","","","","","","","","","","","","","","","","","","","","",""
"11051","","image-button-response","151","1360870","0.0-148.0-0.0","A1TW2BZRRS874Z","img_art/6.jpg","1","","","","","","","","","","","","","","","","","","","","","","","","",""
"2041","","image-button-response","152","1362918","0.0-149.0-0.0","A1TW2BZRRS874Z","img_art/6.jpg","2","","","","","","","","","","","","","","","","","","","","","","","","",""
"null","","html-keyboard-response","153","1363923","0.0-150.0","A1TW2BZRRS874Z","<p style=""font-size: 48px;"">+</p>","","","","","null","allTrialResponses","1000","1","15","img_art/6.jpg","21","looks like a crow, simplistic but works","David,Luke,Alex,Shane,Justin,Miguel","I like the simplicity of the piece.,10,340,20","i like it but it is very neutral,9,20,20","Definitely belongs at a doctor's office, I think it's a crow or a tree?,-3,100,20","A bird standing in the sun,37,80,20","It's alright. I imagined the peach from James and the Giant Peach.,1,280,20","Bird? It's a bird.,23,160,20","David","I like the simplicity of the piece.,10,340,20","Luke","i like it but it is very neutral,9,20,20","Alex","Definitely belongs at a doctor's office, I think it's a crow or a tree?,-3,100,20","6"
"6126","","survey-text","154","1370077","0.0-151.0-0.0","A1TW2BZRRS874Z","","","","{""Q0"":""course""}","","","","","","","","","","","","","","","","","","","","","","",""
"166231","","survey-text","155","1536312","0.0-152.0-0.0","A1TW2BZRRS874Z","","","","{""Q0"":""looks like jazz muscians. ""}","","","","","","","","","","","","","","","","","","","","","","",""
"2625.9000000059605","","image-slider-response","156","1538943","0.0-153.0","A1TW2BZRRS874Z","","","","","14","","","","","","","","","","","","","","","","","","","","","",""
"null","","image-button-response","157","1543946","0.0-154.0","A1TW2BZRRS874Z","img_art/28.jpg","null","","","","","","","","","","","","","","","","","","","","","","","","",""
"2483","","image-button-response","158","1546432","0.0-155.0","A1TW2BZRRS874Z","img_art/28.jpg","3","","","","","","","","","","","","","","","","","","","","","","","","",""
"6702","","image-button-response","159","1553139","0.0-156.0-0.0","A1TW2BZRRS874Z","img_art/28.jpg","1","","","","","","","","","","","","","","","","","","","","","","","","",""
"190","","image-button-response","160","1553337","0.0-157.0-0.0","A1TW2BZRRS874Z","img_art/28.jpg","1","","","","","","","","","","","","","","","","","","","","","","","","",""
"3846","","image-button-response","161","1566434","0.0-157.1-0.1","A1TW2BZRRS874Z","img_art/28.jpg","0","","","","","","","","","","","","","","","","","","","","","","","","",""
"null","","html-keyboard-response","162","1567436","0.0-158.0","A1TW2BZRRS874Z","<p style=""font-size: 48px;"">+</p>","","","","","null","allTrialResponses","1000","1","16","img_art/28.jpg","14","looks like jazz muscians. ","David,Luke,Alex,Noah,Garrett,Paul","I feel that the image is invoking a sense of negativity.,-15,340,20","no clear colors or meaning to evoke emotions,-15,20,20","This piece is depressing to me, reminds me of German paintings,-6,100,20","I want to like it, but I'm not really sure what to make of it,2,260,20","I don't like the way the colors look; I think very disgusting colors were used.,-20,180,20","The dark colors make it look dirty and the shapes make me uncomfortable,-50,300,20","Noah","I want to like it, but I'm not really sure what to make of it,2,260,20","Luke","no clear colors or meaning to evoke emotions,-15,20,20","David","I feel that the image is invoking a sense of negativity.,-15,340,20","8"
"18410","","survey-text","163","1585868","0.0-159.0-0.0","A1TW2BZRRS874Z","","","","{""Q0"":""reminds me of a musical instument from the future.""}","","","","","","","","","","","","","","","","","","","","","","",""
"2345.9000000059605","","image-slider-response","164","1588220","0.0-160.0","A1TW2BZRRS874Z","","","","","26","","","","","","","","","","","","","","","","","","","","","",""
"2891","","image-button-response","165","1593226","0.0-161.0","A1TW2BZRRS874Z","img_art/10.jpg","1","","","","","","","","","","","","","","","","","","","","","","","","",""
"783","","image-button-response","166","1594016","0.0-162.0","A1TW2BZRRS874Z","img_art/10.jpg","1","","","","","","","","","","","","","","","","","","","","","","","","",""
"4266","","image-button-response","167","1598286","0.0-163.0-0.0","A1TW2BZRRS874Z","img_art/10.jpg","3","","","","","","","","","","","","","","","","","","","","","","","","",""
"855","","image-button-response","168","1599150","0.0-164.0-0.0","A1TW2BZRRS874Z","img_art/10.jpg","3","","","","","","","","","","","","","","","","","","","","","","","","",""
"828","","image-button-response","169","1604982","0.0-164.1-0.1","A1TW2BZRRS874Z","img_art/10.jpg","4","","","","","","","","","","","","","","","","","","","","","","","","",""
"null","","html-keyboard-response","170","1605486","0.0-165.0","A1TW2BZRRS874Z","<p style=""font-size: 48px;"">+</p>","","","","","null","allTrialResponses","500","1","17","img_art/10.jpg","26","reminds me of a musical instument from the future.","David,Luke,Shawn,Noah,Jesus,Andrew","I can't really tell what this is suppose to represent, but overall I don't like the design.,-20,340,20","it reminds me of a musical instrument,19,20,20","Don't like the colorblock but the lines are nice,-20,100,20","not sure what to make of this one,0,260,20","The design is very fluid and fun to interpret,35,100,20","Makes me think of the exhilaration of a roller coaster,31,160,20","Luke","it reminds me of a musical instrument,19,20,20","Noah","not sure what to make of this one,0,260,20","Jesus","The design is very fluid and fun to interpret,35,100,20","10"
"14363","","survey-text","171","1619862","0.0-166.0-0.0","A1TW2BZRRS874Z","","","","{""Q0"":""sloppy and ugly""}","","","","","","","","","","","","","","","","","","","","","","",""
"3394.0999999940395","","image-slider-response","172","1623263","0.0-167.0","A1TW2BZRRS874Z","","","","","-36","","","","","","","","","","","","","","","","","","","","","",""
"null","","image-button-response","173","1628270","0.0-168.0","A1TW2BZRRS874Z","img_art/2.jpg","null","","","","","","","","","","","","","","","","","","","","","","","","",""
"1956","","image-button-response","174","1630231","0.0-169.0","A1TW2BZRRS874Z","img_art/2.jpg","3","","","","","","","","","","","","","","","","","","","","","","","","",""
"1955","","image-button-response","175","1632192","0.0-170.0-0.0","A1TW2BZRRS874Z","img_art/2.jpg","5","","","","","","","","","","","","","","","","","","","","","","","","",""
"1971","","image-button-response","176","1634168","0.0-171.0-0.0","A1TW2BZRRS874Z","img_art/2.jpg","1","","","","","","","","","","","","","","","","","","","","","","","","",""
"null","","html-keyboard-response","177","1635172","0.0-172.0","A1TW2BZRRS874Z","<p style=""font-size: 48px;"">+</p>","","","","","null","allTrialResponses","1000","1","18","img_art/2.jpg","-36","sloppy and ugly","Grant,Luke,Matthew,Noah,Jesus,Aaron","The colors are entirely unappealing and very unpleasant to look at.,-20,200,20","too abstract and confusing,-19,20,20","I think I can make out a face in there.,25,120,20","again, I struggle to see the art and I dislike the green in particular.,-31,260,20","Muted green is overpowering,-10,100,20","The colors are pretty but I don't really like the shapes in it.,-20,20,20","Noah","again, I struggle to see the art and I dislike the green in particular.,-31,260,20","Aaron","The colors are pretty but I don't really like the shapes in it.,-20,20,20","Luke","too abstract and confusing,-19,20,20","10"
"8493","","survey-text","178","1643680","0.0-173.0-0.0","A1TW2BZRRS874Z","","","","{""Q0"":""like the color arrangement""}","","","","","","","","","","","","","","","","","","","","","","",""
"8844.09999999404","","image-slider-response","179","1652530","0.0-174.0","A1TW2BZRRS874Z","","","","","4","","","","","","","","","","","","","","","","","","","","","",""
"null","","image-button-response","180","1657537","0.0-175.0","A1TW2BZRRS874Z","img_art/27.jpg","null","","","","","","","","","","","","","","","","","","","","","","","","",""
"3147","","image-button-response","181","1660691","0.0-176.0","A1TW2BZRRS874Z","img_art/27.jpg","2","","","","","","","","","","","","","","","","","","","","","","","","",""
"6530","","image-button-response","182","1667228","0.0-177.0-0.0","A1TW2BZRRS874Z","img_art/27.jpg","3","","","","","","","","","","","","","","","","","","","","","","","","",""
"4528","","image-button-response","183","1671766","0.0-178.0-0.0","A1TW2BZRRS874Z","img_art/27.jpg","5","","","","","","","","","","","","","","","","","","","","","","","","",""
"null","","html-keyboard-response","184","1672269","0.0-179.0","A1TW2BZRRS874Z","<p style=""font-size: 48px;"">+</p>","","","","","null","allTrialResponses","500","1","19","img_art/27.jpg","4","like the color arrangement","Steven,Luke,Isaiah,Noah,Bryce,Aaron","two warring cities, separated by a small desert,50,160,20","it looks very simple and childlike,-31,20,20","I feel peaceful and a little nervous at the same time.,11,300,20","I generally enjoy the style, but I'm finding the green lines grating,-9,260,20","It kinda reminds me of sushi.,16,20,20","It looks like when my little sister took magic markers to the wall.,-11,20,20","Isaiah","I feel peaceful and a little nervous at the same time.,11,300,20","Noah","I generally enjoy the style, but I'm finding the green lines grating,-9,260,20","Aaron","It looks like when my little sister took magic markers to the wall.,-11,20,20","10"
"27654","","survey-text","185","1699940","0.0-180.0-0.0","A1TW2BZRRS874Z","","","","{""Q0"":""looks like a bunch of dancing women silhouettes. ""}","","","","","","","","","","","","","","","","","","","","","","",""
"2401.7999999821186","","image-slider-response","186","1702348","0.0-181.0","A1TW2BZRRS874Z","","","","","30","","","","","","","","","","","","","","","","","","","","","",""
"3658","","image-button-response","187","1707354","0.0-182.0","A1TW2BZRRS874Z","img_art/23.jpg","0","","","","","","","","","","","","","","","","","","","","","","","","",""
"1543","","image-button-response","188","1708901","0.0-183.0","A1TW2BZRRS874Z","img_art/23.jpg","0","","","","","","","","","","","","","","","","","","","","","","","","",""
"5170","","image-button-response","189","1714078","0.0-184.0-0.0","A1TW2BZRRS874Z","img_art/23.jpg","2","","","","","","","","","","","","","","","","","","","","","","","","",""
"8857","","image-button-response","190","1722944","0.0-185.0-0.0","A1TW2BZRRS874Z","img_art/23.jpg","5","","","","","","","","","","","","","","","","","","","","","","","","",""
"null","","html-keyboard-response","191","1724447","0.0-186.0","A1TW2BZRRS874Z","<p style=""font-size: 48px;"">+</p>","","","","","null","allTrialResponses","1500","1","20","img_art/23.jpg","30","looks like a bunch of dancing women silhouettes. ","Mitchell,Kyle,Isaiah,Noah,Antonio,Aaron","Partying, dancing, delusion, kaus.,10,180,20","Mostly neutral but a bit too guady with the brash colors,-6,340,20","I feel happy and a little excited. Like watching fireworks with family.,26,300,20","the pattern of colours imbues in me a sense of infinity, which I find soothing,10,260,20","Like the colors and made me feel happy,23,220,20","I love the colors and the contrast.,50,20,20","Mitchell","Partying, dancing, delusion, kaus.,10,180,20","Isaiah","I feel happy and a little excited. Like watching fireworks with family.,26,300,20","Aaron","I love the colors and the contrast.,50,20,20","10"
"5855","","survey-text","192","1730326","0.0-187.0-0.0","A1TW2BZRRS874Z","","","","{""Q0"":""we""}","","","","","","","","","","","","","","","","","","","","","","",""
"22531","","survey-text","193","1752863","0.0-188.0-0.0","A1TW2BZRRS874Z","","","","{""Q0"":""I really like this one, the colors and the arrangement""}","","","","","","","","","","","","","","","","","","","","","","",""
"2634.4000000059605","","image-slider-response","194","1755504","0.0-189.0","A1TW2BZRRS874Z","","","","","37","","","","","","","","","","","","","","","","","","","","","",""
"null","","image-button-response","195","1760510","0.0-190.0","A1TW2BZRRS874Z","img_art/18.jpg","null","","","","","","","","","","","","","","","","","","","","","","","","",""
"2502","","image-button-response","196","1763018","0.0-191.0","A1TW2BZRRS874Z","img_art/18.jpg","3","","","","","","","","","","","","","","","","","","","","","","","","",""
"3288","","image-button-response","197","1766314","0.0-192.0-0.0","A1TW2BZRRS874Z","img_art/18.jpg","4","","","","","","","","","","","","","","","","","","","","","","","","",""
"2816","","image-button-response","198","1769136","0.0-193.0-0.0","A1TW2BZRRS874Z","img_art/18.jpg","5","","","","","","","","","","","","","","","","","","","","","","","","",""
"null","","html-keyboard-response","199","1770139","0.0-194.0","A1TW2BZRRS874Z","<p style=""font-size: 48px;"">+</p>","","","","","null","allTrialResponses","1000","1","21","img_art/18.jpg","37","I really like this one, the colors and the arrangement","Mitchell,Peter,Isaiah,James,Christopher,Aaron","Karma. being ruthless and all the time knowing the shit is gonna catch up with you.,10,180,20","I'm not partial to the design, unsettling,2,320,20","I'm mildly disgusted by the colors, and can't piece together the story the figures are trying to tell.,-10,300,20","Very eerie and it's spooky,11,380,20","this is kind of cool. I like the color scheme and the figure in the upper left is interesting,15,160,20","I could spend a long time looking at it and see different things in the shapes.,21,20,20","James","Very eerie and it's spooky,11,380,20","Christopher","this is kind of cool. I like the color scheme and the figure in the upper left is interesting,15,160,20","Aaron","I could spend a long time looking at it and see different things in the shapes.,21,20,20","10"
"14372","","survey-text","200","1784530","0.0-195.0-0.0","A1TW2BZRRS874Z","","","","{""Q0"":""plain and not a big deal""}","","","","","","","","","","","","","","","","","","","","","","",""
"2154.0999999940395","","image-slider-response","201","1786690","0.0-196.0","A1TW2BZRRS874Z","","","","","-32","","","","","","","","","","","","","","","","","","","","","",""
"3330","","image-button-response","202","1791696","0.0-197.0","A1TW2BZRRS874Z","img_art/26.jpg","1","","","","","","","","","","","","","","","","","","","","","","","","",""
"157","","image-button-response","203","1791859","0.0-198.0","A1TW2BZRRS874Z","img_art/26.jpg","1","","","","","","","","","","","","","","","","","","","","","","","","",""
"682","","image-button-response","204","1792547","0.0-199.0-0.0","A1TW2BZRRS874Z","img_art/26.jpg","2","","","","","","","","","","","","","","","","","","","","","","","","",""
"2074","","image-button-response","205","1794627","0.0-200.0-0.0","A1TW2BZRRS874Z","img_art/26.jpg","3","","","","","","","","","","","","","","","","","","","","","","","","",""
"null","","html-keyboard-response","206","1796131","0.0-201.0","A1TW2BZRRS874Z","<p style=""font-size: 48px;"">+</p>","","","","","null","allTrialResponses","1500","1","22","img_art/26.jpg","-32","plain and not a big deal","Jose,Nathan,Jesse,James,Christopher,Aaron","This style of objects that are supposed to be something but then are blurry is interesting.,38,200,20","It's a little too yellow-y for me, I'm not a huge fan of the color schemes or setting it portrays.,-20,200,20","Looks bland and boring,-5,80,20","This picture is ok; just a normal city,11,380,20","too hard to figure out if it's meant to be actual objects or impressions,-36,160,20","It looks like a watercolor I did when I was 6.,-30,20,20","Nathan","It's a little too yellow-y for me, I'm not a huge fan of the color schemes or setting it portrays.,-20,200,20","Jesse","Looks bland and boring,-5,80,20","James","This picture is ok; just a normal city,11,380,20","10"
"11821","","survey-text","207","1807969","0.0-202.0-0.0","A1TW2BZRRS874Z","","","","{""Q0"":""very cool tree and colors""}","","","","","","","","","","","","","","","","","","","","","","",""
"2662.2999999821186","","image-slider-response","208","1810635","0.0-203.0","A1TW2BZRRS874Z","","","","","39","","","","","","","","","","","","","","","","","","","","","",""
"3202","","image-button-response","209","1815642","0.0-204.0","A1TW2BZRRS874Z","img_art/17.jpg","0","","","","","","","","","","","","","","","","","","","","","","","","",""
"1627","","image-button-response","210","1817275","0.0-205.0","A1TW2BZRRS874Z","img_art/17.jpg","0","","","","","","","","","","","","","","","","","","","","","","","","",""
"2669","","image-button-response","211","1819949","0.0-206.0-0.0","A1TW2BZRRS874Z","img_art/17.jpg","3","","","","","","","","","","","","","","","","","","","","","","","","",""
"1770","","image-button-response","212","1821726","0.0-207.0-0.0","A1TW2BZRRS874Z","img_art/17.jpg","4","","","","","","","","","","","","","","","","","","","","","","","","",""
"null","","html-keyboard-response","213","1823230","0.0-208.0","A1TW2BZRRS874Z","<p style=""font-size: 48px;"">+</p>","","","","","null","allTrialResponses","1500","1","23","img_art/17.jpg","39","very cool tree and colors","Devin,Nathan,Jesse,James,Derek,Richard","So expressive and wonderful wow!,17,380,20","It's alright, nothing I particularly like but it's just fine,-10,200,20","Doesnt completely turn me off but wouldnt look twice,-3,80,20","It's nice and realistic looking.,12,380,20","The colors are beautiful and the painting itself is magnificent,50,360,20","nice composition and colors, fairy land,28,340,20","Devin","So expressive and wonderful wow!,17,380,20","James","It's nice and realistic looking.,12,380,20","Derek","The colors are beautiful and the painting itself is magnificent,50,360,20","10"
"11380","","survey-text","214","1834637","0.0-209.0-0.0","A1TW2BZRRS874Z","","","","{""Q0"":""horrible to say the least""}","","","","","","","","","","","","","","","","","","","","","","",""
"5218.299999982119","","image-slider-response","215","1839861","0.0-210.0","A1TW2BZRRS874Z","","","","","-34","","","","","","","","","","","","","","","","","","","","","",""
"null","","image-button-response","216","1844868","0.0-211.0","A1TW2BZRRS874Z","img_art/30.jpg","null","","","","","","","","","","","","","","","","","","","","","","","","",""
"1484","","image-button-response","217","1846356","0.0-212.0","A1TW2BZRRS874Z","img_art/30.jpg","1","","","","","","","","","","","","","","","","","","","","","","","","",""
"926","","image-button-response","218","1847287","0.0-213.0-0.0","A1TW2BZRRS874Z","img_art/30.jpg","2","","","","","","","","","","","","","","","","","","","","","","","","",""
"6064","","image-button-response","219","1853360","0.0-214.0-0.0","A1TW2BZRRS874Z","img_art/30.jpg","5","","","","","","","","","","","","","","","","","","","","","","","","",""
"null","","html-keyboard-response","220","1853864","0.0-215.0","A1TW2BZRRS874Z","<p style=""font-size: 48px;"">+</p>","","","","","null","allTrialResponses","500","1","24","img_art/30.jpg","-34","horrible to say the least","Devin,Bradley,Carlos,James,Derek,Edward","A bit haphazard looking and lacking in vision,2,380,20","Hmmm. I think the artist is trying to direct me to a spreadsheet?  (s/s),-10,300,20","It just feels hasty and not well composed. Has an angsty teen feel,-31,80,20","I like the fact that it's a painting.,21,380,20","Looks quite basic but the colors are nice and there is a wildness about it that I love,0,360,20","My son made me a painting that looked like this,26,60,20","Bradley","Hmmm. I think the artist is trying to direct me to a spreadsheet?  (s/s),-10,300,20","Carlos","It just feels hasty and not well composed. Has an angsty teen feel,-31,80,20","Edward","My son made me a painting that looked like this,26,60,20","10"
"10306","","survey-text","221","1864181","0.0-216.0-0.0","A1TW2BZRRS874Z","","","","{""Q0"":""eh, no go for me""}","","","","","","","","","","","","","","","","","","","","","","",""
"2134.2000000178814","","image-slider-response","222","1866319","0.0-217.0","A1TW2BZRRS874Z","","","","","-19","","","","","","","","","","","","","","","","","","","","","",""
"1964","","image-button-response","223","1871324","0.0-218.0","A1TW2BZRRS874Z","img_art/3.jpg","0","","","","","","","","","","","","","","","","","","","","","","","","",""
"990","","image-button-response","224","1872318","0.0-219.0","A1TW2BZRRS874Z","img_art/3.jpg","0","","","","","","","","","","","","","","","","","","","","","","","","",""
"733","","image-button-response","225","1873057","0.0-220.0-0.0","A1TW2BZRRS874Z","img_art/3.jpg","1","","","","","","","","","","","","","","","","","","","","","","","","",""
"4536","","image-button-response","226","1877601","0.0-221.0-0.0","A1TW2BZRRS874Z","img_art/3.jpg","3","","","","","","","","","","","","","","","","","","","","","","","","",""
"null","","html-keyboard-response","227","1878610","0.0-222.0","A1TW2BZRRS874Z","<p style=""font-size: 48px;"">+</p>","","","","","null","allTrialResponses","1000","1","25","img_art/3.jpg","-19","eh, no go for me","Ian,Bradley,Carlos,Elijah,Dalton,Edward","It just makes me think of blood splattered everywhere.,-31,260,20","Marker gone wild?  Not sure what's going on here.,-21,300,20","The composition keeps the eye moving, the colors are satisfying.,31,80,20","Somebody scribbled on a piece of paper,-35,80,20","Blood splatter and one black spot.,1,300,20","It looks like someone took a red sharpie and just scribbled angrily,-20,60,20","Ian","It just makes me think of blood splattered everywhere.,-31,260,20","Bradley","Marker gone wild?  Not sure what's going on here.,-21,300,20","Elijah","Somebody scribbled on a piece of paper,-35,80,20","10"
"6006","","survey-text","228","1884640","0.0-223.0-0.0","A1TW2BZRRS874Z","","","","{""Q0"":""table""}","","","","","","","","","","","","","","","","","","","","","","",""
"14292","","survey-text","229","1898938","0.0-224.0-0.0","A1TW2BZRRS874Z","","","","{""Q0"":""this one looks like a town and is decent""}","","","","","","","","","","","","","","","","","","","","","","",""
"1969.2999999821186","","image-slider-response","230","1900913","0.0-225.0","A1TW2BZRRS874Z","","","","","19","","","","","","","","","","","","","","","","","","","","","",""
"null","","image-button-response","231","1905921","0.0-226.0","A1TW2BZRRS874Z","img_art/20.jpg","null","","","","","","","","","","","","","","","","","","","","","","","","",""
"2837","","image-button-response","232","1908763","0.0-227.0","A1TW2BZRRS874Z","img_art/20.jpg","2","","","","","","","","","","","","","","","","","","","","","","","","",""
"2617","","image-button-response","233","1911388","0.0-228.0-0.0","A1TW2BZRRS874Z","img_art/20.jpg","3","","","","","","","","","","","","","","","","","","","","","","","","",""
"880","","image-button-response","234","1912276","0.0-229.0-0.0","A1TW2BZRRS874Z","img_art/20.jpg","4","","","","","","","","","","","","","","","","","","","","","","","","",""
"null","","html-keyboard-response","235","1912780","0.0-230.0","A1TW2BZRRS874Z","<p style=""font-size: 48px;"">+</p>","","","","","null","allTrialResponses","500","1","26","img_art/20.jpg","19","this one looks like a town and is decent","Ian,Bradley,Patrick,Elijah,Benjamin,Logan","A painting within a painting, the inner painting looks like a car crash with a semi truck.,21,260,20","A truck rolled over?  I do like the pictures and the technique though.,25,300,20","Looks calm but a bit dark,21,280,20","Makes me feel impressed,9,80,20","Bold strokes and colors.,6,260,20","truck? train? dead cow? plane?,10,360,20","Patrick","Looks calm but a bit dark,21,280,20","Elijah","Makes me feel impressed,9,80,20","Benjamin","Bold strokes and colors.,6,260,20","10"
"27006","","survey-text","236","1939803","0.0-231.0-0.0","A1TW2BZRRS874Z","","","","{""Q0"":""Looks messy but feel there is meaning to the chaos""}","","","","","","","","","","","","","","","","","","","","","","",""
"2517.7000000178814","","image-slider-response","237","1942325","0.0-232.0","A1TW2BZRRS874Z","","","","","23","","","","","","","","","","","","","","","","","","","","","",""
"null","","image-button-response","238","1947331","0.0-233.0","A1TW2BZRRS874Z","img_art/12.jpg","null","","","","","","","","","","","","","","","","","","","","","","","","",""
"3244","","image-button-response","239","1950582","0.0-234.0","A1TW2BZRRS874Z","img_art/12.jpg","4","","","","","","","","","","","","","","","","","","","","","","","","",""
"1433","","image-button-response","240","1952022","0.0-235.0-0.0","A1TW2BZRRS874Z","img_art/12.jpg","5","","","","","","","","","","","","","","","","","","","","","","","","",""
"1490","","image-button-response","241","1953518","0.0-236.0-0.0","A1TW2BZRRS874Z","img_art/12.jpg","0","","","","","","","","","","","","","","","","","","","","","","","","",""
"null","","html-keyboard-response","242","1954021","0.0-237.0","A1TW2BZRRS874Z","<p style=""font-size: 48px;"">+</p>","","","","","null","allTrialResponses","500","1","27","img_art/12.jpg","23","Looks messy but feel there is meaning to the chaos","Evan,Travis,Patrick,Elijah,Benjamin,Tristan","It reminds me of the documentary Paris is Burning, though I'm not sure why,11,140,20","Neutral...just blocks.,3,260,20","I don't like the blocking,-20,280,20","It makes me feel confused,-15,80,20","Like how all the colors seem to blend together.,15,260,20","Quite lovely with depth and possibility.,21,300,20","Benjamin","Like how all the colors seem to blend together.,15,260,20","Tristan","Quite lovely with depth and possibility.,21,300,20","Evan","It reminds me of the documentary Paris is Burning, though I'm not sure why,11,140,20","10"
"11721","","survey-text","243","1965758","0.0-238.0-0.0","A1TW2BZRRS874Z","","","","{""Q0"":""this looks like a little kid did it.""}","","","","","","","","","","","","","","","","","","","","","","",""
"3266","","image-slider-response","244","1969030","0.0-239.0","A1TW2BZRRS874Z","","","","","-37","","","","","","","","","","","","","","","","","","","","","",""
"2906","","image-button-response","245","1974036","0.0-240.0","A1TW2BZRRS874Z","img_art/4.jpg","0","","","","","","","","","","","","","","","","","","","","","","","","",""
"1735","","image-button-response","246","1975775","0.0-241.0","A1TW2BZRRS874Z","img_art/4.jpg","0","","","","","","","","","","","","","","","","","","","","","","","","",""
"2171","","image-button-response","247","1977952","0.0-242.0-0.0","A1TW2BZRRS874Z","img_art/4.jpg","1","","","","","","","","","","","","","","","","","","","","","","","","",""
"1625","","image-button-response","248","1979584","0.0-243.0-0.0","A1TW2BZRRS874Z","img_art/4.jpg","3","","","","","","","","","","","","","","","","","","","","","","","","",""
"null","","html-keyboard-response","249","1980089","0.0-244.0","A1TW2BZRRS874Z","<p style=""font-size: 48px;"">+</p>","","","","","null","allTrialResponses","500","1","28","img_art/4.jpg","-37","this looks like a little kid did it.","Evan,Joseph,Jeremy,Cody,Benjamin,Tristan","I'm disappointed that such a simple piece, with very little effort spent, could be grouped with other detailed pieces,-31,140,20","It's okay, I guess. Nothing much either way.,5,220,20","the colors are calming,31,60,20","Interesting but maybe a little creepy,0,180,20","I like the bold style.,10,260,20","disturbing and uncomfortable.,10,300,20","Evan","I'm disappointed that such a simple piece, with very little effort spent, could be grouped with other detailed pieces,-31,140,20","Joseph","It's okay, I guess. Nothing much either way.,5,220,20","Cody","Interesting but maybe a little creepy,0,180,20","10"
"19058","","survey-text","250","1999166","0.0-245.0-0.0","A1TW2BZRRS874Z","","","","{""Q0"":""looks a little futuristic but still not sure ""}","","","","","","","","","","","","","","","","","","","","","","",""
"3070.5","","image-slider-response","251","2002239","0.0-246.0","A1TW2BZRRS874Z","","","","","14","","","","","","","","","","","","","","","","","","","","","",""
"2076","","image-button-response","252","2007282","0.0-247.0","A1TW2BZRRS874Z","img_art/22.jpg","0","","","","","","","","","","","","","","","","","","","","","","","","",""
"1850","","image-button-response","253","2009135","0.0-248.0","A1TW2BZRRS874Z","img_art/22.jpg","0","","","","","","","","","","","","","","","","","","","","","","","","",""
"2150","","image-button-response","254","2011290","0.0-249.0-0.0","A1TW2BZRRS874Z","img_art/22.jpg","2","","","","","","","","","","","","","","","","","","","","","","","","",""
"3610","","image-button-response","255","2014907","0.0-250.0-0.0","A1TW2BZRRS874Z","img_art/22.jpg","3","","","","","","","","","","","","","","","","","","","","","","","","",""
"null","","html-keyboard-response","256","2016411","0.0-251.0","A1TW2BZRRS874Z","<p style=""font-size: 48px;"">+</p>","","","","","null","allTrialResponses","1500","1","29","img_art/22.jpg","14","looks a little futuristic but still not sure ","Evan,Joseph,Kenneth,Cody,Jacob,Spencer","I enjoy the vibrant colors,23,140,20","I don't like that it looks like a person is there upside down.,-16,220,20","I really enjoy the blended colors.,20,300,20","Love the use of color,50,180,20","I like the mixing of the primary colors.,8,340,20","Pretty colors but too blocky for me,-19,120,20","Evan","I enjoy the vibrant colors,23,140,20","Kenneth","I really enjoy the blended colors.,20,300,20","Cody","Love the use of color,50,180,20","10"
"18717","","survey-text","257","2035146","0.0-252.0-0.0","A1TW2BZRRS874Z","","","","{""Q0"":""the wild west with cowboys and indians""}","","","","","","","","","","","","","","","","","","","","","","",""
"3106.2000000178814","","image-slider-response","258","2038258","0.0-253.0","A1TW2BZRRS874Z","","","","","-34","","","","","","","","","","","","","","","","","","","","","",""
"2651","","image-button-response","259","2043265","0.0-254.0","A1TW2BZRRS874Z","img_art/7.jpg","1","","","","","","","","","","","","","","","","","","","","","","","","",""
"7876","","image-button-response","260","2051149","0.0-255.0","A1TW2BZRRS874Z","img_art/7.jpg","4","","","","","","","","","","","","","","","","","","","","","","","","",""
"7002","","image-button-response","261","2058158","0.0-256.0-0.0","A1TW2BZRRS874Z","img_art/7.jpg","1","","","","","","","","","","","","","","","","","","","","","","","","",""
"703","","image-button-response","262","2058868","0.0-257.0-0.0","A1TW2BZRRS874Z","img_art/7.jpg","0","","","","","","","","","","","","","","","","","","","","","","","","",""
"null","","html-keyboard-response","263","2060372","0.0-258.0","A1TW2BZRRS874Z","<p style=""font-size: 48px;"">+</p>","","","","","null","allTrialResponses","1500","1","30","img_art/7.jpg","-34","the wild west with cowboys and indians","Evan,Taylor,Kenneth,Cody,Brandon,Adrian","I feel confused, am I looking at a painting or a close up picture of some sort of fly stone?,-19,140,20","Looks like a photo taken from the moon.,-6,200,20","My firs thought was ""gross""...not sure what this is and I dont think i want to know.,-19,300,20","Cool, makes me think of archeology,15,180,20","Looks like bad wallpaper,-29,320,20","It's dirty. I don't mind the colors so much as the way they are put together in this dirty-looking pattern.,-41,60,20","Brandon","Looks like bad wallpaper,-29,320,20","Taylor","Looks like a photo taken from the moon.,-6,200,20","Evan","I feel confused, am I looking at a painting or a close up picture of some sort of fly stone?,-19,140,20","10"
"3770","","image-button-response_instructions","264","2064163","0.0-259.0","A1TW2BZRRS874Z","","0","instructions","","","","","","","","","","","","","","","","","","","","","","","",""
"1279","","image-button-response","265","2065460","0.0-260.0","A1TW2BZRRS874Z","","0","","","","","","","","","","","","","","","","","","","","","","","","",""
