"rt","url","trial_type","trial_index","time_elapsed","internal_node_id","participant_id","stimulus","button_pressed","Name","responses","response","key_press","variableName","fixationTime","condition","trial","photo","subjectRating","subjectResponse","agentsNames","agent_1_Response","agent_2_Response","agent_3_Response","agent_4_Response","agent_5_Response","agent_6_Response","kept_1_name","kept_1_response","kept_2_name","kept_2_response","kept_3_name","kept_3_response","errorCounter"
"14685","external_page_harvard.html","external-html","0","14798","0.0-0.0","A1W5ECLQGJYCPF","","","","","","","","","","","","","","","","","","","","","","","","","","",""
"2179","","image-button-response","1","16980","0.0-1.0","A1W5ECLQGJYCPF","","1","","","","","","","","","","","","","","","","","","","","","","","","",""
"24337","","image-button-response","2","41327","0.0-2.0-0.0","A1W5ECLQGJYCPF","","1","phone","","","","","","","","","","","","","","","","","","","","","","","",""
"12086","","survey-text","3","53416","0.0-3.0-0.0","A1W5ECLQGJYCPF","","","","{""Q0"":""A1W5ECLQGJYCPF""}","","","","","","","","","","","","","","","","","","","","","","",""
"5181","","image-button-response_instructions","4","58600","0.0-4.0","A1W5ECLQGJYCPF","","0","instructions","","","","","","","","","","","","","","","","","","","","","","","",""
"14903","","image-button-response_instructions","5","73505","0.0-5.0","A1W5ECLQGJYCPF","img_art/ins/popularity/ins1.png","0","instructions","","","","","","","","","","","","","","","","","","","","","","","",""
"7463","","image-button-response_instructions","6","80970","0.0-6.0","A1W5ECLQGJYCPF","img_art/ins/popularity/ins2.png","0","instructions","","","","","","","","","","","","","","","","","","","","","","","",""
"4567","","image-button-response_instructions","7","85538","0.0-7.0","A1W5ECLQGJYCPF","img_art/ins/popularity/ins2Extreme.png","0","instructions","","","","","","","","","","","","","","","","","","","","","","","",""
"13391","","image-button-response_instructions","8","98931","0.0-8.0","A1W5ECLQGJYCPF","img_art/ins/popularity/ins3KEEPpop.PNG","0","instructions","","","","","","","","","","","","","","","","","","","","","","","",""
"4151","","image-button-response_instructions","9","103084","0.0-9.0","A1W5ECLQGJYCPF","img_art/ins/popularity/ins3ANamepop.PNG","0","instructions","","","","","","","","","","","","","","","","","","","","","","","",""
"6758","","image-button-response_instructions","10","109844","0.0-10.0","A1W5ECLQGJYCPF","img_art/ins/popularity/ins3ARatingpop.png","0","instructions","","","","","","","","","","","","","","","","","","","","","","","",""
"10518","","image-button-response_instructions","11","120364","0.0-11.0","A1W5ECLQGJYCPF","img_art/ins/popularity/ins3ATextpop.png","0","instructions","","","","","","","","","","","","","","","","","","","","","","","",""
"10391","","image-button-response_instructions","12","130757","0.0-12.0","A1W5ECLQGJYCPF","img_art/ins/popularity/ins3ALikespop.png","0","instructions","","","","","","","","","","","","","","","","","","","","","","","",""
"7087","","image-button-response_instructions","13","137846","0.0-13.0","A1W5ECLQGJYCPF","img_art/ins/popularity/ins3KEEPpop.PNG","0","instructions","","","","","","","","","","","","","","","","","","","","","","","",""
"15487","","image-button-response_instructions","14","153335","0.0-14.0","A1W5ECLQGJYCPF","img_art/ins/popularity/ins3_5RED.png","0","instructions","","","","","","","","","","","","","","","","","","","","","","","",""
"7335","","image-button-response_instructions","15","160671","0.0-15.0","A1W5ECLQGJYCPF","img_art/ins/popularity/ins3KEEPpop.PNG","0","instructions","","","","","","","","","","","","","","","","","","","","","","","",""
"7751","","image-button-response_instructions","16","168424","0.0-16.0","A1W5ECLQGJYCPF","img_art/ins/popularity/ins4KEEPpop.PNG","0","instructions","","","","","","","","","","","","","","","","","","","","","","","",""
"12193","","image-button-response_instructions","17","180618","0.0-17.0","A1W5ECLQGJYCPF","img_art/ins/popularity/ins5KEEPpop.PNG","0","instructions","","","","","","","","","","","","","","","","","","","","","","","",""
"30049","","image-button-response_instructions","18","210668","0.0-18.0","A1W5ECLQGJYCPF","","0","instructions","","","","","","","","","","","","","","","","","","","","","","","",""
"13335","","survey-text","19","224037","0.0-19.0-0.0","A1W5ECLQGJYCPF","","","","{""Q0"":""but""}","","","","","","","","","","","","","","","","","","","","","","",""
"7062","","survey-text","20","231102","0.0-20.0-0.0","A1W5ECLQGJYCPF","","","","{""Q0"":""colorful""}","","","","","","","","","","","","","","","","","","","","","","",""
"3933.5","","image-slider-response","21","235038","0.0-21.0","A1W5ECLQGJYCPF","","","","","5","","","","","","","","","","","","","","","","","","","","","",""
"null","","image-button-response","22","240043","0.0-22.0","A1W5ECLQGJYCPF","img_art/ins/1.jpg","null","","","","","","","","","","","","","","","","","","","","","","","","",""
"2761","","image-button-response","23","242807","0.0-23.0","A1W5ECLQGJYCPF","img_art/ins/1.jpg","5","","","","","","","","","","","","","","","","","","","","","","","","",""
"5765","","image-button-response","24","248575","0.0-24.0-0.0","A1W5ECLQGJYCPF","img_art/ins/1.jpg","4","","","","","","","","","","","","","","","","","","","","","","","","",""
"508","","image-button-response","25","249087","0.0-25.0-0.0","A1W5ECLQGJYCPF","img_art/ins/1.jpg","3","","","","","","","","","","","","","","","","","","","","","","","","",""
"null","","html-keyboard-response","26","249591","0.0-26.0","A1W5ECLQGJYCPF","<p style=""font-size: 48px;"">+</p>","","","","","null","allTrialResponses","500","1","-2","img_art/ins/1.jpg","5","colorful","Allison,Ashley,Beth,Dora,Erika,Jen","looks like a lot of things going on in the mist,20,20,20","I just don't get why these type of art would be popular,-32,40,20","This color reminds me of poo,-46,60,20","looks like what my niece in 3rd grade did this afternoon,-50,80,20","I like the sophisticated brushwork,40,100,20","It reminds me of a candy land dream I had,36,120,20","Jen","It reminds me of a candy land dream I had,36,120,20","Erika","I like the sophisticated brushwork,40,100,20","Dora","looks like what my niece in 3rd grade did this afternoon,-50,80,20","0"
"7350","","survey-text","27","256951","0.0-27.0-0.0","A1W5ECLQGJYCPF","","","","{""Q0"":""arabic""}","","","","","","","","","","","","","","","","","","","","","","",""
"4422.299999952316","","image-slider-response","28","261375","0.0-28.0","A1W5ECLQGJYCPF","","","","","16","","","","","","","","","","","","","","","","","","","","","",""
"4590","","image-button-response","29","266379","0.0-29.0","A1W5ECLQGJYCPF","img_art/ins/2.jpg","1","","","","","","","","","","","","","","","","","","","","","","","","",""
"1874","","image-button-response","30","268256","0.0-30.0","A1W5ECLQGJYCPF","img_art/ins/2.jpg","1","","","","","","","","","","","","","","","","","","","","","","","","",""
"3790","","image-button-response","31","272049","0.0-31.0-0.0","A1W5ECLQGJYCPF","img_art/ins/2.jpg","0","","","","","","","","","","","","","","","","","","","","","","","","",""
"1237","","image-button-response","32","273289","0.0-32.0-0.0","A1W5ECLQGJYCPF","img_art/ins/2.jpg","0","","","","","","","","","","","","","","","","","","","","","","","","",""
"2487","","image-button-response","33","279778","0.0-32.1-0.1","A1W5ECLQGJYCPF","img_art/ins/2.jpg","2","","","","","","","","","","","","","","","","","","","","","","","","",""
"null","","html-keyboard-response","34","280281","0.0-33.0","A1W5ECLQGJYCPF","<p style=""font-size: 48px;"">+</p>","","","","","null","allTrialResponses","500","1","-1","img_art/ins/2.jpg","16","arabic","Jenna,Kara,Katie,Dora,Erika,Jen","One of my pet peevs,-48,140,20","I like the blocks of color arrangements,30,160,20","too much color!,-28,180,20","looks too angry,-50,80,20","I would never be able to compose a sophisticated pallete like this,48,100,20","It reminds me of a fireplace,36,120,20","Kara","I like the blocks of color arrangements,30,160,20","Jenna","One of my pet peevs,-48,140,20","Katie","too much color!,-28,180,20","2"
"19930","","survey-text","35","300219","0.0-34.0-0.0","A1W5ECLQGJYCPF","","","","{""Q0"":""sea the ocean""}","","","","","","","","","","","","","","","","","","","","","","",""
"3013.899999856949","","image-slider-response","36","303236","0.0-35.0","A1W5ECLQGJYCPF","","","","","16","","","","","","","","","","","","","","","","","","","","","",""
"4854","","image-button-response","37","308248","0.0-36.0","A1W5ECLQGJYCPF","img_art/ins/3.jpg","5","","","","","","","","","","","","","","","","","","","","","","","","",""
"4752","","image-button-response","38","313005","0.0-37.0","A1W5ECLQGJYCPF","img_art/ins/3.jpg","5","","","","","","","","","","","","","","","","","","","","","","","","",""
"3134","","image-button-response","39","316141","0.0-38.0-0.0","A1W5ECLQGJYCPF","img_art/ins/3.jpg","2","","","","","","","","","","","","","","","","","","","","","","","","",""
"1605","","image-button-response","40","317749","0.0-39.0-0.0","A1W5ECLQGJYCPF","img_art/ins/3.jpg","0","","","","","","","","","","","","","","","","","","","","","","","","",""
"null","","html-keyboard-response","41","318752","0.0-40.0","A1W5ECLQGJYCPF","<p style=""font-size: 48px;"">+</p>","","","","","null","allTrialResponses","1000","1","0","img_art/ins/3.jpg","16","sea the ocean","Jenna,Kara,Katie,Leslie,Mary,Rose","looks like a murder room,-35,140,20","calming blue is very nice,36,160,20","It looks depressing,-26,180,20","It's an alright work,15,200,20","I like the overlapping of brushes,41,220,20","My daily routine, it's depressing,-20,240,20","Rose","My daily routine, it's depressing,-20,240,20","Katie","It looks depressing,-26,180,20","Jenna","looks like a murder room,-35,140,20","2"
"10341","","image-button-response_instructions","42","329110","0.0-41.0","A1W5ECLQGJYCPF","","0","instructions","","","","","","","","","","","","","","","","","","","","","","","",""
"18953","","survey-likert","43","348065","0.0-42.0-0.0","A1W5ECLQGJYCPF","","","","{""Q0"":"""",""Q1"":0,""Q2"":0}","","","","","","","","","","","","","","","","","","","","","","",""
"6767","","survey-likert","44","357248","0.0-42.1-0.1","A1W5ECLQGJYCPF","","","","{""Q0"":"""",""Q1"":0,""Q2"":1}","","","","","","","","","","","","","","","","","","","","","","",""
"7951","","survey-text","45","365208","0.0-43.0-0.0","A1W5ECLQGJYCPF","","","","{""Q0"":""rock""}","","","","","","","","","","","","","","","","","","","","","","",""
"52682","","survey-text","46","417893","0.0-44.0-0.0","A1W5ECLQGJYCPF","","","","{""Q0"":""firey and red""}","","","","","","","","","","","","","","","","","","","","","","",""
"6566.100000143051","","image-slider-response","47","424461","0.0-45.0","A1W5ECLQGJYCPF","","","","","-10","","","","","","","","","","","","","","","","","","","","","",""
"null","","image-button-response","48","429499","0.0-46.0","A1W5ECLQGJYCPF","img_art/3.jpg","null","","","","","","","","","","","","","","","","","","","","","","","","",""
"177","","image-button-response","49","429678","0.0-47.0","A1W5ECLQGJYCPF","img_art/3.jpg","2","","","","","","","","","","","","","","","","","","","","","","","","",""
"2750","","image-button-response","50","432430","0.0-48.0-0.0","A1W5ECLQGJYCPF","img_art/3.jpg","5","","","","","","","","","","","","","","","","","","","","","","","","",""
"1173","","image-button-response","51","433606","0.0-49.0-0.0","A1W5ECLQGJYCPF","img_art/3.jpg","1","","","","","","","","","","","","","","","","","","","","","","","","",""
"null","","html-keyboard-response","52","435109","0.0-50.0","A1W5ECLQGJYCPF","<p style=""font-size: 48px;"">+</p>","","","","","null","allTrialResponses","1500","1","1","img_art/3.jpg","-10","firey and red","Mikayla,Stephanie,Victoria,Julia,Caitlin,Hannah","Scary. Looks like blood.,-45,300,20","I think of an angry child,-50,300,20","makes me think of anger,-33,400,20","this is a very nice emotion,27,40,20","Why kids with color crayons is called art is beyond me. People pay for this???,-40,80,20","Looks like a Basquiat but just not my cup of tea.,-29,240,20","Victoria","makes me think of anger,-33,400,20","Hannah","Looks like a Basquiat but just not my cup of tea.,-29,240,20","Stephanie","I think of an angry child,-50,300,20","3"
"41441","","survey-text","53","476561","0.0-51.0-0.0","A1W5ECLQGJYCPF","","","","{""Q0"":""creepy and ghoulish""}","","","","","","","","","","","","","","","","","","","","","","",""
"3670.2000000476837","","image-slider-response","54","480234","0.0-52.0","A1W5ECLQGJYCPF","","","","","-2","","","","","","","","","","","","","","","","","","","","","",""
"2549","","image-button-response","55","485247","0.0-53.0","A1W5ECLQGJYCPF","img_art/25.jpg","0","","","","","","","","","","","","","","","","","","","","","","","","",""
"1464","","image-button-response","56","486714","0.0-54.0","A1W5ECLQGJYCPF","img_art/25.jpg","0","","","","","","","","","","","","","","","","","","","","","","","","",""
"4662","","image-button-response","57","491378","0.0-55.0-0.0","A1W5ECLQGJYCPF","img_art/25.jpg","4","","","","","","","","","","","","","","","","","","","","","","","","",""
"1245","","image-button-response","58","492626","0.0-56.0-0.0","A1W5ECLQGJYCPF","img_art/25.jpg","2","","","","","","","","","","","","","","","","","","","","","","","","",""
"null","","html-keyboard-response","59","494129","0.0-57.0","A1W5ECLQGJYCPF","<p style=""font-size: 48px;"">+</p>","","","","","null","allTrialResponses","1500","1","2","img_art/25.jpg","-2","creepy and ghoulish","Cynthia,Stephanie,Victoria,Sara,Destiny,Hannah","Somewhat feel protected by a messenger,33,320,20","It made me think of healing.,22,300,20","makes me think of a scary movie,-20,400,20","Green color is not my thing,-29,160,20","creeeeeppyyyyyyy but mad cool,-26,360,20","Looks like a voodoo figure in a New Orleans cemetery at night.,-5,240,20","Cynthia","Somewhat feel protected by a messenger,33,320,20","Destiny","creeeeeppyyyyyyy but mad cool,-26,360,20","Victoria","makes me think of a scary movie,-20,400,20","3"
"7975","","survey-text","60","502115","0.0-58.0-0.0","A1W5ECLQGJYCPF","","","","{""Q0"":""war of colors""}","","","","","","","","","","","","","","","","","","","","","","",""
"4094.100000143051","","image-slider-response","61","506211","0.0-59.0","A1W5ECLQGJYCPF","","","","","-19","","","","","","","","","","","","","","","","","","","","","",""
"3461","","image-button-response","62","511216","0.0-60.0","A1W5ECLQGJYCPF","img_art/18.jpg","4","","","","","","","","","","","","","","","","","","","","","","","","",""
"1287","","image-button-response","63","512508","0.0-61.0","A1W5ECLQGJYCPF","img_art/18.jpg","4","","","","","","","","","","","","","","","","","","","","","","","","",""
"1598","","image-button-response","64","514108","0.0-62.0-0.0","A1W5ECLQGJYCPF","img_art/18.jpg","0","","","","","","","","","","","","","","","","","","","","","","","","",""
"1846","","image-button-response","65","515957","0.0-63.0-0.0","A1W5ECLQGJYCPF","img_art/18.jpg","2","","","","","","","","","","","","","","","","","","","","","","","","",""
"null","","html-keyboard-response","66","517460","0.0-64.0","A1W5ECLQGJYCPF","<p style=""font-size: 48px;"">+</p>","","","","","null","allTrialResponses","1500","1","3","img_art/18.jpg","-19","war of colors","Cynthia,Angelica,Victoria,Kaitlyn,Destiny,Samantha","Imaginative, makes me feel creative.,42,320,20","It looks grotesque and violent.,-50,280,20","Makes me think of stormy oceans,20,400,20","Umclear what is present in the picture,0,80,20","Can't tell if I love it or hate it. That response warranted more than neutral so I gave it 20 but not sure,21,360,20","Id love to see this piece closer. So much extra details hidden it it.,50,140,20","Destiny","Can't tell if I love it or hate it. That response warranted more than neutral so I gave it 20 but not sure,21,360,20","Cynthia","Imaginative, makes me feel creative.,42,320,20","Victoria","Makes me think of stormy oceans,20,400,20","3"
"9491","","survey-text","67","526957","0.0-65.0-0.0","A1W5ECLQGJYCPF","","","","{""Q0"":""dessert and old""}","","","","","","","","","","","","","","","","","","","","","","",""
"7238.200000047684","","image-slider-response","68","534197","0.0-66.0","A1W5ECLQGJYCPF","","","","","-37","","","","","","","","","","","","","","","","","","","","","",""
"3045","","image-button-response","69","539203","0.0-67.0","A1W5ECLQGJYCPF","img_art/7.jpg","2","","","","","","","","","","","","","","","","","","","","","","","","",""
"991","","image-button-response","70","540198","0.0-68.0","A1W5ECLQGJYCPF","img_art/7.jpg","2","","","","","","","","","","","","","","","","","","","","","","","","",""
"3494","","image-button-response","71","543697","0.0-69.0-0.0","A1W5ECLQGJYCPF","img_art/7.jpg","4","","","","","","","","","","","","","","","","","","","","","","","","",""
"1243","","image-button-response","72","544943","0.0-70.0-0.0","A1W5ECLQGJYCPF","img_art/7.jpg","0","","","","","","","","","","","","","","","","","","","","","","","","",""
"null","","html-keyboard-response","73","545445","0.0-71.0","A1W5ECLQGJYCPF","<p style=""font-size: 48px;"">+</p>","","","","","null","allTrialResponses","500","1","4","img_art/7.jpg","-37","dessert and old","Cynthia,Christina,Victoria,Heather,Destiny,Michelle","time and change,1,320,20","looks like the surface of the moon,-28,240,20","looks like a photograph,-4,400,20","i dont like it. it looks like rocks,-40,260,20","mars also crunchy leaves maybe a beehive,32,360,20","Hmm interesting, looks like mars or something terrestrial. Too abstract for me and too much brown,4,280,20","Victoria","looks like a photograph,-4,400,20","Destiny","mars also crunchy leaves maybe a beehive,32,360,20","Cynthia","time and change,1,320,20","3"
"11192","","survey-text","74","556647","0.0-72.0-0.0","A1W5ECLQGJYCPF","","","","{""Q0"":""flow from the page""}","","","","","","","","","","","","","","","","","","","","","","",""
"2998.5","","image-slider-response","75","559649","0.0-73.0","A1W5ECLQGJYCPF","","","","","9","","","","","","","","","","","","","","","","","","","","","",""
"4078","","image-button-response","76","564652","0.0-74.0","A1W5ECLQGJYCPF","img_art/20.jpg","5","","","","","","","","","","","","","","","","","","","","","","","","",""
"752","","image-button-response","77","565409","0.0-75.0","A1W5ECLQGJYCPF","img_art/20.jpg","5","","","","","","","","","","","","","","","","","","","","","","","","",""
"1917","","image-button-response","78","567329","0.0-76.0-0.0","A1W5ECLQGJYCPF","img_art/20.jpg","2","","","","","","","","","","","","","","","","","","","","","","","","",""
"1349","","image-button-response","79","568681","0.0-77.0-0.0","A1W5ECLQGJYCPF","img_art/20.jpg","4","","","","","","","","","","","","","","","","","","","","","","","","",""
"null","","html-keyboard-response","80","569184","0.0-78.0","A1W5ECLQGJYCPF","<p style=""font-size: 48px;"">+</p>","","","","","null","allTrialResponses","500","1","5","img_art/20.jpg","9","flow from the page","Cynthia,Jordan,Victoria,Erin,Destiny,Natalie","Curious about what lies here,10,320,20","It's okay, I see what looks like a truck laying on it's side. Meh,10,20,20","like the colors and desert feel,7,400,20","Dark frame overpowers the image,-6,120,20","truck? train? dead cow? plane?,10,360,20","I like the detail on it, although I get a sad vibe to it,19,400,20","Natalie","I like the detail on it, although I get a sad vibe to it,19,400,20","Victoria","like the colors and desert feel,7,400,20","Destiny","truck? train? dead cow? plane?,10,360,20","3"
"5504","","survey-text","81","574705","0.0-79.0-0.0","A1W5ECLQGJYCPF","","","","{""Q0"":""sky""}","","","","","","","","","","","","","","","","","","","","","","",""
"21544","","survey-text","82","596251","0.0-80.0-0.0","A1W5ECLQGJYCPF","","","","{""Q0"":""out in the woods""}","","","","","","","","","","","","","","","","","","","","","","",""
"4206.099999904633","","image-slider-response","83","600459","0.0-81.0","A1W5ECLQGJYCPF","","","","","4","","","","","","","","","","","","","","","","","","","","","",""
"4941","","image-button-response","84","605461","0.0-82.0","A1W5ECLQGJYCPF","img_art/27.jpg","2","","","","","","","","","","","","","","","","","","","","","","","","",""
"803","","image-button-response","85","606267","0.0-83.0","A1W5ECLQGJYCPF","img_art/27.jpg","2","","","","","","","","","","","","","","","","","","","","","","","","",""
"2349","","image-button-response","86","608619","0.0-84.0-0.0","A1W5ECLQGJYCPF","img_art/27.jpg","5","","","","","","","","","","","","","","","","","","","","","","","","",""
"1229","","image-button-response","87","609852","0.0-85.0-0.0","A1W5ECLQGJYCPF","img_art/27.jpg","4","","","","","","","","","","","","","","","","","","","","","","","","",""
"null","","html-keyboard-response","88","611354","0.0-86.0","A1W5ECLQGJYCPF","<p style=""font-size: 48px;"">+</p>","","","","","null","allTrialResponses","1500","1","6","img_art/27.jpg","4","out in the woods","Leah,Gabrielle,Victoria,Crystal,Destiny,Natalie","An attractive assortment of squiggles and colors,22,360,20","like the patterns and colors all but the orange blob on the right,32,160,20","reminds me of fall,33,400,20","Muddied and directionless. Like someone dragged a brush across the paper for the sake of doing something.,-50,300,20","demon vs angel brawl over lemon lime sprite,-10,360,20","also gives me anxiety,-21,400,20","Victoria","reminds me of fall,33,400,20","Natalie","also gives me anxiety,-21,400,20","Destiny","demon vs angel brawl over lemon lime sprite,-10,360,20","3"
"10362","","survey-text","89","621732","0.0-87.0-0.0","A1W5ECLQGJYCPF","","","","{""Q0"":""colorful of an ostrich""}","","","","","","","","","","","","","","","","","","","","","","",""
"2638","","image-slider-response","90","624372","0.0-88.0","A1W5ECLQGJYCPF","","","","","-8","","","","","","","","","","","","","","","","","","","","","",""
"3686","","image-button-response","91","629375","0.0-89.0","A1W5ECLQGJYCPF","img_art/24.jpg","2","","","","","","","","","","","","","","","","","","","","","","","","",""
"450","","image-button-response","92","629829","0.0-90.0","A1W5ECLQGJYCPF","img_art/24.jpg","2","","","","","","","","","","","","","","","","","","","","","","","","",""
"1261","","image-button-response","93","631093","0.0-91.0-0.0","A1W5ECLQGJYCPF","img_art/24.jpg","5","","","","","","","","","","","","","","","","","","","","","","","","",""
"2605","","image-button-response","94","633701","0.0-92.0-0.0","A1W5ECLQGJYCPF","img_art/24.jpg","0","","","","","","","","","","","","","","","","","","","","","","","","",""
"null","","html-keyboard-response","95","635204","0.0-93.0","A1W5ECLQGJYCPF","<p style=""font-size: 48px;"">+</p>","","","","","null","allTrialResponses","1500","1","7","img_art/24.jpg","-8","colorful of an ostrich","Danielle,Grace,Victoria,Laura,Destiny,Natalie","Looks like a mystical type of forest/waterfall. Love it,40,340,20","Abstract falls & nature.,41,180,20","very peaceful and serene,47,400,20","chunky fresh color,27,320,20","brick wall waterfall girl you think you got it all,50,360,20","I like the waterfall,22,400,20","Victoria","very peaceful and serene,47,400,20","Natalie","I like the waterfall,22,400,20","Danielle","Looks like a mystical type of forest/waterfall. Love it,40,340,20","3"
"13663","","survey-text","96","648870","0.0-94.0-0.0","A1W5ECLQGJYCPF","","","","{""Q0"":""flower that is dead""}","","","","","","","","","","","","","","","","","","","","","","",""
"3326.2999999523163","","image-slider-response","97","652199","0.0-95.0","A1W5ECLQGJYCPF","","","","","17","","","","","","","","","","","","","","","","","","","","","",""
"4732","","image-button-response","98","657204","0.0-96.0","A1W5ECLQGJYCPF","img_art/14.jpg","5","","","","","","","","","","","","","","","","","","","","","","","","",""
"2960","","image-button-response","99","660168","0.0-97.0","A1W5ECLQGJYCPF","img_art/14.jpg","5","","","","","","","","","","","","","","","","","","","","","","","","",""
"3518","","image-button-response","100","663688","0.0-98.0-0.0","A1W5ECLQGJYCPF","img_art/14.jpg","0","","","","","","","","","","","","","","","","","","","","","","","","",""
"8950","","image-button-response","101","672641","0.0-99.0-0.0","A1W5ECLQGJYCPF","img_art/14.jpg","2","","","","","","","","","","","","","","","","","","","","","","","","",""
"null","","html-keyboard-response","102","674143","0.0-100.0","A1W5ECLQGJYCPF","<p style=""font-size: 48px;"">+</p>","","","","","null","allTrialResponses","1500","1","8","img_art/14.jpg","17","flower that is dead","Danielle,Kimberly,Victoria,Tiffany,Kaitlin,Natalie","Too much yellow in this image, i'm not a fan of art that is overly-saturated with yellow,-30,340,20","In some ways it looks natural, but I'm just not feeling it,0,260,20","calming to look at,37,400,20","I feel uncomfortable looking at this painting, it is a mess that needs to be cleaned up.,-16,360,20","this would make a very beautiful art project,22,60,20","my reaction is that the picture is wierd,-14,400,20","Natalie","my reaction is that the picture is wierd,-14,400,20","Danielle","Too much yellow in this image, i'm not a fan of art that is overly-saturated with yellow,-30,340,20","Victoria","calming to look at,37,400,20","3"
"12089","","survey-text","103","686250","0.0-101.0-0.0","A1W5ECLQGJYCPF","","","","{""Q0"":""colorful symobol of shapes""}","","","","","","","","","","","","","","","","","","","","","","",""
"2653.2999999523163","","image-slider-response","104","688906","0.0-102.0","A1W5ECLQGJYCPF","","","","","5","","","","","","","","","","","","","","","","","","","","","",""
"4070","","image-button-response","105","693911","0.0-103.0","A1W5ECLQGJYCPF","img_art/22.jpg","4","","","","","","","","","","","","","","","","","","","","","","","","",""
"575","","image-button-response","106","694491","0.0-104.0","A1W5ECLQGJYCPF","img_art/22.jpg","4","","","","","","","","","","","","","","","","","","","","","","","","",""
"4078","","image-button-response","107","698571","0.0-105.0-0.0","A1W5ECLQGJYCPF","img_art/22.jpg","2","","","","","","","","","","","","","","","","","","","","","","","","",""
"1469","","image-button-response","108","700044","0.0-106.0-0.0","A1W5ECLQGJYCPF","img_art/22.jpg","3","","","","","","","","","","","","","","","","","","","","","","","","",""
"null","","html-keyboard-response","109","700546","0.0-107.0","A1W5ECLQGJYCPF","<p style=""font-size: 48px;"">+</p>","","","","","null","allTrialResponses","500","1","9","img_art/22.jpg","5","colorful symobol of shapes","Danielle,Megan,Victoria,Marissa,Emma,Natalie","A bit colorful, but slightly enjoyable, almost gives off castle/sunset vibes,10,340,20","Organic sun spot on a flexible grid,18,200,20","love how the colors blend,42,400,20","I enjoy the vibrant colors,23,160,20","Love the use of color,50,60,20","my reaction is that the picture is confusion,-9,400,20","Emma","Love the use of color,50,60,20","Victoria","love how the colors blend,42,400,20","Marissa","I enjoy the vibrant colors,23,160,20","3"
"10089","","survey-text","110","710652","0.0-108.0-0.0","A1W5ECLQGJYCPF","","","","{""Q0"":""picture of trash bag""}","","","","","","","","","","","","","","","","","","","","","","",""
"2926","","image-slider-response","111","713580","0.0-109.0","A1W5ECLQGJYCPF","","","","","-28","","","","","","","","","","","","","","","","","","","","","",""
"null","","image-button-response","112","718584","0.0-110.0","A1W5ECLQGJYCPF","img_art/5.jpg","null","","","","","","","","","","","","","","","","","","","","","","","","",""
"5137","","image-button-response","113","723726","0.0-111.0","A1W5ECLQGJYCPF","img_art/5.jpg","3","","","","","","","","","","","","","","","","","","","","","","","","",""
"3446","","image-button-response","114","727174","0.0-112.0-0.0","A1W5ECLQGJYCPF","img_art/5.jpg","4","","","","","","","","","","","","","","","","","","","","","","","","",""
"1013","","image-button-response","115","728190","0.0-113.0-0.0","A1W5ECLQGJYCPF","img_art/5.jpg","2","","","","","","","","","","","","","","","","","","","","","","","","",""
"null","","html-keyboard-response","116","729193","0.0-114.0","A1W5ECLQGJYCPF","<p style=""font-size: 48px;"">+</p>","","","","","null","allTrialResponses","1000","1","10","img_art/5.jpg","-28","picture of trash bag","Alyssa,Kylie,Victoria,Marissa,Emma,Jasmine","It has a sense of vague familiarity that i like.Like a stick starting a fire at a campsite.,30,160,20","It reminds me of a piece of lemon candy, which is one of my favorite flavors,20,300,20","very boring and plain,-35,400,20","I am confused as to what I am seeing is it a handbag, duck foot, bell?,-18,160,20","Kind of ugly ....,-21,60,20","Not sure what to say about this piece honestly. It's okay I guess.,0,340,20","Marissa","I am confused as to what I am seeing is it a handbag, duck foot, bell?,-18,160,20","Emma","Kind of ugly ....,-21,60,20","Victoria","very boring and plain,-35,400,20","3"
"5147","","survey-text","117","734374","0.0-115.0-0.0","A1W5ECLQGJYCPF","","","","{""Q0"":""our""}","","","","","","","","","","","","","","","","","","","","","","",""
"20000","","survey-text","118","754375","0.0-116.0-0.0","A1W5ECLQGJYCPF","","","","{""Q0"":""scene of place""}","","","","","","","","","","","","","","","","","","","","","","",""
"2646.7000000476837","","image-slider-response","119","757025","0.0-117.0","A1W5ECLQGJYCPF","","","","","5","","","","","","","","","","","","","","","","","","","","","",""
"null","","image-button-response","120","762029","0.0-118.0","A1W5ECLQGJYCPF","img_art/26.jpg","null","","","","","","","","","","","","","","","","","","","","","","","","",""
"3120","","image-button-response","121","765152","0.0-119.0","A1W5ECLQGJYCPF","img_art/26.jpg","2","","","","","","","","","","","","","","","","","","","","","","","","",""
"2198","","image-button-response","122","767353","0.0-120.0-0.0","A1W5ECLQGJYCPF","img_art/26.jpg","5","","","","","","","","","","","","","","","","","","","","","","","","",""
"901","","image-button-response","123","768257","0.0-121.0-0.0","A1W5ECLQGJYCPF","img_art/26.jpg","3","","","","","","","","","","","","","","","","","","","","","","","","",""
"null","","html-keyboard-response","124","768759","0.0-122.0","A1W5ECLQGJYCPF","<p style=""font-size: 48px;"">+</p>","","","","","null","allTrialResponses","500","1","11","img_art/26.jpg","5","scene of place","Margaret,Mackenzie,Victoria,Marissa,Emma,Briana","its boring and i dont like the color palette,3,100,20","Very interesting to look at, I like the shapes, textures and colors.,30,20,20","feels a tad old,30,400,20","It feels simple and pretty,12,160,20","Looks unfinished,-31,60,20","Another blob on a landscape. A city street?,9,400,20","Victoria","feels a tad old,30,400,20","Briana","Another blob on a landscape. A city street?,9,400,20","Marissa","It feels simple and pretty,12,160,20","3"
"6660","","survey-text","125","775433","0.0-123.0-0.0","A1W5ECLQGJYCPF","","","","{""Q0"":""square of art""}","","","","","","","","","","","","","","","","","","","","","","",""
"5382.400000095367","","image-slider-response","126","780817","0.0-124.0","A1W5ECLQGJYCPF","","","","","-14","","","","","","","","","","","","","","","","","","","","","",""
"2533","","image-button-response","127","785822","0.0-125.0","A1W5ECLQGJYCPF","img_art/12.jpg","0","","","","","","","","","","","","","","","","","","","","","","","","",""
"5185","","image-button-response","128","791011","0.0-126.0","A1W5ECLQGJYCPF","img_art/12.jpg","0","","","","","","","","","","","","","","","","","","","","","","","","",""
"1389","","image-button-response","129","792402","0.0-127.0-0.0","A1W5ECLQGJYCPF","img_art/12.jpg","5","","","","","","","","","","","","","","","","","","","","","","","","",""
"1125","","image-button-response","130","793530","0.0-128.0-0.0","A1W5ECLQGJYCPF","img_art/12.jpg","3","","","","","","","","","","","","","","","","","","","","","","","","",""
"null","","html-keyboard-response","131","794034","0.0-129.0","A1W5ECLQGJYCPF","<p style=""font-size: 48px;"">+</p>","","","","","null","allTrialResponses","500","1","12","img_art/12.jpg","-14","square of art","Maria,Ashley,Victoria,Marissa,Katherine,Briana","evokes the 80s, and not in a necessarily good way,-10,120,20","It's boxy, cubist immpressionism? Very ncie.,32,320,20","to contemporary for me,3,400,20","It reminds me of the documentary Paris is Burning, though I'm not sure why,11,160,20","Not sure why but this is my favorite. I'd put it on my wall,50,120,20","Interesting colors. I really dont like modern art though,24,400,20","Maria","evokes the 80s, and not in a necessarily good way,-10,120,20","Briana","Interesting colors. I really dont like modern art though,24,400,20","Marissa","It reminds me of the documentary Paris is Burning, though I'm not sure why,11,160,20","3"
"7706","","survey-text","132","801755","0.0-130.0-0.0","A1W5ECLQGJYCPF","","","","{""Q0"":""a won award""}","","","","","","","","","","","","","","","","","","","","","","",""
"2733.7999999523163","","image-slider-response","133","804491","0.0-131.0","A1W5ECLQGJYCPF","","","","","-27","","","","","","","","","","","","","","","","","","","","","",""
"4374","","image-button-response","134","809494","0.0-132.0","A1W5ECLQGJYCPF","img_art/4.jpg","5","","","","","","","","","","","","","","","","","","","","","","","","",""
"265","","image-button-response","135","809764","0.0-133.0","A1W5ECLQGJYCPF","img_art/4.jpg","2","","","","","","","","","","","","","","","","","","","","","","","","",""
"1558","","image-button-response","136","811324","0.0-134.0-0.0","A1W5ECLQGJYCPF","img_art/4.jpg","3","","","","","","","","","","","","","","","","","","","","","","","","",""
"1317","","image-button-response","137","812644","0.0-135.0-0.0","A1W5ECLQGJYCPF","img_art/4.jpg","1","","","","","","","","","","","","","","","","","","","","","","","","",""
"null","","html-keyboard-response","138","813146","0.0-136.0","A1W5ECLQGJYCPF","<p style=""font-size: 48px;"">+</p>","","","","","null","allTrialResponses","500","1","13","img_art/4.jpg","-27","a won award","Maria,Alexis,Savannah,Marissa,Jessica,Briana","no strong feelings about this one,2,120,20","Really don't like this. Kindergarten art, sorry.,-50,100,20","Colors are horrendous, look like bodily fluids have been smeared.,-50,200,20","I'm disappointed that such a simple piece, with very little effort spent, could be grouped with other detailed pieces,-31,160,20","Looks like they just smothered on some paint and called it a day.,-17,400,20","Fingerpaint of a hand?,-30,400,20","Savannah","Colors are horrendous, look like bodily fluids have been smeared.,-50,200,20","Marissa","I'm disappointed that such a simple piece, with very little effort spent, could be grouped with other detailed pieces,-31,160,20","Alexis","Really don't like this. Kindergarten art, sorry.,-50,100,20","3"
"13062","","survey-text","139","826212","0.0-137.0-0.0","A1W5ECLQGJYCPF","","","","{""Q0"":""a street of some sort like a train""}","","","","","","","","","","","","","","","","","","","","","","",""
"2734.2999999523163","","image-slider-response","140","828949","0.0-138.0","A1W5ECLQGJYCPF","","","","","-20","","","","","","","","","","","","","","","","","","","","","",""
"3493","","image-button-response","141","833952","0.0-139.0","A1W5ECLQGJYCPF","img_art/10.jpg","3","","","","","","","","","","","","","","","","","","","","","","","","",""
"530","","image-button-response","142","834485","0.0-140.0","A1W5ECLQGJYCPF","img_art/10.jpg","2","","","","","","","","","","","","","","","","","","","","","","","","",""
"1190","","image-button-response","143","835678","0.0-141.0-0.0","A1W5ECLQGJYCPF","img_art/10.jpg","3","","","","","","","","","","","","","","","","","","","","","","","","",""
"556","","image-button-response","144","836238","0.0-142.0-0.0","A1W5ECLQGJYCPF","img_art/10.jpg","4","","","","","","","","","","","","","","","","","","","","","","","","",""
"null","","html-keyboard-response","145","837742","0.0-143.0","A1W5ECLQGJYCPF","<p style=""font-size: 48px;"">+</p>","","","","","null","allTrialResponses","1500","1","14","img_art/10.jpg","-20","a street of some sort like a train","Diana,Alexis,Savannah,Marissa,Brooke,Andrea","It reminds me of the ocean. Almost like a battlefield, but on the water.,19,380,20","Too abstract and it doesn't really remind me of anything,-40,100,20","This is a scribble of a mad man. Appears low effort.,-33,200,20","My immediate thought is WTF is this,-20,160,20","artistic cello piece?,30,60,20","Kraken, and I love it.,39,240,20","Savannah","This is a scribble of a mad man. Appears low effort.,-33,200,20","Marissa","My immediate thought is WTF is this,-20,160,20","Brooke","artistic cello piece?,30,60,20","3"
"26421","","survey-text","146","864184","0.0-144.0-0.0","A1W5ECLQGJYCPF","","","","{""Q0"":""a color of a weird tree""}","","","","","","","","","","","","","","","","","","","","","","",""
"3157.5999999046326","","image-slider-response","147","867344","0.0-145.0","A1W5ECLQGJYCPF","","","","","-3","","","","","","","","","","","","","","","","","","","","","",""
"4182","","image-button-response","148","872348","0.0-146.0","A1W5ECLQGJYCPF","img_art/17.jpg","2","","","","","","","","","","","","","","","","","","","","","","","","",""
"698","","image-button-response","149","873049","0.0-147.0","A1W5ECLQGJYCPF","img_art/17.jpg","5","","","","","","","","","","","","","","","","","","","","","","","","",""
"3069","","image-button-response","150","876121","0.0-148.0-0.0","A1W5ECLQGJYCPF","img_art/17.jpg","1","","","","","","","","","","","","","","","","","","","","","","","","",""
"726","","image-button-response","151","876850","0.0-149.0-0.0","A1W5ECLQGJYCPF","img_art/17.jpg","2","","","","","","","","","","","","","","","","","","","","","","","","",""
"null","","html-keyboard-response","152","877865","0.0-150.0","A1W5ECLQGJYCPF","<p style=""font-size: 48px;"">+</p>","","","","","null","allTrialResponses","1000","1","15","img_art/17.jpg","-3","a color of a weird tree","Vanessa,Kelsey,Savannah,Marissa,Brooke,Amy","I want to know more about this picture and where it leads if you could get inside it.,27,380,20","this ones alright,10,240,20","Not even abstract to me, very clear meaning.,44,200,20","This reminds me of spring,24,160,20","doorways and trees are pleasant,30,60,20","peaceful. contemplative. balanced. old,10,220,20","Amy","peaceful. contemplative. balanced. old,10,220,20","Kelsey","this ones alright,10,240,20","Savannah","Not even abstract to me, very clear meaning.,44,200,20","3"
"8652","","survey-text","153","886554","0.0-151.0-0.0","A1W5ECLQGJYCPF","","","","{""Q0"":""course""}","","","","","","","","","","","","","","","","","","","","","","",""
"8407","","survey-text","154","894962","0.0-152.0-0.0","A1W5ECLQGJYCPF","","","","{""Q0"":""a celebration pic""}","","","","","","","","","","","","","","","","","","","","","","",""
"2669.9000000953674","","image-slider-response","155","897634","0.0-153.0","A1W5ECLQGJYCPF","","","","","13","","","","","","","","","","","","","","","","","","","","","",""
"null","","image-button-response","156","902638","0.0-154.0","A1W5ECLQGJYCPF","img_art/23.jpg","null","","","","","","","","","","","","","","","","","","","","","","","","",""
"2219","","image-button-response","157","904859","0.0-155.0","A1W5ECLQGJYCPF","img_art/23.jpg","5","","","","","","","","","","","","","","","","","","","","","","","","",""
"1725","","image-button-response","158","906587","0.0-156.0-0.0","A1W5ECLQGJYCPF","img_art/23.jpg","0","","","","","","","","","","","","","","","","","","","","","","","","",""
"981","","image-button-response","159","907571","0.0-157.0-0.0","A1W5ECLQGJYCPF","img_art/23.jpg","3","","","","","","","","","","","","","","","","","","","","","","","","",""
"null","","html-keyboard-response","160","908074","0.0-158.0","A1W5ECLQGJYCPF","<p style=""font-size: 48px;"">+</p>","","","","","null","allTrialResponses","500","1","16","img_art/23.jpg","13","a celebration pic","Madison,Kelsey,Savannah,Erika,Jamie,Amy","Looks celebratory and joyful! However, the photograph does not do the original work's colors justice.,27,60,20","i think this ones okay,10,240,20","Very colorful. Nice contrasts.,26,200,20","Very intense and unique,3,100,20","Reminds me of outer space and the stars,30,320,20","So exciting and full of the night.,20,220,20","Amy","So exciting and full of the night.,20,220,20","Madison","Looks celebratory and joyful! However, the photograph does not do the original work's colors justice.,27,60,20","Erika","Very intense and unique,3,100,20","3"
"9468","","survey-text","161","917548","0.0-159.0-0.0","A1W5ECLQGJYCPF","","","","{""Q0"":""inside of a mouth""}","","","","","","","","","","","","","","","","","","","","","","",""
"2886.399999856949","","image-slider-response","162","920436","0.0-160.0","A1W5ECLQGJYCPF","","","","","-29","","","","","","","","","","","","","","","","","","","","","",""
"null","","image-button-response","163","925441","0.0-161.0","A1W5ECLQGJYCPF","img_art/9.jpg","null","","","","","","","","","","","","","","","","","","","","","","","","",""
"512","","image-button-response","164","925957","0.0-162.0","A1W5ECLQGJYCPF","img_art/9.jpg","4","","","","","","","","","","","","","","","","","","","","","","","","",""
"1054","","image-button-response","165","927013","0.0-163.0-0.0","A1W5ECLQGJYCPF","img_art/9.jpg","0","","","","","","","","","","","","","","","","","","","","","","","","",""
"1037","","image-button-response","166","928053","0.0-164.0-0.0","A1W5ECLQGJYCPF","img_art/9.jpg","2","","","","","","","","","","","","","","","","","","","","","","","","",""
"null","","html-keyboard-response","167","928556","0.0-165.0","A1W5ECLQGJYCPF","<p style=""font-size: 48px;"">+</p>","","","","","null","allTrialResponses","500","1","17","img_art/9.jpg","-29","inside of a mouth","Madison,Jacqueline,Lauren,Erika,Cheyenne,Amy","No cohesive form whatsoever. Hard pass.,-31,60,20","Looks like a sloppy iguana.,-11,300,20","I like how design can be interpreted differently, I see a person sleeping or a mountainous region.,10,340,20","Colorful and expressive,15,100,20","Too much going on, don't know what the focus is,-11,200,20","The busyness and harsh nature of the lines in this painting  mute my emotional response.,-10,220,20","Cheyenne","Too much going on, don't know what the focus is,-11,200,20","Madison","No cohesive form whatsoever. Hard pass.,-31,60,20","Lauren","I like how design can be interpreted differently, I see a person sleeping or a mountainous region.,10,340,20","3"
"13031","","survey-text","168","941598","0.0-166.0-0.0","A1W5ECLQGJYCPF","","","","{""Q0"":""a car on winding road""}","","","","","","","","","","","","","","","","","","","","","","",""
"3005.899999856949","","image-slider-response","169","944606","0.0-167.0","A1W5ECLQGJYCPF","","","","","-12","","","","","","","","","","","","","","","","","","","","","",""
"null","","image-button-response","170","949624","0.0-168.0","A1W5ECLQGJYCPF","img_art/30.jpg","null","","","","","","","","","","","","","","","","","","","","","","","","",""
"7963","","image-button-response","171","957591","0.0-169.0","A1W5ECLQGJYCPF","img_art/30.jpg","3","","","","","","","","","","","","","","","","","","","","","","","","",""
"1198","","image-button-response","172","958792","0.0-170.0-0.0","A1W5ECLQGJYCPF","img_art/30.jpg","1","","","","","","","","","","","","","","","","","","","","","","","","",""
"1293","","image-button-response","173","960087","0.0-171.0-0.0","A1W5ECLQGJYCPF","img_art/30.jpg","0","","","","","","","","","","","","","","","","","","","","","","","","",""
"null","","html-keyboard-response","174","961592","0.0-172.0","A1W5ECLQGJYCPF","<p style=""font-size: 48px;"">+</p>","","","","","null","allTrialResponses","1500","1","18","img_art/30.jpg","-12","a car on winding road","Madison,Kristen,Lauren,Amanda,Cheyenne,Lindsey","Interesting brushstroke work, but not particularly memorable.,21,60,20","makes me think of a tunnel filled with graffiti,19,280,20","I like how the strokes invokes a sense of fluidity.,20,340,20","Love how the red stands out,20,180,20","A bit too dark for my liking,-10,200,20","Interesting. Not sure what I'm seeing but it makes me want to figure it out.,5,400,20","Amanda","Love how the red stands out,20,180,20","Kristen","makes me think of a tunnel filled with graffiti,19,280,20","Madison","Interesting brushstroke work, but not particularly memorable.,21,60,20","3"
"9074","","survey-text","175","970688","0.0-173.0-0.0","A1W5ECLQGJYCPF","","","","{""Q0"":""a castle building""}","","","","","","","","","","","","","","","","","","","","","","",""
"3582.0999999046326","","image-slider-response","176","974272","0.0-174.0","A1W5ECLQGJYCPF","","","","","-9","","","","","","","","","","","","","","","","","","","","","",""
"null","","image-button-response","177","979276","0.0-175.0","A1W5ECLQGJYCPF","img_art/8.jpg","null","","","","","","","","","","","","","","","","","","","","","","","","",""
"8617","","image-button-response","178","987899","0.0-176.0","A1W5ECLQGJYCPF","img_art/8.jpg","5","","","","","","","","","","","","","","","","","","","","","","","","",""
"1252","","image-button-response","179","989154","0.0-177.0-0.0","A1W5ECLQGJYCPF","img_art/8.jpg","0","","","","","","","","","","","","","","","","","","","","","","","","",""
"1429","","image-button-response","180","990586","0.0-178.0-0.0","A1W5ECLQGJYCPF","img_art/8.jpg","2","","","","","","","","","","","","","","","","","","","","","","","","",""
"null","","html-keyboard-response","181","991088","0.0-179.0","A1W5ECLQGJYCPF","<p style=""font-size: 48px;"">+</p>","","","","","null","allTrialResponses","500","1","19","img_art/8.jpg","-9","a castle building","Madison,Kristen,Caroline,Amanda,Sydney,Miranda","The composition is striking, and some of the images are quite dramatic,11,60,20","mothe nature/godess, watching over you,21,280,20","I love the colors in it and also the faces and door ways. Made me feel hopeful,35,100,20","I love architectural paintings,46,180,20","I love the colors in this piece.,25,320,20","I like this, the longer I look at in the more details I see.,41,320,20","Miranda","I like this, the longer I look at in the more details I see.,41,320,20","Madison","The composition is striking, and some of the images are quite dramatic,11,60,20","Caroline","I love the colors in it and also the faces and door ways. Made me feel hopeful,35,100,20","3"
"10979","","survey-text","182","1002074","0.0-180.0-0.0","A1W5ECLQGJYCPF","","","","{""Q0"":""colorful and bright""}","","","","","","","","","","","","","","","","","","","","","","",""
"6070.400000095367","","image-slider-response","183","1008147","0.0-181.0","A1W5ECLQGJYCPF","","","","","-11","","","","","","","","","","","","","","","","","","","","","",""
"4606","","image-button-response","184","1013149","0.0-182.0","A1W5ECLQGJYCPF","img_art/1.jpg","2","","","","","","","","","","","","","","","","","","","","","","","","",""
"932","","image-button-response","185","1014084","0.0-183.0","A1W5ECLQGJYCPF","img_art/1.jpg","5","","","","","","","","","","","","","","","","","","","","","","","","",""
"1950","","image-button-response","186","1016036","0.0-184.0-0.0","A1W5ECLQGJYCPF","img_art/1.jpg","4","","","","","","","","","","","","","","","","","","","","","","","","",""
"749","","image-button-response","187","1016788","0.0-185.0-0.0","A1W5ECLQGJYCPF","img_art/1.jpg","2","","","","","","","","","","","","","","","","","","","","","","","","",""
"null","","html-keyboard-response","188","1018290","0.0-186.0","A1W5ECLQGJYCPF","<p style=""font-size: 48px;"">+</p>","","","","","null","allTrialResponses","1500","1","20","img_art/1.jpg","-11","colorful and bright","Madison,Kelly,Caroline,Kathryn,Alexandra,Miranda","This looks like the same artist as the first picture, but cropped? Looks incomplete.,28,60,20","I love colorful photos and I like this one a lot.,25,220,20","Felt nothing in response to this painting,3,100,20","For some reason this makes me want to go ice skating. It's whimsical and free but also very smooth.,20,140,20","I love the warm colors of the art,32,60,20","Someone painted a landscape and decided they didn't like it so they covered it up.,13,320,20","Miranda","Someone painted a landscape and decided they didn't like it so they covered it up.,13,320,20","Alexandra","I love the warm colors of the art,32,60,20","Caroline","Felt nothing in response to this painting,3,100,20","3"
"4491","","survey-text","189","1022804","0.0-187.0-0.0","A1W5ECLQGJYCPF","","","","{""Q0"":""we""}","","","","","","","","","","","","","","","","","","","","","","",""
"7095","","survey-text","190","1029901","0.0-188.0-0.0","A1W5ECLQGJYCPF","","","","{""Q0"":""a perched bird""}","","","","","","","","","","","","","","","","","","","","","","",""
"2638.2999999523163","","image-slider-response","191","1032541","0.0-189.0","A1W5ECLQGJYCPF","","","","","-30","","","","","","","","","","","","","","","","","","","","","",""
"null","","image-button-response","192","1037545","0.0-190.0","A1W5ECLQGJYCPF","img_art/6.jpg","null","","","","","","","","","","","","","","","","","","","","","","","","",""
"2273","","image-button-response","193","1039822","0.0-191.0","A1W5ECLQGJYCPF","img_art/6.jpg","0","","","","","","","","","","","","","","","","","","","","","","","","",""
"1917","","image-button-response","194","1041742","0.0-192.0-0.0","A1W5ECLQGJYCPF","img_art/6.jpg","1","","","","","","","","","","","","","","","","","","","","","","","","",""
"853","","image-button-response","195","1042599","0.0-193.0-0.0","A1W5ECLQGJYCPF","img_art/6.jpg","4","","","","","","","","","","","","","","","","","","","","","","","","",""
"null","","html-keyboard-response","196","1044101","0.0-194.0","A1W5ECLQGJYCPF","<p style=""font-size: 48px;"">+</p>","","","","","null","allTrialResponses","1500","1","21","img_art/6.jpg","-30","a perched bird","Courtney,Paige,Caroline,Cassidy,Alexandra,Miranda","Its the headless bird. But why?,21,280,20","Kind of boring. I don't care for many abstracts,1,60,20","Lonely and kinda sad,-25,100,20","The background on the upper half is nice. I also like the contrast of the top and bottom halves,5,140,20","this is interesting and unique,11,60,20","It's slightly unnerving to look at, it looks a little creepy/eerie,-16,320,20","Courtney","Its the headless bird. But why?,21,280,20","Paige","Kind of boring. I don't care for many abstracts,1,60,20","Alexandra","this is interesting and unique,11,60,20","3"
"13071","","survey-text","197","1057183","0.0-195.0-0.0","A1W5ECLQGJYCPF","","","","{""Q0"":""abstract art no meaning""}","","","","","","","","","","","","","","","","","","","","","","",""
"3076.800000190735","","image-slider-response","198","1060263","0.0-196.0","A1W5ECLQGJYCPF","","","","","-40","","","","","","","","","","","","","","","","","","","","","",""
"null","","image-button-response","199","1065267","0.0-197.0","A1W5ECLQGJYCPF","img_art/28.jpg","null","","","","","","","","","","","","","","","","","","","","","","","","",""
"4842","","image-button-response","200","1070112","0.0-198.0","A1W5ECLQGJYCPF","img_art/28.jpg","3","","","","","","","","","","","","","","","","","","","","","","","","",""
"1494","","image-button-response","201","1071609","0.0-199.0-0.0","A1W5ECLQGJYCPF","img_art/28.jpg","2","","","","","","","","","","","","","","","","","","","","","","","","",""
"2829","","image-button-response","202","1074441","0.0-200.0-0.0","A1W5ECLQGJYCPF","img_art/28.jpg","1","","","","","","","","","","","","","","","","","","","","","","","","",""
"null","","html-keyboard-response","203","1075943","0.0-201.0","A1W5ECLQGJYCPF","<p style=""font-size: 48px;"">+</p>","","","","","null","allTrialResponses","1500","1","22","img_art/28.jpg","-40","abstract art no meaning","Courtney,Paige,Kaylee,Brianna,Alexandra,Haley","Looks like some guys in s band playing at a busy park.,18,280,20","I just don't like it. It makes no sense to me,1,60,20","i dont understand it,-34,200,20","My grandparents would like this, maybe my great grandparents. It's not my style.,-30,20,20","Boring, looks like it belongs in a coffee shop,-20,60,20","I can't explain why, but I really love this one,50,220,20","Brianna","My grandparents would like this, maybe my great grandparents. It's not my style.,-30,20,20","Kaylee","i dont understand it,-34,200,20","Paige","I just don't like it. It makes no sense to me,1,60,20","3"
"11310","","survey-text","204","1087266","0.0-202.0-0.0","A1W5ECLQGJYCPF","","","","{""Q0"":""a flea market of goods""}","","","","","","","","","","","","","","","","","","","","","","",""
"2566","","image-slider-response","205","1089834","0.0-203.0","A1W5ECLQGJYCPF","","","","","-10","","","","","","","","","","","","","","","","","","","","","",""
"null","","image-button-response","206","1094837","0.0-204.0","A1W5ECLQGJYCPF","img_art/19.jpg","null","","","","","","","","","","","","","","","","","","","","","","","","",""
"1538","","image-button-response","207","1096379","0.0-205.0","A1W5ECLQGJYCPF","img_art/19.jpg","2","","","","","","","","","","","","","","","","","","","","","","","","",""
"4934","","image-button-response","208","1101315","0.0-206.0-0.0","A1W5ECLQGJYCPF","img_art/19.jpg","5","","","","","","","","","","","","","","","","","","","","","","","","",""
"3061","","image-button-response","209","1104380","0.0-207.0-0.0","A1W5ECLQGJYCPF","img_art/19.jpg","4","","","","","","","","","","","","","","","","","","","","","","","","",""
"null","","html-keyboard-response","210","1105382","0.0-208.0","A1W5ECLQGJYCPF","<p style=""font-size: 48px;"">+</p>","","","","","null","allTrialResponses","1000","1","23","img_art/19.jpg","-10","a flea market of goods","Rebecca,Paige,Kaylee,Brianna,Hailey,Morgan","interesting take on depth (reminds me of those 1000 piece puzzles),2,100,20","it's too busy for me. Makes me feel stressed.,1,60,20","beautiful old town,37,200,20","I don't know what's going on, and I realise that I don't like it,-21,20,20","an old cityfrom many years ago. its ok,6,200,20","Messy pantry full of food.,5,380,20","Kaylee","beautiful old town,37,200,20","Morgan","Messy pantry full of food.,5,380,20","Hailey","an old cityfrom many years ago. its ok,6,200,20","3"
"14195","","survey-text","211","1119596","0.0-209.0-0.0","A1W5ECLQGJYCPF","","","","{""Q0"":""a kid favorite item""}","","","","","","","","","","","","","","","","","","","","","","",""
"2734.0999999046326","","image-slider-response","212","1122333","0.0-210.0","A1W5ECLQGJYCPF","","","","","-5","","","","","","","","","","","","","","","","","","","","","",""
"null","","image-button-response","213","1127337","0.0-211.0","A1W5ECLQGJYCPF","img_art/16.jpg","null","","","","","","","","","","","","","","","","","","","","","","","","",""
"7962","","image-button-response","214","1135302","0.0-212.0","A1W5ECLQGJYCPF","img_art/16.jpg","1","","","","","","","","","","","","","","","","","","","","","","","","",""
"1493","","image-button-response","215","1136798","0.0-213.0-0.0","A1W5ECLQGJYCPF","img_art/16.jpg","5","","","","","","","","","","","","","","","","","","","","","","","","",""
"908","","image-button-response","216","1137710","0.0-214.0-0.0","A1W5ECLQGJYCPF","img_art/16.jpg","3","","","","","","","","","","","","","","","","","","","","","","","","",""
"null","","html-keyboard-response","217","1138213","0.0-215.0","A1W5ECLQGJYCPF","<p style=""font-size: 48px;"">+</p>","","","","","null","allTrialResponses","500","1","24","img_art/16.jpg","-5","a kid favorite item","Alexa,Alicia,Kaylee,Shannon,Hailey,Morgan","I can't figure out the meaning of this painting but it is pleasant to look at,40,40,20","Don't get it. Hate it. ugly.,-44,120,20","cool teddy bear,50,200,20","I think this picture is weird and the colors are very boring.,-50,220,20","cute and warm. i like the bear,15,200,20","Strange and bleak.,-20,380,20","Alicia","Don't get it. Hate it. ugly.,-44,120,20","Morgan","Strange and bleak.,-20,380,20","Shannon","I think this picture is weird and the colors are very boring.,-50,220,20","3"
"11098","","survey-text","218","1149327","0.0-216.0-0.0","A1W5ECLQGJYCPF","","","","{""Q0"":""a city train going through""}","","","","","","","","","","","","","","","","","","","","","","",""
"2725.699999809265","","image-slider-response","219","1152055","0.0-217.0","A1W5ECLQGJYCPF","","","","","-24","","","","","","","","","","","","","","","","","","","","","",""
"null","","image-button-response","220","1157058","0.0-218.0","A1W5ECLQGJYCPF","img_art/11.jpg","null","","","","","","","","","","","","","","","","","","","","","","","","",""
"3244","","image-button-response","221","1160304","0.0-219.0","A1W5ECLQGJYCPF","img_art/11.jpg","4","","","","","","","","","","","","","","","","","","","","","","","","",""
"1093","","image-button-response","222","1161400","0.0-220.0-0.0","A1W5ECLQGJYCPF","img_art/11.jpg","0","","","","","","","","","","","","","","","","","","","","","","","","",""
"990","","image-button-response","223","1162392","0.0-221.0-0.0","A1W5ECLQGJYCPF","img_art/11.jpg","2","","","","","","","","","","","","","","","","","","","","","","","","",""
"null","","html-keyboard-response","224","1163395","0.0-222.0","A1W5ECLQGJYCPF","<p style=""font-size: 48px;"">+</p>","","","","","null","allTrialResponses","1000","1","25","img_art/11.jpg","-24","a city train going through","Melissa,Alicia,Makayla,Shannon,Nicole,Morgan","reminds me of home,5,240,20","dna, odd but nice.,25,120,20","Smoggy, oily, industrial. Don't like,1,80,20","This looks like a bridge that has plenty of color.,10,220,20","Those vertical strokes are to die for and I love these colors !!!,50,20,20","Waves of signs.,15,380,20","Nicole","Those vertical strokes are to die for and I love these colors !!!,50,20,20","Melissa","reminds me of home,5,240,20","Makayla","Smoggy, oily, industrial. Don't like,1,80,20","3"
"5870","","survey-text","225","1169296","0.0-223.0-0.0","A1W5ECLQGJYCPF","","","","{""Q0"":""table""}","","","","","","","","","","","","","","","","","","","","","","",""
"9743","","survey-text","226","1179041","0.0-224.0-0.0","A1W5ECLQGJYCPF","","","","{""Q0"":""a sea of lost""}","","","","","","","","","","","","","","","","","","","","","","",""
"3325.9000000953674","","image-slider-response","227","1182369","0.0-225.0","A1W5ECLQGJYCPF","","","","","7","","","","","","","","","","","","","","","","","","","","","",""
"1640","","image-button-response","228","1187373","0.0-226.0","A1W5ECLQGJYCPF","img_art/29.jpg","1","","","","","","","","","","","","","","","","","","","","","","","","",""
"3393","","image-button-response","229","1190770","0.0-227.0","A1W5ECLQGJYCPF","img_art/29.jpg","1","","","","","","","","","","","","","","","","","","","","","","","","",""
"1429","","image-button-response","230","1192203","0.0-228.0-0.0","A1W5ECLQGJYCPF","img_art/29.jpg","5","","","","","","","","","","","","","","","","","","","","","","","","",""
"4484","","image-button-response","231","1196691","0.0-229.0-0.0","A1W5ECLQGJYCPF","img_art/29.jpg","2","","","","","","","","","","","","","","","","","","","","","","","","",""
"null","","html-keyboard-response","232","1197694","0.0-230.0","A1W5ECLQGJYCPF","<p style=""font-size: 48px;"">+</p>","","","","","null","allTrialResponses","1000","1","26","img_art/29.jpg","7","a sea of lost","Melissa,Emily,Makayla,Olivia,Nicole,Abigail","abrasive and grotesque textures,-36,240,20","Looks literally like garbage.,-45,40,20","Looks like a jail cell,-15,80,20","too challenging to comprehend,-28,40,20","This one feels scary in a good way,30,20,20","Messy and disorganized, to odark,-31,20,20","Emily","Looks literally like garbage.,-45,40,20","Abigail","Messy and disorganized, to odark,-31,20,20","Makayla","Looks like a jail cell,-15,80,20","3"
"9186","","survey-text","233","1206899","0.0-231.0-0.0","A1W5ECLQGJYCPF","","","","{""Q0"":""a stormy sky""}","","","","","","","","","","","","","","","","","","","","","","",""
"2558","","image-slider-response","234","1209459","0.0-232.0","A1W5ECLQGJYCPF","","","","","-7","","","","","","","","","","","","","","","","","","","","","",""
"null","","image-button-response","235","1214463","0.0-233.0","A1W5ECLQGJYCPF","img_art/21.jpg","null","","","","","","","","","","","","","","","","","","","","","","","","",""
"8313","","image-button-response","236","1222781","0.0-234.0","A1W5ECLQGJYCPF","img_art/21.jpg","3","","","","","","","","","","","","","","","","","","","","","","","","",""
"4421","","image-button-response","237","1227205","0.0-235.0-0.0","A1W5ECLQGJYCPF","img_art/21.jpg","0","","","","","","","","","","","","","","","","","","","","","","","","",""
"766","","image-button-response","238","1227973","0.0-236.0-0.0","A1W5ECLQGJYCPF","img_art/21.jpg","2","","","","","","","","","","","","","","","","","","","","","","","","",""
"null","","html-keyboard-response","239","1228476","0.0-237.0","A1W5ECLQGJYCPF","<p style=""font-size: 48px;"">+</p>","","","","","null","allTrialResponses","500","1","27","img_art/21.jpg","-7","a stormy sky","Molly,Emily,Makayla,Meghan,Mariah,Abigail","Looks like a war. Many things happening on the painting, really enjoy it.,30,340,20","What's the point?,-30,40,20","I like the two sides meeting, like a movie scene,15,80,20","looks like a sunrise, great colors,40,220,20","Motion, the light marks in the lower right corner are very appealing.,15,140,20","Beautiful colors, remind me of my yoga studio,50,20,20","Meghan","looks like a sunrise, great colors,40,220,20","Molly","Looks like a war. Many things happening on the painting, really enjoy it.,30,340,20","Makayla","I like the two sides meeting, like a movie scene,15,80,20","3"
"8984","","survey-text","240","1237477","0.0-238.0-0.0","A1W5ECLQGJYCPF","","","","{""Q0"":""a distorted face""}","","","","","","","","","","","","","","","","","","","","","","",""
"3926.2999999523163","","image-slider-response","241","1241406","0.0-239.0","A1W5ECLQGJYCPF","","","","","-20","","","","","","","","","","","","","","","","","","","","","",""
"2133","","image-button-response","242","1246409","0.0-240.0","A1W5ECLQGJYCPF","img_art/2.jpg","0","","","","","","","","","","","","","","","","","","","","","","","","",""
"730","","image-button-response","243","1247143","0.0-241.0","A1W5ECLQGJYCPF","img_art/2.jpg","3","","","","","","","","","","","","","","","","","","","","","","","","",""
"1006","","image-button-response","244","1248151","0.0-242.0-0.0","A1W5ECLQGJYCPF","img_art/2.jpg","2","","","","","","","","","","","","","","","","","","","","","","","","",""
"597","","image-button-response","245","1248750","0.0-243.0-0.0","A1W5ECLQGJYCPF","img_art/2.jpg","1","","","","","","","","","","","","","","","","","","","","","","","","",""
"null","","html-keyboard-response","246","1249753","0.0-244.0","A1W5ECLQGJYCPF","<p style=""font-size: 48px;"">+</p>","","","","","null","allTrialResponses","1000","1","28","img_art/2.jpg","-20","a distorted face","Molly,Sabrina,Makayla,Meghan,Breanna,Elizabeth","Colorful, curious.,20,340,20","I dont like the expression of this,-19,120,20","I don't feel indifferent,4,80,20","looks like a child's artwork,-40,220,20","It's just a splash of paint on a canvas,-31,380,20","Good color pallette,12,20,20","Meghan","looks like a child's artwork,-40,220,20","Makayla","I don't feel indifferent,4,80,20","Sabrina","I dont like the expression of this,-19,120,20","3"
"12515","","survey-text","247","1262287","0.0-245.0-0.0","A1W5ECLQGJYCPF","","","","{""Q0"":""a tree with birds""}","","","","","","","","","","","","","","","","","","","","","","",""
"2686.0999999046326","","image-slider-response","248","1264975","0.0-246.0","A1W5ECLQGJYCPF","","","","","-4","","","","","","","","","","","","","","","","","","","","","",""
"null","","image-button-response","249","1269979","0.0-247.0","A1W5ECLQGJYCPF","img_art/15.jpg","null","","","","","","","","","","","","","","","","","","","","","","","","",""
"1674","","image-button-response","250","1271657","0.0-248.0","A1W5ECLQGJYCPF","img_art/15.jpg","4","","","","","","","","","","","","","","","","","","","","","","","","",""
"1877","","image-button-response","251","1273537","0.0-249.0-0.0","A1W5ECLQGJYCPF","img_art/15.jpg","1","","","","","","","","","","","","","","","","","","","","","","","","",""
"774","","image-button-response","252","1274313","0.0-250.0-0.0","A1W5ECLQGJYCPF","img_art/15.jpg","0","","","","","","","","","","","","","","","","","","","","","","","","",""
"null","","html-keyboard-response","253","1274815","0.0-251.0","A1W5ECLQGJYCPF","<p style=""font-size: 48px;"">+</p>","","","","","null","allTrialResponses","500","1","29","img_art/15.jpg","-4","a tree with birds","Leslie,Sabrina,Makayla,Meghan,Madeline,Dominique","This elicits no reaction in me.,0,380,20","Extreme darkness and sadness,-30,120,20","It's just dots. Doesn't bring any positive or negative feelings,2,80,20","I like the pattern of it,11,220,20","Simple but needs some more detail somehow,-3,40,20","I like the colors and the different style This brings,7,400,20","Madeline","Simple but needs some more detail somehow,-3,40,20","Sabrina","Extreme darkness and sadness,-30,120,20","Leslie","This elicits no reaction in me.,0,380,20","3"
"8417","","survey-text","254","1283249","0.0-252.0-0.0","A1W5ECLQGJYCPF","","","","{""Q0"":""water on window""}","","","","","","","","","","","","","","","","","","","","","","",""
"5037.700000047684","","image-slider-response","255","1288289","0.0-253.0","A1W5ECLQGJYCPF","","","","","30","","","","","","","","","","","","","","","","","","","","","",""
"3678","","image-button-response","256","1293294","0.0-254.0","A1W5ECLQGJYCPF","img_art/13.jpg","1","","","","","","","","","","","","","","","","","","","","","","","","",""
"2142","","image-button-response","257","1295443","0.0-255.0","A1W5ECLQGJYCPF","img_art/13.jpg","5","","","","","","","","","","","","","","","","","","","","","","","","",""
"550","","image-button-response","258","1295995","0.0-256.0-0.0","A1W5ECLQGJYCPF","img_art/13.jpg","4","","","","","","","","","","","","","","","","","","","","","","","","",""
"828","","image-button-response","259","1296827","0.0-257.0-0.0","A1W5ECLQGJYCPF","img_art/13.jpg","1","","","","","","","","","","","","","","","","","","","","","","","","",""
"null","","html-keyboard-response","260","1297329","0.0-258.0","A1W5ECLQGJYCPF","<p style=""font-size: 48px;"">+</p>","","","","","null","allTrialResponses","500","1","30","img_art/13.jpg","30","water on window","Leslie,Sabrina,Brittany,Gabriela,Madeline,Rachel","This elicits no reaction in me.,0,380,20","I love the edgy nature,50,120,20","Not really a fan of ""splash"" art.,-20,40,20","It looks too common, is a bit boring,-41,140,20","Really love the colors,11,40,20","Peaceful colors.,20,80,20","Rachel","Peaceful colors.,20,80,20","Madeline","Really love the colors,11,40,20","Sabrina","I love the edgy nature,50,120,20","3"
"3194","","image-button-response_instructions","261","1300531","0.0-259.0","A1W5ECLQGJYCPF","","0","instructions","","","","","","","","","","","","","","","","","","","","","","","",""
"1856","","image-button-response","262","1302395","0.0-260.0","A1W5ECLQGJYCPF","","0","","","","","","","","","","","","","","","","","","","","","","","","",""
