"rt","url","trial_type","trial_index","time_elapsed","internal_node_id","participant_id","stimulus","button_pressed","Name","responses","response","key_press","variableName","fixationTime","condition","trial","photo","subjectRating","subjectResponse","agentsNames","agent_1_Response","agent_2_Response","agent_3_Response","agent_4_Response","agent_5_Response","agent_6_Response","kept_1_name","kept_1_response","kept_2_name","kept_2_response","kept_3_name","kept_3_response","errorCounter"
"5159","external_page_harvard.html","external-html","0","5259","0.0-0.0","A1WH32GYQOHIRQ","","","","","","","","","","","","","","","","","","","","","","","","","","",""
"2239","","image-button-response","1","7502","0.0-1.0","A1WH32GYQOHIRQ","","1","","","","","","","","","","","","","","","","","","","","","","","","",""
"1581","","image-button-response","2","9094","0.0-2.0-0.0","A1WH32GYQOHIRQ","","1","phone","","","","","","","","","","","","","","","","","","","","","","","",""
"3827","","survey-text","3","12924","0.0-3.0-0.0","A1WH32GYQOHIRQ","","","","{""Q0"":""A1WH32GYQOHIRQ""}","","","","","","","","","","","","","","","","","","","","","","",""
"4569","","image-button-response_instructions","4","17496","0.0-4.0","A1WH32GYQOHIRQ","","0","instructions","","","","","","","","","","","","","","","","","","","","","","","",""
"8186","","image-button-response_instructions","5","25684","0.0-5.0","A1WH32GYQOHIRQ","img_art/ins/popularity/ins1.png","0","instructions","","","","","","","","","","","","","","","","","","","","","","","",""
"3097","","image-button-response_instructions","6","28783","0.0-6.0","A1WH32GYQOHIRQ","img_art/ins/popularity/ins2.png","0","instructions","","","","","","","","","","","","","","","","","","","","","","","",""
"7966","","image-button-response_instructions","7","36752","0.0-7.0","A1WH32GYQOHIRQ","img_art/ins/popularity/ins2Extreme.png","0","instructions","","","","","","","","","","","","","","","","","","","","","","","",""
"8359","","image-button-response_instructions","8","45114","0.0-8.0","A1WH32GYQOHIRQ","img_art/ins/popularity/ins3KEEPpop.PNG","0","instructions","","","","","","","","","","","","","","","","","","","","","","","",""
"2742","","image-button-response_instructions","9","47858","0.0-9.0","A1WH32GYQOHIRQ","img_art/ins/popularity/ins3ANamepop.PNG","0","instructions","","","","","","","","","","","","","","","","","","","","","","","",""
"1780","","image-button-response_instructions","10","49640","0.0-10.0","A1WH32GYQOHIRQ","img_art/ins/popularity/ins3ARatingpop.png","0","instructions","","","","","","","","","","","","","","","","","","","","","","","",""
"1686","","image-button-response_instructions","11","51328","0.0-11.0","A1WH32GYQOHIRQ","img_art/ins/popularity/ins3ATextpop.png","0","instructions","","","","","","","","","","","","","","","","","","","","","","","",""
"3495","","image-button-response_instructions","12","54825","0.0-12.0","A1WH32GYQOHIRQ","img_art/ins/popularity/ins3ALikespop.png","0","instructions","","","","","","","","","","","","","","","","","","","","","","","",""
"8348","","image-button-response_instructions","13","63175","0.0-13.0","A1WH32GYQOHIRQ","img_art/ins/popularity/ins3KEEPpop.PNG","0","instructions","","","","","","","","","","","","","","","","","","","","","","","",""
"1470","","image-button-response_instructions","14","64647","0.0-14.0","A1WH32GYQOHIRQ","img_art/ins/popularity/ins3_5RED.png","0","instructions","","","","","","","","","","","","","","","","","","","","","","","",""
"1888","","image-button-response_instructions","15","66538","0.0-15.0","A1WH32GYQOHIRQ","img_art/ins/popularity/ins3KEEPpop.PNG","0","instructions","","","","","","","","","","","","","","","","","","","","","","","",""
"10013","","image-button-response_instructions","16","76552","0.0-16.0","A1WH32GYQOHIRQ","img_art/ins/popularity/ins4KEEPpop.PNG","0","instructions","","","","","","","","","","","","","","","","","","","","","","","",""
"1595","","image-button-response_instructions","17","78148","0.0-17.0","A1WH32GYQOHIRQ","img_art/ins/popularity/ins5KEEPpop.PNG","0","instructions","","","","","","","","","","","","","","","","","","","","","","","",""
"1620","","image-button-response_instructions","18","79769","0.0-18.0","A1WH32GYQOHIRQ","","0","instructions","","","","","","","","","","","","","","","","","","","","","","","",""
"8674","","survey-text","19","88481","0.0-19.0-0.0","A1WH32GYQOHIRQ","","","","{""Q0"":""but""}","","","","","","","","","","","","","","","","","","","","","","",""
"13147","","survey-text","20","101633","0.0-20.0-0.0","A1WH32GYQOHIRQ","","","","{""Q0"":""Soothing and gentle""}","","","","","","","","","","","","","","","","","","","","","","",""
"4129.699999999255","","image-slider-response","21","105768","0.0-21.0","A1WH32GYQOHIRQ","","","","","18","","","","","","","","","","","","","","","","","","","","","",""
"null","","image-button-response","22","110778","0.0-22.0","A1WH32GYQOHIRQ","img_art/ins/1.jpg","null","","","","","","","","","","","","","","","","","","","","","","","","",""
"578","","image-button-response","23","111359","0.0-23.0","A1WH32GYQOHIRQ","img_art/ins/1.jpg","5","","","","","","","","","","","","","","","","","","","","","","","","",""
"9130","","image-button-response","24","120493","0.0-24.0-0.0","A1WH32GYQOHIRQ","img_art/ins/1.jpg","4","","","","","","","","","","","","","","","","","","","","","","","","",""
"5279","","image-button-response","25","125777","0.0-25.0-0.0","A1WH32GYQOHIRQ","img_art/ins/1.jpg","0","","","","","","","","","","","","","","","","","","","","","","","","",""
"null","","html-keyboard-response","26","127282","0.0-26.0","A1WH32GYQOHIRQ","<p style=""font-size: 48px;"">+</p>","","","","","null","allTrialResponses","1500","1","-2","img_art/ins/1.jpg","18","Soothing and gentle","Allison,Ashley,Beth,Dora,Erika,Jen","looks like a lot of things going on in the mist,20,20,20","I just don't get why these type of art would be popular,-32,40,20","This color reminds me of poo,-46,60,20","looks like what my niece in 3rd grade did this afternoon,-50,80,20","I like the sophisticated brushwork,40,100,20","It reminds me of a candy land dream I had,36,120,20","Jen","It reminds me of a candy land dream I had,36,120,20","Erika","I like the sophisticated brushwork,40,100,20","Allison","looks like a lot of things going on in the mist,20,20,20","0"
"13947","","survey-text","27","141237","0.0-27.0-0.0","A1WH32GYQOHIRQ","","","","{""Q0"":""angry...it feels angry""}","","","","","","","","","","","","","","","","","","","","","","",""
"4165.800000000745","","image-slider-response","28","145406","0.0-28.0","A1WH32GYQOHIRQ","","","","","11","","","","","","","","","","","","","","","","","","","","","",""
"null","","image-button-response","29","150414","0.0-29.0","A1WH32GYQOHIRQ","img_art/ins/2.jpg","null","","","","","","","","","","","","","","","","","","","","","","","","",""
"1093","","image-button-response","30","151512","0.0-30.0","A1WH32GYQOHIRQ","img_art/ins/2.jpg","5","","","","","","","","","","","","","","","","","","","","","","","","",""
"3540","","image-button-response","31","155056","0.0-31.0-0.0","A1WH32GYQOHIRQ","img_art/ins/2.jpg","1","","","","","","","","","","","","","","","","","","","","","","","","",""
"7684","","image-button-response","32","162745","0.0-32.0-0.0","A1WH32GYQOHIRQ","img_art/ins/2.jpg","0","","","","","","","","","","","","","","","","","","","","","","","","",""
"null","","html-keyboard-response","33","164248","0.0-33.0","A1WH32GYQOHIRQ","<p style=""font-size: 48px;"">+</p>","","","","","null","allTrialResponses","1500","1","-1","img_art/ins/2.jpg","11","angry...it feels angry","Allison,Kara,Katie,Jenna,Erika,Jen","I don't have strong feelings about this,10,20,20","I like the blocks of color arrangements,30,160,20","too much color!,-28,180,20","One of my pet peevs,-48,140,20","I would never be able to compose a sophisticated pallete like this,48,100,20","It reminds me of a fireplace,36,120,20","Jen","It reminds me of a fireplace,36,120,20","Kara","I like the blocks of color arrangements,30,160,20","Allison","I don't have strong feelings about this,10,20,20","0"
"10871","","survey-text","34","175125","0.0-34.0-0.0","A1WH32GYQOHIRQ","","","","{""Q0"":""Soothing like the ocean""}","","","","","","","","","","","","","","","","","","","","","","",""
"4066.099999997765","","image-slider-response","35","179194","0.0-35.0","A1WH32GYQOHIRQ","","","","","50","","","","","","","","","","","","","","","","","","","","","",""
"null","","image-button-response","36","184201","0.0-36.0","A1WH32GYQOHIRQ","img_art/ins/3.jpg","null","","","","","","","","","","","","","","","","","","","","","","","","",""
"8298","","image-button-response","37","192502","0.0-37.0","A1WH32GYQOHIRQ","img_art/ins/3.jpg","0","","","","","","","","","","","","","","","","","","","","","","","","",""
"2610","","image-button-response","38","195115","0.0-38.0-0.0","A1WH32GYQOHIRQ","img_art/ins/3.jpg","1","","","","","","","","","","","","","","","","","","","","","","","","",""
"2192","","image-button-response","39","197311","0.0-39.0-0.0","A1WH32GYQOHIRQ","img_art/ins/3.jpg","0","","","","","","","","","","","","","","","","","","","","","","","","",""
"2385","","image-button-response","40","204236","0.0-39.1-0.1","A1WH32GYQOHIRQ","img_art/ins/3.jpg","4","","","","","","","","","","","","","","","","","","","","","","","","",""
"null","","html-keyboard-response","41","205742","0.0-40.0","A1WH32GYQOHIRQ","<p style=""font-size: 48px;"">+</p>","","","","","null","allTrialResponses","1500","1","0","img_art/ins/3.jpg","50","Soothing like the ocean","Allison,Kara,Rose,Leslie,Mary,Jen","enjoy the different shades of blue,22,20,20","calming blue is very nice,36,160,20","My daily routine, it's depressing,-20,240,20","It's an alright work,15,200,20","I like the overlapping of brushes,41,220,20","I can feel a rainy day from this painting,18,120,20","Allison","enjoy the different shades of blue,22,20,20","Kara","calming blue is very nice,36,160,20","Mary","I like the overlapping of brushes,41,220,20","2"
"7714","","image-button-response_instructions","42","213462","0.0-41.0","A1WH32GYQOHIRQ","","0","instructions","","","","","","","","","","","","","","","","","","","","","","","",""
"9776","","survey-likert","43","223241","0.0-42.0-0.0","A1WH32GYQOHIRQ","","","","{""Q0"":"""",""Q1"":0,""Q2"":1}","","","","","","","","","","","","","","","","","","","","","","",""
"4696","","survey-text","44","227947","0.0-43.0-0.0","A1WH32GYQOHIRQ","","","","{""Q0"":""rock""}","","","","","","","","","","","","","","","","","","","","","","",""
"19422","","survey-text","45","247374","0.0-44.0-0.0","A1WH32GYQOHIRQ","","","","{""Q0"":""CHAOTIC AND SAD, BUT, I LIKE IT.""}","","","","","","","","","","","","","","","","","","","","","","",""
"3626.5","","image-slider-response","46","251003","0.0-45.0","A1WH32GYQOHIRQ","","","","","31","","","","","","","","","","","","","","","","","","","","","",""
"4992","","image-button-response","47","256040","0.0-46.0","A1WH32GYQOHIRQ","img_art/10.jpg","0","","","","","","","","","","","","","","","","","","","","","","","","",""
"13708","","image-button-response","48","269752","0.0-47.0","A1WH32GYQOHIRQ","img_art/10.jpg","4","","","","","","","","","","","","","","","","","","","","","","","","",""
"6900","","image-button-response","49","276655","0.0-48.0-0.0","A1WH32GYQOHIRQ","img_art/10.jpg","0","","","","","","","","","","","","","","","","","","","","","","","","",""
"4780","","image-button-response","50","281441","0.0-49.0-0.0","A1WH32GYQOHIRQ","img_art/10.jpg","3","","","","","","","","","","","","","","","","","","","","","","","","",""
"null","","html-keyboard-response","51","281944","0.0-50.0","A1WH32GYQOHIRQ","<p style=""font-size: 48px;"">+</p>","","","","","null","allTrialResponses","500","1","1","img_art/10.jpg","31","CHAOTIC AND SAD, BUT, I LIKE IT.","Mariah,Alexis,Alexandria,Katherine,Cynthia,Alyssa","The colors and shapes are soothing but also disconcerting.,21,140,20","Too abstract and it doesn't really remind me of anything,-40,100,20","it reminds me of a musical instrument,19,80,20","This is pretty rad. The outline looks like a music staff,15,120,20","cultural with a symphony,40,320,20","Bleak and uninteresting,-10,160,20","Cynthia","cultural with a symphony,40,320,20","Mariah","The colors and shapes are soothing but also disconcerting.,21,140,20","Katherine","This is pretty rad. The outline looks like a music staff,15,120,20","2"
"23931","","survey-text","52","305881","0.0-51.0-0.0","A1WH32GYQOHIRQ","","","","{""Q0"":""This reminds me of a fire""}","","","","","","","","","","","","","","","","","","","","","","",""
"16404.20000000298","","image-slider-response","53","322288","0.0-52.0","A1WH32GYQOHIRQ","","","","","0","","","","","","","","","","","","","","","","","","","","","",""
"null","","image-button-response","54","327292","0.0-53.0","A1WH32GYQOHIRQ","img_art/1.jpg","null","","","","","","","","","","","","","","","","","","","","","","","","",""
"269","","image-button-response","55","327563","0.0-54.0","A1WH32GYQOHIRQ","img_art/1.jpg","0","","","","","","","","","","","","","","","","","","","","","","","","",""
"7595","","image-button-response","56","335161","0.0-55.0-0.0","A1WH32GYQOHIRQ","img_art/1.jpg","2","","","","","","","","","","","","","","","","","","","","","","","","",""
"1195","","image-button-response","57","336360","0.0-56.0-0.0","A1WH32GYQOHIRQ","img_art/1.jpg","1","","","","","","","","","","","","","","","","","","","","","","","","",""
"null","","html-keyboard-response","58","336863","0.0-57.0","A1WH32GYQOHIRQ","<p style=""font-size: 48px;"">+</p>","","","","","null","allTrialResponses","500","1","2","img_art/1.jpg","0","This reminds me of a fire","Mariah,Kaitlyn,Hailey,Katherine,Cynthia,Mikayla","Colors are pleasant, but feels incredibly generic.,9,140,20","Interesting blend of colors,9,80,20","colors that are fairly warm. its ok,8,200,20","Blurry but that's how emotions are a lot of the time.,27,120,20","fishing on the lake surrounded by trees,42,320,20","Again kind a boring.,-38,300,20","Mariah","Colors are pleasant, but feels incredibly generic.,9,140,20","Hailey","colors that are fairly warm. its ok,8,200,20","Kaitlyn","Interesting blend of colors,9,80,20","2"
"20131","","survey-text","59","357000","0.0-58.0-0.0","A1WH32GYQOHIRQ","","","","{""Q0"":""This looks like it should be in a cheap motel.""}","","","","","","","","","","","","","","","","","","","","","","",""
"3346.300000000745","","image-slider-response","60","360350","0.0-59.0","A1WH32GYQOHIRQ","","","","","-29","","","","","","","","","","","","","","","","","","","","","",""
"null","","image-button-response","61","365355","0.0-60.0","A1WH32GYQOHIRQ","img_art/2.jpg","null","","","","","","","","","","","","","","","","","","","","","","","","",""
"7359","","image-button-response","62","372717","0.0-61.0","A1WH32GYQOHIRQ","img_art/2.jpg","2","","","","","","","","","","","","","","","","","","","","","","","","",""
"6408","","image-button-response","63","379128","0.0-62.0-0.0","A1WH32GYQOHIRQ","img_art/2.jpg","1","","","","","","","","","","","","","","","","","","","","","","","","",""
"6101","","image-button-response","64","385234","0.0-63.0-0.0","A1WH32GYQOHIRQ","img_art/2.jpg","5","","","","","","","","","","","","","","","","","","","","","","","","",""
"null","","html-keyboard-response","65","385741","0.0-64.0","A1WH32GYQOHIRQ","<p style=""font-size: 48px;"">+</p>","","","","","null","allTrialResponses","500","1","3","img_art/2.jpg","-29","This looks like it should be in a cheap motel.","Mariah,Kaitlyn,Hailey,Sara,Sophia,Crystal","The colors are soothing, but the composition feels thoughtless.,-11,140,20","Too jumbled and disorienting,-13,80,20","ugly green color and makes me sick,-29,200,20","Dark tone feels sad,-30,160,20","I'm not fond of the colors in this one.,-33,280,20","Looks contrived and like someone tried to hard to make it abstract,-31,300,20","Hailey","ugly green color and makes me sick,-29,200,20","Kaitlyn","Too jumbled and disorienting,-13,80,20","Crystal","Looks contrived and like someone tried to hard to make it abstract,-31,300,20","2"
"32351","","survey-text","66","418100","0.0-65.0-0.0","A1WH32GYQOHIRQ","","","","{""Q0"":""I kinda hate it and kinda love it...I'm confused by this piece.""}","","","","","","","","","","","","","","","","","","","","","","",""
"9263.199999999255","","image-slider-response","67","427366","0.0-66.0","A1WH32GYQOHIRQ","","","","","11","","","","","","","","","","","","","","","","","","","","","",""
"null","","image-button-response","68","432373","0.0-67.0","A1WH32GYQOHIRQ","img_art/6.jpg","null","","","","","","","","","","","","","","","","","","","","","","","","",""
"8893","","image-button-response","69","441270","0.0-68.0","A1WH32GYQOHIRQ","img_art/6.jpg","2","","","","","","","","","","","","","","","","","","","","","","","","",""
"10796","","image-button-response","70","452069","0.0-69.0-0.0","A1WH32GYQOHIRQ","img_art/6.jpg","5","","","","","","","","","","","","","","","","","","","","","","","","",""
"1630","","image-button-response","71","453703","0.0-70.0-0.0","A1WH32GYQOHIRQ","img_art/6.jpg","1","","","","","","","","","","","","","","","","","","","","","","","","",""
"null","","html-keyboard-response","72","455211","0.0-71.0","A1WH32GYQOHIRQ","<p style=""font-size: 48px;"">+</p>","","","","","null","allTrialResponses","1500","1","4","img_art/6.jpg","11","I kinda hate it and kinda love it...I'm confused by this piece.","Breanna,Kaitlyn,Hailey,Emma,Katelyn,Crystal","Not impressed, just very plain,-10,380,20","I like the simplicity of the picture,30,80,20","one lonely thing trying to grow,-24,200,20","Birds are cool but I don't love it,10,60,20","Nothing grabs at me here,-11,100,20","Gives me a feeling of solitude and nothingness,11,300,20","Hailey","one lonely thing trying to grow,-24,200,20","Crystal","Gives me a feeling of solitude and nothingness,11,300,20","Kaitlyn","I like the simplicity of the picture,30,80,20","2"
"23169","","survey-text","73","478386","0.0-72.0-0.0","A1WH32GYQOHIRQ","","","","{""Q0"":""This is very, very dark and frightening.""}","","","","","","","","","","","","","","","","","","","","","","",""
"2935.5","","image-slider-response","74","481325","0.0-73.0","A1WH32GYQOHIRQ","","","","","-50","","","","","","","","","","","","","","","","","","","","","",""
"2231","","image-button-response","75","486332","0.0-74.0","A1WH32GYQOHIRQ","img_art/16.jpg","0","","","","","","","","","","","","","","","","","","","","","","","","",""
"4790","","image-button-response","76","491125","0.0-75.0","A1WH32GYQOHIRQ","img_art/16.jpg","5","","","","","","","","","","","","","","","","","","","","","","","","",""
"3714","","image-button-response","77","494843","0.0-76.0-0.0","A1WH32GYQOHIRQ","img_art/16.jpg","1","","","","","","","","","","","","","","","","","","","","","","","","",""
"1326","","image-button-response","78","496172","0.0-77.0-0.0","A1WH32GYQOHIRQ","img_art/16.jpg","0","","","","","","","","","","","","","","","","","","","","","","","","",""
"null","","html-keyboard-response","79","497179","0.0-78.0","A1WH32GYQOHIRQ","<p style=""font-size: 48px;"">+</p>","","","","","null","allTrialResponses","1000","1","5","img_art/16.jpg","-50","This is very, very dark and frightening.","Molly,Kaitlyn,Hailey,Erica,Anna,Crystal","It's frightening.,30,340,20","The bear is a weird choice,-22,80,20","cute and warm. i like the bear,15,200,20","Teddy bear calls positive emotional response but then I get worried about what is about to happen,18,80,20","It's edgy but cool,10,300,20","Garble and nonsense,-50,300,20","Crystal","Garble and nonsense,-50,300,20","Kaitlyn","The bear is a weird choice,-22,80,20","Molly","It's frightening.,30,340,20","2"
"6222","","survey-text","80","503414","0.0-79.0-0.0","A1WH32GYQOHIRQ","","","","{""Q0"":""sky""}","","","","","","","","","","","","","","","","","","","","","","",""
"24783","","survey-text","81","528200","0.0-80.0-0.0","A1WH32GYQOHIRQ","","","","{""Q0"":""Weird egg with robot legs. ""}","","","","","","","","","","","","","","","","","","","","","","",""
"2733.60000000149","","image-slider-response","82","530937","0.0-81.0","A1WH32GYQOHIRQ","","","","","-36","","","","","","","","","","","","","","","","","","","","","",""
"null","","image-button-response","83","535944","0.0-82.0","A1WH32GYQOHIRQ","img_art/22.jpg","null","","","","","","","","","","","","","","","","","","","","","","","","",""
"5246","","image-button-response","84","541193","0.0-83.0","A1WH32GYQOHIRQ","img_art/22.jpg","4","","","","","","","","","","","","","","","","","","","","","","","","",""
"3124","","image-button-response","85","544321","0.0-84.0-0.0","A1WH32GYQOHIRQ","img_art/22.jpg","3","","","","","","","","","","","","","","","","","","","","","","","","",""
"2657","","image-button-response","86","546981","0.0-85.0-0.0","A1WH32GYQOHIRQ","img_art/22.jpg","0","","","","","","","","","","","","","","","","","","","","","","","","",""
"null","","html-keyboard-response","87","548487","0.0-86.0","A1WH32GYQOHIRQ","<p style=""font-size: 48px;"">+</p>","","","","","null","allTrialResponses","1500","1","6","img_art/22.jpg","-36","Weird egg with robot legs. ","Molly,Kaitlyn,Alexandra,Jacqueline,Lauren,Crystal","Unfortunately, I can't see anything special in this painting.,-20,340,20","Would be better if random black object was not present,11,80,20","The colors in this picture are nice.,32,60,20","I feel like I've seen this one already.,-9,300,20","This doesn't invoke anything, since I can't tell what the piece represents.,0,340,20","Beautiful use of chalk or pastels. Love the abstract nature.,35,300,20","Lauren","This doesn't invoke anything, since I can't tell what the piece represents.,0,340,20","Jacqueline","I feel like I've seen this one already.,-9,300,20","Molly","Unfortunately, I can't see anything special in this painting.,-20,340,20","2"
"13927","","survey-text","88","562423","0.0-87.0-0.0","A1WH32GYQOHIRQ","","","","{""Q0"":""Angry toddler got into crayons I see""}","","","","","","","","","","","","","","","","","","","","","","",""
"22289.900000002235","","image-slider-response","89","584716","0.0-88.0","A1WH32GYQOHIRQ","","","","","-22","","","","","","","","","","","","","","","","","","","","","",""
"3692","","image-button-response","90","589722","0.0-89.0","A1WH32GYQOHIRQ","img_art/3.jpg","2","","","","","","","","","","","","","","","","","","","","","","","","",""
"4109","","image-button-response","91","593835","0.0-90.0","A1WH32GYQOHIRQ","img_art/3.jpg","4","","","","","","","","","","","","","","","","","","","","","","","","",""
"1456","","image-button-response","92","595295","0.0-91.0-0.0","A1WH32GYQOHIRQ","img_art/3.jpg","2","","","","","","","","","","","","","","","","","","","","","","","","",""
"2567","","image-button-response","93","597866","0.0-92.0-0.0","A1WH32GYQOHIRQ","img_art/3.jpg","1","","","","","","","","","","","","","","","","","","","","","","","","",""
"null","","html-keyboard-response","94","598370","0.0-93.0","A1WH32GYQOHIRQ","<p style=""font-size: 48px;"">+</p>","","","","","null","allTrialResponses","500","1","7","img_art/3.jpg","-22","Angry toddler got into crayons I see","Molly,Courtney,Monica,Jacqueline,Lauren,Kristen","Mysterious, remarkable.,30,340,20","That just looks like a mess..,-18,280,20","It looks like random scribbles by a child and not appealing,-38,360,20","Looks like a bloody head with teeth.,-16,300,20","No clue what I'm looking. This just looks a series of scribbles in a box.,-20,340,20","anger, blood, death,-24,280,20","Lauren","No clue what I'm looking. This just looks a series of scribbles in a box.,-20,340,20","Monica","It looks like random scribbles by a child and not appealing,-38,360,20","Courtney","That just looks like a mess..,-18,280,20","2"
"38638","","survey-text","95","637013","0.0-94.0-0.0","A1WH32GYQOHIRQ","","","","{""Q0"":""Pictures like this make me wonder how I'm not a famous artist, too.""}","","","","","","","","","","","","","","","","","","","","","","",""
"9630.39999999851","","image-slider-response","96","646647","0.0-95.0","A1WH32GYQOHIRQ","","","","","-50","","","","","","","","","","","","","","","","","","","","","",""
"null","","image-button-response","97","651654","0.0-96.0","A1WH32GYQOHIRQ","img_art/15.jpg","null","","","","","","","","","","","","","","","","","","","","","","","","",""
"1260","","image-button-response","98","652917","0.0-97.0","A1WH32GYQOHIRQ","img_art/15.jpg","1","","","","","","","","","","","","","","","","","","","","","","","","",""
"4823","","image-button-response","99","657743","0.0-98.0-0.0","A1WH32GYQOHIRQ","img_art/15.jpg","3","","","","","","","","","","","","","","","","","","","","","","","","",""
"3344","","image-button-response","100","661091","0.0-99.0-0.0","A1WH32GYQOHIRQ","img_art/15.jpg","2","","","","","","","","","","","","","","","","","","","","","","","","",""
"null","","html-keyboard-response","101","661598","0.0-100.0","A1WH32GYQOHIRQ","<p style=""font-size: 48px;"">+</p>","","","","","null","allTrialResponses","500","1","8","img_art/15.jpg","-50","Pictures like this make me wonder how I'm not a famous artist, too.","Kathryn,Courtney,Monica,Cassandra,Lauren,Sabrina","This is looking at a forest from above. I can see water and some pathways throughout. Nature.,20,140,20","Weird fuzzball bush.,22,280,20","I don't feel much of anything when looking at this, it's just a random pattern,1,360,20","Hate it...black dots.,-47,120,20","Hard to tell what I'm looking at, but it does a gives a slight impression of a of garden.,5,340,20","Extreme darkness and sadness,-30,120,20","Courtney","Weird fuzzball bush.,22,280,20","Cassandra","Hate it...black dots.,-47,120,20","Monica","I don't feel much of anything when looking at this, it's just a random pattern,1,360,20","2"
"18935","","survey-text","102","680539","0.0-101.0-0.0","A1WH32GYQOHIRQ","","","","{""Q0"":""Looks like Legos in a stormy sea.""}","","","","","","","","","","","","","","","","","","","","","","",""
"2667.800000000745","","image-slider-response","103","683210","0.0-102.0","A1WH32GYQOHIRQ","","","","","8","","","","","","","","","","","","","","","","","","","","","",""
"null","","image-button-response","104","688213","0.0-103.0","A1WH32GYQOHIRQ","img_art/11.jpg","null","","","","","","","","","","","","","","","","","","","","","","","","",""
"8899","","image-button-response","105","697114","0.0-104.0","A1WH32GYQOHIRQ","img_art/11.jpg","2","","","","","","","","","","","","","","","","","","","","","","","","",""
"6056","","image-button-response","106","703173","0.0-105.0-0.0","A1WH32GYQOHIRQ","img_art/11.jpg","3","","","","","","","","","","","","","","","","","","","","","","","","",""
"649","","image-button-response","107","703826","0.0-106.0-0.0","A1WH32GYQOHIRQ","img_art/11.jpg","4","","","","","","","","","","","","","","","","","","","","","","","","",""
"null","","html-keyboard-response","108","705331","0.0-107.0","A1WH32GYQOHIRQ","<p style=""font-size: 48px;"">+</p>","","","","","null","allTrialResponses","1500","1","9","img_art/11.jpg","8","Looks like Legos in a stormy sea.","Megan,Courtney,Monica,Cassandra,Michelle,Sydney","Some interesting color but scratchy train mess.,-14,200,20","Thats a creepy old rollercoasters abandoned,-2,280,20","I like how it reminds me of music and at the same time it looks like colorful train tracks.,10,360,20","I liked it it looked like an roller coasters at an amusment park.,16,120,20","I think this is a city but I'm not sure, very abstract,18,280,20","I don't like the gloomy color, but it reminds me of a city which I like.,35,320,20","Monica","I like how it reminds me of music and at the same time it looks like colorful train tracks.,10,360,20","Cassandra","I liked it it looked like an roller coasters at an amusment park.,16,120,20","Michelle","I think this is a city but I'm not sure, very abstract,18,280,20","2"
"32437","","survey-text","109","737774","0.0-108.0-0.0","A1WH32GYQOHIRQ","","","","{""Q0"":""A child's rendering of a city street.""}","","","","","","","","","","","","","","","","","","","","","","",""
"192290.5","","image-slider-response","110","930065","0.0-109.0","A1WH32GYQOHIRQ","","","","","0","","","","","","","","","","","","","","","","","","","","","",""
"null","","image-button-response","111","935070","0.0-110.0","A1WH32GYQOHIRQ","img_art/26.jpg","null","","","","","","","","","","","","","","","","","","","","","","","","",""
"1818","","image-button-response","112","936891","0.0-111.0","A1WH32GYQOHIRQ","img_art/26.jpg","1","","","","","","","","","","","","","","","","","","","","","","","","",""
"5855","","image-button-response","113","942749","0.0-112.0-0.0","A1WH32GYQOHIRQ","img_art/26.jpg","3","","","","","","","","","","","","","","","","","","","","","","","","",""
"2889","","image-button-response","114","945642","0.0-113.0-0.0","A1WH32GYQOHIRQ","img_art/26.jpg","5","","","","","","","","","","","","","","","","","","","","","","","","",""
"null","","html-keyboard-response","115","946147","0.0-114.0","A1WH32GYQOHIRQ","<p style=""font-size: 48px;"">+</p>","","","","","null","allTrialResponses","500","1","10","img_art/26.jpg","0","A child's rendering of a city street.","Gabriela,Hannah,Monica,Cassandra,Michelle,Angela","it makes me feel normal and calm, I like the busy city street,10,140,20","This is boring.,-15,240,20","It looks empty and unfinished,-28,360,20","Neutral...nothing to say.,3,120,20","I can make out a street view and I am a fan of watercolors but still too boring,15,280,20","Nice, but not very interesting. I do like the blue tree though.,6,260,20","Hannah","This is boring.,-15,240,20","Cassandra","Neutral...nothing to say.,3,120,20","Angela","Nice, but not very interesting. I do like the blue tree though.,6,260,20","2"
"7056","","survey-text","116","953213","0.0-115.0-0.0","A1WH32GYQOHIRQ","","","","{""Q0"":""our""}","","","","","","","","","","","","","","","","","","","","","","",""
"28987","","survey-text","117","982204","0.0-116.0-0.0","A1WH32GYQOHIRQ","","","","{""Q0"":""I find the repeating pattern calming.""}","","","","","","","","","","","","","","","","","","","","","","",""
"5578.5","","image-slider-response","118","987785","0.0-117.0","A1WH32GYQOHIRQ","","","","","28","","","","","","","","","","","","","","","","","","","","","",""
"null","","image-button-response","119","992792","0.0-118.0","A1WH32GYQOHIRQ","img_art/12.jpg","null","","","","","","","","","","","","","","","","","","","","","","","","",""
"14081","","image-button-response","120","1006876","0.0-119.0","A1WH32GYQOHIRQ","img_art/12.jpg","5","","","","","","","","","","","","","","","","","","","","","","","","",""
"4700","","image-button-response","121","1011581","0.0-120.0-0.0","A1WH32GYQOHIRQ","img_art/12.jpg","3","","","","","","","","","","","","","","","","","","","","","","","","",""
"6718","","image-button-response","122","1018303","0.0-121.0-0.0","A1WH32GYQOHIRQ","img_art/12.jpg","1","","","","","","","","","","","","","","","","","","","","","","","","",""
"null","","html-keyboard-response","123","1019809","0.0-122.0","A1WH32GYQOHIRQ","<p style=""font-size: 48px;"">+</p>","","","","","null","allTrialResponses","1500","1","11","img_art/12.jpg","28","I find the repeating pattern calming.","Shelby,Hannah,Natalie,Cassandra,Catherine,Angela","The shapes make me feel a bit uncomfortable,-10,240,20","I don't get this one. Doesn't evoke an emotional response.,-10,240,20","my reaction is that the picture is wierd,-11,400,20","Neutral...just blocks.,3,120,20","confused. stages of a persons life from beginning positive to ending negative.,-10,160,20","I like the colors in the bottom half of the painting,10,260,20","Angela","I like the colors in the bottom half of the painting,10,260,20","Cassandra","Neutral...just blocks.,3,120,20","Hannah","I don't get this one. Doesn't evoke an emotional response.,-10,240,20","2"
"73282","","survey-text","124","1093101","0.0-123.0-0.0","A1WH32GYQOHIRQ","","","","{""Q0"":""This one confuses me greatly. Why are there floating faces?""}","","","","","","","","","","","","","","","","","","","","","","",""
"2410.400000002235","","image-slider-response","125","1095514","0.0-124.0","A1WH32GYQOHIRQ","","","","","-19","","","","","","","","","","","","","","","","","","","","","",""
"4052","","image-button-response","126","1100522","0.0-125.0","A1WH32GYQOHIRQ","img_art/8.jpg","1","","","","","","","","","","","","","","","","","","","","","","","","",""
"2572","","image-button-response","127","1103097","0.0-126.0","A1WH32GYQOHIRQ","img_art/8.jpg","1","","","","","","","","","","","","","","","","","","","","","","","","",""
"3957","","image-button-response","128","1107057","0.0-127.0-0.0","A1WH32GYQOHIRQ","img_art/8.jpg","4","","","","","","","","","","","","","","","","","","","","","","","","",""
"1144","","image-button-response","129","1108208","0.0-128.0-0.0","A1WH32GYQOHIRQ","img_art/8.jpg","5","","","","","","","","","","","","","","","","","","","","","","","","",""
"null","","html-keyboard-response","130","1109214","0.0-129.0","A1WH32GYQOHIRQ","<p style=""font-size: 48px;"">+</p>","","","","","null","allTrialResponses","1000","1","12","img_art/8.jpg","-19","This one confuses me greatly. Why are there floating faces?","Mackenzie,Hannah,Gabrielle,Cassandra,Laura,Angela","The different shapes are fun to look for.,30,20,20","I don't understand it. Makes no sense to me.,5,240,20","lots going on with great use of lots of color and geometry,24,160,20","I like the colors and the scene.,24,120,20","chaotic and disassembled,-8,320,20","Like the colors and the energy, but the face feels jarring to me,13,260,20","Hannah","I don't understand it. Makes no sense to me.,5,240,20","Laura","chaotic and disassembled,-8,320,20","Angela","Like the colors and the energy, but the face feels jarring to me,13,260,20","2"
"25137","","survey-text","131","1134357","0.0-130.0-0.0","A1WH32GYQOHIRQ","","","","{""Q0"":""This one is super weird to me. And depressing.""}","","","","","","","","","","","","","","","","","","","","","","",""
"3513.39999999851","","image-slider-response","132","1137873","0.0-131.0","A1WH32GYQOHIRQ","","","","","-50","","","","","","","","","","","","","","","","","","","","","",""
"4275","","image-button-response","133","1142880","0.0-132.0","A1WH32GYQOHIRQ","img_art/20.jpg","2","","","","","","","","","","","","","","","","","","","","","","","","",""
"1799","","image-button-response","134","1144682","0.0-133.0","A1WH32GYQOHIRQ","img_art/20.jpg","2","","","","","","","","","","","","","","","","","","","","","","","","",""
"11226","","image-button-response","135","1155911","0.0-134.0-0.0","A1WH32GYQOHIRQ","img_art/20.jpg","0","","","","","","","","","","","","","","","","","","","","","","","","",""
"5763","","image-button-response","136","1161678","0.0-135.0-0.0","A1WH32GYQOHIRQ","img_art/20.jpg","1","","","","","","","","","","","","","","","","","","","","","","","","",""
"null","","html-keyboard-response","137","1162181","0.0-136.0","A1WH32GYQOHIRQ","<p style=""font-size: 48px;"">+</p>","","","","","null","allTrialResponses","500","1","13","img_art/20.jpg","-50","This one is super weird to me. And depressing.","Christina,Hannah,Meghan,Elizabeth,Laura,Angela","it looks like a piccasso knock off,-23,240,20","Reminds me of the Southwest; i.e. New Mexico or Arizona. It's interesting.,12,240,20","feels distorted and uncomfortable,-41,220,20","This painting would make a great display art,50,20,20","very fluid and mysterious,37,320,20","I like the blues, and the sense of foreboding it makes me feel.,20,260,20","Meghan","feels distorted and uncomfortable,-41,220,20","Christina","it looks like a piccasso knock off,-23,240,20","Hannah","Reminds me of the Southwest; i.e. New Mexico or Arizona. It's interesting.,12,240,20","2"
"18510","","survey-text","138","1180701","0.0-137.0-0.0","A1WH32GYQOHIRQ","","","","{""Q0"":""This one reminds me of an abstract volcano. ""}","","","","","","","","","","","","","","","","","","","","","","",""
"3564.199999999255","","image-slider-response","139","1184268","0.0-138.0","A1WH32GYQOHIRQ","","","","","41","","","","","","","","","","","","","","","","","","","","","",""
"null","","image-button-response","140","1189276","0.0-139.0","A1WH32GYQOHIRQ","img_art/14.jpg","null","","","","","","","","","","","","","","","","","","","","","","","","",""
"4089","","image-button-response","141","1193369","0.0-140.0","A1WH32GYQOHIRQ","img_art/14.jpg","4","","","","","","","","","","","","","","","","","","","","","","","","",""
"1686","","image-button-response","142","1195058","0.0-141.0-0.0","A1WH32GYQOHIRQ","img_art/14.jpg","0","","","","","","","","","","","","","","","","","","","","","","","","",""
"3706","","image-button-response","143","1198767","0.0-142.0-0.0","A1WH32GYQOHIRQ","img_art/14.jpg","3","","","","","","","","","","","","","","","","","","","","","","","","",""
"null","","html-keyboard-response","144","1199270","0.0-143.0","A1WH32GYQOHIRQ","<p style=""font-size: 48px;"">+</p>","","","","","null","allTrialResponses","500","1","14","img_art/14.jpg","41","This one reminds me of an abstract volcano. ","Christina,Hannah,Meghan,Madeline,Kayla,Angelica","has a tree look to it and it's colors are happy,9,240,20","This doesn't speak to me on an emotional level,-6,240,20","its okay nothing special,11,220,20","It looks nice colorwise but detail is lacking,18,40,20","I like that it looks like plants on a table, which reminds me of life.,4,180,20","This is poorly done and not aesthetically appealing.,-2,280,20","Kayla","I like that it looks like plants on a table, which reminds me of life.,4,180,20","Christina","has a tree look to it and it's colors are happy,9,240,20","Madeline","It looks nice colorwise but detail is lacking,18,40,20","2"
"27559","","survey-text","145","1226837","0.0-144.0-0.0","A1WH32GYQOHIRQ","","","","{""Q0"":""Looks like a kid took a Sharpie to a wall.""}","","","","","","","","","","","","","","","","","","","","","","",""
"3470.60000000149","","image-slider-response","146","1230311","0.0-145.0","A1WH32GYQOHIRQ","","","","","-26","","","","","","","","","","","","","","","","","","","","","",""
"null","","image-button-response","147","1235314","0.0-146.0","A1WH32GYQOHIRQ","img_art/27.jpg","null","","","","","","","","","","","","","","","","","","","","","","","","",""
"2996","","image-button-response","148","1238314","0.0-147.0","A1WH32GYQOHIRQ","img_art/27.jpg","2","","","","","","","","","","","","","","","","","","","","","","","","",""
"8508","","image-button-response","149","1246824","0.0-148.0-0.0","A1WH32GYQOHIRQ","img_art/27.jpg","3","","","","","","","","","","","","","","","","","","","","","","","","",""
"2975","","image-button-response","150","1249803","0.0-149.0-0.0","A1WH32GYQOHIRQ","img_art/27.jpg","5","","","","","","","","","","","","","","","","","","","","","","","","",""
"null","","html-keyboard-response","151","1250308","0.0-150.0","A1WH32GYQOHIRQ","<p style=""font-size: 48px;"">+</p>","","","","","null","allTrialResponses","500","1","15","img_art/27.jpg","-26","Looks like a kid took a Sharpie to a wall.","Christina,Victoria,Cheyenne,Madeline,Kayla,Destiny","I like the orange but it's a little blah,1,240,20","reminds me of fall,33,400,20","This one does nothing for me.,2,200,20","Looks like the green bits were added on later,-1,40,20","Don't know what it is, but I do like it.,10,180,20","demon vs angel brawl over lemon lime sprite,-10,360,20","Cheyenne","This one does nothing for me.,2,200,20","Madeline","Looks like the green bits were added on later,-1,40,20","Destiny","demon vs angel brawl over lemon lime sprite,-10,360,20","2"
"27941","","survey-text","152","1278262","0.0-151.0-0.0","A1WH32GYQOHIRQ","","","","{""Q0"":""course""}","","","","","","","","","","","","","","","","","","","","","","",""
"21247","","survey-text","153","1299512","0.0-152.0-0.0","A1WH32GYQOHIRQ","","","","{""Q0"":""Looks like lava crashing into the ocean""}","","","","","","","","","","","","","","","","","","","","","","",""
"15547","","image-slider-response","154","1315062","0.0-153.0","A1WH32GYQOHIRQ","","","","","50","","","","","","","","","","","","","","","","","","","","","",""
"null","","image-button-response","155","1320070","0.0-154.0","A1WH32GYQOHIRQ","img_art/21.jpg","null","","","","","","","","","","","","","","","","","","","","","","","","",""
"5353","","image-button-response","156","1325427","0.0-155.0","A1WH32GYQOHIRQ","img_art/21.jpg","3","","","","","","","","","","","","","","","","","","","","","","","","",""
"3360","","image-button-response","157","1328790","0.0-156.0-0.0","A1WH32GYQOHIRQ","img_art/21.jpg","1","","","","","","","","","","","","","","","","","","","","","","","","",""
"1920","","image-button-response","158","1330714","0.0-157.0-0.0","A1WH32GYQOHIRQ","img_art/21.jpg","0","","","","","","","","","","","","","","","","","","","","","","","","",""
"null","","html-keyboard-response","159","1332219","0.0-158.0","A1WH32GYQOHIRQ","<p style=""font-size: 48px;"">+</p>","","","","","null","allTrialResponses","1500","1","16","img_art/21.jpg","50","Looks like lava crashing into the ocean","Morgan,Jessica,Cheyenne,Madeline,Kaitlin,Destiny","Survivable storm on the open sea.,27,380,20","I like how the colors blend together like a beautiful sunset.,25,400,20","Don't see anything special about it,-21,200,20","Evokes a strong colorful sense,8,40,20","waterpaint is attractive,13,60,20","Pink is my favorite, against blue it looks like sunset. Seems like a boat burning down, so don't absolutely love it,23,360,20","Madeline","Evokes a strong colorful sense,8,40,20","Jessica","I like how the colors blend together like a beautiful sunset.,25,400,20","Morgan","Survivable storm on the open sea.,27,380,20","2"
"11960","","survey-text","160","1344187","0.0-159.0-0.0","A1WH32GYQOHIRQ","","","","{""Q0"":""Death and grief""}","","","","","","","","","","","","","","","","","","","","","","",""
"2432.699999999255","","image-slider-response","161","1346623","0.0-160.0","A1WH32GYQOHIRQ","","","","","18","","","","","","","","","","","","","","","","","","","","","",""
"null","","image-button-response","162","1351632","0.0-161.0","A1WH32GYQOHIRQ","img_art/25.jpg","null","","","","","","","","","","","","","","","","","","","","","","","","",""
"6038","","image-button-response","163","1357672","0.0-162.0","A1WH32GYQOHIRQ","img_art/25.jpg","4","","","","","","","","","","","","","","","","","","","","","","","","",""
"3199","","image-button-response","164","1360874","0.0-163.0-0.0","A1WH32GYQOHIRQ","img_art/25.jpg","0","","","","","","","","","","","","","","","","","","","","","","","","",""
"5988","","image-button-response","165","1366866","0.0-164.0-0.0","A1WH32GYQOHIRQ","img_art/25.jpg","2","","","","","","","","","","","","","","","","","","","","","","","","",""
"null","","html-keyboard-response","166","1368373","0.0-165.0","A1WH32GYQOHIRQ","<p style=""font-size: 48px;"">+</p>","","","","","null","allTrialResponses","1500","1","17","img_art/25.jpg","18","Death and grief","Morgan,Jessica,Caroline,Madeline,Ashley,Isabella","Ancient gods above you.,20,380,20","I really like how the lines form this piece.,8,400,20","Makes me think of Baphomet, As above so below and is scary,-50,100,20","It looks a bit strange to me, neck too long,-19,40,20","haunting, a lovely impression.,50,320,20","I love the green and the figure is black but the green makes it pop,29,280,20","Ashley","haunting, a lovely impression.,50,320,20","Morgan","Ancient gods above you.,20,380,20","Caroline","Makes me think of Baphomet, As above so below and is scary,-50,100,20","2"
"37672","","survey-text","167","1406052","0.0-166.0-0.0","A1WH32GYQOHIRQ","","","","{""Q0"":""I see a woman reclining in a peaceful garden. It makes me happy.""}","","","","","","","","","","","","","","","","","","","","","","",""
"4356.199999999255","","image-slider-response","168","1410411","0.0-167.0","A1WH32GYQOHIRQ","","","","","50","","","","","","","","","","","","","","","","","","","","","",""
"null","","image-button-response","169","1415416","0.0-168.0","A1WH32GYQOHIRQ","img_art/9.jpg","null","","","","","","","","","","","","","","","","","","","","","","","","",""
"12711","","image-button-response","170","1428129","0.0-169.0","A1WH32GYQOHIRQ","img_art/9.jpg","5","","","","","","","","","","","","","","","","","","","","","","","","",""
"11189","","image-button-response","171","1439321","0.0-170.0-0.0","A1WH32GYQOHIRQ","img_art/9.jpg","2","","","","","","","","","","","","","","","","","","","","","","","","",""
"6213","","image-button-response","172","1445539","0.0-171.0-0.0","A1WH32GYQOHIRQ","img_art/9.jpg","1","","","","","","","","","","","","","","","","","","","","","","","","",""
"null","","html-keyboard-response","173","1447046","0.0-172.0","A1WH32GYQOHIRQ","<p style=""font-size: 48px;"">+</p>","","","","","null","allTrialResponses","1500","1","18","img_art/9.jpg","50","I see a woman reclining in a peaceful garden. It makes me happy.","Morgan,Michaela,Caroline,Danielle,Ashley,Andrea","The mouth of an ugly beast.,-25,380,20","The colors remind me of peacocks,24,260,20","Stirs up emotions of watching someone sleep which is relaxing,11,100,20","Looks like a child's drawing,-40,340,20","Similar to the tohers, but not as clear.,11,320,20","Sleeping woman in a cave. Makes me feel safe.,20,240,20","Andrea","Sleeping woman in a cave. Makes me feel safe.,20,240,20","Caroline","Stirs up emotions of watching someone sleep which is relaxing,11,100,20","Michaela","The colors remind me of peacocks,24,260,20","2"
"44722","","survey-text","174","1491775","0.0-173.0-0.0","A1WH32GYQOHIRQ","","","","{""Q0"":""LOVE this! Angry contractor taking his revenge!""}","","","","","","","","","","","","","","","","","","","","","","",""
"2845.099999997765","","image-slider-response","175","1494623","0.0-174.0","A1WH32GYQOHIRQ","","","","","50","","","","","","","","","","","","","","","","","","","","","",""
"4451","","image-button-response","176","1499630","0.0-175.0","A1WH32GYQOHIRQ","img_art/29.jpg","4","","","","","","","","","","","","","","","","","","","","","","","","",""
"4681","","image-button-response","177","1504314","0.0-176.0","A1WH32GYQOHIRQ","img_art/29.jpg","1","","","","","","","","","","","","","","","","","","","","","","","","",""
"2225","","image-button-response","178","1506543","0.0-177.0-0.0","A1WH32GYQOHIRQ","img_art/29.jpg","4","","","","","","","","","","","","","","","","","","","","","","","","",""
"11407","","image-button-response","179","1517955","0.0-178.0-0.0","A1WH32GYQOHIRQ","img_art/29.jpg","0","","","","","","","","","","","","","","","","","","","","","","","","",""
"null","","html-keyboard-response","180","1518462","0.0-179.0","A1WH32GYQOHIRQ","<p style=""font-size: 48px;"">+</p>","","","","","null","allTrialResponses","500","1","19","img_art/29.jpg","50","LOVE this! Angry contractor taking his revenge!","Leah,Michaela,Caroline,Makayla,Nicole,Andrea","Scrawled graffiti, with a red x as saying it was a mistake,-40,360,20","Like a crime scene. It's neat and different,30,260,20","Depressing and with that big red x on it just makes me not like it.,-33,100,20","Looks like a jail cell,-15,80,20","This one feels scary in a good way,30,20,20","Bottomless pit and prison. Feels like its saying time is precious.,11,240,20","Michaela","Like a crime scene. It's neat and different,30,260,20","Nicole","This one feels scary in a good way,30,20,20","Leah","Scrawled graffiti, with a red x as saying it was a mistake,-40,360,20","2"
"23676","","survey-text","181","1542148","0.0-180.0-0.0","A1WH32GYQOHIRQ","","","","{""Q0"":""My response to this is ick. It hurts my eyes.""}","","","","","","","","","","","","","","","","","","","","","","",""
"2866.099999997765","","image-slider-response","182","1545017","0.0-181.0","A1WH32GYQOHIRQ","","","","","-50","","","","","","","","","","","","","","","","","","","","","",""
"null","","image-button-response","183","1550021","0.0-182.0","A1WH32GYQOHIRQ","img_art/5.jpg","null","","","","","","","","","","","","","","","","","","","","","","","","",""
"848","","image-button-response","184","1550873","0.0-183.0","A1WH32GYQOHIRQ","img_art/5.jpg","5","","","","","","","","","","","","","","","","","","","","","","","","",""
"3002","","image-button-response","185","1553878","0.0-184.0-0.0","A1WH32GYQOHIRQ","img_art/5.jpg","4","","","","","","","","","","","","","","","","","","","","","","","","",""
"4810","","image-button-response","186","1558692","0.0-185.0-0.0","A1WH32GYQOHIRQ","img_art/5.jpg","1","","","","","","","","","","","","","","","","","","","","","","","","",""
"null","","html-keyboard-response","187","1559198","0.0-186.0","A1WH32GYQOHIRQ","<p style=""font-size: 48px;"">+</p>","","","","","null","allTrialResponses","500","1","20","img_art/5.jpg","-50","My response to this is ick. It hurts my eyes.","Leah,Michaela,Autumn,Olivia,Nicole,Alicia","Boring, no flow except the pink feathery band,-42,360,20","Pretty simple, I'm not sure what it's supposed to mean,14,260,20","Appealing but shapeless,24,340,20","a brush in time,-14,40,20","I hate the shapes,-30,20,20","pointless, ugly, not creative.,-50,120,20","Alicia","pointless, ugly, not creative.,-50,120,20","Nicole","I hate the shapes,-30,20,20","Michaela","Pretty simple, I'm not sure what it's supposed to mean,14,260,20","2"
"7716","","survey-text","188","1566929","0.0-187.0-0.0","A1WH32GYQOHIRQ","","","","{""Q0"":""we""}","","","","","","","","","","","","","","","","","","","","","","",""
"16682","","survey-text","189","1583615","0.0-188.0-0.0","A1WH32GYQOHIRQ","","","","{""Q0"":""I'd like this in floor tile.""}","","","","","","","","","","","","","","","","","","","","","","",""
"3264.5","","image-slider-response","190","1586883","0.0-189.0","A1WH32GYQOHIRQ","","","","","30","","","","","","","","","","","","","","","","","","","","","",""
"null","","image-button-response","191","1591891","0.0-190.0","A1WH32GYQOHIRQ","img_art/7.jpg","null","","","","","","","","","","","","","","","","","","","","","","","","",""
"834","","image-button-response","192","1592728","0.0-191.0","A1WH32GYQOHIRQ","img_art/7.jpg","5","","","","","","","","","","","","","","","","","","","","","","","","",""
"2131","","image-button-response","193","1594863","0.0-192.0-0.0","A1WH32GYQOHIRQ","img_art/7.jpg","4","","","","","","","","","","","","","","","","","","","","","","","","",""
"1229","","image-button-response","194","1596095","0.0-193.0-0.0","A1WH32GYQOHIRQ","img_art/7.jpg","3","","","","","","","","","","","","","","","","","","","","","","","","",""
"null","","html-keyboard-response","195","1597097","0.0-194.0","A1WH32GYQOHIRQ","<p style=""font-size: 48px;"">+</p>","","","","","null","allTrialResponses","1000","1","21","img_art/7.jpg","30","I'd like this in floor tile.","Brianna,Michaela,Kelsey,Kaylee,Nicole,Alicia","Looks plain and dull, sorry.,-31,20,20","It looks like maybe some seeds?,14,260,20","its like oatmeal with granola,-47,240,20","some rocks on a mars?,7,200,20","Looks like the surface of mars,29,20,20","I don't get it. looks like a picture of the ground.,-42,120,20","Alicia","I don't get it. looks like a picture of the ground.,-42,120,20","Nicole","Looks like the surface of mars,29,20,20","Kaylee","some rocks on a mars?,7,200,20","2"
"12840","","survey-text","196","1609947","0.0-195.0-0.0","A1WH32GYQOHIRQ","","","","{""Q0"":""A generic waterfall.""}","","","","","","","","","","","","","","","","","","","","","","",""
"3317.5","","image-slider-response","197","1613267","0.0-196.0","A1WH32GYQOHIRQ","","","","","-20","","","","","","","","","","","","","","","","","","","","","",""
"null","","image-button-response","198","1618276","0.0-197.0","A1WH32GYQOHIRQ","img_art/24.jpg","null","","","","","","","","","","","","","","","","","","","","","","","","",""
"22604","","image-button-response","199","1640884","0.0-198.0","A1WH32GYQOHIRQ","img_art/24.jpg","1","","","","","","","","","","","","","","","","","","","","","","","","",""
"2619","","image-button-response","200","1643506","0.0-199.0-0.0","A1WH32GYQOHIRQ","img_art/24.jpg","0","","","","","","","","","","","","","","","","","","","","","","","","",""
"4637","","image-button-response","201","1648148","0.0-200.0-0.0","A1WH32GYQOHIRQ","img_art/24.jpg","3","","","","","","","","","","","","","","","","","","","","","","","","",""
"null","","html-keyboard-response","202","1648652","0.0-201.0","A1WH32GYQOHIRQ","<p style=""font-size: 48px;"">+</p>","","","","","null","allTrialResponses","500","1","22","img_art/24.jpg","-20","A generic waterfall.","Vanessa,Madison,Sierra,Kaylee,Nicole,Alicia","I love the colors, but I wish the water was less abstract.,17,380,20","Exceedingly garish,-19,60,20","i like that the water seems in motion,6,260,20","lovely forest vibes,36,200,20","The colors and brush strokes make it feel adventurous,20,20,20","Nature, abstract, I'd hang this in my house.,37,120,20","Madison","Exceedingly garish,-19,60,20","Vanessa","I love the colors, but I wish the water was less abstract.,17,380,20","Kaylee","lovely forest vibes,36,200,20","2"
"20953","","survey-text","203","1669616","0.0-202.0-0.0","A1WH32GYQOHIRQ","","","","{""Q0"":""Makes me think of cancan dancers.""}","","","","","","","","","","","","","","","","","","","","","","",""
"5064.400000002235","","image-slider-response","204","1674683","0.0-203.0","A1WH32GYQOHIRQ","","","","","0","","","","","","","","","","","","","","","","","","","","","",""
"null","","image-button-response","205","1679691","0.0-204.0","A1WH32GYQOHIRQ","img_art/23.jpg","null","","","","","","","","","","","","","","","","","","","","","","","","",""
"5356","","image-button-response","206","1685049","0.0-205.0","A1WH32GYQOHIRQ","img_art/23.jpg","2","","","","","","","","","","","","","","","","","","","","","","","","",""
"3763","","image-button-response","207","1688816","0.0-206.0-0.0","A1WH32GYQOHIRQ","img_art/23.jpg","3","","","","","","","","","","","","","","","","","","","","","","","","",""
"3152","","image-button-response","208","1691973","0.0-207.0-0.0","A1WH32GYQOHIRQ","img_art/23.jpg","5","","","","","","","","","","","","","","","","","","","","","","","","",""
"null","","html-keyboard-response","209","1692480","0.0-208.0","A1WH32GYQOHIRQ","<p style=""font-size: 48px;"">+</p>","","","","","null","allTrialResponses","500","1","23","img_art/23.jpg","0","Makes me think of cancan dancers.","Vanessa,Madison,Jennifer,Kaylee,Brooke,Kimberly","This is ugly and weird.,-50,380,20","Looks celebratory and joyful! However, the photograph does not do the original work's colors justice.,27,60,20","The cluster of white silhouettes against the colorful background makes me feel uneasy for some reason,-36,380,20","i completely dont get it,-47,200,20","looks like those paper chain things.,0,60,20","Look at all the dancers,26,260,20","Jennifer","The cluster of white silhouettes against the colorful background makes me feel uneasy for some reason,-36,380,20","Kaylee","i completely dont get it,-47,200,20","Kimberly","Look at all the dancers,26,260,20","2"
"33130","","survey-text","210","1725619","0.0-209.0-0.0","A1WH32GYQOHIRQ","","","","{""Q0"":""Gross. The colors look like poop or pudding.""}","","","","","","","","","","","","","","","","","","","","","","",""
"10164.39999999851","","image-slider-response","211","1735786","0.0-210.0","A1WH32GYQOHIRQ","","","","","-50","","","","","","","","","","","","","","","","","","","","","",""
"null","","image-button-response","212","1740790","0.0-211.0","A1WH32GYQOHIRQ","img_art/19.jpg","null","","","","","","","","","","","","","","","","","","","","","","","","",""
"859","","image-button-response","213","1741652","0.0-212.0","A1WH32GYQOHIRQ","img_art/19.jpg","2","","","","","","","","","","","","","","","","","","","","","","","","",""
"23653","","image-button-response","214","1765308","0.0-213.0-0.0","A1WH32GYQOHIRQ","img_art/19.jpg","0","","","","","","","","","","","","","","","","","","","","","","","","",""
"3131","","image-button-response","215","1768444","0.0-214.0-0.0","A1WH32GYQOHIRQ","img_art/19.jpg","1","","","","","","","","","","","","","","","","","","","","","","","","",""
"null","","html-keyboard-response","216","1769946","0.0-215.0","A1WH32GYQOHIRQ","<p style=""font-size: 48px;"">+</p>","","","","","null","allTrialResponses","1500","1","24","img_art/19.jpg","-50","Gross. The colors look like poop or pudding.","Lindsey,Jordan,Jennifer,Kaylee,Taylor,Kimberly","Pleasant colors with just enough detail to be recognizable. I can see a scene in it that tells a story.,7,400,20","I like it, I see someone walking his dog in the early morning time,23,20,20","Very, very ugly and sloppy,-31,380,20","beautiful old town,37,200,20","It reminds me of sitting at a cafe on the side of a river.,45,340,20","The blue makes it look like it has depth,11,260,20","Jennifer","Very, very ugly and sloppy,-31,380,20","Lindsey","Pleasant colors with just enough detail to be recognizable. I can see a scene in it that tells a story.,7,400,20","Jordan","I like it, I see someone walking his dog in the early morning time,23,20,20","2"
"25870","","survey-text","217","1795824","0.0-216.0-0.0","A1WH32GYQOHIRQ","","","","{""Q0"":""This one makes me sick to my stomach...the colors maybe?""}","","","","","","","","","","","","","","","","","","","","","","",""
"4671.10000000149","","image-slider-response","218","1800498","0.0-217.0","A1WH32GYQOHIRQ","","","","","-50","","","","","","","","","","","","","","","","","","","","","",""
"null","","image-button-response","219","1805504","0.0-218.0","A1WH32GYQOHIRQ","img_art/28.jpg","null","","","","","","","","","","","","","","","","","","","","","","","","",""
"3124","","image-button-response","220","1808632","0.0-219.0","A1WH32GYQOHIRQ","img_art/28.jpg","5","","","","","","","","","","","","","","","","","","","","","","","","",""
"2984","","image-button-response","221","1811621","0.0-220.0-0.0","A1WH32GYQOHIRQ","img_art/28.jpg","3","","","","","","","","","","","","","","","","","","","","","","","","",""
"17736","","image-button-response","222","1829361","0.0-221.0-0.0","A1WH32GYQOHIRQ","img_art/28.jpg","2","","","","","","","","","","","","","","","","","","","","","","","","",""
"null","","html-keyboard-response","223","1830867","0.0-222.0","A1WH32GYQOHIRQ","<p style=""font-size: 48px;"">+</p>","","","","","null","allTrialResponses","1500","1","25","img_art/28.jpg","-50","This one makes me sick to my stomach...the colors maybe?","Lindsey,Jordan,Jennifer,Caitlin,Stephanie,Jamie","Not a fan of the drab colors but it looks a little bit interesting.,-7,400,20","It's a bike that was left abandoned by someone who doesnt care for it,1,20,20","This picture doesn't really stand out to me,1,380,20","Bug meets bug in a dark alley.,-20,80,20","The colors are neutral but I see a mother helping her child,31,300,20","Gloomy colors and picture,5,320,20","Jamie","Gloomy colors and picture,5,320,20","Caitlin","Bug meets bug in a dark alley.,-20,80,20","Jennifer","This picture doesn't really stand out to me,1,380,20","2"
"10914","","survey-text","224","1841796","0.0-223.0-0.0","A1WH32GYQOHIRQ","","","","{""Q0"":""table""}","","","","","","","","","","","","","","","","","","","","","","",""
"26468","","survey-text","225","1868266","0.0-224.0-0.0","A1WH32GYQOHIRQ","","","","{""Q0"":""Looks like smeared mustard. ""}","","","","","","","","","","","","","","","","","","","","","","",""
"28786.699999999255","","image-slider-response","226","1897056","0.0-225.0","A1WH32GYQOHIRQ","","","","","-50","","","","","","","","","","","","","","","","","","","","","",""
"null","","image-button-response","227","1902062","0.0-226.0","A1WH32GYQOHIRQ","img_art/4.jpg","null","","","","","","","","","","","","","","","","","","","","","","","","",""
"1627","","image-button-response","228","1903692","0.0-227.0","A1WH32GYQOHIRQ","img_art/4.jpg","5","","","","","","","","","","","","","","","","","","","","","","","","",""
"5236","","image-button-response","229","1908932","0.0-228.0-0.0","A1WH32GYQOHIRQ","img_art/4.jpg","3","","","","","","","","","","","","","","","","","","","","","","","","",""
"4260","","image-button-response","230","1913197","0.0-229.0-0.0","A1WH32GYQOHIRQ","img_art/4.jpg","0","","","","","","","","","","","","","","","","","","","","","","","","",""
"null","","html-keyboard-response","231","1913701","0.0-230.0","A1WH32GYQOHIRQ","<p style=""font-size: 48px;"">+</p>","","","","","null","allTrialResponses","500","1","26","img_art/4.jpg","-50","Looks like smeared mustard. ","Rebecca,Alexa,Jennifer,Caitlin,Amanda,Jamie","no sorry i can't really understand,-18,100,20","A bit too plain for my tastes,-10,40,20","Ugly and bland compared to the other pieces.,-33,380,20","They give out trophies now for fighting with brass knuckles?,-20,80,20","Looks like an abstract version of the Scream painting,-50,180,20","Mustard yellow doesn't do it for me,-25,320,20","Jamie","Mustard yellow doesn't do it for me,-25,320,20","Caitlin","They give out trophies now for fighting with brass knuckles?,-20,80,20","Rebecca","no sorry i can't really understand,-18,100,20","2"
"13767","","survey-text","232","1927476","0.0-231.0-0.0","A1WH32GYQOHIRQ","","","","{""Q0"":""Death on his horse.""}","","","","","","","","","","","","","","","","","","","","","","",""
"16483.10000000149","","image-slider-response","233","1943962","0.0-232.0","A1WH32GYQOHIRQ","","","","","50","","","","","","","","","","","","","","","","","","","","","",""
"null","","image-button-response","234","1948967","0.0-233.0","A1WH32GYQOHIRQ","img_art/18.jpg","null","","","","","","","","","","","","","","","","","","","","","","","","",""
"3351","","image-button-response","235","1952320","0.0-234.0","A1WH32GYQOHIRQ","img_art/18.jpg","1","","","","","","","","","","","","","","","","","","","","","","","","",""
"7976","","image-button-response","236","1960300","0.0-235.0-0.0","A1WH32GYQOHIRQ","img_art/18.jpg","4","","","","","","","","","","","","","","","","","","","","","","","","",""
"5269","","image-button-response","237","1965573","0.0-236.0-0.0","A1WH32GYQOHIRQ","img_art/18.jpg","2","","","","","","","","","","","","","","","","","","","","","","","","",""
"null","","html-keyboard-response","238","1966080","0.0-237.0","A1WH32GYQOHIRQ","<p style=""font-size: 48px;"">+</p>","","","","","null","allTrialResponses","500","1","27","img_art/18.jpg","50","Death on his horse.","Rebecca,Kelly,Grace,Caitlin,Claire,Jamie","reminds me of the little prince, with the color scheme and all,16,100,20","It's interesting. I'm not sure how I feel about it, but i enjoy the ghostly apparitions.,10,220,20","First saw sailing ship in bad weather but then saw woman in upper left - not sure what I'm seeing.,21,180,20","Bad guys are after the good guy.,-10,80,20","reminds me of greek mythology,22,260,20","Mash up of colors and don't see a grander picture,-10,320,20","Kelly","It's interesting. I'm not sure how I feel about it, but i enjoy the ghostly apparitions.,10,220,20","Claire","reminds me of greek mythology,22,260,20","Grace","First saw sailing ship in bad weather but then saw woman in upper left - not sure what I'm seeing.,21,180,20","2"
"20105","","survey-text","239","1986195","0.0-238.0-0.0","A1WH32GYQOHIRQ","","","","{""Q0"":""Like this one...raindrops on a window.""}","","","","","","","","","","","","","","","","","","","","","","",""
"7775.699999999255","","image-slider-response","240","1993973","0.0-239.0","A1WH32GYQOHIRQ","","","","","50","","","","","","","","","","","","","","","","","","","","","",""
"4131","","image-button-response","241","1998980","0.0-240.0","A1WH32GYQOHIRQ","img_art/13.jpg","5","","","","","","","","","","","","","","","","","","","","","","","","",""
"770","","image-button-response","242","1999755","0.0-241.0","A1WH32GYQOHIRQ","img_art/13.jpg","5","","","","","","","","","","","","","","","","","","","","","","","","",""
"795","","image-button-response","243","2000554","0.0-242.0-0.0","A1WH32GYQOHIRQ","img_art/13.jpg","4","","","","","","","","","","","","","","","","","","","","","","","","",""
"1912","","image-button-response","244","2002471","0.0-243.0-0.0","A1WH32GYQOHIRQ","img_art/13.jpg","2","","","","","","","","","","","","","","","","","","","","","","","","",""
"null","","html-keyboard-response","245","2003477","0.0-244.0","A1WH32GYQOHIRQ","<p style=""font-size: 48px;"">+</p>","","","","","null","allTrialResponses","1000","1","28","img_art/13.jpg","50","Like this one...raindrops on a window.","Mary,Kelly,Grace,Leslie,Claire,Rachel","I do not care for the colors in this art. it doesnt go well at all.,-15,180,20","I would hang this photo in my room.,21,220,20","Love the colors, love the abstractness, love this Jackson Pollock type painting.,48,180,20","This elicits no reaction in me.,0,380,20","love the colors and splatters,44,260,20","Peaceful colors.,20,80,20","Rachel","Peaceful colors.,20,80,20","Claire","love the colors and splatters,44,260,20","Grace","Love the colors, love the abstractness, love this Jackson Pollock type painting.,48,180,20","2"
"45157","","survey-text","246","2048646","0.0-245.0-0.0","A1WH32GYQOHIRQ","","","","{""Q0"":""This one seems rushed and careless.""}","","","","","","","","","","","","","","","","","","","","","","",""
"2438.39999999851","","image-slider-response","247","2051087","0.0-246.0","A1WH32GYQOHIRQ","","","","","-18","","","","","","","","","","","","","","","","","","","","","",""
"null","","image-button-response","248","2056094","0.0-247.0","A1WH32GYQOHIRQ","img_art/30.jpg","null","","","","","","","","","","","","","","","","","","","","","","","","",""
"2000","","image-button-response","249","2058097","0.0-248.0","A1WH32GYQOHIRQ","img_art/30.jpg","4","","","","","","","","","","","","","","","","","","","","","","","","",""
"3454","","image-button-response","250","2061553","0.0-249.0-0.0","A1WH32GYQOHIRQ","img_art/30.jpg","3","","","","","","","","","","","","","","","","","","","","","","","","",""
"3357","","image-button-response","251","2064914","0.0-250.0-0.0","A1WH32GYQOHIRQ","img_art/30.jpg","2","","","","","","","","","","","","","","","","","","","","","","","","",""
"null","","html-keyboard-response","252","2066417","0.0-251.0","A1WH32GYQOHIRQ","<p style=""font-size: 48px;"">+</p>","","","","","null","allTrialResponses","1500","1","29","img_art/30.jpg","-18","This one seems rushed and careless.","Jenna,Savannah,Grace,Katie,Claire,Rachel","love the movement of the brush strokes. very interesting piece.,38,360,20","Colors are nice but it just seems too simple.,-26,200,20","A little too dull. Would've liked brighter colors. Also looks washed out.,1,180,20","Soothing color palette, but doesn't look like anything. All I see are random brush strokes.,1,160,20","too segmented, looks sloppy,-37,260,20","I like this one because I am a mom and it reminds me of a child finger-painting.,20,80,20","Claire","too segmented, looks sloppy,-37,260,20","Katie","Soothing color palette, but doesn't look like anything. All I see are random brush strokes.,1,160,20","Grace","A little too dull. Would've liked brighter colors. Also looks washed out.,1,180,20","2"
"31604","","survey-text","253","2098029","0.0-252.0-0.0","A1WH32GYQOHIRQ","","","","{""Q0"":""I see a tree with silk scarves hung in it. Very tranquil and soothing.""}","","","","","","","","","","","","","","","","","","","","","","",""
"2966.300000000745","","image-slider-response","254","2100997","0.0-253.0","A1WH32GYQOHIRQ","","","","","44","","","","","","","","","","","","","","","","","","","","","",""
"null","","image-button-response","255","2106001","0.0-254.0","A1WH32GYQOHIRQ","img_art/17.jpg","null","","","","","","","","","","","","","","","","","","","","","","","","",""
"3475","","image-button-response","256","2109479","0.0-255.0","A1WH32GYQOHIRQ","img_art/17.jpg","3","","","","","","","","","","","","","","","","","","","","","","","","",""
"2029","","image-button-response","257","2111512","0.0-256.0-0.0","A1WH32GYQOHIRQ","img_art/17.jpg","4","","","","","","","","","","","","","","","","","","","","","","","","",""
"17074","","image-button-response","258","2128590","0.0-257.0-0.0","A1WH32GYQOHIRQ","img_art/17.jpg","1","","","","","","","","","","","","","","","","","","","","","","","","",""
"null","","html-keyboard-response","259","2129596","0.0-258.0","A1WH32GYQOHIRQ","<p style=""font-size: 48px;"">+</p>","","","","","null","allTrialResponses","1000","1","30","img_art/17.jpg","44","I see a tree with silk scarves hung in it. Very tranquil and soothing.","Emily,Paige,Grace,Katie,Claire,Chloe","There is better structure and direction in this one.,19,40,20","very pretty. Makes me happy,45,60,20","Reminds me of winters in Minnesota.,48,180,20","Is it a tree/plant of some sort?  Or, I see hair?  I don't get it. But, the colors are pleasing to me.,1,160,20","its whimsical and light,50,260,20","Pretty but a little cheesy,-10,220,20","Katie","Is it a tree/plant of some sort?  Or, I see hair?  I don't get it. But, the colors are pleasing to me.,1,160,20","Claire","its whimsical and light,50,260,20","Paige","very pretty. Makes me happy,45,60,20","2"
"4369","","image-button-response_instructions","260","2133979","0.0-259.0","A1WH32GYQOHIRQ","","0","instructions","","","","","","","","","","","","","","","","","","","","","","","",""
"1463","","image-button-response","261","2135450","0.0-260.0","A1WH32GYQOHIRQ","","0","","","","","","","","","","","","","","","","","","","","","","","","",""
