"rt","url","trial_type","trial_index","time_elapsed","internal_node_id","participant_id","stimulus","button_pressed","Name","responses","response","key_press","variableName","fixationTime","condition","trial","photo","subjectRating","subjectResponse","agentsNames","agent_1_Response","agent_2_Response","agent_3_Response","agent_4_Response","agent_5_Response","agent_6_Response","kept_1_name","kept_1_response","kept_2_name","kept_2_response","kept_3_name","kept_3_response","errorCounter"
"15780","external_page_harvard.html","external-html","0","16226","0.0-0.0","A1Y8BGDLPNYP0K","","","","","","","","","","","","","","","","","","","","","","","","","","",""
"2577","","image-button-response","1","18809","0.0-1.0","A1Y8BGDLPNYP0K","","1","","","","","","","","","","","","","","","","","","","","","","","","",""
"1797","","image-button-response","2","20619","0.0-2.0-0.0","A1Y8BGDLPNYP0K","","1","phone","","","","","","","","","","","","","","","","","","","","","","","",""
"3239","","survey-text","3","23861","0.0-3.0-0.0","A1Y8BGDLPNYP0K","","","","{""Q0"":""A1Y8BGDLPNYP0K""}","","","","","","","","","","","","","","","","","","","","","","",""
"5315","","image-button-response_instructions","4","29179","0.0-4.0","A1Y8BGDLPNYP0K","","0","instructions","","","","","","","","","","","","","","","","","","","","","","","",""
"16853","","image-button-response_instructions","5","46034","0.0-5.0","A1Y8BGDLPNYP0K","img_art/ins/popularity/ins1.png","0","instructions","","","","","","","","","","","","","","","","","","","","","","","",""
"6155","","image-button-response_instructions","6","52192","0.0-6.0","A1Y8BGDLPNYP0K","img_art/ins/popularity/ins2.png","0","instructions","","","","","","","","","","","","","","","","","","","","","","","",""
"4250","","image-button-response_instructions","7","56445","0.0-7.0","A1Y8BGDLPNYP0K","img_art/ins/popularity/ins2Extreme.png","0","instructions","","","","","","","","","","","","","","","","","","","","","","","",""
"2204","","image-button-response_instructions","8","58651","0.0-8.0","A1Y8BGDLPNYP0K","img_art/ins/popularity/ins3KEEPpop.PNG","0","instructions","","","","","","","","","","","","","","","","","","","","","","","",""
"1743","","image-button-response_instructions","9","60397","0.0-9.0","A1Y8BGDLPNYP0K","img_art/ins/popularity/ins3ANamepop.PNG","0","instructions","","","","","","","","","","","","","","","","","","","","","","","",""
"3385","","image-button-response_instructions","10","63784","0.0-10.0","A1Y8BGDLPNYP0K","img_art/ins/popularity/ins3ARatingpop.png","0","instructions","","","","","","","","","","","","","","","","","","","","","","","",""
"3247","","image-button-response_instructions","11","67032","0.0-11.0","A1Y8BGDLPNYP0K","img_art/ins/popularity/ins3ATextpop.png","0","instructions","","","","","","","","","","","","","","","","","","","","","","","",""
"2100","","image-button-response_instructions","12","69133","0.0-12.0","A1Y8BGDLPNYP0K","img_art/ins/popularity/ins3ALikespop.png","0","instructions","","","","","","","","","","","","","","","","","","","","","","","",""
"2212","","image-button-response_instructions","13","71348","0.0-13.0","A1Y8BGDLPNYP0K","img_art/ins/popularity/ins3KEEPpop.PNG","0","instructions","","","","","","","","","","","","","","","","","","","","","","","",""
"1582","","image-button-response_instructions","14","72934","0.0-14.0","A1Y8BGDLPNYP0K","img_art/ins/popularity/ins3_5RED.png","0","instructions","","","","","","","","","","","","","","","","","","","","","","","",""
"1343","","image-button-response_instructions","15","74279","0.0-15.0","A1Y8BGDLPNYP0K","img_art/ins/popularity/ins3KEEPpop.PNG","0","instructions","","","","","","","","","","","","","","","","","","","","","","","",""
"2991","","image-button-response_instructions","16","77273","0.0-16.0","A1Y8BGDLPNYP0K","img_art/ins/popularity/ins4KEEPpop.PNG","0","instructions","","","","","","","","","","","","","","","","","","","","","","","",""
"1950","","image-button-response_instructions","17","79225","0.0-17.0","A1Y8BGDLPNYP0K","img_art/ins/popularity/ins5KEEPpop.PNG","0","instructions","","","","","","","","","","","","","","","","","","","","","","","",""
"3723","","image-button-response_instructions","18","82949","0.0-18.0","A1Y8BGDLPNYP0K","","0","instructions","","","","","","","","","","","","","","","","","","","","","","","",""
"14156","","survey-text","19","97136","0.0-19.0-0.0","A1Y8BGDLPNYP0K","","","","{""Q0"":""BUT""}","","","","","","","","","","","","","","","","","","","","","","",""
"4804","","survey-text","20","104788","0.0-19.1-0.1","A1Y8BGDLPNYP0K","","","","{""Q0"":""but""}","","","","","","","","","","","","","","","","","","","","","","",""
"10941","","survey-text","21","115730","0.0-20.0-0.0","A1Y8BGDLPNYP0K","","","","{""Q0"":""colorful""}","","","","","","","","","","","","","","","","","","","","","","",""
"3130","","image-slider-response","22","118863","0.0-21.0","A1Y8BGDLPNYP0K","","","","","8","","","","","","","","","","","","","","","","","","","","","",""
"4212","","image-button-response","23","123868","0.0-22.0","A1Y8BGDLPNYP0K","img_art/ins/1.jpg","1","","","","","","","","","","","","","","","","","","","","","","","","",""
"239","","image-button-response","24","124109","0.0-23.0","A1Y8BGDLPNYP0K","img_art/ins/1.jpg","0","","","","","","","","","","","","","","","","","","","","","","","","",""
"31435","","image-button-response","25","155548","0.0-24.0-0.0","A1Y8BGDLPNYP0K","img_art/ins/1.jpg","4","","","","","","","","","","","","","","","","","","","","","","","","",""
"1057","","image-button-response","26","156611","0.0-25.0-0.0","A1Y8BGDLPNYP0K","img_art/ins/1.jpg","0","","","","","","","","","","","","","","","","","","","","","","","","",""
"1846","","image-button-response","27","161972","0.0-25.1-0.1","A1Y8BGDLPNYP0K","img_art/ins/1.jpg","0","","","","","","","","","","","","","","","","","","","","","","","","",""
"1818","","image-button-response","28","166433","0.0-25.2-0.2","A1Y8BGDLPNYP0K","img_art/ins/1.jpg","2","","","","","","","","","","","","","","","","","","","","","","","","",""
"null","","html-keyboard-response","29","167938","0.0-26.0","A1Y8BGDLPNYP0K","<p style=""font-size: 48px;"">+</p>","","","","","null","allTrialResponses","1500","1","-2","img_art/ins/1.jpg","8","colorful","Allison,Ashley,Beth,Dora,Erika,Jen","looks like a lot of things going on in the mist,20,20,20","I just don't get why these type of art would be popular,-32,40,20","This color reminds me of poo,-46,60,20","looks like what my niece in 3rd grade did this afternoon,-50,80,20","I like the sophisticated brushwork,40,100,20","It reminds me of a candy land dream I had,36,120,20","Allison","looks like a lot of things going on in the mist,20,20,20","Erika","I like the sophisticated brushwork,40,100,20","Beth","This color reminds me of poo,-46,60,20","5"
"13582","","survey-text","30","181531","0.0-27.0-0.0","A1Y8BGDLPNYP0K","","","","{""Q0"":""nice ""}","","","","","","","","","","","","","","","","","","","","","","",""
"9342","","survey-text","31","192196","0.0-27.1-0.1","A1Y8BGDLPNYP0K","","","","{""Q0"":""good""}","","","","","","","","","","","","","","","","","","","","","","",""
"10166","","survey-text","32","204898","0.0-27.2-0.2","A1Y8BGDLPNYP0K","","","","{""Q0"":""good drawing""}","","","","","","","","","","","","","","","","","","","","","","",""
"10480","","image-slider-response","33","215382","0.0-28.0","A1Y8BGDLPNYP0K","","","","","6","","","","","","","","","","","","","","","","","","","","","",""
"3166","","image-button-response","34","220395","0.0-29.0","A1Y8BGDLPNYP0K","img_art/ins/2.jpg","3","","","","","","","","","","","","","","","","","","","","","","","","",""
"1092","","image-button-response","35","221490","0.0-30.0","A1Y8BGDLPNYP0K","img_art/ins/2.jpg","5","","","","","","","","","","","","","","","","","","","","","","","","",""
"2409","","image-button-response","36","223901","0.0-31.0-0.0","A1Y8BGDLPNYP0K","img_art/ins/2.jpg","2","","","","","","","","","","","","","","","","","","","","","","","","",""
"1128","","image-button-response","37","225034","0.0-32.0-0.0","A1Y8BGDLPNYP0K","img_art/ins/2.jpg","1","","","","","","","","","","","","","","","","","","","","","","","","",""
"null","","html-keyboard-response","38","226536","0.0-33.0","A1Y8BGDLPNYP0K","<p style=""font-size: 48px;"">+</p>","","","","","null","allTrialResponses","1500","1","-1","img_art/ins/2.jpg","6","good drawing","Allison,Kara,Beth,Jenna,Erika,Katie","I don't have strong feelings about this,10,20,20","I like the blocks of color arrangements,30,160,20","meaningless painting,-45,60,20","One of my pet peevs,-48,140,20","I would never be able to compose a sophisticated pallete like this,48,100,20","too much color!,-28,180,20","Katie","too much color!,-28,180,20","Beth","meaningless painting,-45,60,20","Kara","I like the blocks of color arrangements,30,160,20","5"
"15292","","survey-text","39","241836","0.0-34.0-0.0","A1Y8BGDLPNYP0K","","","","{""Q0"":""blue color is nice ""}","","","","","","","","","","","","","","","","","","","","","","",""
"3775","","image-slider-response","40","245614","0.0-35.0","A1Y8BGDLPNYP0K","","","","","22","","","","","","","","","","","","","","","","","","","","","",""
"2540","","image-button-response","41","250618","0.0-36.0","A1Y8BGDLPNYP0K","img_art/ins/3.jpg","4","","","","","","","","","","","","","","","","","","","","","","","","",""
"1527","","image-button-response","42","252148","0.0-37.0","A1Y8BGDLPNYP0K","img_art/ins/3.jpg","0","","","","","","","","","","","","","","","","","","","","","","","","",""
"1162","","image-button-response","43","253314","0.0-38.0-0.0","A1Y8BGDLPNYP0K","img_art/ins/3.jpg","2","","","","","","","","","","","","","","","","","","","","","","","","",""
"1565","","image-button-response","44","254883","0.0-39.0-0.0","A1Y8BGDLPNYP0K","img_art/ins/3.jpg","4","","","","","","","","","","","","","","","","","","","","","","","","",""
"null","","html-keyboard-response","45","256387","0.0-40.0","A1Y8BGDLPNYP0K","<p style=""font-size: 48px;"">+</p>","","","","","null","allTrialResponses","1500","1","0","img_art/ins/3.jpg","22","blue color is nice ","Rose,Kara,Beth,Leslie,Mary,Katie","My daily routine, it's depressing,-20,240,20","calming blue is very nice,36,160,20","This thing gives me anxiety,-41,60,20","It's an alright work,15,200,20","I like the overlapping of brushes,41,220,20","It looks depressing,-26,180,20","Rose","My daily routine, it's depressing,-20,240,20","Beth","This thing gives me anxiety,-41,60,20","Mary","I like the overlapping of brushes,41,220,20","5"
"6401","","image-button-response_instructions","46","262797","0.0-41.0","A1Y8BGDLPNYP0K","","0","instructions","","","","","","","","","","","","","","","","","","","","","","","",""
"11983","","survey-likert","47","274784","0.0-42.0-0.0","A1Y8BGDLPNYP0K","","","","{""Q0"":"""",""Q1"":1,""Q2"":1}","","","","","","","","","","","","","","","","","","","","","","",""
"2250","","survey-likert","48","279963","0.0-42.1-0.1","A1Y8BGDLPNYP0K","","","","{""Q0"":"""",""Q1"":0,""Q2"":""""}","","","","","","","","","","","","","","","","","","","","","","",""
"2180","","survey-likert","49","283896","0.0-42.2-0.2","A1Y8BGDLPNYP0K","","","","{""Q0"":"""",""Q1"":"""",""Q2"":0}","","","","","","","","","","","","","","","","","","","","","","",""
"5497","","survey-likert","50","293988","0.0-42.3-0.3","A1Y8BGDLPNYP0K","","","","{""Q0"":"""",""Q1"":0,""Q2"":1}","","","","","","","","","","","","","","","","","","","","","","",""
"9704","","survey-text","51","303699","0.0-43.0-0.0","A1Y8BGDLPNYP0K","","","","{""Q0"":""rock""}","","","","","","","","","","","","","","","","","","","","","","",""
"19808","","survey-text","52","323511","0.0-44.0-0.0","A1Y8BGDLPNYP0K","","","","{""Q0"":""nice picture""}","","","","","","","","","","","","","","","","","","","","","","",""
"8273","","image-slider-response","53","331788","0.0-45.0","A1Y8BGDLPNYP0K","","","","","15","","","","","","","","","","","","","","","","","","","","","",""
"3792","","image-button-response","54","336815","0.0-46.0","A1Y8BGDLPNYP0K","img_art/7.jpg","5","","","","","","","","","","","","","","","","","","","","","","","","",""
"818","","image-button-response","55","337636","0.0-47.0","A1Y8BGDLPNYP0K","img_art/7.jpg","2","","","","","","","","","","","","","","","","","","","","","","","","",""
"1062","","image-button-response","56","338700","0.0-48.0-0.0","A1Y8BGDLPNYP0K","img_art/7.jpg","0","","","","","","","","","","","","","","","","","","","","","","","","",""
"998","","image-button-response","57","339701","0.0-49.0-0.0","A1Y8BGDLPNYP0K","img_art/7.jpg","4","","","","","","","","","","","","","","","","","","","","","","","","",""
"null","","html-keyboard-response","58","340205","0.0-50.0","A1Y8BGDLPNYP0K","<p style=""font-size: 48px;"">+</p>","","","","","null","allTrialResponses","500","1","1","img_art/7.jpg","15","nice picture","Amy,Mariah,Haley,Sarah,Christina,Katie","Limited emotional reaction for me. No focus and highly abstract,-20,220,20","The dried bottom of a puddle in July.,-41,140,20","Confusion, mild aversion,-36,220,20","i kind of like this, it looks like a photo of a planet's surface,16,180,20","looks like the surface of the moon,-28,240,20","I see dryness, which is sad. Dirt, sand, the dessert. Barren dry lifeless,-30,160,20","Haley","Confusion, mild aversion,-36,220,20","Amy","Limited emotional reaction for me. No focus and highly abstract,-20,220,20","Christina","looks like the surface of the moon,-28,240,20","8"
"13857","","survey-text","59","354068","0.0-51.0-0.0","A1Y8BGDLPNYP0K","","","","{""Q0"":""lady drawing ""}","","","","","","","","","","","","","","","","","","","","","","",""
"4044","","image-slider-response","60","358115","0.0-52.0","A1Y8BGDLPNYP0K","","","","","25","","","","","","","","","","","","","","","","","","","","","",""
"3502","","image-button-response","61","363119","0.0-53.0","A1Y8BGDLPNYP0K","img_art/25.jpg","3","","","","","","","","","","","","","","","","","","","","","","","","",""
"290","","image-button-response","62","363412","0.0-54.0","A1Y8BGDLPNYP0K","img_art/25.jpg","4","","","","","","","","","","","","","","","","","","","","","","","","",""
"1459","","image-button-response","63","364875","0.0-55.0-0.0","A1Y8BGDLPNYP0K","img_art/25.jpg","0","","","","","","","","","","","","","","","","","","","","","","","","",""
"607","","image-button-response","64","365487","0.0-56.0-0.0","A1Y8BGDLPNYP0K","img_art/25.jpg","2","","","","","","","","","","","","","","","","","","","","","","","","",""
"null","","html-keyboard-response","65","366491","0.0-57.0","A1Y8BGDLPNYP0K","<p style=""font-size: 48px;"">+</p>","","","","","null","allTrialResponses","1000","1","2","img_art/25.jpg","25","lady drawing ","Amy,Kayla,Haley,Paige,Christina,Rebecca","The limited palette make this figure mysterious and interpret-able.,20,220,20","Ghosts are NOT my thing.,-13,180,20","I like the design but the brightness of the color feels almost blinding to me.,-3,220,20","reminds me of ancient history which makes me happy,40,60,20","nice colors and it looks like a native work,32,240,20","I'm sorry but I don't uderstand this,-20,100,20","Christina","nice colors and it looks like a native work,32,240,20","Amy","The limited palette make this figure mysterious and interpret-able.,20,220,20","Haley","I like the design but the brightness of the color feels almost blinding to me.,-3,220,20","8"
"14594","","survey-text","66","381090","0.0-58.0-0.0","A1Y8BGDLPNYP0K","","","","{""Q0"":""i am not like it""}","","","","","","","","","","","","","","","","","","","","","","",""
"5656","","image-slider-response","67","386748","0.0-59.0","A1Y8BGDLPNYP0K","","","","","14","","","","","","","","","","","","","","","","","","","","","",""
"4384","","image-button-response","68","391751","0.0-60.0","A1Y8BGDLPNYP0K","img_art/6.jpg","2","","","","","","","","","","","","","","","","","","","","","","","","",""
"1115","","image-button-response","69","392869","0.0-61.0","A1Y8BGDLPNYP0K","img_art/6.jpg","0","","","","","","","","","","","","","","","","","","","","","","","","",""
"487","","image-button-response","70","393360","0.0-62.0-0.0","A1Y8BGDLPNYP0K","img_art/6.jpg","1","","","","","","","","","","","","","","","","","","","","","","","","",""
"861","","image-button-response","71","394223","0.0-63.0-0.0","A1Y8BGDLPNYP0K","img_art/6.jpg","4","","","","","","","","","","","","","","","","","","","","","","","","",""
"null","","html-keyboard-response","72","395225","0.0-64.0","A1Y8BGDLPNYP0K","<p style=""font-size: 48px;"">+</p>","","","","","null","allTrialResponses","1000","1","3","img_art/6.jpg","14","i am not like it","Amy,Angelica,Haley,Andrea,Christina,Crystal","Lack of context makes this painting 1-d for me. The headless bird is mysterious and indecipherable.,-10,220,20","It feels sad but it's nice to look at.,4,280,20","I like the color and the gradient,10,220,20","So forlorn, and beauty amid desolation.,25,240,20","i like the simplicity of the tree and the colors,50,240,20","Gives me a feeling of solitude and nothingness,11,300,20","Amy","Lack of context makes this painting 1-d for me. The headless bird is mysterious and indecipherable.,-10,220,20","Angelica","It feels sad but it's nice to look at.,4,280,20","Christina","i like the simplicity of the tree and the colors,50,240,20","8"
"26050","","survey-text","73","421291","0.0-65.0-0.0","A1Y8BGDLPNYP0K","","","","{""Q0"":""i am not like it""}","","","","","","","","","","","","","","","","","","","","","","",""
"4745","","image-slider-response","74","426039","0.0-66.0","A1Y8BGDLPNYP0K","","","","","-19","","","","","","","","","","","","","","","","","","","","","",""
"4542","","image-button-response","75","431043","0.0-67.0","A1Y8BGDLPNYP0K","img_art/28.jpg","5","","","","","","","","","","","","","","","","","","","","","","","","",""
"625","","image-button-response","76","431671","0.0-68.0","A1Y8BGDLPNYP0K","img_art/28.jpg","0","","","","","","","","","","","","","","","","","","","","","","","","",""
"722","","image-button-response","77","432395","0.0-69.0-0.0","A1Y8BGDLPNYP0K","img_art/28.jpg","2","","","","","","","","","","","","","","","","","","","","","","","","",""
"795","","image-button-response","78","433194","0.0-70.0-0.0","A1Y8BGDLPNYP0K","img_art/28.jpg","4","","","","","","","","","","","","","","","","","","","","","","","","",""
"null","","html-keyboard-response","79","434195","0.0-71.0","A1Y8BGDLPNYP0K","<p style=""font-size: 48px;"">+</p>","","","","","null","allTrialResponses","1000","1","4","img_art/28.jpg","-19","i am not like it","Amy,Angelica,Hailey,Anna,Christina,Lauren","Contemplative and a little dark. The muted colors and subject create a sense of mystery.,15,220,20","This is very ugly with poor colors.,-23,280,20","an old woman in a wheelchair. sad,-35,200,20","It's drab and looks like stereotypical abstract art.,-30,300,20","very blah colors and it's not fun,-27,240,20","I feel that the image is invoking a sense of negativity.,-15,340,20","Amy","Contemplative and a little dark. The muted colors and subject create a sense of mystery.,15,220,20","Hailey","an old woman in a wheelchair. sad,-35,200,20","Christina","very blah colors and it's not fun,-27,240,20","8"
"30997","","survey-text","80","465198","0.0-72.0-0.0","A1Y8BGDLPNYP0K","","","","{""Q0"":""war concept drawing ""}","","","","","","","","","","","","","","","","","","","","","","",""
"3278","","image-slider-response","81","468478","0.0-73.0","A1Y8BGDLPNYP0K","","","","","22","","","","","","","","","","","","","","","","","","","","","",""
"4159","","image-button-response","82","473485","0.0-74.0","A1Y8BGDLPNYP0K","img_art/18.jpg","4","","","","","","","","","","","","","","","","","","","","","","","","",""
"2017","","image-button-response","83","475506","0.0-75.0","A1Y8BGDLPNYP0K","img_art/18.jpg","4","","","","","","","","","","","","","","","","","","","","","","","","",""
"1109","","image-button-response","84","476620","0.0-76.0-0.0","A1Y8BGDLPNYP0K","img_art/18.jpg","0","","","","","","","","","","","","","","","","","","","","","","","","",""
"1659","","image-button-response","85","478283","0.0-77.0-0.0","A1Y8BGDLPNYP0K","img_art/18.jpg","2","","","","","","","","","","","","","","","","","","","","","","","","",""
"null","","html-keyboard-response","86","479284","0.0-78.0","A1Y8BGDLPNYP0K","<p style=""font-size: 48px;"">+</p>","","","","","null","allTrialResponses","1000","1","5","img_art/18.jpg","22","war concept drawing ","Amy,Kimberly,Hailey,Briana,Christina,Erika","So much going on. Frightening and tumultous, brave and inspiring. I'd like to spend the rest of my life interpreting it.,30,220,20","I enjoy the detailed line work in this one,21,260,20","i like the colors. outerspace,21,200,20","Two people fighting with one watching,17,400,20","it looks dreary and not uplifting,-10,240,20","Gently chaotic and beautiful,40,100,20","Christina","it looks dreary and not uplifting,-10,240,20","Amy","So much going on. Frightening and tumultous, brave and inspiring. I'd like to spend the rest of my life interpreting it.,30,220,20","Hailey","i like the colors. outerspace,21,200,20","8"
"4987","","survey-text","87","484280","0.0-79.0-0.0","A1Y8BGDLPNYP0K","","","","{""Q0"":""sky""}","","","","","","","","","","","","","","","","","","","","","","",""
"15184","","survey-text","88","499466","0.0-80.0-0.0","A1Y8BGDLPNYP0K","","","","{""Q0"":""river in the picture ""}","","","","","","","","","","","","","","","","","","","","","","",""
"9326","","image-slider-response","89","508795","0.0-81.0","A1Y8BGDLPNYP0K","","","","","14","","","","","","","","","","","","","","","","","","","","","",""
"null","","image-button-response","90","513799","0.0-82.0","A1Y8BGDLPNYP0K","img_art/24.jpg","null","","","","","","","","","","","","","","","","","","","","","","","","",""
"15419","","image-button-response","91","529224","0.0-83.0","A1Y8BGDLPNYP0K","img_art/24.jpg","1","","","","","","","","","","","","","","","","","","","","","","","","",""
"796","","image-button-response","92","530025","0.0-84.0-0.0","A1Y8BGDLPNYP0K","img_art/24.jpg","3","","","","","","","","","","","","","","","","","","","","","","","","",""
"559","","image-button-response","93","530587","0.0-85.0-0.0","A1Y8BGDLPNYP0K","img_art/24.jpg","4","","","","","","","","","","","","","","","","","","","","","","","","",""
"null","","html-keyboard-response","94","532089","0.0-86.0","A1Y8BGDLPNYP0K","<p style=""font-size: 48px;"">+</p>","","","","","null","allTrialResponses","1500","1","6","img_art/24.jpg","14","river in the picture ","Amy,Molly,Hailey,Miranda,Christina,Grace","The contorted angles of the flowing water upset the harmony,-20,220,20","Extraordinary and unusual.,30,340,20","warm spring day after a rain. soft,20,200,20","I find the colors work really well. It's very pretty but I have no idea as what it is.,34,320,20","I like how it looks like a waterfall in an exotic place,50,240,20","Abstract falls & nature.,41,180,20","Molly","Extraordinary and unusual.,30,340,20","Miranda","I find the colors work really well. It's very pretty but I have no idea as what it is.,34,320,20","Christina","I like how it looks like a waterfall in an exotic place,50,240,20","8"
"13201","","survey-text","95","545299","0.0-87.0-0.0","A1Y8BGDLPNYP0K","","","","{""Q0"":""wow very nice ""}","","","","","","","","","","","","","","","","","","","","","","",""
"4843","","image-slider-response","96","550145","0.0-88.0","A1Y8BGDLPNYP0K","","","","","19","","","","","","","","","","","","","","","","","","","","","",""
"1062","","image-button-response","97","555147","0.0-89.0","A1Y8BGDLPNYP0K","img_art/10.jpg","4","","","","","","","","","","","","","","","","","","","","","","","","",""
"168","","image-button-response","98","555323","0.0-90.0","A1Y8BGDLPNYP0K","img_art/10.jpg","5","","","","","","","","","","","","","","","","","","","","","","","","",""
"3020","","image-button-response","99","558346","0.0-91.0-0.0","A1Y8BGDLPNYP0K","img_art/10.jpg","3","","","","","","","","","","","","","","","","","","","","","","","","",""
"1072","","image-button-response","100","559423","0.0-92.0-0.0","A1Y8BGDLPNYP0K","img_art/10.jpg","2","","","","","","","","","","","","","","","","","","","","","","","","",""
"null","","html-keyboard-response","101","560926","0.0-93.0","A1Y8BGDLPNYP0K","<p style=""font-size: 48px;"">+</p>","","","","","null","allTrialResponses","1500","1","7","img_art/10.jpg","19","wow very nice ","Chelsea,Molly,Sophia,Miranda,Christina,Caroline","It looks intricate.,15,180,20","For me, it looks like a giant ship on the sea and it's astonishing.,30,340,20","This piece is very intriguing to me.,3,280,20","It reminds me of how my dog has to run all over the place just to poop in one specific location.,-20,320,20","It's very dark and angry looking,-31,240,20","This painting made me think of a guitar which made me think of music which envoked happy feelings.,28,100,20","Caroline","This painting made me think of a guitar which made me think of music which envoked happy feelings.,28,100,20","Miranda","It reminds me of how my dog has to run all over the place just to poop in one specific location.,-20,320,20","Sophia","This piece is very intriguing to me.,3,280,20","8"
"45586","","survey-text","102","606528","0.0-94.0-0.0","A1Y8BGDLPNYP0K","","","","{""Q0"":""very good drawing ""}","","","","","","","","","","","","","","","","","","","","","","",""
"2745","","image-slider-response","103","609276","0.0-95.0","A1Y8BGDLPNYP0K","","","","","31","","","","","","","","","","","","","","","","","","","","","",""
"4575","","image-button-response","104","614280","0.0-96.0","A1Y8BGDLPNYP0K","img_art/11.jpg","1","","","","","","","","","","","","","","","","","","","","","","","","",""
"322","","image-button-response","105","614605","0.0-97.0","A1Y8BGDLPNYP0K","img_art/11.jpg","4","","","","","","","","","","","","","","","","","","","","","","","","",""
"1436","","image-button-response","106","616044","0.0-98.0-0.0","A1Y8BGDLPNYP0K","img_art/11.jpg","2","","","","","","","","","","","","","","","","","","","","","","","","",""
"851","","image-button-response","107","616900","0.0-99.0-0.0","A1Y8BGDLPNYP0K","img_art/11.jpg","0","","","","","","","","","","","","","","","","","","","","","","","","",""
"null","","html-keyboard-response","108","617903","0.0-100.0","A1Y8BGDLPNYP0K","<p style=""font-size: 48px;"">+</p>","","","","","null","allTrialResponses","1000","1","8","img_art/11.jpg","31","very good drawing ","Hannah,Cassandra,Sophia,Miranda,Maria,Caroline","Is interesting. Wouldn't bother me to have this hanging where I'd see it every day.,11,240,20","I liked it it looked like an roller coasters at an amusment park.,16,120,20","WOW!  I love how the ships and the seas become one in this piece.,50,280,20","This one is a little erie, gives me post-apocalyptic feeling,27,320,20","I enjoy the kandinsky-like general vibe, but the grey brings me down a bit,27,120,20","Makes me think of far away places and traveling. Makes me feel like wandering,20,100,20","Maria","I enjoy the kandinsky-like general vibe, but the grey brings me down a bit,27,120,20","Sophia","WOW!  I love how the ships and the seas become one in this piece.,50,280,20","Hannah","Is interesting. Wouldn't bother me to have this hanging where I'd see it every day.,11,240,20","8"
"14463","","survey-text","109","632375","0.0-101.0-0.0","A1Y8BGDLPNYP0K","","","","{""Q0"":""colorful painting ""}","","","","","","","","","","","","","","","","","","","","","","",""
"3081","","image-slider-response","110","635462","0.0-102.0","A1Y8BGDLPNYP0K","","","","","17","","","","","","","","","","","","","","","","","","","","","",""
"3305","","image-button-response","111","640465","0.0-103.0","A1Y8BGDLPNYP0K","img_art/2.jpg","5","","","","","","","","","","","","","","","","","","","","","","","","",""
"1228","","image-button-response","112","641695","0.0-104.0","A1Y8BGDLPNYP0K","img_art/2.jpg","1","","","","","","","","","","","","","","","","","","","","","","","","",""
"1015","","image-button-response","113","642717","0.0-105.0-0.0","A1Y8BGDLPNYP0K","img_art/2.jpg","3","","","","","","","","","","","","","","","","","","","","","","","","",""
"864","","image-button-response","114","643585","0.0-106.0-0.0","A1Y8BGDLPNYP0K","img_art/2.jpg","5","","","","","","","","","","","","","","","","","","","","","","","","",""
"null","","html-keyboard-response","115","644588","0.0-107.0","A1Y8BGDLPNYP0K","<p style=""font-size: 48px;"">+</p>","","","","","null","allTrialResponses","1000","1","9","img_art/2.jpg","17","colorful painting ","Hannah,Sydney,Sophia,Kylie,Maria,Cynthia","Looks like child's art.,-19,240,20","I like the color, but I feel like I see a creepy face which I dislike.,-5,320,20","I'm not fond of the colors in this one.,-33,280,20","Not very appealing,-5,300,20","again, I struggle to see the art and I dislike the green in particular.,-31,120,20","Confused and disoriented,-33,320,20","Sydney","I like the color, but I feel like I see a creepy face which I dislike.,-5,320,20","Kylie","Not very appealing,-5,300,20","Cynthia","Confused and disoriented,-33,320,20","8"
"20569","","survey-text","116","665169","0.0-108.0-0.0","A1Y8BGDLPNYP0K","","","","{""Q0"":""very beautiful ""}","","","","","","","","","","","","","","","","","","","","","","",""
"3377","","image-slider-response","117","668549","0.0-109.0","A1Y8BGDLPNYP0K","","","","","26","","","","","","","","","","","","","","","","","","","","","",""
"2274","","image-button-response","118","673552","0.0-110.0","A1Y8BGDLPNYP0K","img_art/27.jpg","4","","","","","","","","","","","","","","","","","","","","","","","","",""
"763","","image-button-response","119","674318","0.0-111.0","A1Y8BGDLPNYP0K","img_art/27.jpg","4","","","","","","","","","","","","","","","","","","","","","","","","",""
"1095","","image-button-response","120","675417","0.0-112.0-0.0","A1Y8BGDLPNYP0K","img_art/27.jpg","0","","","","","","","","","","","","","","","","","","","","","","","","",""
"753","","image-button-response","121","676175","0.0-113.0-0.0","A1Y8BGDLPNYP0K","img_art/27.jpg","2","","","","","","","","","","","","","","","","","","","","","","","","",""
"null","","html-keyboard-response","122","676676","0.0-114.0","A1Y8BGDLPNYP0K","<p style=""font-size: 48px;"">+</p>","","","","","null","allTrialResponses","500","1","10","img_art/27.jpg","26","very beautiful ","Alexa,Sydney,Courtney,Kylie,Kaylee,Cynthia","I love the mood of this painting,30,40,20","This piece reminds me of a summer day.,30,320,20","A fall mess going on here,2,280,20","Soothing in the middle of some confusion,40,300,20","nice firestorm on desert,23,200,20","dirty and misunderstood,-47,320,20","Kaylee","nice firestorm on desert,23,200,20","Alexa","I love the mood of this painting,30,40,20","Courtney","A fall mess going on here,2,280,20","8"
"5106","","survey-text","123","681797","0.0-115.0-0.0","A1Y8BGDLPNYP0K","","","","{""Q0"":""our""}","","","","","","","","","","","","","","","","","","","","","","",""
"21513","","survey-text","124","703313","0.0-116.0-0.0","A1Y8BGDLPNYP0K","","","","{""Q0"":""very different painting ""}","","","","","","","","","","","","","","","","","","","","","","",""
"2886","","image-slider-response","125","706202","0.0-117.0","A1Y8BGDLPNYP0K","","","","","33","","","","","","","","","","","","","","","","","","","","","",""
"null","","image-button-response","126","711205","0.0-118.0","A1Y8BGDLPNYP0K","img_art/12.jpg","null","","","","","","","","","","","","","","","","","","","","","","","","",""
"1445","","image-button-response","127","712654","0.0-119.0","A1Y8BGDLPNYP0K","img_art/12.jpg","3","","","","","","","","","","","","","","","","","","","","","","","","",""
"870","","image-button-response","128","713528","0.0-120.0-0.0","A1Y8BGDLPNYP0K","img_art/12.jpg","0","","","","","","","","","","","","","","","","","","","","","","","","",""
"649","","image-button-response","129","714181","0.0-121.0-0.0","A1Y8BGDLPNYP0K","img_art/12.jpg","2","","","","","","","","","","","","","","","","","","","","","","","","",""
"null","","html-keyboard-response","130","714687","0.0-122.0","A1Y8BGDLPNYP0K","<p style=""font-size: 48px;"">+</p>","","","","","null","allTrialResponses","500","1","11","img_art/12.jpg","33","very different painting ","Alexa,Savannah,Courtney,Claire,Kaylee,Morgan","I love the pattern and this looks like it took a good deal of effort,35,40,20","Almost natural flowing between abstract sections.,27,200,20","That is a warn quilt grama made.,11,280,20","i like the repetition,30,260,20","wtf is that i dont get it,-50,200,20","Ugly color combinations, no focus.,-25,380,20","Claire","i like the repetition,30,260,20","Alexa","I love the pattern and this looks like it took a good deal of effort,35,40,20","Courtney","That is a warn quilt grama made.,11,280,20","8"
"25988","","survey-text","131","740681","0.0-123.0-0.0","A1Y8BGDLPNYP0K","","","","{""Q0"":""nice painting""}","","","","","","","","","","","","","","","","","","","","","","",""
"3996","","image-slider-response","132","744681","0.0-124.0","A1Y8BGDLPNYP0K","","","","","30","","","","","","","","","","","","","","","","","","","","","",""
"4368","","image-button-response","133","749684","0.0-125.0","A1Y8BGDLPNYP0K","img_art/30.jpg","2","","","","","","","","","","","","","","","","","","","","","","","","",""
"186","","image-button-response","134","749873","0.0-126.0","A1Y8BGDLPNYP0K","img_art/30.jpg","5","","","","","","","","","","","","","","","","","","","","","","","","",""
"377","","image-button-response","135","750255","0.0-127.0-0.0","A1Y8BGDLPNYP0K","img_art/30.jpg","4","","","","","","","","","","","","","","","","","","","","","","","","",""
"462","","image-button-response","136","750720","0.0-128.0-0.0","A1Y8BGDLPNYP0K","img_art/30.jpg","3","","","","","","","","","","","","","","","","","","","","","","","","",""
"null","","html-keyboard-response","137","751223","0.0-129.0","A1Y8BGDLPNYP0K","<p style=""font-size: 48px;"">+</p>","","","","","null","allTrialResponses","500","1","12","img_art/30.jpg","30","nice painting","Alexa,Kelly,Courtney,Claire,Elizabeth,Alicia","Looks quite basic but the colors are nice and there is a wildness about it that I love,0,40,20","The red helps it to pop.,13,220,20","Some people dancing.,-7,280,20","too segmented, looks sloppy,-37,260,20","Love the bold brush strokes and the illusion it creates,50,20,20","Neat, but simple, I could make this. not skilled.,9,120,20","Alicia","Neat, but simple, I could make this. not skilled.,9,120,20","Elizabeth","Love the bold brush strokes and the illusion it creates,50,20,20","Claire","too segmented, looks sloppy,-37,260,20","8"
"21293","","survey-text","138","772528","0.0-130.0-0.0","A1Y8BGDLPNYP0K","","","","{""Q0"":""black color painting is very nice ""}","","","","","","","","","","","","","","","","","","","","","","",""
"6918","","image-slider-response","139","779448","0.0-131.0","A1Y8BGDLPNYP0K","","","","","19","","","","","","","","","","","","","","","","","","","","","",""
"null","","image-button-response","140","784449","0.0-132.0","A1Y8BGDLPNYP0K","img_art/15.jpg","null","","","","","","","","","","","","","","","","","","","","","","","","",""
"230","","image-button-response","141","784682","0.0-133.0","A1Y8BGDLPNYP0K","img_art/15.jpg","1","","","","","","","","","","","","","","","","","","","","","","","","",""
"1139","","image-button-response","142","785825","0.0-134.0-0.0","A1Y8BGDLPNYP0K","img_art/15.jpg","5","","","","","","","","","","","","","","","","","","","","","","","","",""
"662","","image-button-response","143","786489","0.0-135.0-0.0","A1Y8BGDLPNYP0K","img_art/15.jpg","3","","","","","","","","","","","","","","","","","","","","","","","","",""
"null","","html-keyboard-response","144","786991","0.0-136.0","A1Y8BGDLPNYP0K","<p style=""font-size: 48px;"">+</p>","","","","","null","allTrialResponses","500","1","13","img_art/15.jpg","19","black color painting is very nice ","Jenna,Jasmine,Sara,Claire,Elizabeth,Alicia","interesting technique. the blue is very pretty,18,360,20","I like it as the colors complement each other well,21,340,20","I don't like the black dots,-19,160,20","it's alright but a little cluttered,14,260,20","Perfect Abstract painting,50,20,20","It's ok, it makes me think. That's something I guess.,8,120,20","Jasmine","I like it as the colors complement each other well,21,340,20","Alicia","It's ok, it makes me think. That's something I guess.,8,120,20","Claire","it's alright but a little cluttered,14,260,20","8"
"32191","","survey-text","145","819189","0.0-137.0-0.0","A1Y8BGDLPNYP0K","","","","{""Q0"":""face is very nice ""}","","","","","","","","","","","","","","","","","","","","","","",""
"4466","","image-slider-response","146","823659","0.0-138.0","A1Y8BGDLPNYP0K","","","","","27","","","","","","","","","","","","","","","","","","","","","",""
"2156","","image-button-response","147","828663","0.0-139.0","A1Y8BGDLPNYP0K","img_art/14.jpg","0","","","","","","","","","","","","","","","","","","","","","","","","",""
"5300","","image-button-response","148","833966","0.0-140.0","A1Y8BGDLPNYP0K","img_art/14.jpg","5","","","","","","","","","","","","","","","","","","","","","","","","",""
"1506","","image-button-response","149","835475","0.0-141.0-0.0","A1Y8BGDLPNYP0K","img_art/14.jpg","1","","","","","","","","","","","","","","","","","","","","","","","","",""
"507","","image-button-response","150","835987","0.0-142.0-0.0","A1Y8BGDLPNYP0K","img_art/14.jpg","0","","","","","","","","","","","","","","","","","","","","","","","","",""
"null","","html-keyboard-response","151","836488","0.0-143.0","A1Y8BGDLPNYP0K","<p style=""font-size: 48px;"">+</p>","","","","","null","allTrialResponses","500","1","14","img_art/14.jpg","27","face is very nice ","Kathryn,Jasmine,Nicole,Claire,Alexandria,Alicia","This reminds me of a tree but the tree is sickly, and poorly cared for.,-10,140,20","The colors are nice and it reminds me of a shrub or tree,10,340,20","This reminds me of the Lion King somehow! Feels inspiring,30,20,20","mythical and nature like,37,260,20","looks like it's symbolizing rebirth which is hopeful,22,80,20","ok, gloomy though.,12,120,20","Alicia","ok, gloomy though.,12,120,20","Jasmine","The colors are nice and it reminds me of a shrub or tree,10,340,20","Kathryn","This reminds me of a tree but the tree is sickly, and poorly cared for.,-10,140,20","8"
"22960","","survey-text","152","859460","0.0-144.0-0.0","A1Y8BGDLPNYP0K","","","","{""Q0"":""nice color ""}","","","","","","","","","","","","","","","","","","","","","","",""
"83222","","image-slider-response","153","942686","0.0-145.0","A1Y8BGDLPNYP0K","","","","","13","","","","","","","","","","","","","","","","","","","","","",""
"1196","","image-button-response","154","947692","0.0-146.0","A1Y8BGDLPNYP0K","img_art/5.jpg","4","","","","","","","","","","","","","","","","","","","","","","","","",""
"585","","image-button-response","155","948281","0.0-147.0","A1Y8BGDLPNYP0K","img_art/5.jpg","0","","","","","","","","","","","","","","","","","","","","","","","","",""
"764","","image-button-response","156","949049","0.0-148.0-0.0","A1Y8BGDLPNYP0K","img_art/5.jpg","3","","","","","","","","","","","","","","","","","","","","","","","","",""
"735","","image-button-response","157","949789","0.0-149.0-0.0","A1Y8BGDLPNYP0K","img_art/5.jpg","5","","","","","","","","","","","","","","","","","","","","","","","","",""
"null","","html-keyboard-response","158","950790","0.0-150.0","A1Y8BGDLPNYP0K","<p style=""font-size: 48px;"">+</p>","","","","","null","allTrialResponses","1000","1","15","img_art/5.jpg","13","nice color ","Kathryn,Jasmine,Heather,Amanda,Marissa,Alicia","I see a sign advising me to be cautious.,-20,140,20","Not sure what to say about this piece honestly. It's okay I guess.,0,340,20","its something. i just dont know what it is.,1,260,20","Very good color coordination,41,180,20","I am confused as to what I am seeing is it a handbag, duck foot, bell?,-18,160,20","pointless, ugly, not creative.,-50,120,20","Kathryn","I see a sign advising me to be cautious.,-20,140,20","Amanda","Very good color coordination,41,180,20","Alicia","pointless, ugly, not creative.,-50,120,20","8"
"16257","","survey-text","159","967063","0.0-151.0-0.0","A1Y8BGDLPNYP0K","","","","{""Q0"":""course""}","","","","","","","","","","","","","","","","","","","","","","",""
"21543","","survey-text","160","988610","0.0-152.0-0.0","A1Y8BGDLPNYP0K","","","","{""Q0"":""wow very nice painting ""}","","","","","","","","","","","","","","","","","","","","","","",""
"47606","","image-slider-response","161","1036219","0.0-153.0","A1Y8BGDLPNYP0K","","","","","15","","","","","","","","","","","","","","","","","","","","","",""
"2298","","image-button-response","162","1041220","0.0-154.0","A1Y8BGDLPNYP0K","img_art/4.jpg","5","","","","","","","","","","","","","","","","","","","","","","","","",""
"1298","","image-button-response","163","1042524","0.0-155.0","A1Y8BGDLPNYP0K","img_art/4.jpg","4","","","","","","","","","","","","","","","","","","","","","","","","",""
"1306","","image-button-response","164","1043833","0.0-156.0-0.0","A1Y8BGDLPNYP0K","img_art/4.jpg","0","","","","","","","","","","","","","","","","","","","","","","","","",""
"980","","image-button-response","165","1044819","0.0-157.0-0.0","A1Y8BGDLPNYP0K","img_art/4.jpg","1","","","","","","","","","","","","","","","","","","","","","","","","",""
"null","","html-keyboard-response","166","1046321","0.0-158.0","A1Y8BGDLPNYP0K","<p style=""font-size: 48px;"">+</p>","","","","","null","allTrialResponses","1500","1","16","img_art/4.jpg","15","wow very nice painting ","Kathryn,Victoria,Caitlin,Amanda,Dominique,Alicia","I feel kind of guilty looking at this, like I'm receiving a reward I don't I deserve.,-10,140,20","dont like the colors,-31,400,20","They give out trophies now for fighting with brass knuckles?,-20,80,20","Looks like an abstract version of the Scream painting,-50,180,20","I like it not sure much of how I feel about it,7,400,20","ordinary, bland. unmoving.,-6,120,20","Dominique","I like it not sure much of how I feel about it,7,400,20","Kathryn","I feel kind of guilty looking at this, like I'm receiving a reward I don't I deserve.,-10,140,20","Victoria","dont like the colors,-31,400,20","8"
"13350","","survey-text","167","1059681","0.0-159.0-0.0","A1Y8BGDLPNYP0K","","","","{""Q0"":""colors is very nice ""}","","","","","","","","","","","","","","","","","","","","","","",""
"2826","","image-slider-response","168","1062511","0.0-160.0","A1Y8BGDLPNYP0K","","","","","10","","","","","","","","","","","","","","","","","","","","","",""
"4937","","image-button-response","169","1067512","0.0-161.0","A1Y8BGDLPNYP0K","img_art/21.jpg","3","","","","","","","","","","","","","","","","","","","","","","","","",""
"2066","","image-button-response","170","1069583","0.0-162.0","A1Y8BGDLPNYP0K","img_art/21.jpg","3","","","","","","","","","","","","","","","","","","","","","","","","",""
"1411","","image-button-response","171","1070997","0.0-163.0-0.0","A1Y8BGDLPNYP0K","img_art/21.jpg","1","","","","","","","","","","","","","","","","","","","","","","","","",""
"642","","image-button-response","172","1071643","0.0-164.0-0.0","A1Y8BGDLPNYP0K","img_art/21.jpg","2","","","","","","","","","","","","","","","","","","","","","","","","",""
"null","","html-keyboard-response","173","1073151","0.0-165.0","A1Y8BGDLPNYP0K","<p style=""font-size: 48px;"">+</p>","","","","","null","allTrialResponses","1500","1","17","img_art/21.jpg","10","colors is very nice ","Kathryn,Victoria,Rachel,Taylor,Dominique,Cheyenne","This feels chaotic, like a battle or a storm.,-20,140,20","like the colors,30,400,20","Looks like a body of water during a sunset. I like this piece.,21,80,20","I love the contrasting tones between the two sides,36,340,20","Love the colors have to say this is my favorite above all,37,400,20","Don't see anything special about it,-21,200,20","Taylor","I love the contrasting tones between the two sides,36,340,20","Victoria","like the colors,30,400,20","Rachel","Looks like a body of water during a sunset. I like this piece.,21,80,20","8"
"16116","","survey-text","174","1089276","0.0-166.0-0.0","A1Y8BGDLPNYP0K","","","","{""Q0"":""i am not like it ""}","","","","","","","","","","","","","","","","","","","","","","",""
"2687","","image-slider-response","175","1091966","0.0-167.0","A1Y8BGDLPNYP0K","","","","","-35","","","","","","","","","","","","","","","","","","","","","",""
"3908","","image-button-response","176","1096973","0.0-168.0","A1Y8BGDLPNYP0K","img_art/29.jpg","4","","","","","","","","","","","","","","","","","","","","","","","","",""
"2486","","image-button-response","177","1099464","0.0-169.0","A1Y8BGDLPNYP0K","img_art/29.jpg","1","","","","","","","","","","","","","","","","","","","","","","","","",""
"1951","","image-button-response","178","1101419","0.0-170.0-0.0","A1Y8BGDLPNYP0K","img_art/29.jpg","4","","","","","","","","","","","","","","","","","","","","","","","","",""
"992","","image-button-response","179","1102414","0.0-171.0-0.0","A1Y8BGDLPNYP0K","img_art/29.jpg","3","","","","","","","","","","","","","","","","","","","","","","","","",""
"null","","html-keyboard-response","180","1103918","0.0-172.0","A1Y8BGDLPNYP0K","<p style=""font-size: 48px;"">+</p>","","","","","null","allTrialResponses","1500","1","18","img_art/29.jpg","-35","i am not like it ","Samantha,Victoria,Rachel,Taylor,Olivia,Katherine","I love this things almost hidden in it like paint brush and other details,50,140,20","makes me think of destruction,-20,400,20","It looks like someone did not like their art and drew an x over it.,-32,80,20","It seems like there's anger in the painting.,-20,340,20","too challenging to comprehend,-28,40,20","I think the grey and red inspire negative feelings but it's not the worst thing.,13,120,20","Victoria","makes me think of destruction,-20,400,20","Olivia","too challenging to comprehend,-28,40,20","Taylor","It seems like there's anger in the painting.,-20,340,20","8"
"10659","","survey-text","181","1114591","0.0-173.0-0.0","A1Y8BGDLPNYP0K","","","","{""Q0"":""nice painting ""}","","","","","","","","","","","","","","","","","","","","","","",""
"7094","","image-slider-response","182","1121688","0.0-174.0","A1Y8BGDLPNYP0K","","","","","20","","","","","","","","","","","","","","","","","","","","","",""
"null","","image-button-response","183","1126691","0.0-175.0","A1Y8BGDLPNYP0K","img_art/26.jpg","null","","","","","","","","","","","","","","","","","","","","","","","","",""
"38869","","image-button-response","184","1165563","0.0-176.0","A1Y8BGDLPNYP0K","img_art/26.jpg","4","","","","","","","","","","","","","","","","","","","","","","","","",""
"1899","","image-button-response","185","1167464","0.0-177.0-0.0","A1Y8BGDLPNYP0K","img_art/26.jpg","0","","","","","","","","","","","","","","","","","","","","","","","","",""
"1124","","image-button-response","186","1168591","0.0-178.0-0.0","A1Y8BGDLPNYP0K","img_art/26.jpg","5","","","","","","","","","","","","","","","","","","","","","","","","",""
"null","","html-keyboard-response","187","1170094","0.0-179.0","A1Y8BGDLPNYP0K","<p style=""font-size: 48px;"">+</p>","","","","","null","allTrialResponses","1500","1","19","img_art/26.jpg","20","nice painting ","Erin,Victoria,Diana,Taylor,Olivia,Makayla","City scene in a park,23,120,20","feels a tad old,30,400,20","I'm not sure if this is the image of a furniture store or not.,-20,380,20","Makes me want to walk down a cool street,20,340,20","reminds me of a hometown,7,40,20","Reminds me of a European street, I desire to walk in this picture,28,80,20","Olivia","reminds me of a hometown,7,40,20","Erin","City scene in a park,23,120,20","Makayla","Reminds me of a European street, I desire to walk in this picture,28,80,20","8"
"9655","","survey-text","188","1179758","0.0-180.0-0.0","A1Y8BGDLPNYP0K","","","","{""Q0"":""nice painting""}","","","","","","","","","","","","","","","","","","","","","","",""
"3494","","image-slider-response","189","1183255","0.0-181.0","A1Y8BGDLPNYP0K","","","","","6","","","","","","","","","","","","","","","","","","","","","",""
"2011","","image-button-response","190","1188260","0.0-182.0","A1Y8BGDLPNYP0K","img_art/17.jpg","5","","","","","","","","","","","","","","","","","","","","","","","","",""
"4054","","image-button-response","191","1192318","0.0-183.0","A1Y8BGDLPNYP0K","img_art/17.jpg","5","","","","","","","","","","","","","","","","","","","","","","","","",""
"1124","","image-button-response","192","1193444","0.0-184.0-0.0","A1Y8BGDLPNYP0K","img_art/17.jpg","1","","","","","","","","","","","","","","","","","","","","","","","","",""
"1059","","image-button-response","193","1194507","0.0-185.0-0.0","A1Y8BGDLPNYP0K","img_art/17.jpg","3","","","","","","","","","","","","","","","","","","","","","","","","",""
"null","","html-keyboard-response","194","1195511","0.0-186.0","A1Y8BGDLPNYP0K","<p style=""font-size: 48px;"">+</p>","","","","","null","allTrialResponses","1000","1","20","img_art/17.jpg","6","nice painting","Erin,Allison,Isabella,Jacqueline,Olivia,Makayla","Windows indoor tree, weird palette,-11,120,20","Very washed out.,-10,140,20","Pleasant fall to winter day,22,280,20","It's okay, I just don't see much too it.,7,300,20","muted tones brings me down,-13,40,20","I feel okay , it's like a tree,28,80,20","Makayla","I feel okay , it's like a tree,28,80,20","Allison","Very washed out.,-10,140,20","Jacqueline","It's okay, I just don't see much too it.,7,300,20","8"
"5930","","survey-text","195","1201461","0.0-187.0-0.0","A1Y8BGDLPNYP0K","","","","{""Q0"":""we""}","","","","","","","","","","","","","","","","","","","","","","",""
"12121","","survey-text","196","1213587","0.0-188.0-0.0","A1Y8BGDLPNYP0K","","","","{""Q0"":""good painting ""}","","","","","","","","","","","","","","","","","","","","","","",""
"3303","","image-slider-response","197","1216893","0.0-189.0","A1Y8BGDLPNYP0K","","","","","20","","","","","","","","","","","","","","","","","","","","","",""
"3821","","image-button-response","198","1221899","0.0-190.0","A1Y8BGDLPNYP0K","img_art/23.jpg","5","","","","","","","","","","","","","","","","","","","","","","","","",""
"2832","","image-button-response","199","1224736","0.0-191.0","A1Y8BGDLPNYP0K","img_art/23.jpg","5","","","","","","","","","","","","","","","","","","","","","","","","",""
"2605","","image-button-response","200","1227344","0.0-192.0-0.0","A1Y8BGDLPNYP0K","img_art/23.jpg","3","","","","","","","","","","","","","","","","","","","","","","","","",""
"3275","","image-button-response","201","1230622","0.0-193.0-0.0","A1Y8BGDLPNYP0K","img_art/23.jpg","1","","","","","","","","","","","","","","","","","","","","","","","","",""
"null","","html-keyboard-response","202","1231125","0.0-194.0","A1Y8BGDLPNYP0K","<p style=""font-size: 48px;"">+</p>","","","","","null","allTrialResponses","500","1","21","img_art/23.jpg","20","good painting ","Kaitlyn,Allison,Emily,Jacqueline,Angela,Makayla","Interesting contrast,9,80,20","I like the color contrast, though I'm unable to tell what the white shapes are.,25,140,20","I don't get it.,-40,40,20","It's kind of neat with the white slash marks.,13,300,20","Like the background colors and the energy, but the white bits ruin it for me,-7,260,20","Reminds me of disco/70's, not my favorite design,-12,80,20","Makayla","Reminds me of disco/70's, not my favorite design,-12,80,20","Jacqueline","It's kind of neat with the white slash marks.,13,300,20","Allison","I like the color contrast, though I'm unable to tell what the white shapes are.,25,140,20","8"
"15741","","survey-text","203","1246875","0.0-195.0-0.0","A1Y8BGDLPNYP0K","","","","{""Q0"":""wow very beautiful ""}","","","","","","","","","","","","","","","","","","","","","","",""
"3090","","image-slider-response","204","1249969","0.0-196.0","A1Y8BGDLPNYP0K","","","","","24","","","","","","","","","","","","","","","","","","","","","",""
"4287","","image-button-response","205","1254970","0.0-197.0","A1Y8BGDLPNYP0K","img_art/9.jpg","2","","","","","","","","","","","","","","","","","","","","","","","","",""
"9040","","image-button-response","206","1264013","0.0-198.0","A1Y8BGDLPNYP0K","img_art/9.jpg","3","","","","","","","","","","","","","","","","","","","","","","","","",""
"1094","","image-button-response","207","1265110","0.0-199.0-0.0","A1Y8BGDLPNYP0K","img_art/9.jpg","1","","","","","","","","","","","","","","","","","","","","","","","","",""
"1504","","image-button-response","208","1266617","0.0-200.0-0.0","A1Y8BGDLPNYP0K","img_art/9.jpg","5","","","","","","","","","","","","","","","","","","","","","","","","",""
"null","","html-keyboard-response","209","1268119","0.0-201.0","A1Y8BGDLPNYP0K","<p style=""font-size: 48px;"">+</p>","","","","","null","allTrialResponses","1500","1","22","img_art/9.jpg","24","wow very beautiful ","Kaitlin,Allison,Erica,Jacqueline,Melissa,Makayla","this looks to be a child nightmare,-10,60,20","Very eclectic and messy. Not my preference, but may work for some.,-20,140,20","Looks very relaxing; someone laying in a meadow,13,80,20","Looks like a sloppy iguana.,-11,300,20","strong focal point, appealing use of selective line,11,240,20","Looks like a monster's teeth , unsettling,-18,80,20","Jacqueline","Looks like a sloppy iguana.,-11,300,20","Allison","Very eclectic and messy. Not my preference, but may work for some.,-20,140,20","Makayla","Looks like a monster's teeth , unsettling,-18,80,20","8"
"23579","","survey-text","210","1291731","0.0-202.0-0.0","A1Y8BGDLPNYP0K","","","","{""Q0"":""nice painting""}","","","","","","","","","","","","","","","","","","","","","","",""
"4429","","image-slider-response","211","1296163","0.0-203.0","A1Y8BGDLPNYP0K","","","","","10","","","","","","","","","","","","","","","","","","","","","",""
"3640","","image-button-response","212","1301166","0.0-204.0","A1Y8BGDLPNYP0K","img_art/19.jpg","4","","","","","","","","","","","","","","","","","","","","","","","","",""
"1637","","image-button-response","213","1302805","0.0-205.0","A1Y8BGDLPNYP0K","img_art/19.jpg","4","","","","","","","","","","","","","","","","","","","","","","","","",""
"849","","image-button-response","214","1303656","0.0-206.0-0.0","A1Y8BGDLPNYP0K","img_art/19.jpg","5","","","","","","","","","","","","","","","","","","","","","","","","",""
"1228","","image-button-response","215","1304887","0.0-207.0-0.0","A1Y8BGDLPNYP0K","img_art/19.jpg","2","","","","","","","","","","","","","","","","","","","","","","","","",""
"null","","html-keyboard-response","216","1305389","0.0-208.0","A1Y8BGDLPNYP0K","<p style=""font-size: 48px;"">+</p>","","","","","null","allTrialResponses","500","1","23","img_art/19.jpg","10","nice painting","Madison,Allison,Shelby,Jacqueline,Abigail,Makayla","Seems unfinished and sloppy,-11,60,20","Messy mix of colors.,-5,140,20","Something weird is going on in this painting,-20,240,20","This is just a mess.,-30,300,20","I dont like the gray shadows, ruins it,-7,20,20","Looks like hustle and bustle ,,3,80,20","Abigail","I dont like the gray shadows, ruins it,-7,20,20","Makayla","Looks like hustle and bustle ,,3,80,20","Shelby","Something weird is going on in this painting,-20,240,20","8"
"57164","","survey-text","217","1362563","0.0-209.0-0.0","A1Y8BGDLPNYP0K","","","","{""Q0"":""teddy  bear is nice ""}","","","","","","","","","","","","","","","","","","","","","","",""
"63012","","image-slider-response","218","1425580","0.0-210.0","A1Y8BGDLPNYP0K","","","","","14","","","","","","","","","","","","","","","","","","","","","",""
"4109","","image-button-response","219","1430586","0.0-211.0","A1Y8BGDLPNYP0K","img_art/16.jpg","4","","","","","","","","","","","","","","","","","","","","","","","","",""
"1218","","image-button-response","220","1431808","0.0-212.0","A1Y8BGDLPNYP0K","img_art/16.jpg","3","","","","","","","","","","","","","","","","","","","","","","","","",""
"1526","","image-button-response","221","1433337","0.0-213.0-0.0","A1Y8BGDLPNYP0K","img_art/16.jpg","2","","","","","","","","","","","","","","","","","","","","","","","","",""
"3249","","image-button-response","222","1436591","0.0-214.0-0.0","A1Y8BGDLPNYP0K","img_art/16.jpg","5","","","","","","","","","","","","","","","","","","","","","","","","",""
"null","","html-keyboard-response","223","1437612","0.0-215.0","A1Y8BGDLPNYP0K","<p style=""font-size: 48px;"">+</p>","","","","","null","allTrialResponses","1000","1","24","img_art/16.jpg","14","teddy  bear is nice ","Mary,Danielle,Shelby,Lindsey,Abigail,Makayla","This is a neat piece. Sort of shocking. I think it's too monochromatic though.,19,180,20","I enjoy how slightly strange this is, while seeming to still have some message,20,340,20","This feels like images of a painful childhood,-50,240,20","It's depressing. Probably achieved its goal. But I wouldn't want it hanging in my home.,-31,400,20","The bear makes me very uncomfortable,-50,20,20","It's a little unsettling,2,80,20","Lindsey","It's depressing. Probably achieved its goal. But I wouldn't want it hanging in my home.,-31,400,20","Shelby","This feels like images of a painful childhood,-50,240,20","Makayla","It's a little unsettling,2,80,20","8"
"13765","","survey-text","224","1451387","0.0-216.0-0.0","A1Y8BGDLPNYP0K","","","","{""Q0"":""i am not like it ""}","","","","","","","","","","","","","","","","","","","","","","",""
"4986","","image-slider-response","225","1456376","0.0-217.0","A1Y8BGDLPNYP0K","","","","","-12","","","","","","","","","","","","","","","","","","","","","",""
"2882","","image-button-response","226","1461379","0.0-218.0","A1Y8BGDLPNYP0K","img_art/22.jpg","4","","","","","","","","","","","","","","","","","","","","","","","","",""
"2632","","image-button-response","227","1464013","0.0-219.0","A1Y8BGDLPNYP0K","img_art/22.jpg","5","","","","","","","","","","","","","","","","","","","","","","","","",""
"1005","","image-button-response","228","1465022","0.0-220.0-0.0","A1Y8BGDLPNYP0K","img_art/22.jpg","1","","","","","","","","","","","","","","","","","","","","","","","","",""
"822","","image-button-response","229","1465849","0.0-221.0-0.0","A1Y8BGDLPNYP0K","img_art/22.jpg","2","","","","","","","","","","","","","","","","","","","","","","","","",""
"null","","html-keyboard-response","230","1467351","0.0-222.0","A1Y8BGDLPNYP0K","<p style=""font-size: 48px;"">+</p>","","","","","null","allTrialResponses","1500","1","25","img_art/22.jpg","-12","i am not like it ","Megan,Ashley,Shelby,Lindsey,Brooke,Makayla","Organic sun spot on a flexible grid,18,200,20","Another servicable piece of abstract art?,20,320,20","This painting has a very nostalgic feel,20,240,20","Too much contrasting colors makes me feel anxious. I don't like it.,-20,400,20","Like this one, like a sunset,30,60,20","Just neutral no feelings,2,80,20","Makayla","Just neutral no feelings,2,80,20","Ashley","Another servicable piece of abstract art?,20,320,20","Shelby","This painting has a very nostalgic feel,20,240,20","8"
"5752","","survey-text","231","1473119","0.0-223.0-0.0","A1Y8BGDLPNYP0K","","","","{""Q0"":""table""}","","","","","","","","","","","","","","","","","","","","","","",""
"10427","","survey-text","232","1483550","0.0-224.0-0.0","A1Y8BGDLPNYP0K","","","","{""Q0"":""nice painting""}","","","","","","","","","","","","","","","","","","","","","","",""
"3701","","image-slider-response","233","1487255","0.0-225.0","A1Y8BGDLPNYP0K","","","","","14","","","","","","","","","","","","","","","","","","","","","",""
"null","","image-button-response","234","1492258","0.0-226.0","A1Y8BGDLPNYP0K","img_art/1.jpg","null","","","","","","","","","","","","","","","","","","","","","","","","",""
"2777","","image-button-response","235","1495037","0.0-227.0","A1Y8BGDLPNYP0K","img_art/1.jpg","5","","","","","","","","","","","","","","","","","","","","","","","","",""
"6655","","image-button-response","236","1501695","0.0-228.0-0.0","A1Y8BGDLPNYP0K","img_art/1.jpg","1","","","","","","","","","","","","","","","","","","","","","","","","",""
"3491","","image-button-response","237","1505190","0.0-229.0-0.0","A1Y8BGDLPNYP0K","img_art/1.jpg","3","","","","","","","","","","","","","","","","","","","","","","","","",""
"null","","html-keyboard-response","238","1505693","0.0-230.0","A1Y8BGDLPNYP0K","<p style=""font-size: 48px;"">+</p>","","","","","null","allTrialResponses","500","1","26","img_art/1.jpg","14","nice painting","Brittany,Ashley,Shelby,Katelyn,Chloe,Makayla","It reminds me of a sunset I once saw.,16,40,20","More passable, colorful, abstract.,13,320,20","This one has a pleasent energy,15,240,20","Im not a fan of the bluriness,-18,100,20","Powerful colors.,31,220,20","Nothing whatsoever,2,80,20","Makayla","Nothing whatsoever,2,80,20","Ashley","More passable, colorful, abstract.,13,320,20","Katelyn","Im not a fan of the bluriness,-18,100,20","8"
"39672","","survey-text","239","1545374","0.0-231.0-0.0","A1Y8BGDLPNYP0K","","","","{""Q0"":""wow very nice ""}","","","","","","","","","","","","","","","","","","","","","","",""
"3592","","image-slider-response","240","1548968","0.0-232.0","A1Y8BGDLPNYP0K","","","","","14","","","","","","","","","","","","","","","","","","","","","",""
"null","","image-button-response","241","1553972","0.0-233.0","A1Y8BGDLPNYP0K","img_art/13.jpg","null","","","","","","","","","","","","","","","","","","","","","","","","",""
"4728","","image-button-response","242","1558702","0.0-234.0","A1Y8BGDLPNYP0K","img_art/13.jpg","5","","","","","","","","","","","","","","","","","","","","","","","","",""
"807","","image-button-response","243","1559513","0.0-235.0-0.0","A1Y8BGDLPNYP0K","img_art/13.jpg","3","","","","","","","","","","","","","","","","","","","","","","","","",""
"945","","image-button-response","244","1560463","0.0-236.0-0.0","A1Y8BGDLPNYP0K","img_art/13.jpg","1","","","","","","","","","","","","","","","","","","","","","","","","",""
"null","","html-keyboard-response","245","1561966","0.0-237.0","A1Y8BGDLPNYP0K","<p style=""font-size: 48px;"">+</p>","","","","","null","allTrialResponses","1500","1","27","img_art/13.jpg","14","wow very nice ","Leah,Ashley,Laura,Katelyn,Natalie,Makayla","Like it a lot, reminds me of rainy day on glass,43,360,20","AWESOME! Pollack but with more direction.,32,320,20","water on my shower curtain - I feel refreshed, renewed,9,320,20","Really like this. Its like looking out a window into a beautiful storm,39,100,20","I like the colors,7,400,20","Reminds me of the aquarium,4,80,20","Makayla","Reminds me of the aquarium,4,80,20","Katelyn","Really like this. Its like looking out a window into a beautiful storm,39,100,20","Ashley","AWESOME! Pollack but with more direction.,32,320,20","8"
"30220","","survey-text","246","1592201","0.0-238.0-0.0","A1Y8BGDLPNYP0K","","","","{""Q0"":""building painting is very nice ""}","","","","","","","","","","","","","","","","","","","","","","",""
"21966","","image-slider-response","247","1614168","0.0-239.0","A1Y8BGDLPNYP0K","","","","","14","","","","","","","","","","","","","","","","","","","","","",""
"null","","image-button-response","248","1619173","0.0-240.0","A1Y8BGDLPNYP0K","img_art/8.jpg","null","","","","","","","","","","","","","","","","","","","","","","","","",""
"1594","","image-button-response","249","1620771","0.0-241.0","A1Y8BGDLPNYP0K","img_art/8.jpg","3","","","","","","","","","","","","","","","","","","","","","","","","",""
"954","","image-button-response","250","1621728","0.0-242.0-0.0","A1Y8BGDLPNYP0K","img_art/8.jpg","1","","","","","","","","","","","","","","","","","","","","","","","","",""
"806","","image-button-response","251","1622537","0.0-243.0-0.0","A1Y8BGDLPNYP0K","img_art/8.jpg","4","","","","","","","","","","","","","","","","","","","","","","","","",""
"null","","html-keyboard-response","252","1624039","0.0-244.0","A1Y8BGDLPNYP0K","<p style=""font-size: 48px;"">+</p>","","","","","null","allTrialResponses","1500","1","28","img_art/8.jpg","14","building painting is very nice ","Gabrielle,Ashley,Meghan,Katelyn,Cassidy,Makayla","lots going on with great use of lots of color and geometry,24,160,20","Escher? Dali? Could be their lovechild?,50,320,20","the face is creepy,-49,220,20","I like the definition and the strong lines. It makes me think of someone watching over the world,24,100,20","I like the colors,10,140,20","I see water and structures that resemble Ancient Rome,15,80,20","Katelyn","I like the definition and the strong lines. It makes me think of someone watching over the world,24,100,20","Ashley","Escher? Dali? Could be their lovechild?,50,320,20","Cassidy","I like the colors,10,140,20","8"
"14759","","survey-text","253","1638808","0.0-245.0-0.0","A1Y8BGDLPNYP0K","","","","{""Q0"":""red color is very nice ""}","","","","","","","","","","","","","","","","","","","","","","",""
"14206","","image-slider-response","254","1653016","0.0-246.0","A1Y8BGDLPNYP0K","","","","","28","","","","","","","","","","","","","","","","","","","","","",""
"3612","","image-button-response","255","1658020","0.0-247.0","A1Y8BGDLPNYP0K","img_art/3.jpg","5","","","","","","","","","","","","","","","","","","","","","","","","",""
"9544","","image-button-response","256","1667568","0.0-248.0","A1Y8BGDLPNYP0K","img_art/3.jpg","3","","","","","","","","","","","","","","","","","","","","","","","","",""
"1294","","image-button-response","257","1668864","0.0-249.0-0.0","A1Y8BGDLPNYP0K","img_art/3.jpg","0","","","","","","","","","","","","","","","","","","","","","","","","",""
"955","","image-button-response","258","1669822","0.0-250.0-0.0","A1Y8BGDLPNYP0K","img_art/3.jpg","2","","","","","","","","","","","","","","","","","","","","","","","","",""
"null","","html-keyboard-response","259","1671326","0.0-251.0","A1Y8BGDLPNYP0K","<p style=""font-size: 48px;"">+</p>","","","","","null","allTrialResponses","1500","1","29","img_art/3.jpg","28","red color is very nice ","Sierra,Ashley,Kelsey,Katelyn,Cassidy,Alyssa","scattered and angry,-26,260,20","Reminds of John Lenonn's art a bit.,27,320,20","just scribbles, not pleasing,-30,240,20","No substance or feeling to it,-20,100,20","Again, looks like a child's work. I don't get these types of pieces. Too simple,-47,140,20","Looks like someone spilled ketchup and forgot to clean it up,-30,160,20","Katelyn","No substance or feeling to it,-20,100,20","Sierra","scattered and angry,-26,260,20","Kelsey","just scribbles, not pleasing,-30,240,20","8"
"16083","","survey-text","260","1687418","0.0-252.0-0.0","A1Y8BGDLPNYP0K","","","","{""Q0"":""cute paintings ""}","","","","","","","","","","","","","","","","","","","","","","",""
"3071","","image-slider-response","261","1690492","0.0-253.0","A1Y8BGDLPNYP0K","","","","","14","","","","","","","","","","","","","","","","","","","","","",""
"3619","","image-button-response","262","1695496","0.0-254.0","A1Y8BGDLPNYP0K","img_art/20.jpg","1","","","","","","","","","","","","","","","","","","","","","","","","",""
"275","","image-button-response","263","1695776","0.0-255.0","A1Y8BGDLPNYP0K","img_art/20.jpg","4","","","","","","","","","","","","","","","","","","","","","","","","",""
"955","","image-button-response","264","1696733","0.0-256.0-0.0","A1Y8BGDLPNYP0K","img_art/20.jpg","3","","","","","","","","","","","","","","","","","","","","","","","","",""
"911","","image-button-response","265","1697650","0.0-257.0-0.0","A1Y8BGDLPNYP0K","img_art/20.jpg","1","","","","","","","","","","","","","","","","","","","","","","","","",""
"null","","html-keyboard-response","266","1699155","0.0-258.0","A1Y8BGDLPNYP0K","<p style=""font-size: 48px;"">+</p>","","","","","null","allTrialResponses","1500","1","30","img_art/20.jpg","14","cute paintings ","Sierra,Margaret,Kelsey,Katelyn,Kristen,Jessica","i like the rounded edges,18,260,20","It seems to be a neutral cool toned art piece. Gives me alamo/desert vibes,2,100,20","i almost feel like i can recognize what this is,-6,240,20","I do at least like the dark colors blending,6,100,20","danger, car crash, stressful,-12,280,20","It looks painted really nicely.,5,400,20","Kristen","danger, car crash, stressful,-12,280,20","Katelyn","I do at least like the dark colors blending,6,100,20","Margaret","It seems to be a neutral cool toned art piece. Gives me alamo/desert vibes,2,100,20","8"
"9552","","image-button-response_instructions","267","1708718","0.0-259.0","A1Y8BGDLPNYP0K","","0","instructions","","","","","","","","","","","","","","","","","","","","","","","",""
"1201","","image-button-response","268","1709926","0.0-260.0","A1Y8BGDLPNYP0K","","0","","","","","","","","","","","","","","","","","","","","","","","","",""
