"rt","url","trial_type","trial_index","time_elapsed","internal_node_id","participant_id","stimulus","button_pressed","Name","responses","response","key_press","variableName","fixationTime","condition","trial","photo","subjectRating","subjectResponse","agentsNames","agent_1_Response","agent_2_Response","agent_3_Response","agent_4_Response","agent_5_Response","agent_6_Response","kept_1_name","kept_1_response","kept_2_name","kept_2_response","kept_3_name","kept_3_response","errorCounter"
"8951","external_page_harvard.html","external-html","0","8990","0.0-0.0","A1ZS2VL87B5K2I","","","","","","","","","","","","","","","","","","","","","","","","","","",""
"2166","","image-button-response","1","11159","0.0-1.0","A1ZS2VL87B5K2I","","0","","","","","","","","","","","","","","","","","","","","","","","","",""
"3144","","image-button-response","2","14309","0.0-2.0-0.0","A1ZS2VL87B5K2I","","1","phone","","","","","","","","","","","","","","","","","","","","","","","",""
"10518","","survey-text","3","24828","0.0-3.0-0.0","A1ZS2VL87B5K2I","","","","{""Q0"":""A1ZS2VL87B5K2I""}","","","","","","","","","","","","","","","","","","","","","","",""
"8008","","image-button-response_instructions","4","32838","0.0-4.0","A1ZS2VL87B5K2I","","0","instructions","","","","","","","","","","","","","","","","","","","","","","","",""
"22657","","image-button-response_instructions","5","55498","0.0-5.0","A1ZS2VL87B5K2I","img_art/ins/popularity/ins1.png","0","instructions","","","","","","","","","","","","","","","","","","","","","","","",""
"4261","","image-button-response_instructions","6","59761","0.0-6.0","A1ZS2VL87B5K2I","img_art/ins/popularity/ins2.png","0","instructions","","","","","","","","","","","","","","","","","","","","","","","",""
"6816","","image-button-response_instructions","7","66579","0.0-7.0","A1ZS2VL87B5K2I","img_art/ins/popularity/ins2Extreme.png","0","instructions","","","","","","","","","","","","","","","","","","","","","","","",""
"4847","","image-button-response_instructions","8","71428","0.0-8.0","A1ZS2VL87B5K2I","img_art/ins/popularity/ins3KEEPpop.PNG","0","instructions","","","","","","","","","","","","","","","","","","","","","","","",""
"3429","","image-button-response_instructions","9","74859","0.0-9.0","A1ZS2VL87B5K2I","img_art/ins/popularity/ins3ANamepop.PNG","0","instructions","","","","","","","","","","","","","","","","","","","","","","","",""
"4082","","image-button-response_instructions","10","78943","0.0-10.0","A1ZS2VL87B5K2I","img_art/ins/popularity/ins3ARatingpop.png","0","instructions","","","","","","","","","","","","","","","","","","","","","","","",""
"4284","","image-button-response_instructions","11","83229","0.0-11.0","A1ZS2VL87B5K2I","img_art/ins/popularity/ins3ATextpop.png","0","instructions","","","","","","","","","","","","","","","","","","","","","","","",""
"5117","","image-button-response_instructions","12","88348","0.0-12.0","A1ZS2VL87B5K2I","img_art/ins/popularity/ins3ALikespop.png","0","instructions","","","","","","","","","","","","","","","","","","","","","","","",""
"9752","","image-button-response_instructions","13","98102","0.0-13.0","A1ZS2VL87B5K2I","img_art/ins/popularity/ins3KEEPpop.PNG","0","instructions","","","","","","","","","","","","","","","","","","","","","","","",""
"5038","","image-button-response_instructions","14","103142","0.0-14.0","A1ZS2VL87B5K2I","img_art/ins/popularity/ins3_5RED.png","0","instructions","","","","","","","","","","","","","","","","","","","","","","","",""
"6029","","image-button-response_instructions","15","109173","0.0-15.0","A1ZS2VL87B5K2I","img_art/ins/popularity/ins3KEEPpop.PNG","0","instructions","","","","","","","","","","","","","","","","","","","","","","","",""
"3418","","image-button-response_instructions","16","112593","0.0-16.0","A1ZS2VL87B5K2I","img_art/ins/popularity/ins4KEEPpop.PNG","0","instructions","","","","","","","","","","","","","","","","","","","","","","","",""
"6816","","image-button-response_instructions","17","119411","0.0-17.0","A1ZS2VL87B5K2I","img_art/ins/popularity/ins5KEEPpop.PNG","0","instructions","","","","","","","","","","","","","","","","","","","","","","","",""
"2079","","image-button-response_instructions","18","121492","0.0-18.0","A1ZS2VL87B5K2I","","0","instructions","","","","","","","","","","","","","","","","","","","","","","","",""
"8243","","survey-text","19","129761","0.0-19.0-0.0","A1ZS2VL87B5K2I","","","","{""Q0"":""but""}","","","","","","","","","","","","","","","","","","","","","","",""
"13126","","survey-text","20","142890","0.0-20.0-0.0","A1ZS2VL87B5K2I","","","","{""Q0"":""nice, colorful, abstract""}","","","","","","","","","","","","","","","","","","","","","","",""
"3654.2999999988824","","image-slider-response","21","146547","0.0-21.0","A1ZS2VL87B5K2I","","","","","4","","","","","","","","","","","","","","","","","","","","","",""
"null","","image-button-response","22","151555","0.0-22.0","A1ZS2VL87B5K2I","img_art/ins/1.jpg","null","","","","","","","","","","","","","","","","","","","","","","","","",""
"2943","","image-button-response","23","154501","0.0-23.0","A1ZS2VL87B5K2I","img_art/ins/1.jpg","1","","","","","","","","","","","","","","","","","","","","","","","","",""
"3519","","image-button-response","24","158023","0.0-24.0-0.0","A1ZS2VL87B5K2I","img_art/ins/1.jpg","0","","","","","","","","","","","","","","","","","","","","","","","","",""
"5227","","image-button-response","25","163254","0.0-25.0-0.0","A1ZS2VL87B5K2I","img_art/ins/1.jpg","3","","","","","","","","","","","","","","","","","","","","","","","","",""
"null","","html-keyboard-response","26","164762","0.0-26.0","A1ZS2VL87B5K2I","<p style=""font-size: 48px;"">+</p>","","","","","null","allTrialResponses","1500","1","-2","img_art/ins/1.jpg","4","nice, colorful, abstract","Adam,Alex,Ben,Carl,Daniel,Jack","Seems like doodles,-20,20,20","very creative work.,36,40,20","This color reminds me of poo,-46,60,20","very calming artwork,42,80,20","It looks like a murder scene.,-48,100,20","I like the sophisticated brushwork,40,120,20","Alex","very creative work.,36,40,20","Adam","Seems like doodles,-20,20,20","Carl","very calming artwork,42,80,20","0"
"31185","","survey-text","27","195951","0.0-27.0-0.0","A1ZS2VL87B5K2I","","","","{""Q0"":""not my favorite piece of art, lots of redness""}","","","","","","","","","","","","","","","","","","","","","","",""
"5477.199999999255","","image-slider-response","28","201435","0.0-28.0","A1ZS2VL87B5K2I","","","","","-4","","","","","","","","","","","","","","","","","","","","","",""
"null","","image-button-response","29","206445","0.0-29.0","A1ZS2VL87B5K2I","img_art/ins/2.jpg","null","","","","","","","","","","","","","","","","","","","","","","","","",""
"1944","","image-button-response","30","208393","0.0-30.0","A1ZS2VL87B5K2I","img_art/ins/2.jpg","4","","","","","","","","","","","","","","","","","","","","","","","","",""
"1213","","image-button-response","31","209608","0.0-31.0-0.0","A1ZS2VL87B5K2I","img_art/ins/2.jpg","0","","","","","","","","","","","","","","","","","","","","","","","","",""
"1809","","image-button-response","32","211420","0.0-32.0-0.0","A1ZS2VL87B5K2I","img_art/ins/2.jpg","2","","","","","","","","","","","","","","","","","","","","","","","","",""
"null","","html-keyboard-response","33","212422","0.0-33.0","A1ZS2VL87B5K2I","<p style=""font-size: 48px;"">+</p>","","","","","null","allTrialResponses","1000","1","-1","img_art/ins/2.jpg","-4","not my favorite piece of art, lots of redness","Adam,Alex,James,Carl,John,Kyle","too much color,-18,20,20","I like the blocks of color arrangements,30,40,20","looks too angry,-50,140,20","I can feel the artist's passion in it,45,80,20","love the texture of paint,48,160,20","Idk, it is just annoying,-32,180,20","John","love the texture of paint,48,160,20","Adam","too much color,-18,20,20","James","looks too angry,-50,140,20","0"
"19496","","survey-text","34","231922","0.0-34.0-0.0","A1ZS2VL87B5K2I","","","","{""Q0"":""interesting and different""}","","","","","","","","","","","","","","","","","","","","","","",""
"3924.4000000003725","","image-slider-response","35","235849","0.0-35.0","A1ZS2VL87B5K2I","","","","","-5","","","","","","","","","","","","","","","","","","","","","",""
"null","","image-button-response","36","240857","0.0-36.0","A1ZS2VL87B5K2I","img_art/ins/3.jpg","null","","","","","","","","","","","","","","","","","","","","","","","","",""
"20643","","image-button-response","37","261502","0.0-37.0","A1ZS2VL87B5K2I","img_art/ins/3.jpg","1","","","","","","","","","","","","","","","","","","","","","","","","",""
"3046","","image-button-response","38","264551","0.0-38.0-0.0","A1ZS2VL87B5K2I","img_art/ins/3.jpg","3","","","","","","","","","","","","","","","","","","","","","","","","",""
"2078","","image-button-response","39","266632","0.0-39.0-0.0","A1ZS2VL87B5K2I","img_art/ins/3.jpg","4","","","","","","","","","","","","","","","","","","","","","","","","",""
"null","","html-keyboard-response","40","267639","0.0-40.0","A1ZS2VL87B5K2I","<p style=""font-size: 48px;"">+</p>","","","","","null","allTrialResponses","1000","1","0","img_art/ins/3.jpg","-5","interesting and different","Adam,Ron,James,Mike,John,Sam","My daily routine, it's depressing,-20,20,20","It looks depressing,-26,220,20","My worst nightmare,-42,140,20","enjoy the different shades of blue,22,200,20","I like the overlapping of brushes,41,160,20","I can feel a rainy day from this painting,18,240,20","Ron","It looks depressing,-26,220,20","Mike","enjoy the different shades of blue,22,200,20","John","I like the overlapping of brushes,41,160,20","0"
"8100","","image-button-response_instructions","41","275744","0.0-41.0","A1ZS2VL87B5K2I","","0","instructions","","","","","","","","","","","","","","","","","","","","","","","",""
"14355","","survey-likert","42","290102","0.0-42.0-0.0","A1ZS2VL87B5K2I","","","","{""Q0"":"""",""Q1"":0,""Q2"":1}","","","","","","","","","","","","","","","","","","","","","","",""
"6732","","survey-text","43","296839","0.0-43.0-0.0","A1ZS2VL87B5K2I","","","","{""Q0"":""rock""}","","","","","","","","","","","","","","","","","","","","","","",""
"32692","","survey-text","44","329534","0.0-44.0-0.0","A1ZS2VL87B5K2I","","","","{""Q0"":""not pleasant to see""}","","","","","","","","","","","","","","","","","","","","","","",""
"4295.699999999255","","image-slider-response","45","333831","0.0-45.0","A1ZS2VL87B5K2I","","","","","-10","","","","","","","","","","","","","","","","","","","","","",""
"null","","image-button-response","46","338856","0.0-46.0","A1ZS2VL87B5K2I","img_art/30.jpg","null","","","","","","","","","","","","","","","","","","","","","","","","",""
"2893","","image-button-response","47","341752","0.0-47.0","A1ZS2VL87B5K2I","img_art/30.jpg","0","","","","","","","","","","","","","","","","","","","","","","","","",""
"5488","","image-button-response","48","347243","0.0-48.0-0.0","A1ZS2VL87B5K2I","img_art/30.jpg","4","","","","","","","","","","","","","","","","","","","","","","","","",""
"1392","","image-button-response","49","348638","0.0-49.0-0.0","A1ZS2VL87B5K2I","img_art/30.jpg","1","","","","","","","","","","","","","","","","","","","","","","","","",""
"null","","html-keyboard-response","50","349640","0.0-50.0","A1ZS2VL87B5K2I","<p style=""font-size: 48px;"">+</p>","","","","","null","allTrialResponses","1000","1","1","img_art/30.jpg","-10","not pleasant to see","Antonio,Angel,Zachary,Timothy,Malik,Stephen","Fear. It looks like snakes in the picture,13,220,20","It's like a child's art piece: carefree and not trying to conform to anything.,10,180,20","I like this one because I am a mom and it reminds me of a child finger-painting.,20,400,20","It's pleasent but otherwise unprovoking,8,240,20","I can't parse any intention or emotion,-17,40,20","A bit too dark for my liking,-10,140,20","Antonio","Fear. It looks like snakes in the picture,13,220,20","Malik","I can't parse any intention or emotion,-17,40,20","Angel","It's like a child's art piece: carefree and not trying to conform to anything.,10,180,20","0"
"29560","","survey-text","51","379205","0.0-51.0-0.0","A1ZS2VL87B5K2I","","","","{""Q0"":""beautiful and calming art work to look at""}","","","","","","","","","","","","","","","","","","","","","","",""
"3081.199999999255","","image-slider-response","52","382288","0.0-52.0","A1ZS2VL87B5K2I","","","","","27","","","","","","","","","","","","","","","","","","","","","",""
"4610","","image-button-response","53","387296","0.0-53.0","A1ZS2VL87B5K2I","img_art/14.jpg","0","","","","","","","","","","","","","","","","","","","","","","","","",""
"4519","","image-button-response","54","391818","0.0-54.0","A1ZS2VL87B5K2I","img_art/14.jpg","3","","","","","","","","","","","","","","","","","","","","","","","","",""
"4497","","image-button-response","55","396318","0.0-55.0-0.0","A1ZS2VL87B5K2I","img_art/14.jpg","2","","","","","","","","","","","","","","","","","","","","","","","","",""
"5476","","image-button-response","56","401797","0.0-56.0-0.0","A1ZS2VL87B5K2I","img_art/14.jpg","0","","","","","","","","","","","","","","","","","","","","","","","","",""
"null","","html-keyboard-response","57","402801","0.0-57.0","A1ZS2VL87B5K2I","<p style=""font-size: 48px;"">+</p>","","","","","null","allTrialResponses","1000","1","2","img_art/14.jpg","27","beautiful and calming art work to look at","Antonio,Angel,Bryce,Caleb,Malik,Jake","Makes me think of trees and spring. A good feeling,26,220,20","This reminds me of a tree but the tree is sickly, and poorly cared for.,-10,180,20","The red looks like blood and im not a huge fan,15,20,20","Again. This is pretty neutral, leaning dislike.,-18,40,20","It's alright, something I'd see in a guest bedroom,10,40,20","This is poorly done and not aesthetically appealing.,-2,360,20","Caleb","Again. This is pretty neutral, leaning dislike.,-18,40,20","Bryce","The red looks like blood and im not a huge fan,15,20,20","Antonio","Makes me think of trees and spring. A good feeling,26,220,20","0"
"43396","","survey-text","58","446203","0.0-58.0-0.0","A1ZS2VL87B5K2I","","","","{""Q0"":""disturbing to look at, cant tell what the painting  is trying to show""}","","","","","","","","","","","","","","","","","","","","","","",""
"2405.699999999255","","image-slider-response","59","448610","0.0-59.0","A1ZS2VL87B5K2I","","","","","-20","","","","","","","","","","","","","","","","","","","","","",""
"null","","image-button-response","60","453614","0.0-60.0","A1ZS2VL87B5K2I","img_art/9.jpg","null","","","","","","","","","","","","","","","","","","","","","","","","",""
"789","","image-button-response","61","454405","0.0-61.0","A1ZS2VL87B5K2I","img_art/9.jpg","2","","","","","","","","","","","","","","","","","","","","","","","","",""
"3473","","image-button-response","62","457882","0.0-62.0-0.0","A1ZS2VL87B5K2I","img_art/9.jpg","5","","","","","","","","","","","","","","","","","","","","","","","","",""
"1290","","image-button-response","63","459175","0.0-63.0-0.0","A1ZS2VL87B5K2I","img_art/9.jpg","3","","","","","","","","","","","","","","","","","","","","","","","","",""
"null","","html-keyboard-response","64","459679","0.0-64.0","A1ZS2VL87B5K2I","<p style=""font-size: 48px;"">+</p>","","","","","null","allTrialResponses","500","1","3","img_art/9.jpg","-20","disturbing to look at, cant tell what the painting  is trying to show","Antonio,James,Bryce,Caleb,Christian,Jeremy","Stirs up emotions of watching someone sleep which is relaxing,11,220,20","This has some of my favorite colors, and I like it,21,380,20","Looks like a crayon drawing.,21,20,20","Unfinished, weird composition.,-34,40,20","love the color palette, but I'm gonna be honest, I don't really understand it,14,140,20","I feel this incites anger,-16,60,20","Bryce","Looks like a crayon drawing.,21,20,20","Jeremy","I feel this incites anger,-16,60,20","Caleb","Unfinished, weird composition.,-34,40,20","0"
"27235","","survey-text","65","486919","0.0-65.0-0.0","A1ZS2VL87B5K2I","","","","{""Q0"":""like the combination of colors used""}","","","","","","","","","","","","","","","","","","","","","","",""
"2989.800000000745","","image-slider-response","66","489911","0.0-66.0","A1ZS2VL87B5K2I","","","","","11","","","","","","","","","","","","","","","","","","","","","",""
"3462","","image-button-response","67","494915","0.0-67.0","A1ZS2VL87B5K2I","img_art/13.jpg","3","","","","","","","","","","","","","","","","","","","","","","","","",""
"732","","image-button-response","68","495648","0.0-68.0","A1ZS2VL87B5K2I","img_art/13.jpg","3","","","","","","","","","","","","","","","","","","","","","","","","",""
"1550","","image-button-response","69","497202","0.0-69.0-0.0","A1ZS2VL87B5K2I","img_art/13.jpg","0","","","","","","","","","","","","","","","","","","","","","","","","",""
"2777","","image-button-response","70","499981","0.0-70.0-0.0","A1ZS2VL87B5K2I","img_art/13.jpg","2","","","","","","","","","","","","","","","","","","","","","","","","",""
"null","","html-keyboard-response","71","501487","0.0-71.0","A1ZS2VL87B5K2I","<p style=""font-size: 48px;"">+</p>","","","","","null","allTrialResponses","1500","1","4","img_art/13.jpg","11","like the combination of colors used","Sean,Joshua,Bryce,Caleb,Richard,Jeremy","I like the colors,7,40,20","Like this a lot and would hang in my house.,27,240,20","My favorite!,47,20,20","Lots of depth and character.,30,40,20","kind of like the pattern and colors but don't love it,13,340,20","Pleased. I like to combination of colors,17,60,20","Caleb","Lots of depth and character.,30,40,20","Sean","I like the colors,7,40,20","Bryce","My favorite!,47,20,20","0"
"41881","","survey-text","72","543374","0.0-72.0-0.0","A1ZS2VL87B5K2I","","","","{""Q0"":""confusing, looks like cut out pieces from newspaper""}","","","","","","","","","","","","","","","","","","","","","","",""
"4981.5999999996275","","image-slider-response","73","548358","0.0-73.0","A1ZS2VL87B5K2I","","","","","-12","","","","","","","","","","","","","","","","","","","","","",""
"3305","","image-button-response","74","553366","0.0-74.0","A1ZS2VL87B5K2I","img_art/16.jpg","0","","","","","","","","","","","","","","","","","","","","","","","","",""
"323","","image-button-response","75","553691","0.0-75.0","A1ZS2VL87B5K2I","img_art/16.jpg","0","","","","","","","","","","","","","","","","","","","","","","","","",""
"706","","image-button-response","76","554400","0.0-76.0-0.0","A1ZS2VL87B5K2I","img_art/16.jpg","1","","","","","","","","","","","","","","","","","","","","","","","","",""
"2742","","image-button-response","77","557145","0.0-77.0-0.0","A1ZS2VL87B5K2I","img_art/16.jpg","5","","","","","","","","","","","","","","","","","","","","","","","","",""
"null","","html-keyboard-response","78","558651","0.0-78.0","A1ZS2VL87B5K2I","<p style=""font-size: 48px;"">+</p>","","","","","null","allTrialResponses","1500","1","5","img_art/16.jpg","-12","confusing, looks like cut out pieces from newspaper","Sean,John,Bryce,Caleb,Jorge,Paul","my reaction is that the picture is creepy,-19,40,20","It creeps me out.,-50,120,20","The teddy bear is scary as hell.,-44,20,20","A strange collage made by a child. Do not like the colored face of the bear.,-29,40,20","Dreamy and chaotic,-9,180,20","Don't know if there's a meaning but I like how seemingly random objects were stuck together and called art,20,300,20","Sean","my reaction is that the picture is creepy,-19,40,20","John","It creeps me out.,-50,120,20","Paul","Don't know if there's a meaning but I like how seemingly random objects were stuck together and called art,20,300,20","0"
"73887","","survey-text","79","632545","0.0-79.0-0.0","A1ZS2VL87B5K2I","","","","{""Q0"":""sky""}","","","","","","","","","","","","","","","","","","","","","","",""
"35460","","survey-text","80","668008","0.0-80.0-0.0","A1ZS2VL87B5K2I","","","","{""Q0"":""amazing, nice, pretty""}","","","","","","","","","","","","","","","","","","","","","","",""
"2776.7000000011176","","image-slider-response","81","670787","0.0-81.0","A1ZS2VL87B5K2I","","","","","26","","","","","","","","","","","","","","","","","","","","","",""
"4521","","image-button-response","82","675794","0.0-82.0","A1ZS2VL87B5K2I","img_art/7.jpg","1","","","","","","","","","","","","","","","","","","","","","","","","",""
"3079","","image-button-response","83","678876","0.0-83.0","A1ZS2VL87B5K2I","img_art/7.jpg","1","","","","","","","","","","","","","","","","","","","","","","","","",""
"1167","","image-button-response","84","680046","0.0-84.0-0.0","A1ZS2VL87B5K2I","img_art/7.jpg","4","","","","","","","","","","","","","","","","","","","","","","","","",""
"920","","image-button-response","85","680969","0.0-85.0-0.0","A1ZS2VL87B5K2I","img_art/7.jpg","2","","","","","","","","","","","","","","","","","","","","","","","","",""
"null","","html-keyboard-response","86","681974","0.0-86.0","A1ZS2VL87B5K2I","<p style=""font-size: 48px;"">+</p>","","","","","null","allTrialResponses","1000","1","6","img_art/7.jpg","26","amazing, nice, pretty","Sean,John,Bradley,Tyler,Alexander,Paul","does not look good,-42,40,20","It looks like someone took a picture of a muddy ground and called it art.,-41,120,20","Is this cookie dough?  Yum!,-10,300,20","Is this a painting, really? Very compelling if so, the texture work is incredible.,15,320,20","Dead bugs on an insect battleground.,-10,120,20","It looks like bloody scabs on skin, I don't like it,-42,300,20","John","It looks like someone took a picture of a muddy ground and called it art.,-41,120,20","Alexander","Dead bugs on an insect battleground.,-10,120,20","Bradley","Is this cookie dough?  Yum!,-10,300,20","0"
"11680","","survey-text","87","693659","0.0-87.0-0.0","A1ZS2VL87B5K2I","","","","{""Q0"":""scribbles, not nice""}","","","","","","","","","","","","","","","","","","","","","","",""
"3024.5","","image-slider-response","88","696686","0.0-88.0","A1ZS2VL87B5K2I","","","","","-27","","","","","","","","","","","","","","","","","","","","","",""
"2236","","image-button-response","89","701691","0.0-89.0","A1ZS2VL87B5K2I","img_art/3.jpg","0","","","","","","","","","","","","","","","","","","","","","","","","",""
"3104","","image-button-response","90","704798","0.0-90.0","A1ZS2VL87B5K2I","img_art/3.jpg","3","","","","","","","","","","","","","","","","","","","","","","","","",""
"751","","image-button-response","91","705551","0.0-91.0-0.0","A1ZS2VL87B5K2I","img_art/3.jpg","4","","","","","","","","","","","","","","","","","","","","","","","","",""
"1077","","image-button-response","92","706631","0.0-92.0-0.0","A1ZS2VL87B5K2I","img_art/3.jpg","2","","","","","","","","","","","","","","","","","","","","","","","","",""
"null","","html-keyboard-response","93","707135","0.0-93.0","A1ZS2VL87B5K2I","<p style=""font-size: 48px;"">+</p>","","","","","null","allTrialResponses","500","1","7","img_art/3.jpg","-27","scribbles, not nice","Thomas,John,Bradley,Brett,Alexander,Adrian","Too messy and structure-less,-10,220,20","Looks like someone spilled ketchup and forgot to clean it up,-30,120,20","Marker gone wild?  Not sure what's going on here.,-21,300,20","Confusion and mayhem,-10,360,20","Somewhere between a child's art and a poorly drawn battle map.,8,120,20","Angry red crayons, like a child throwing a tantrum. No thanks.,-10,60,20","Brett","Confusion and mayhem,-10,360,20","Alexander","Somewhere between a child's art and a poorly drawn battle map.,8,120,20","Bradley","Marker gone wild?  Not sure what's going on here.,-21,300,20","0"
"87796","","survey-text","94","794936","0.0-94.0-0.0","A1ZS2VL87B5K2I","","","","{""Q0"":""childish, ugly""}","","","","","","","","","","","","","","","","","","","","","","",""
"4937.199999999255","","image-slider-response","95","799875","0.0-95.0","A1ZS2VL87B5K2I","","","","","-21","","","","","","","","","","","","","","","","","","","","","",""
"3395","","image-button-response","96","804879","0.0-96.0","A1ZS2VL87B5K2I","img_art/2.jpg","0","","","","","","","","","","","","","","","","","","","","","","","","",""
"686","","image-button-response","97","805568","0.0-97.0","A1ZS2VL87B5K2I","img_art/2.jpg","4","","","","","","","","","","","","","","","","","","","","","","","","",""
"841","","image-button-response","98","806412","0.0-98.0-0.0","A1ZS2VL87B5K2I","img_art/2.jpg","3","","","","","","","","","","","","","","","","","","","","","","","","",""
"1168","","image-button-response","99","807583","0.0-99.0-0.0","A1ZS2VL87B5K2I","img_art/2.jpg","2","","","","","","","","","","","","","","","","","","","","","","","","",""
"null","","html-keyboard-response","100","808589","0.0-100.0","A1ZS2VL87B5K2I","<p style=""font-size: 48px;"">+</p>","","","","","null","allTrialResponses","1000","1","8","img_art/2.jpg","-21","childish, ugly","Ryan,Isaac,Bradley,Brett,Alexander,Jesus","Very simple and childish,40,380,20","Not sure what is happening. I'm not a big fan of the colors but they don't bother me either.,1,280,20","I'm not fond of the colors in this one.,-33,300,20","Not very appealing,-5,360,20","Old, dull, messy.,-10,120,20","Muted green is overpowering,-10,100,20","Alexander","Old, dull, messy.,-10,120,20","Brett","Not very appealing,-5,360,20","Bradley","I'm not fond of the colors in this one.,-33,300,20","0"
"22243","","survey-text","101","830837","0.0-101.0-0.0","A1ZS2VL87B5K2I","","","","{""Q0"":""interesting and peaceful to look at""}","","","","","","","","","","","","","","","","","","","","","","",""
"4914.5999999996275","","image-slider-response","102","835754","0.0-102.0","A1ZS2VL87B5K2I","","","","","32","","","","","","","","","","","","","","","","","","","","","",""
"2888","","image-button-response","103","840762","0.0-103.0","A1ZS2VL87B5K2I","img_art/22.jpg","1","","","","","","","","","","","","","","","","","","","","","","","","",""
"761","","image-button-response","104","841525","0.0-104.0","A1ZS2VL87B5K2I","img_art/22.jpg","2","","","","","","","","","","","","","","","","","","","","","","","","",""
"808","","image-button-response","105","842336","0.0-105.0-0.0","A1ZS2VL87B5K2I","img_art/22.jpg","0","","","","","","","","","","","","","","","","","","","","","","","","",""
"1212","","image-button-response","106","843551","0.0-106.0-0.0","A1ZS2VL87B5K2I","img_art/22.jpg","4","","","","","","","","","","","","","","","","","","","","","","","","",""
"null","","html-keyboard-response","107","845058","0.0-107.0","A1ZS2VL87B5K2I","<p style=""font-size: 48px;"">+</p>","","","","","null","allTrialResponses","1500","1","9","img_art/22.jpg","32","interesting and peaceful to look at","Eric,Jesse,Bradley,Brett,Alexander,Dustin","I don't normally like bright colors, but I like them in this. Don't like the random black paint.,30,100,20","I usually dont like blurry pieces but the colors are amazing in this,14,80,20","I like this one. There is a lot to see if you keep looking for it.,27,300,20","Climate change in a big city,35,360,20","Glowing city of many emotions.,10,120,20","Too much red. The red/yellow/orange make me think of heat/fire, which makes me anxious.,-10,20,20","Bradley","I like this one. There is a lot to see if you keep looking for it.,27,300,20","Eric","I don't normally like bright colors, but I like them in this. Don't like the random black paint.,30,100,20","Alexander","Glowing city of many emotions.,10,120,20","0"
"27402","","survey-text","108","872464","0.0-108.0-0.0","A1ZS2VL87B5K2I","","","","{""Q0"":""crowded,, dark""}","","","","","","","","","","","","","","","","","","","","","","",""
"2720.2000000011176","","image-slider-response","109","875187","0.0-109.0","A1ZS2VL87B5K2I","","","","","-7","","","","","","","","","","","","","","","","","","","","","",""
"1336","","image-button-response","110","880194","0.0-110.0","A1ZS2VL87B5K2I","img_art/23.jpg","1","","","","","","","","","","","","","","","","","","","","","","","","",""
"1313","","image-button-response","111","881510","0.0-111.0","A1ZS2VL87B5K2I","img_art/23.jpg","0","","","","","","","","","","","","","","","","","","","","","","","","",""
"538","","image-button-response","112","882050","0.0-112.0-0.0","A1ZS2VL87B5K2I","img_art/23.jpg","1","","","","","","","","","","","","","","","","","","","","","","","","",""
"515","","image-button-response","113","882568","0.0-113.0-0.0","A1ZS2VL87B5K2I","img_art/23.jpg","2","","","","","","","","","","","","","","","","","","","","","","","","",""
"null","","html-keyboard-response","114","883071","0.0-114.0","A1ZS2VL87B5K2I","<p style=""font-size: 48px;"">+</p>","","","","","null","allTrialResponses","500","1","10","img_art/23.jpg","-7","crowded,, dark","Eric,Chase,Bradley,Michael,Alexander,Mitchell","The piece seems chaotic, and I dislike the random pop of white within so many colors.,-10,100,20","It's kind of neat with the white slash marks.,13,120,20","I like the contrast and the bright colors in this one.,6,300,20","I don't get it.,-40,140,20","Unicorns flying through a colorful space.,25,120,20","Partying, dancing, delusion, kaus.,10,180,20","Eric","The piece seems chaotic, and I dislike the random pop of white within so many colors.,-10,100,20","Chase","It's kind of neat with the white slash marks.,13,120,20","Bradley","I like the contrast and the bright colors in this one.,6,300,20","0"
"11773","","survey-text","115","894853","0.0-115.0-0.0","A1ZS2VL87B5K2I","","","","{""Q0"":""our""}","","","","","","","","","","","","","","","","","","","","","","",""
"18235","","survey-text","116","913090","0.0-116.0-0.0","A1ZS2VL87B5K2I","","","","{""Q0"":""appealing, colorful""}","","","","","","","","","","","","","","","","","","","","","","",""
"21082.300000000745","","image-slider-response","117","934174","0.0-117.0","A1ZS2VL87B5K2I","","","","","17","","","","","","","","","","","","","","","","","","","","","",""
"null","","image-button-response","118","939182","0.0-118.0","A1ZS2VL87B5K2I","img_art/24.jpg","null","","","","","","","","","","","","","","","","","","","","","","","","",""
"6342","","image-button-response","119","945526","0.0-119.0","A1ZS2VL87B5K2I","img_art/24.jpg","4","","","","","","","","","","","","","","","","","","","","","","","","",""
"1606","","image-button-response","120","947134","0.0-120.0-0.0","A1ZS2VL87B5K2I","img_art/24.jpg","3","","","","","","","","","","","","","","","","","","","","","","","","",""
"4712","","image-button-response","121","951849","0.0-121.0-0.0","A1ZS2VL87B5K2I","img_art/24.jpg","1","","","","","","","","","","","","","","","","","","","","","","","","",""
"null","","html-keyboard-response","122","952350","0.0-122.0","A1ZS2VL87B5K2I","<p style=""font-size: 48px;"">+</p>","","","","","null","allTrialResponses","500","1","11","img_art/24.jpg","17","appealing, colorful","Eric,Chase,Bradley,Luis,Gabriel,Alejandro","I'm reminded of a waterfall, but I feel like it could've been better portrayed.,5,100,20","This one isn't that abstract. It clearly looks like a waterfall.,31,120,20","Hmm. Don't know what to make of this one.,1,300,20","Love the natural vibe,50,400,20","this one is just a bit too harsh,-13,160,20","I don't like this painting because of its blottedness. It lacks conviction, direction and purpose.,-31,80,20","Gabriel","this one is just a bit too harsh,-13,160,20","Luis","Love the natural vibe,50,400,20","Chase","This one isn't that abstract. It clearly looks like a waterfall.,31,120,20","0"
"10822","","survey-text","123","963178","0.0-123.0-0.0","A1ZS2VL87B5K2I","","","","{""Q0"":""colorful""}","","","","","","","","","","","","","","","","","","","","","","",""
"18753.099999999627","","image-slider-response","124","981933","0.0-124.0","A1ZS2VL87B5K2I","","","","","20","","","","","","","","","","","","","","","","","","","","","",""
"null","","image-button-response","125","986941","0.0-125.0","A1ZS2VL87B5K2I","img_art/5.jpg","null","","","","","","","","","","","","","","","","","","","","","","","","",""
"16940","","image-button-response","126","1003883","0.0-126.0","A1ZS2VL87B5K2I","img_art/5.jpg","1","","","","","","","","","","","","","","","","","","","","","","","","",""
"593","","image-button-response","127","1004479","0.0-127.0-0.0","A1ZS2VL87B5K2I","img_art/5.jpg","2","","","","","","","","","","","","","","","","","","","","","","","","",""
"987","","image-button-response","128","1005469","0.0-128.0-0.0","A1ZS2VL87B5K2I","img_art/5.jpg","4","","","","","","","","","","","","","","","","","","","","","","","","",""
"null","","html-keyboard-response","129","1006476","0.0-129.0","A1ZS2VL87B5K2I","<p style=""font-size: 48px;"">+</p>","","","","","null","allTrialResponses","1000","1","12","img_art/5.jpg","20","colorful","Tristan,Chase,Justin,Luis,Gabriel,Mason","Nearly white background gives a lack of context. Questionable skills,-45,300,20","Seems very basic and uninteresting.,-15,120,20","Although it's very simple, there's something about the colors that really draws the eye.,11,280,20","Very messy and not a lot of thought,-29,400,20","too abstract, looks like a pyramid,-22,160,20","pointless, ugly, not creative.,-50,100,20","Chase","Seems very basic and uninteresting.,-15,120,20","Justin","Although it's very simple, there's something about the colors that really draws the eye.,11,280,20","Gabriel","too abstract, looks like a pyramid,-22,160,20","0"
"14963","","survey-text","130","1021444","0.0-130.0-0.0","A1ZS2VL87B5K2I","","","","{""Q0"":""cute""}","","","","","","","","","","","","","","","","","","","","","","",""
"7796","","survey-text","131","1033089","0.0-130.1-0.1","A1ZS2VL87B5K2I","","","","{""Q0"":""cute to look at""}","","","","","","","","","","","","","","","","","","","","","","",""
"7907.200000001118","","image-slider-response","132","1040998","0.0-131.0","A1ZS2VL87B5K2I","","","","","28","","","","","","","","","","","","","","","","","","","","","",""
"null","","image-button-response","133","1046006","0.0-132.0","A1ZS2VL87B5K2I","img_art/4.jpg","null","","","","","","","","","","","","","","","","","","","","","","","","",""
"14679","","image-button-response","134","1060687","0.0-133.0","A1ZS2VL87B5K2I","img_art/4.jpg","2","","","","","","","","","","","","","","","","","","","","","","","","",""
"1437","","image-button-response","135","1062127","0.0-134.0-0.0","A1ZS2VL87B5K2I","img_art/4.jpg","0","","","","","","","","","","","","","","","","","","","","","","","","",""
"1179","","image-button-response","136","1063309","0.0-135.0-0.0","A1ZS2VL87B5K2I","img_art/4.jpg","4","","","","","","","","","","","","","","","","","","","","","","","","",""
"null","","html-keyboard-response","137","1064815","0.0-136.0","A1ZS2VL87B5K2I","<p style=""font-size: 48px;"">+</p>","","","","","null","allTrialResponses","1500","1","13","img_art/4.jpg","28","cute to look at","Dakota,Chase,Justin,Benjamin,Gabriel,Brandon","spontaneous, without hesitation,22,280,20","It looks like smeared poop.,-27,120,20","Rather boring design and colors.,-21,280,20","I like the bold style.,10,260,20","this is terrible,-49,160,20","Really don't like this. Kindergarten art, sorry.,-50,320,20","Justin","Rather boring design and colors.,-21,280,20","Dakota","spontaneous, without hesitation,22,280,20","Gabriel","this is terrible,-49,160,20","0"
"28200","","survey-text","138","1093021","0.0-137.0-0.0","A1ZS2VL87B5K2I","","","","{""Q0"":""very neat , everything looks like measured""}","","","","","","","","","","","","","","","","","","","","","","",""
"49389","","image-slider-response","139","1142411","0.0-138.0","A1ZS2VL87B5K2I","","","","","37","","","","","","","","","","","","","","","","","","","","","",""
"null","","image-button-response","140","1147419","0.0-139.0","A1ZS2VL87B5K2I","img_art/8.jpg","null","","","","","","","","","","","","","","","","","","","","","","","","",""
"13182","","image-button-response","141","1160603","0.0-140.0","A1ZS2VL87B5K2I","img_art/8.jpg","1","","","","","","","","","","","","","","","","","","","","","","","","",""
"706","","image-button-response","142","1161312","0.0-141.0-0.0","A1ZS2VL87B5K2I","img_art/8.jpg","2","","","","","","","","","","","","","","","","","","","","","","","","",""
"1495","","image-button-response","143","1162809","0.0-142.0-0.0","A1ZS2VL87B5K2I","img_art/8.jpg","3","","","","","","","","","","","","","","","","","","","","","","","","",""
"null","","html-keyboard-response","144","1163811","0.0-143.0","A1ZS2VL87B5K2I","<p style=""font-size: 48px;"">+</p>","","","","","null","allTrialResponses","1000","1","14","img_art/8.jpg","37","very neat , everything looks like measured","Dakota,Alex,Justin,Austin,Gabriel,Jacob","chaotic and disassembled,-8,280,20","I appreciate the complexity of this piece but it's too cubist for me,3,100,20","Interesting to look at, there are many things happening in the painting.,32,280,20","Very unique and different,31,240,20","i like all the different faces,19,160,20","Very cool! I like this piece,9,340,20","Alex","I appreciate the complexity of this piece but it's too cubist for me,3,100,20","Justin","Interesting to look at, there are many things happening in the painting.,32,280,20","Austin","Very unique and different,31,240,20","0"
"88276","","survey-text","145","1252092","0.0-144.0-0.0","A1ZS2VL87B5K2I","","","","{""Q0"":""too messy, abstract""}","","","","","","","","","","","","","","","","","","","","","","",""
"2742.699999999255","","image-slider-response","146","1254837","0.0-145.0","A1ZS2VL87B5K2I","","","","","2","","","","","","","","","","","","","","","","","","","","","",""
"4858","","image-button-response","147","1259842","0.0-146.0","A1ZS2VL87B5K2I","img_art/19.jpg","1","","","","","","","","","","","","","","","","","","","","","","","","",""
"2002","","image-button-response","148","1261848","0.0-147.0","A1ZS2VL87B5K2I","img_art/19.jpg","3","","","","","","","","","","","","","","","","","","","","","","","","",""
"1347","","image-button-response","149","1263197","0.0-148.0-0.0","A1ZS2VL87B5K2I","img_art/19.jpg","1","","","","","","","","","","","","","","","","","","","","","","","","",""
"717","","image-button-response","150","1263917","0.0-149.0-0.0","A1ZS2VL87B5K2I","img_art/19.jpg","2","","","","","","","","","","","","","","","","","","","","","","","","",""
"null","","html-keyboard-response","151","1264924","0.0-150.0","A1ZS2VL87B5K2I","<p style=""font-size: 48px;"">+</p>","","","","","null","allTrialResponses","1000","1","15","img_art/19.jpg","2","too messy, abstract","Jared,Alex,Justin,Austin,Corey,Jeffrey","green and orange are my favorite colors.  this cityscape feels warm,34,400,20","I like the water but again, the small lines with no detail are irritating,3,100,20","It looks too much of a rough sketch. Don't really enjoy looking at it.,-9,280,20","Like the painting strokes,39,240,20","i think it is ugly and hate the colors,-35,260,20","very lively and colourful,21,40,20","Austin","Like the painting strokes,39,240,20","Alex","I like the water but again, the small lines with no detail are irritating,3,100,20","Justin","It looks too much of a rough sketch. Don't really enjoy looking at it.,-9,280,20","0"
"6128","","survey-text","152","1271060","0.0-151.0-0.0","A1ZS2VL87B5K2I","","","","{""Q0"":""course""}","","","","","","","","","","","","","","","","","","","","","","",""
"15040","","survey-text","153","1286103","0.0-152.0-0.0","A1ZS2VL87B5K2I","","","","{""Q0"":""scary, looks like a skeleton""}","","","","","","","","","","","","","","","","","","","","","","",""
"9909.5","","image-slider-response","154","1296014","0.0-153.0","A1ZS2VL87B5K2I","","","","","-3","","","","","","","","","","","","","","","","","","","","","",""
"2102","","image-button-response","155","1301019","0.0-154.0","A1ZS2VL87B5K2I","img_art/25.jpg","0","","","","","","","","","","","","","","","","","","","","","","","","",""
"608","","image-button-response","156","1301629","0.0-155.0","A1ZS2VL87B5K2I","img_art/25.jpg","0","","","","","","","","","","","","","","","","","","","","","","","","",""
"492","","image-button-response","157","1302124","0.0-156.0-0.0","A1ZS2VL87B5K2I","img_art/25.jpg","1","","","","","","","","","","","","","","","","","","","","","","","","",""
"1077","","image-button-response","158","1303204","0.0-157.0-0.0","A1ZS2VL87B5K2I","img_art/25.jpg","4","","","","","","","","","","","","","","","","","","","","","","","","",""
"null","","html-keyboard-response","159","1304711","0.0-158.0","A1ZS2VL87B5K2I","<p style=""font-size: 48px;"">+</p>","","","","","null","allTrialResponses","1500","1","16","img_art/25.jpg","-3","scary, looks like a skeleton","Connor,Alex,Justin,Austin,Dylan,William","Looks like glow in the dark halloween decoration,-38,240,20","I can get behind this but only because I like the green. it reminds me of a graveyard,11,100,20","It's a rather intriguing design,12,280,20","Love the color hues and the texture it creates,50,240,20","This is too dark and creepy. I also hate the color,-30,40,20","makes me think of a scary movie,-20,380,20","Connor","Looks like glow in the dark halloween decoration,-38,240,20","Alex","I can get behind this but only because I like the green. it reminds me of a graveyard,11,100,20","Dylan","This is too dark and creepy. I also hate the color,-30,40,20","0"
"25805","","survey-text","160","1330520","0.0-159.0-0.0","A1ZS2VL87B5K2I","","","","{""Q0"":""appealing, looks patterned""}","","","","","","","","","","","","","","","","","","","","","","",""
"6320.39999999851","","image-slider-response","161","1336843","0.0-160.0","A1ZS2VL87B5K2I","","","","","9","","","","","","","","","","","","","","","","","","","","","",""
"3565","","image-button-response","162","1341846","0.0-161.0","A1ZS2VL87B5K2I","img_art/12.jpg","0","","","","","","","","","","","","","","","","","","","","","","","","",""
"902","","image-button-response","163","1342750","0.0-162.0","A1ZS2VL87B5K2I","img_art/12.jpg","3","","","","","","","","","","","","","","","","","","","","","","","","",""
"1122","","image-button-response","164","1343875","0.0-163.0-0.0","A1ZS2VL87B5K2I","img_art/12.jpg","4","","","","","","","","","","","","","","","","","","","","","","","","",""
"2484","","image-button-response","165","1346362","0.0-164.0-0.0","A1ZS2VL87B5K2I","img_art/12.jpg","5","","","","","","","","","","","","","","","","","","","","","","","","",""
"null","","html-keyboard-response","166","1346865","0.0-165.0","A1ZS2VL87B5K2I","<p style=""font-size: 48px;"">+</p>","","","","","null","allTrialResponses","500","1","17","img_art/12.jpg","9","appealing, looks patterned","Connor,Alex,Mark,Robert,Dylan,Jose","City scape but palette is odd,4,240,20","eww hate everything about this, looks like it belongs in a dentist's office,-14,100,20","It just feels like a jigsaw puzzle,-4,80,20","I like the pattern to it.,31,360,20","I like the pattern of this picture, but the colors could be nicer,11,40,20","Not sure why but this is my favorite. I'd put it on my wall,50,200,20","Robert","I like the pattern to it.,31,360,20","Dylan","I like the pattern of this picture, but the colors could be nicer,11,40,20","Jose","Not sure why but this is my favorite. I'd put it on my wall,50,200,20","0"
"29822","","survey-text","167","1376692","0.0-166.0-0.0","A1ZS2VL87B5K2I","","","","{""Q0"":""nice colors, looks pleasant""}","","","","","","","","","","","","","","","","","","","","","","",""
"9369.700000001118","","image-slider-response","168","1386064","0.0-167.0","A1ZS2VL87B5K2I","","","","","18","","","","","","","","","","","","","","","","","","","","","",""
"null","","image-button-response","169","1391839","0.0-168.0","A1ZS2VL87B5K2I","img_art/1.jpg","null","","","","","","","","","","","","","","","","","","","","","","","","",""
"1255","","image-button-response","170","1393096","0.0-169.0","A1ZS2VL87B5K2I","img_art/1.jpg","4","","","","","","","","","","","","","","","","","","","","","","","","",""
"627","","image-button-response","171","1393726","0.0-170.0-0.0","A1ZS2VL87B5K2I","img_art/1.jpg","3","","","","","","","","","","","","","","","","","","","","","","","","",""
"695","","image-button-response","172","1394424","0.0-171.0-0.0","A1ZS2VL87B5K2I","img_art/1.jpg","5","","","","","","","","","","","","","","","","","","","","","","","","",""
"null","","html-keyboard-response","173","1395930","0.0-172.0","A1ZS2VL87B5K2I","<p style=""font-size: 48px;"">+</p>","","","","","null","allTrialResponses","1500","1","18","img_art/1.jpg","18","nice colors, looks pleasant","Gregory,Garrett,Shane,Robert,Dylan,Jose","Looks like just a bunch of colors with no real point,-5,220,20","I think that this picture has nice colors and its pleasing to the eyes.,20,180,20","Warmth of the sun,22,80,20","Pretty colors. Fall day in the East Coast of USA.,42,360,20","I love the warm colors of the art,32,40,20","Blurry but that's how emotions are a lot of the time.,27,200,20","Dylan","I love the warm colors of the art,32,40,20","Robert","Pretty colors. Fall day in the East Coast of USA.,42,360,20","Jose","Blurry but that's how emotions are a lot of the time.,27,200,20","0"
"25467","","survey-text","174","1421403","0.0-173.0-0.0","A1ZS2VL87B5K2I","","","","{""Q0"":""ugly, messy. cant make the meaning of it""}","","","","","","","","","","","","","","","","","","","","","","",""
"8919.800000000745","","image-slider-response","175","1430325","0.0-174.0","A1ZS2VL87B5K2I","","","","","-34","","","","","","","","","","","","","","","","","","","","","",""
"null","","image-button-response","176","1435332","0.0-175.0","A1ZS2VL87B5K2I","img_art/29.jpg","null","","","","","","","","","","","","","","","","","","","","","","","","",""
"19729","","image-button-response","177","1455063","0.0-176.0","A1ZS2VL87B5K2I","img_art/29.jpg","4","","","","","","","","","","","","","","","","","","","","","","","","",""
"1123","","image-button-response","178","1456189","0.0-177.0-0.0","A1ZS2VL87B5K2I","img_art/29.jpg","1","","","","","","","","","","","","","","","","","","","","","","","","",""
"550","","image-button-response","179","1456741","0.0-178.0-0.0","A1ZS2VL87B5K2I","img_art/29.jpg","0","","","","","","","","","","","","","","","","","","","","","","","","",""
"null","","html-keyboard-response","180","1457746","0.0-179.0","A1ZS2VL87B5K2I","<p style=""font-size: 48px;"">+</p>","","","","","null","allTrialResponses","1000","1","19","img_art/29.jpg","-34","ugly, messy. cant make the meaning of it","Steven,Jordan,Joseph,Robert,Dylan,Jose","Yeah, I don't know. It's clearly a situation where art is the reject of something more,-27,160,20","Messy and disorganized, to odark,-31,160,20","It looks like graffiti in a subway tunnel- destruction.,-20,220,20","Looks like a murder,-50,360,20","I don't like this. It is ugly and dark,-29,40,20","I think the grey and red inspire negative feelings but it's not the worst thing.,13,200,20","Dylan","I don't like this. It is ugly and dark,-29,40,20","Jordan","Messy and disorganized, to odark,-31,160,20","Steven","Yeah, I don't know. It's clearly a situation where art is the reject of something more,-27,160,20","0"
"93336","","survey-text","181","1551088","0.0-180.0-0.0","A1ZS2VL87B5K2I","","","","{""Q0"":""abstract, weird. the colors used are not my favorite""}","","","","","","","","","","","","","","","","","","","","","","",""
"7760.5","","image-slider-response","182","1558851","0.0-181.0","A1ZS2VL87B5K2I","","","","","-22","","","","","","","","","","","","","","","","","","","","","",""
"1854","","image-button-response","183","1563856","0.0-182.0","A1ZS2VL87B5K2I","img_art/28.jpg","2","","","","","","","","","","","","","","","","","","","","","","","","",""
"5704","","image-button-response","184","1569562","0.0-183.0","A1ZS2VL87B5K2I","img_art/28.jpg","2","","","","","","","","","","","","","","","","","","","","","","","","",""
"1122","","image-button-response","185","1570687","0.0-184.0-0.0","A1ZS2VL87B5K2I","img_art/28.jpg","4","","","","","","","","","","","","","","","","","","","","","","","","",""
"650","","image-button-response","186","1571339","0.0-185.0-0.0","A1ZS2VL87B5K2I","img_art/28.jpg","3","","","","","","","","","","","","","","","","","","","","","","","","",""
"null","","html-keyboard-response","187","1572346","0.0-186.0","A1ZS2VL87B5K2I","<p style=""font-size: 48px;"">+</p>","","","","","null","allTrialResponses","1000","1","20","img_art/28.jpg","-22","abstract, weird. the colors used are not my favorite","Steven,Jordan,Victor,Andrew,Dylan,Peter","It's a bike that was left abandoned by someone who doesnt care for it,1,160,20","A messy bed room,-7,160,20","Almost looks like child's artwork, sloppy and chaotic,6,340,20","Doesn't give me an emotional response,0,160,20","Boring, looks like it belongs in a coffee shop,-20,40,20","The earthy colors smeared around looks like prison food tray,-17,320,20","Victor","Almost looks like child's artwork, sloppy and chaotic,6,340,20","Dylan","Boring, looks like it belongs in a coffee shop,-20,40,20","Andrew","Doesn't give me an emotional response,0,160,20","0"
"138839","","survey-text","188","1711195","0.0-187.0-0.0","A1ZS2VL87B5K2I","","","","{""Q0"":""we""}","","","","","","","","","","","","","","","","","","","","","","",""
"73025","","survey-text","189","1784222","0.0-188.0-0.0","A1ZS2VL87B5K2I","","","","{""Q0"":""a lot going on, mix of colors""}","","","","","","","","","","","","","","","","","","","","","","",""
"63148.79999999888","","image-slider-response","190","1847371","0.0-189.0","A1ZS2VL87B5K2I","","","","","20","","","","","","","","","","","","","","","","","","","","","",""
"null","","image-button-response","191","1852378","0.0-190.0","A1ZS2VL87B5K2I","img_art/21.jpg","null","","","","","","","","","","","","","","","","","","","","","","","","",""
"52987","","image-button-response","192","1905368","0.0-191.0","A1ZS2VL87B5K2I","img_art/21.jpg","4","","","","","","","","","","","","","","","","","","","","","","","","",""
"1110","","image-button-response","193","1906481","0.0-192.0-0.0","A1ZS2VL87B5K2I","img_art/21.jpg","1","","","","","","","","","","","","","","","","","","","","","","","","",""
"605","","image-button-response","194","1907089","0.0-193.0-0.0","A1ZS2VL87B5K2I","img_art/21.jpg","0","","","","","","","","","","","","","","","","","","","","","","","","",""
"null","","html-keyboard-response","195","1907590","0.0-194.0","A1ZS2VL87B5K2I","<p style=""font-size: 48px;"">+</p>","","","","","null","allTrialResponses","500","1","21","img_art/21.jpg","20","a lot going on, mix of colors","David,Miguel,Victor,Andrew,Dylan,Patrick","I like how the piece has the possibility of depicting some type of story.,30,340,20","Amazing colors.,34,160,20","I really like these colors together and their placement. The dabs of white are a nice contrast to the soft blending,10,340,20","I love the contrasting tones between the two sides,36,160,20","This one is nice, it reminds me of the sky,42,40,20","It looks confusing,-21,280,20","Dylan","This one is nice, it reminds me of the sky,42,40,20","Miguel","Amazing colors.,34,160,20","David","I like how the piece has the possibility of depicting some type of story.,30,340,20","0"
"10991","","survey-text","196","1918587","0.0-195.0-0.0","A1ZS2VL87B5K2I","","","","{""Q0"":""chaotic, dont like the colors""}","","","","","","","","","","","","","","","","","","","","","","",""
"3024.0999999996275","","image-slider-response","197","1921613","0.0-196.0","A1ZS2VL87B5K2I","","","","","-12","","","","","","","","","","","","","","","","","","","","","",""
"4374","","image-button-response","198","1926621","0.0-197.0","A1ZS2VL87B5K2I","img_art/18.jpg","4","","","","","","","","","","","","","","","","","","","","","","","","",""
"717","","image-button-response","199","1927340","0.0-198.0","A1ZS2VL87B5K2I","img_art/18.jpg","4","","","","","","","","","","","","","","","","","","","","","","","","",""
"627","","image-button-response","200","1927970","0.0-199.0-0.0","A1ZS2VL87B5K2I","img_art/18.jpg","3","","","","","","","","","","","","","","","","","","","","","","","","",""
"616","","image-button-response","201","1928589","0.0-200.0-0.0","A1ZS2VL87B5K2I","img_art/18.jpg","5","","","","","","","","","","","","","","","","","","","","","","","","",""
"null","","html-keyboard-response","202","1930095","0.0-201.0","A1ZS2VL87B5K2I","<p style=""font-size: 48px;"">+</p>","","","","","null","allTrialResponses","1500","1","22","img_art/18.jpg","-12","chaotic, dont like the colors","David,Miguel,Jonathan,Cole,Dylan,Devon","I like how the image gives off an impression of bravery.,25,340,20","This looks amazing.,40,160,20","There's danger in this painting and it's awesome,40,140,20","Two people fighting with one watching,17,200,20","Ugly, too much is going on,-40,40,20","I really like this one - there seems to be a story behind it,32,400,20","Dylan","Ugly, too much is going on,-40,40,20","Cole","Two people fighting with one watching,17,200,20","Devon","I really like this one - there seems to be a story behind it,32,400,20","0"
"27851","","survey-text","203","1957952","0.0-202.0-0.0","A1ZS2VL87B5K2I","","","","{""Q0"":""a lot of streets, crowded. looks mot appealing""}","","","","","","","","","","","","","","","","","","","","","","",""
"4216.700000001118","","image-slider-response","204","1962171","0.0-203.0","A1ZS2VL87B5K2I","","","","","-19","","","","","","","","","","","","","","","","","","","","","",""
"null","","image-button-response","205","1967184","0.0-204.0","A1ZS2VL87B5K2I","img_art/11.jpg","null","","","","","","","","","","","","","","","","","","","","","","","","",""
"3172","","image-button-response","206","1970358","0.0-205.0","A1ZS2VL87B5K2I","img_art/11.jpg","3","","","","","","","","","","","","","","","","","","","","","","","","",""
"3174","","image-button-response","207","1973535","0.0-206.0-0.0","A1ZS2VL87B5K2I","img_art/11.jpg","2","","","","","","","","","","","","","","","","","","","","","","","","",""
"1595","","image-button-response","208","1975132","0.0-207.0-0.0","A1ZS2VL87B5K2I","img_art/11.jpg","4","","","","","","","","","","","","","","","","","","","","","","","","",""
"null","","html-keyboard-response","209","1976139","0.0-208.0","A1ZS2VL87B5K2I","<p style=""font-size: 48px;"">+</p>","","","","","null","allTrialResponses","1000","1","23","img_art/11.jpg","-19","a lot of streets, crowded. looks mot appealing","Elijah,Cody,Scott,Cole,Dylan,Devon","Very cool, makes me feel good,39,80,20","Pretty, interesting, feels like a city, feels like home,50,180,20","makes me feel dizzy,-37,20,20","Grays arent my thing,-25,200,20","I normally would not like this photo, but the design is nice.,21,40,20","a beautiful piece of art,33,400,20","Cole","Grays arent my thing,-25,200,20","Scott","makes me feel dizzy,-37,20,20","Dylan","I normally would not like this photo, but the design is nice.,21,40,20","0"
"15125","","survey-text","210","1991270","0.0-209.0-0.0","A1ZS2VL87B5K2I","","","","{""Q0"":""interesting. looks like a violin""}","","","","","","","","","","","","","","","","","","","","","","",""
"8897.5","","image-slider-response","211","2000171","0.0-210.0","A1ZS2VL87B5K2I","","","","","18","","","","","","","","","","","","","","","","","","","","","",""
"2765","","image-button-response","212","2005175","0.0-211.0","A1ZS2VL87B5K2I","img_art/10.jpg","3","","","","","","","","","","","","","","","","","","","","","","","","",""
"609","","image-button-response","213","2005786","0.0-212.0","A1ZS2VL87B5K2I","img_art/10.jpg","4","","","","","","","","","","","","","","","","","","","","","","","","",""
"504","","image-button-response","214","2006293","0.0-213.0-0.0","A1ZS2VL87B5K2I","img_art/10.jpg","3","","","","","","","","","","","","","","","","","","","","","","","","",""
"796","","image-button-response","215","2007092","0.0-214.0-0.0","A1ZS2VL87B5K2I","img_art/10.jpg","5","","","","","","","","","","","","","","","","","","","","","","","","",""
"null","","html-keyboard-response","216","2008599","0.0-215.0","A1ZS2VL87B5K2I","<p style=""font-size: 48px;"">+</p>","","","","","null","allTrialResponses","1500","1","24","img_art/10.jpg","18","interesting. looks like a violin","Lucas,Tanner,Scott,Cole,Dylan,Hunter","For me, it looks like a giant ship on the sea and it's astonishing.,30,380,20","music, serenity, love,33,180,20","kind of reminds me of a map,1,20,20","It confuses me. I dont know whats going on,14,200,20","The longer I looked at this, the more I liked it,33,40,20","shapes are appealing/relationship between the beige square and the black lines,24,240,20","Dylan","The longer I looked at this, the more I liked it,33,40,20","Cole","It confuses me. I dont know whats going on,14,200,20","Hunter","shapes are appealing/relationship between the beige square and the black lines,24,240,20","0"
"16791","","survey-text","217","2025397","0.0-216.0-0.0","A1ZS2VL87B5K2I","","","","{""Q0"":""too dark, i dont like it at all""}","","","","","","","","","","","","","","","","","","","","","","",""
"7918.0999999996275","","image-slider-response","218","2033317","0.0-217.0","A1ZS2VL87B5K2I","","","","","-19","","","","","","","","","","","","","","","","","","","","","",""
"4700","","image-button-response","219","2038321","0.0-218.0","A1ZS2VL87B5K2I","img_art/15.jpg","4","","","","","","","","","","","","","","","","","","","","","","","","",""
"1024","","image-button-response","220","2039348","0.0-219.0","A1ZS2VL87B5K2I","img_art/15.jpg","4","","","","","","","","","","","","","","","","","","","","","","","","",""
"1415","","image-button-response","221","2040766","0.0-220.0-0.0","A1ZS2VL87B5K2I","img_art/15.jpg","5","","","","","","","","","","","","","","","","","","","","","","","","",""
"1594","","image-button-response","222","2042363","0.0-221.0-0.0","A1ZS2VL87B5K2I","img_art/15.jpg","1","","","","","","","","","","","","","","","","","","","","","","","","",""
"null","","html-keyboard-response","223","2043870","0.0-222.0","A1ZS2VL87B5K2I","<p style=""font-size: 48px;"">+</p>","","","","","null","allTrialResponses","1500","1","25","img_art/15.jpg","-19","too dark, i dont like it at all","Jason,Noah,Nathan,Cole,Dylan,Hunter","Simplicity of colors is nice,11,20,20","i enjoy its apaprent simplicity (of colour and shape),32,260,20","This is pretty nice, reminds me of dark peacock feathers, or perhaps a bush with berries in it?,15,200,20","It reminds me of when you look up into a tree,21,200,20","This is sort of ugly, but I do like the design.,10,40,20","reminds me of birds in trees,14,240,20","Dylan","This is sort of ugly, but I do like the design.,10,40,20","Hunter","reminds me of birds in trees,14,240,20","Noah","i enjoy its apaprent simplicity (of colour and shape),32,260,20","0"
"8754","","survey-text","224","2052634","0.0-223.0-0.0","A1ZS2VL87B5K2I","","","","{""Q0"":""table""}","","","","","","","","","","","","","","","","","","","","","","",""
"26156","","survey-text","225","2078793","0.0-224.0-0.0","A1ZS2VL87B5K2I","","","","{""Q0"":""beautiful. colorful, abstract but then again not too abstract""}","","","","","","","","","","","","","","","","","","","","","","",""
"11338.5","","image-slider-response","226","2090133","0.0-225.0","A1ZS2VL87B5K2I","","","","","27","","","","","","","","","","","","","","","","","","","","","",""
"1168","","image-button-response","227","2095141","0.0-226.0","A1ZS2VL87B5K2I","img_art/27.jpg","1","","","","","","","","","","","","","","","","","","","","","","","","",""
"1177","","image-button-response","228","2096321","0.0-227.0","A1ZS2VL87B5K2I","img_art/27.jpg","1","","","","","","","","","","","","","","","","","","","","","","","","",""
"493","","image-button-response","229","2096817","0.0-228.0-0.0","A1ZS2VL87B5K2I","img_art/27.jpg","0","","","","","","","","","","","","","","","","","","","","","","","","",""
"593","","image-button-response","230","2097413","0.0-229.0-0.0","A1ZS2VL87B5K2I","img_art/27.jpg","2","","","","","","","","","","","","","","","","","","","","","","","","",""
"null","","html-keyboard-response","231","2097916","0.0-230.0","A1ZS2VL87B5K2I","<p style=""font-size: 48px;"">+</p>","","","","","null","allTrialResponses","500","1","26","img_art/27.jpg","27","beautiful. colorful, abstract but then again not too abstract","Taylor,Noah,Bryan,Spencer,Dylan,Hunter","Looks like a child added his own interpretation with a black marker.,-5,200,20","I generally enjoy the style, but I'm finding the green lines grating,-9,260,20","Not fond of the bad pencil drawing mixed with the drab colors.,-21,400,20","An attractive assortment of squiggles and colors,22,120,20","This is ugly and looks like a child did this,-36,40,20","reminds me of kandinsky,10,240,20","Noah","I generally enjoy the style, but I'm finding the green lines grating,-9,260,20","Taylor","Looks like a child added his own interpretation with a black marker.,-5,200,20","Bryan","Not fond of the bad pencil drawing mixed with the drab colors.,-21,400,20","0"
"17378","","survey-text","232","2115301","0.0-231.0-0.0","A1ZS2VL87B5K2I","","","","{""Q0"":""too dark, dont like the brush strokes""}","","","","","","","","","","","","","","","","","","","","","","",""
"9516.300000000745","","image-slider-response","233","2124819","0.0-232.0","A1ZS2VL87B5K2I","","","","","-15","","","","","","","","","","","","","","","","","","","","","",""
"null","","image-button-response","234","2129826","0.0-233.0","A1ZS2VL87B5K2I","img_art/20.jpg","null","","","","","","","","","","","","","","","","","","","","","","","","",""
"9021","","image-button-response","235","2138849","0.0-234.0","A1ZS2VL87B5K2I","img_art/20.jpg","5","","","","","","","","","","","","","","","","","","","","","","","","",""
"1236","","image-button-response","236","2140087","0.0-235.0-0.0","A1ZS2VL87B5K2I","img_art/20.jpg","1","","","","","","","","","","","","","","","","","","","","","","","","",""
"729","","image-button-response","237","2140818","0.0-236.0-0.0","A1ZS2VL87B5K2I","img_art/20.jpg","0","","","","","","","","","","","","","","","","","","","","","","","","",""
"null","","html-keyboard-response","238","2142322","0.0-237.0","A1ZS2VL87B5K2I","<p style=""font-size: 48px;"">+</p>","","","","","null","allTrialResponses","1500","1","27","img_art/20.jpg","-15","too dark, dont like the brush strokes","Taylor,Noah,Bryan,Christopher,Seth,Isaiah","Not bad for all the southwestern people.,15,200,20","just feels generic,-18,260,20","Reminds me of Georgia O'Keefe.,11,400,20","i ind of like this, it's saying something but not my style,6,160,20","I'm not sure why this reminds me of surrealism. It might be the colors used.,16,60,20","I feel powerful, like I am looking out a window at this machine, that I am in charge.,17,300,20","Isaiah","I feel powerful, like I am looking out a window at this machine, that I am in charge.,17,300,20","Noah","just feels generic,-18,260,20","Taylor","Not bad for all the southwestern people.,15,200,20","0"
"17502","","survey-text","239","2159831","0.0-238.0-0.0","A1ZS2VL87B5K2I","","","","{""Q0"":""nice, love it. simple but also nice to look at""}","","","","","","","","","","","","","","","","","","","","","","",""
"17458.799999998882","","image-slider-response","240","2177292","0.0-239.0","A1ZS2VL87B5K2I","","","","","26","","","","","","","","","","","","","","","","","","","","","",""
"null","","image-button-response","241","2182296","0.0-240.0","A1ZS2VL87B5K2I","img_art/17.jpg","null","","","","","","","","","","","","","","","","","","","","","","","","",""
"720","","image-button-response","242","2183019","0.0-241.0","A1ZS2VL87B5K2I","img_art/17.jpg","4","","","","","","","","","","","","","","","","","","","","","","","","",""
"673","","image-button-response","243","2183694","0.0-242.0-0.0","A1ZS2VL87B5K2I","img_art/17.jpg","3","","","","","","","","","","","","","","","","","","","","","","","","",""
"1707","","image-button-response","244","2185404","0.0-243.0-0.0","A1ZS2VL87B5K2I","img_art/17.jpg","1","","","","","","","","","","","","","","","","","","","","","","","","",""
"null","","html-keyboard-response","245","2186908","0.0-244.0","A1ZS2VL87B5K2I","<p style=""font-size: 48px;"">+</p>","","","","","null","allTrialResponses","1500","1","28","img_art/17.jpg","26","nice, love it. simple but also nice to look at","Taylor,Noah,Daniel,Anthony,Nicholas,Isaiah","Somewhat should trim the tree branches at the shopping mall.,10,200,20","feel close to nature,30,260,20","2 paintings in 1 with shared colors,5,320,20","Very elegant, this design reminds me of trees,31,200,20","Nice colors, shapes, flow,31,240,20","The painting makes me feel relaxed, and a bit lonely, like I'm sitting at a park waiting for someone.,30,300,20","Nicholas","Nice colors, shapes, flow,31,240,20","Anthony","Very elegant, this design reminds me of trees,31,200,20","Noah","feel close to nature,30,260,20","0"
"21035","","survey-text","246","2207949","0.0-245.0-0.0","A1ZS2VL87B5K2I","","","","{""Q0"":""unique, simple but also weird""}","","","","","","","","","","","","","","","","","","","","","","",""
"12115.800000000745","","image-slider-response","247","2220067","0.0-246.0","A1ZS2VL87B5K2I","","","","","8","","","","","","","","","","","","","","","","","","","","","",""
"null","","image-button-response","248","2225075","0.0-247.0","A1ZS2VL87B5K2I","img_art/6.jpg","null","","","","","","","","","","","","","","","","","","","","","","","","",""
"8424","","image-button-response","249","2233501","0.0-248.0","A1ZS2VL87B5K2I","img_art/6.jpg","1","","","","","","","","","","","","","","","","","","","","","","","","",""
"492","","image-button-response","250","2233996","0.0-249.0-0.0","A1ZS2VL87B5K2I","img_art/6.jpg","0","","","","","","","","","","","","","","","","","","","","","","","","",""
"965","","image-button-response","251","2234964","0.0-250.0-0.0","A1ZS2VL87B5K2I","img_art/6.jpg","4","","","","","","","","","","","","","","","","","","","","","","","","",""
"null","","html-keyboard-response","252","2235467","0.0-251.0","A1ZS2VL87B5K2I","<p style=""font-size: 48px;"">+</p>","","","","","null","allTrialResponses","500","1","29","img_art/6.jpg","8","unique, simple but also weird","Charles,Noah,Edward,Anthony,Nicholas,Grant","It's pretty dour,-10,100,20","intrigues me - not sure what I'm seeing, but I like combination of colour and texture,21,260,20","It looks like a bird looking away,32,60,20","I am neutral towards this piece.,0,200,20","It isnt bad but sort of too bland,0,240,20","The limited colors make me feel lonely.,36,200,20","Noah","intrigues me - not sure what I'm seeing, but I like combination of colour and texture,21,260,20","Charles","It's pretty dour,-10,100,20","Nicholas","It isnt bad but sort of too bland,0,240,20","0"
"17400","","survey-text","253","2252874","0.0-252.0-0.0","A1ZS2VL87B5K2I","","","","{""Q0"":""too abstract. all over the place""}","","","","","","","","","","","","","","","","","","","","","","",""
"2169.2999999988824","","image-slider-response","254","2255045","0.0-253.0","A1ZS2VL87B5K2I","","","","","7","","","","","","","","","","","","","","","","","","","","","",""
"null","","image-button-response","255","2260053","0.0-254.0","A1ZS2VL87B5K2I","img_art/26.jpg","null","","","","","","","","","","","","","","","","","","","","","","","","",""
"470","","image-button-response","256","2260525","0.0-255.0","A1ZS2VL87B5K2I","img_art/26.jpg","3","","","","","","","","","","","","","","","","","","","","","","","","",""
"898","","image-button-response","257","2261425","0.0-256.0-0.0","A1ZS2VL87B5K2I","img_art/26.jpg","1","","","","","","","","","","","","","","","","","","","","","","","","",""
"402","","image-button-response","258","2261830","0.0-257.0-0.0","A1ZS2VL87B5K2I","img_art/26.jpg","2","","","","","","","","","","","","","","","","","","","","","","","","",""
"null","","html-keyboard-response","259","2262332","0.0-258.0","A1ZS2VL87B5K2I","<p style=""font-size: 48px;"">+</p>","","","","","null","allTrialResponses","500","1","30","img_art/26.jpg","7","too abstract. all over the place","Charles,Noah,Logan,Ian,Nicholas,Marcus","It looks like I'm staring out of the window of a nice house, but the house is mine,20,100,20","fairly neutral, really,8,260,20","I really love pastels and they're just being dimmed down too much here,-3,360,20","This seems pretty and sweet, it's something I would like to actually see.,31,260,20","I like the colors and trees. Seems cheap vintage retail store art but i love it anyways,50,240,20","Nice, but not very interesting. I do like the blue tree though.,6,60,20","Ian","This seems pretty and sweet, it's something I would like to actually see.,31,260,20","Noah","fairly neutral, really,8,260,20","Logan","I really love pastels and they're just being dimmed down too much here,-3,360,20","0"
"3033","","image-button-response_instructions","260","2265373","0.0-259.0","A1ZS2VL87B5K2I","","0","instructions","","","","","","","","","","","","","","","","","","","","","","","",""
"1513","","image-button-response","261","2266892","0.0-260.0","A1ZS2VL87B5K2I","","0","","","","","","","","","","","","","","","","","","","","","","","","",""
