"rt","url","trial_type","trial_index","time_elapsed","internal_node_id","participant_id","stimulus","button_pressed","Name","responses","response","key_press","variableName","fixationTime","condition","trial","photo","subjectRating","subjectResponse","agentsNames","agent_1_Response","agent_2_Response","agent_3_Response","agent_4_Response","agent_5_Response","agent_6_Response","kept_1_name","kept_1_response","kept_2_name","kept_2_response","kept_3_name","kept_3_response","errorCounter"
"172882","external_page_harvard.html","external-html","0","172993","0.0-0.0","A20CZCJPRP54G9","","","","","","","","","","","","","","","","","","","","","","","","","","",""
"1555","","image-button-response","1","174550","0.0-1.0","A20CZCJPRP54G9","","0","","","","","","","","","","","","","","","","","","","","","","","","",""
"2345","","image-button-response","2","176902","0.0-2.0-0.0","A20CZCJPRP54G9","","1","phone","","","","","","","","","","","","","","","","","","","","","","","",""
"7845","","survey-text","3","184750","0.0-3.0-0.0","A20CZCJPRP54G9","","","","{""Q0"":""A20CZCJPRP54G9""}","","","","","","","","","","","","","","","","","","","","","","",""
"11780","","image-button-response_instructions","4","196533","0.0-4.0","A20CZCJPRP54G9","","0","instructions","","","","","","","","","","","","","","","","","","","","","","","",""
"13783","","image-button-response_instructions","5","210317","0.0-5.0","A20CZCJPRP54G9","img_art/ins/popularity/ins1.png","0","instructions","","","","","","","","","","","","","","","","","","","","","","","",""
"5310","","image-button-response_instructions","6","215630","0.0-6.0","A20CZCJPRP54G9","img_art/ins/popularity/ins2.png","0","instructions","","","","","","","","","","","","","","","","","","","","","","","",""
"4317","","image-button-response_instructions","7","219950","0.0-7.0","A20CZCJPRP54G9","img_art/ins/popularity/ins2Extreme.png","0","instructions","","","","","","","","","","","","","","","","","","","","","","","",""
"5756","","image-button-response_instructions","8","225708","0.0-8.0","A20CZCJPRP54G9","img_art/ins/popularity/ins3KEEPpop.PNG","0","instructions","","","","","","","","","","","","","","","","","","","","","","","",""
"3096","","image-button-response_instructions","9","228805","0.0-9.0","A20CZCJPRP54G9","img_art/ins/popularity/ins3ANamepop.PNG","0","instructions","","","","","","","","","","","","","","","","","","","","","","","",""
"3285","","image-button-response_instructions","10","232093","0.0-10.0","A20CZCJPRP54G9","img_art/ins/popularity/ins3ARatingpop.png","0","instructions","","","","","","","","","","","","","","","","","","","","","","","",""
"3773","","image-button-response_instructions","11","235869","0.0-11.0","A20CZCJPRP54G9","img_art/ins/popularity/ins3ATextpop.png","0","instructions","","","","","","","","","","","","","","","","","","","","","","","",""
"6806","","image-button-response_instructions","12","242676","0.0-12.0","A20CZCJPRP54G9","img_art/ins/popularity/ins3ALikespop.png","0","instructions","","","","","","","","","","","","","","","","","","","","","","","",""
"9127","","image-button-response_instructions","13","251805","0.0-13.0","A20CZCJPRP54G9","img_art/ins/popularity/ins3KEEPpop.PNG","0","instructions","","","","","","","","","","","","","","","","","","","","","","","",""
"10749","","image-button-response_instructions","14","262557","0.0-14.0","A20CZCJPRP54G9","img_art/ins/popularity/ins3_5RED.png","0","instructions","","","","","","","","","","","","","","","","","","","","","","","",""
"5021","","image-button-response_instructions","15","267581","0.0-15.0","A20CZCJPRP54G9","img_art/ins/popularity/ins3KEEPpop.PNG","0","instructions","","","","","","","","","","","","","","","","","","","","","","","",""
"6525","","image-button-response_instructions","16","274108","0.0-16.0","A20CZCJPRP54G9","img_art/ins/popularity/ins4KEEPpop.PNG","0","instructions","","","","","","","","","","","","","","","","","","","","","","","",""
"4503","","image-button-response_instructions","17","278613","0.0-17.0","A20CZCJPRP54G9","img_art/ins/popularity/ins5KEEPpop.PNG","0","instructions","","","","","","","","","","","","","","","","","","","","","","","",""
"1541","","image-button-response_instructions","18","280156","0.0-18.0","A20CZCJPRP54G9","","0","instructions","","","","","","","","","","","","","","","","","","","","","","","",""
"4395","","survey-text","19","284567","0.0-19.0-0.0","A20CZCJPRP54G9","","","","{""Q0"":""but""}","","","","","","","","","","","","","","","","","","","","","","",""
"23300","","survey-text","20","307868","0.0-20.0-0.0","A20CZCJPRP54G9","","","","{""Q0"":""I like the contrast between the yellows and reds""}","","","","","","","","","","","","","","","","","","","","","","",""
"8836","","image-slider-response","21","316709","0.0-21.0","A20CZCJPRP54G9","","","","","10","","","","","","","","","","","","","","","","","","","","","",""
"null","","image-button-response","22","321713","0.0-22.0","A20CZCJPRP54G9","img_art/ins/1.jpg","null","","","","","","","","","","","","","","","","","","","","","","","","",""
"7792","","image-button-response","23","329507","0.0-23.0","A20CZCJPRP54G9","img_art/ins/1.jpg","5","","","","","","","","","","","","","","","","","","","","","","","","",""
"1158","","image-button-response","24","330668","0.0-24.0-0.0","A20CZCJPRP54G9","img_art/ins/1.jpg","3","","","","","","","","","","","","","","","","","","","","","","","","",""
"4212","","image-button-response","25","334884","0.0-25.0-0.0","A20CZCJPRP54G9","img_art/ins/1.jpg","0","","","","","","","","","","","","","","","","","","","","","","","","",""
"null","","html-keyboard-response","26","335389","0.0-26.0","A20CZCJPRP54G9","<p style=""font-size: 48px;"">+</p>","","","","","null","allTrialResponses","500","1","-2","img_art/ins/1.jpg","10","I like the contrast between the yellows and reds","Adam,Alex,Ben,Carl,Daniel,Jack","Seems like doodles,-20,20,20","very creative work.,36,40,20","This color reminds me of poo,-46,60,20","very calming artwork,42,80,20","It looks like a murder scene.,-48,100,20","I like the sophisticated brushwork,40,120,20","Jack","I like the sophisticated brushwork,40,120,20","Carl","very calming artwork,42,80,20","Adam","Seems like doodles,-20,20,20","0"
"36194","","survey-text","27","371588","0.0-27.0-0.0","A20CZCJPRP54G9","","","","{""Q0"":""the artist demonstrates skill but I don't get it""}","","","","","","","","","","","","","","","","","","","","","","",""
"4307","","image-slider-response","28","375898","0.0-28.0","A20CZCJPRP54G9","","","","","-10","","","","","","","","","","","","","","","","","","","","","",""
"null","","image-button-response","29","380907","0.0-29.0","A20CZCJPRP54G9","img_art/ins/2.jpg","null","","","","","","","","","","","","","","","","","","","","","","","","",""
"815","","image-button-response","30","381723","0.0-30.0","A20CZCJPRP54G9","img_art/ins/2.jpg","0","","","","","","","","","","","","","","","","","","","","","","","","",""
"8295","","image-button-response","31","390019","0.0-31.0-0.0","A20CZCJPRP54G9","img_art/ins/2.jpg","2","","","","","","","","","","","","","","","","","","","","","","","","",""
"6789","","image-button-response","32","396811","0.0-32.0-0.0","A20CZCJPRP54G9","img_art/ins/2.jpg","0","","","","","","","","","","","","","","","","","","","","","","","","",""
"1965","","image-button-response","33","403779","0.0-32.1-0.1","A20CZCJPRP54G9","img_art/ins/2.jpg","1","","","","","","","","","","","","","","","","","","","","","","","","",""
"null","","html-keyboard-response","34","405283","0.0-33.0","A20CZCJPRP54G9","<p style=""font-size: 48px;"">+</p>","","","","","null","allTrialResponses","1500","1","-1","img_art/ins/2.jpg","-10","the artist demonstrates skill but I don't get it","Adam,James,Kyle,Carl,John,Jack","too much color,-18,20,20","looks too angry,-50,140,20","Idk, it is just annoying,-32,180,20","I can feel the artist's passion in it,45,80,20","love the texture of paint,48,160,20","I would never be able to compose a sophisticated pallete like this,48,120,20","Adam","too much color,-18,20,20","Kyle","Idk, it is just annoying,-32,180,20","James","looks too angry,-50,140,20","2"
"25809","","survey-text","35","431099","0.0-34.0-0.0","A20CZCJPRP54G9","","","","{""Q0"":""the strokes are cool and calming""}","","","","","","","","","","","","","","","","","","","","","","",""
"6958","","image-slider-response","36","438058","0.0-35.0","A20CZCJPRP54G9","","","","","30","","","","","","","","","","","","","","","","","","","","","",""
"3656","","image-button-response","37","443066","0.0-36.0","A20CZCJPRP54G9","img_art/ins/3.jpg","3","","","","","","","","","","","","","","","","","","","","","","","","",""
"4168","","image-button-response","38","447235","0.0-37.0","A20CZCJPRP54G9","img_art/ins/3.jpg","5","","","","","","","","","","","","","","","","","","","","","","","","",""
"9069","","image-button-response","39","456307","0.0-38.0-0.0","A20CZCJPRP54G9","img_art/ins/3.jpg","2","","","","","","","","","","","","","","","","","","","","","","","","",""
"3021","","image-button-response","40","459331","0.0-39.0-0.0","A20CZCJPRP54G9","img_art/ins/3.jpg","3","","","","","","","","","","","","","","","","","","","","","","","","",""
"null","","html-keyboard-response","41","460837","0.0-40.0","A20CZCJPRP54G9","<p style=""font-size: 48px;"">+</p>","","","","","null","allTrialResponses","1500","1","0","img_art/ins/3.jpg","30","the strokes are cool and calming","Adam,James,Kyle,Mike,Ron,Sam","My daily routine, it's depressing,-20,20,20","My worst nightmare,-42,140,20","It looks like a playground for bats,-36,180,20","enjoy the different shades of blue,22,200,20","It looks depressing,-26,220,20","I can feel a rainy day from this painting,18,240,20","Sam","I can feel a rainy day from this painting,18,240,20","Kyle","It looks like a playground for bats,-36,180,20","Mike","enjoy the different shades of blue,22,200,20","2"
"7257","","image-button-response_instructions","42","468099","0.0-41.0","A20CZCJPRP54G9","","0","instructions","","","","","","","","","","","","","","","","","","","","","","","",""
"12980","","survey-likert","43","481082","0.0-42.0-0.0","A20CZCJPRP54G9","","","","{""Q0"":"""",""Q1"":0,""Q2"":1}","","","","","","","","","","","","","","","","","","","","","","",""
"4436","","survey-text","44","485521","0.0-43.0-0.0","A20CZCJPRP54G9","","","","{""Q0"":""rock""}","","","","","","","","","","","","","","","","","","","","","","",""
"18672","","survey-text","45","504195","0.0-44.0-0.0","A20CZCJPRP54G9","","","","{""Q0"":""looks like a cute green smiley face""}","","","","","","","","","","","","","","","","","","","","","","",""
"4958","","image-slider-response","46","509155","0.0-45.0","A20CZCJPRP54G9","","","","","20","","","","","","","","","","","","","","","","","","","","","",""
"null","","image-button-response","47","514177","0.0-46.0","A20CZCJPRP54G9","img_art/2.jpg","null","","","","","","","","","","","","","","","","","","","","","","","","",""
"7558","","image-button-response","48","521739","0.0-47.0","A20CZCJPRP54G9","img_art/2.jpg","3","","","","","","","","","","","","","","","","","","","","","","","","",""
"7693","","image-button-response","49","529435","0.0-48.0-0.0","A20CZCJPRP54G9","img_art/2.jpg","2","","","","","","","","","","","","","","","","","","","","","","","","",""
"2597","","image-button-response","50","532036","0.0-49.0-0.0","A20CZCJPRP54G9","img_art/2.jpg","5","","","","","","","","","","","","","","","","","","","","","","","","",""
"null","","html-keyboard-response","51","533039","0.0-50.0","A20CZCJPRP54G9","<p style=""font-size: 48px;"">+</p>","","","","","null","allTrialResponses","1000","1","1","img_art/2.jpg","20","looks like a cute green smiley face","Joshua,Scott,Antonio,Jesus,Gabriel,Lucas","Looks like child's art.,-19,240,20","looks like a child's artwork,-40,20,20","Colors are drab and cause a sense of blandness,-28,220,20","Muted green is overpowering,-10,100,20","i dont like it, no thank you,-28,160,20","Colorful, curious.,20,380,20","Jesus","Muted green is overpowering,-10,100,20","Antonio","Colors are drab and cause a sense of blandness,-28,220,20","Lucas","Colorful, curious.,20,380,20","2"
"53628","","survey-text","52","586674","0.0-51.0-0.0","A20CZCJPRP54G9","","","","{""Q0"":""looks like the paint melted and started running down""}","","","","","","","","","","","","","","","","","","","","","","",""
"5047","","image-slider-response","53","591722","0.0-52.0","A20CZCJPRP54G9","","","","","-20","","","","","","","","","","","","","","","","","","","","","",""
"null","","image-button-response","54","596730","0.0-53.0","A20CZCJPRP54G9","img_art/30.jpg","null","","","","","","","","","","","","","","","","","","","","","","","","",""
"5654","","image-button-response","55","602386","0.0-54.0","A20CZCJPRP54G9","img_art/30.jpg","0","","","","","","","","","","","","","","","","","","","","","","","","",""
"1341","","image-button-response","56","603729","0.0-55.0-0.0","A20CZCJPRP54G9","img_art/30.jpg","1","","","","","","","","","","","","","","","","","","","","","","","","",""
"2701","","image-button-response","57","606433","0.0-56.0-0.0","A20CZCJPRP54G9","img_art/30.jpg","2","","","","","","","","","","","","","","","","","","","","","","","","",""
"null","","html-keyboard-response","58","607940","0.0-57.0","A20CZCJPRP54G9","<p style=""font-size: 48px;"">+</p>","","","","","null","allTrialResponses","1500","1","2","img_art/30.jpg","-20","looks like the paint melted and started running down","Patrick,Jesse,Antonio,Jesus,Jorge,Lucas","I don't like the blended colors,-20,280,20","I do like the multi-dimensional aspect of this piece,10,80,20","Fear. It looks like snakes in the picture,13,220,20","I like the forefront design.,10,100,20","fun and imaginative,12,180,20","I like the way the artist has painted his work.,40,380,20","Patrick","I don't like the blended colors,-20,280,20","Jesse","I do like the multi-dimensional aspect of this piece,10,80,20","Antonio","Fear. It looks like snakes in the picture,13,220,20","2"
"22332","","survey-text","59","630280","0.0-58.0-0.0","A20CZCJPRP54G9","","","","{""Q0"":""the green background brings life to the figure""}","","","","","","","","","","","","","","","","","","","","","","",""
"5398","","image-slider-response","60","635680","0.0-59.0","A20CZCJPRP54G9","","","","","25","","","","","","","","","","","","","","","","","","","","","",""
"3247","","image-button-response","61","640684","0.0-60.0","A20CZCJPRP54G9","img_art/25.jpg","4","","","","","","","","","","","","","","","","","","","","","","","","",""
"2244","","image-button-response","62","642930","0.0-61.0","A20CZCJPRP54G9","img_art/25.jpg","3","","","","","","","","","","","","","","","","","","","","","","","","",""
"5589","","image-button-response","63","648521","0.0-62.0-0.0","A20CZCJPRP54G9","img_art/25.jpg","5","","","","","","","","","","","","","","","","","","","","","","","","",""
"1164","","image-button-response","64","649689","0.0-63.0-0.0","A20CZCJPRP54G9","img_art/25.jpg","4","","","","","","","","","","","","","","","","","","","","","","","","",""
"null","","html-keyboard-response","65","650695","0.0-64.0","A20CZCJPRP54G9","<p style=""font-size: 48px;"">+</p>","","","","","null","allTrialResponses","1000","1","3","img_art/25.jpg","25","the green background brings life to the figure","Patrick,Jesse,Antonio,Trevor,Richard,Alejandro","Green color is not my thing,-29,280,20","Creates a bit of fear in me for some reason,-26,80,20","Makes me think of Baphomet, As above so below and is scary,-50,220,20","nice colors and it looks like a native work,32,280,20","interesting pattern and color choice, kind of unusual,2,340,20","Seems ritualistic and nativist,50,80,20","Trevor","nice colors and it looks like a native work,32,280,20","Alejandro","Seems ritualistic and nativist,50,80,20","Richard","interesting pattern and color choice, kind of unusual,2,340,20","2"
"16026","","survey-text","66","666728","0.0-65.0-0.0","A20CZCJPRP54G9","","","","{""Q0"":""looks like  puzzle where the pieces aren't connected yet""}","","","","","","","","","","","","","","","","","","","","","","",""
"4542","","image-slider-response","67","671272","0.0-66.0","A20CZCJPRP54G9","","","","","-5","","","","","","","","","","","","","","","","","","","","","",""
"2237","","image-button-response","68","676276","0.0-67.0","A20CZCJPRP54G9","img_art/12.jpg","2","","","","","","","","","","","","","","","","","","","","","","","","",""
"1051","","image-button-response","69","677329","0.0-68.0","A20CZCJPRP54G9","img_art/12.jpg","2","","","","","","","","","","","","","","","","","","","","","","","","",""
"14317","","image-button-response","70","691649","0.0-69.0-0.0","A20CZCJPRP54G9","img_art/12.jpg","1","","","","","","","","","","","","","","","","","","","","","","","","",""
"7900","","image-button-response","71","699553","0.0-70.0-0.0","A20CZCJPRP54G9","img_art/12.jpg","4","","","","","","","","","","","","","","","","","","","","","","","","",""
"null","","html-keyboard-response","72","700556","0.0-71.0","A20CZCJPRP54G9","<p style=""font-size: 48px;"">+</p>","","","","","null","allTrialResponses","1000","1","4","img_art/12.jpg","-5","looks like  puzzle where the pieces aren't connected yet","Hunter,Isaac,Travis,Trevor,Richard,Alejandro","reminds me of a dixie cup,3,240,20","I like the gradient of little color on the top to colorful on the bottom.,24,280,20","Neutral...just blocks.,3,260,20","way too 90s/80s for me,-9,280,20","seems too dark on top and too common on the bottom,-19,340,20","I like the sectioned nature of the squares and curves. Not my favorite but still a good one.,27,80,20","Travis","Neutral...just blocks.,3,260,20","Isaac","I like the gradient of little color on the top to colorful on the bottom.,24,280,20","Richard","seems too dark on top and too common on the bottom,-19,340,20","2"
"35095","","survey-text","73","735657","0.0-72.0-0.0","A20CZCJPRP54G9","","","","{""Q0"":""trippy scene, I like it""}","","","","","","","","","","","","","","","","","","","","","","",""
"3260","","image-slider-response","74","738919","0.0-73.0","A20CZCJPRP54G9","","","","","25","","","","","","","","","","","","","","","","","","","","","",""
"4574","","image-button-response","75","743926","0.0-74.0","A20CZCJPRP54G9","img_art/8.jpg","4","","","","","","","","","","","","","","","","","","","","","","","","",""
"943","","image-button-response","76","744872","0.0-75.0","A20CZCJPRP54G9","img_art/8.jpg","4","","","","","","","","","","","","","","","","","","","","","","","","",""
"1973","","image-button-response","77","746848","0.0-76.0-0.0","A20CZCJPRP54G9","img_art/8.jpg","3","","","","","","","","","","","","","","","","","","","","","","","","",""
"4022","","image-button-response","78","750873","0.0-77.0-0.0","A20CZCJPRP54G9","img_art/8.jpg","2","","","","","","","","","","","","","","","","","","","","","","","","",""
"null","","html-keyboard-response","79","751880","0.0-78.0","A20CZCJPRP54G9","<p style=""font-size: 48px;"">+</p>","","","","","null","allTrialResponses","1000","1","5","img_art/8.jpg","25","trippy scene, I like it","Jeremy,Isaac,Travis,Thomas,Richard,Edward","Nervous like being up high,10,60,20","It looks like it took a lot of time to complete.,34,280,20","I like the colors and the scene.,24,260,20","Gorgeous! I love the colors and the details.,50,220,20","lots going on with great use of lots of color and geometry,24,340,20","It's too boxy for my taste,-10,60,20","Richard","lots going on with great use of lots of color and geometry,24,340,20","Thomas","Gorgeous! I love the colors and the details.,50,220,20","Travis","I like the colors and the scene.,24,260,20","2"
"3404","","survey-text","80","755295","0.0-79.0-0.0","A20CZCJPRP54G9","","","","{""Q0"":""sky""}","","","","","","","","","","","","","","","","","","","","","","",""
"21718","","survey-text","81","777015","0.0-80.0-0.0","A20CZCJPRP54G9","","","","{""Q0"":""the blob in the middle is uninteresting""}","","","","","","","","","","","","","","","","","","","","","","",""
"3558","","image-slider-response","82","780576","0.0-81.0","A20CZCJPRP54G9","","","","","-20","","","","","","","","","","","","","","","","","","","","","",""
"3892","","image-button-response","83","785579","0.0-82.0","A20CZCJPRP54G9","img_art/9.jpg","2","","","","","","","","","","","","","","","","","","","","","","","","",""
"608","","image-button-response","84","786191","0.0-83.0","A20CZCJPRP54G9","img_art/9.jpg","2","","","","","","","","","","","","","","","","","","","","","","","","",""
"5429","","image-button-response","85","791623","0.0-84.0-0.0","A20CZCJPRP54G9","img_art/9.jpg","5","","","","","","","","","","","","","","","","","","","","","","","","",""
"5045","","image-button-response","86","796672","0.0-85.0-0.0","A20CZCJPRP54G9","img_art/9.jpg","1","","","","","","","","","","","","","","","","","","","","","","","","",""
"null","","html-keyboard-response","87","797673","0.0-86.0","A20CZCJPRP54G9","<p style=""font-size: 48px;"">+</p>","","","","","null","allTrialResponses","1000","1","6","img_art/9.jpg","-20","the blob in the middle is uninteresting","Derek,Dakota,Travis,Thomas,Richard,Miguel","It's wild and chaotic but also beautiful and has some kind of calming factor about it,20,360,20","autopsy, morgue, dead corpses - don't like the flesh tones,-43,280,20","Stuipid looking...dumb,-48,260,20","I don't like the picture, but it wouldn't surprise me if someone did,-20,220,20","looks like an imitation of a real piece of art, reclining lady,-1,340,20","Abstract but not well made,-26,160,20","Travis","Stuipid looking...dumb,-48,260,20","Miguel","Abstract but not well made,-26,160,20","Dakota","autopsy, morgue, dead corpses - don't like the flesh tones,-43,280,20","2"
"17480","","survey-text","88","815158","0.0-87.0-0.0","A20CZCJPRP54G9","","","","{""Q0"":""I like the splash effect and color combo""}","","","","","","","","","","","","","","","","","","","","","","",""
"7430","","image-slider-response","89","822590","0.0-88.0","A20CZCJPRP54G9","","","","","25","","","","","","","","","","","","","","","","","","","","","",""
"2671","","image-button-response","90","827593","0.0-89.0","A20CZCJPRP54G9","img_art/13.jpg","5","","","","","","","","","","","","","","","","","","","","","","","","",""
"419","","image-button-response","91","828014","0.0-90.0","A20CZCJPRP54G9","img_art/13.jpg","5","","","","","","","","","","","","","","","","","","","","","","","","",""
"7216","","image-button-response","92","835232","0.0-91.0-0.0","A20CZCJPRP54G9","img_art/13.jpg","4","","","","","","","","","","","","","","","","","","","","","","","","",""
"2403","","image-button-response","93","837639","0.0-92.0-0.0","A20CZCJPRP54G9","img_art/13.jpg","2","","","","","","","","","","","","","","","","","","","","","","","","",""
"null","","html-keyboard-response","94","838643","0.0-93.0","A20CZCJPRP54G9","<p style=""font-size: 48px;"">+</p>","","","","","null","allTrialResponses","1000","1","7","img_art/13.jpg","25","I like the splash effect and color combo","Shane,Dakota,Travis,Ethan,Chase,Miguel","Rain drops on a window,35,80,20","water on my shower curtain - I feel refreshed, renewed,9,280,20","I love the colors and the texture,37,260,20","I do not care for the colors in this art. it doesnt go well at all.,-15,120,20","Seems a little cold but I like the neuron looking splatters.,10,120,20","Nice color abstractions.,21,160,20","Miguel","Nice color abstractions.,21,160,20","Chase","Seems a little cold but I like the neuron looking splatters.,10,120,20","Travis","I love the colors and the texture,37,260,20","2"
"32166","","survey-text","95","870815","0.0-94.0-0.0","A20CZCJPRP54G9","","","","{""Q0"":""looks like blood splatter on a chocolate cake""}","","","","","","","","","","","","","","","","","","","","","","",""
"3342","","image-slider-response","96","874160","0.0-95.0","A20CZCJPRP54G9","","","","","-5","","","","","","","","","","","","","","","","","","","","","",""
"3459","","image-button-response","97","879165","0.0-96.0","A20CZCJPRP54G9","img_art/29.jpg","2","","","","","","","","","","","","","","","","","","","","","","","","",""
"1223","","image-button-response","98","880390","0.0-97.0","A20CZCJPRP54G9","img_art/29.jpg","2","","","","","","","","","","","","","","","","","","","","","","","","",""
"1943","","image-button-response","99","882336","0.0-98.0-0.0","A20CZCJPRP54G9","img_art/29.jpg","1","","","","","","","","","","","","","","","","","","","","","","","","",""
"2437","","image-button-response","100","884775","0.0-99.0-0.0","A20CZCJPRP54G9","img_art/29.jpg","3","","","","","","","","","","","","","","","","","","","","","","","","",""
"null","","html-keyboard-response","101","885281","0.0-100.0","A20CZCJPRP54G9","<p style=""font-size: 48px;"">+</p>","","","","","null","allTrialResponses","500","1","8","img_art/29.jpg","-5","looks like blood splatter on a chocolate cake","Jake,James,Travis,Tanner,Chase,Miguel","This is very gross and odd looking.,-8,360,20","It has a red X on there, and x's mean bad in my perspective,-29,380,20","Neural...just a blackboard jungle.,3,260,20","danger, crime scene,,10,180,20","This is ugly as fuck,-50,120,20","It's too messy.,-25,160,20","Travis","Neural...just a blackboard jungle.,3,260,20","James","It has a red X on there, and x's mean bad in my perspective,-29,380,20","Tanner","danger, crime scene,,10,180,20","2"
"21222","","survey-text","102","906509","0.0-101.0-0.0","A20CZCJPRP54G9","","","","{""Q0"":""it almost looks like a guitar as interpreted by Dali""}","","","","","","","","","","","","","","","","","","","","","","",""
"3573","","image-slider-response","103","910085","0.0-102.0","A20CZCJPRP54G9","","","","","10","","","","","","","","","","","","","","","","","","","","","",""
"4888","","image-button-response","104","915092","0.0-103.0","A20CZCJPRP54G9","img_art/10.jpg","4","","","","","","","","","","","","","","","","","","","","","","","","",""
"776","","image-button-response","105","915869","0.0-104.0","A20CZCJPRP54G9","img_art/10.jpg","4","","","","","","","","","","","","","","","","","","","","","","","","",""
"2719","","image-button-response","106","918591","0.0-105.0-0.0","A20CZCJPRP54G9","img_art/10.jpg","2","","","","","","","","","","","","","","","","","","","","","","","","",""
"1372","","image-button-response","107","919966","0.0-106.0-0.0","A20CZCJPRP54G9","img_art/10.jpg","3","","","","","","","","","","","","","","","","","","","","","","","","",""
"null","","html-keyboard-response","108","920973","0.0-107.0","A20CZCJPRP54G9","<p style=""font-size: 48px;"">+</p>","","","","","null","allTrialResponses","1000","1","9","img_art/10.jpg","10","it almost looks like a guitar as interpreted by Dali","Mark,James,Travis,Tanner,Alex,Victor","Kraken, and I love it.,39,80,20","I have no opinions on this one,0,380,20","I liked it...it looked somewhat like a guitar.,32,260,20","music, serenity, love,33,180,20","This could be a guitar, or it could be a completely random shape.,-3,100,20","Looks like someone just smeared some paint and called it good. Do not like.,-6,340,20","Alex","This could be a guitar, or it could be a completely random shape.,-3,100,20","Travis","I liked it...it looked somewhat like a guitar.,32,260,20","Tanner","music, serenity, love,33,180,20","2"
"45857","","survey-text","109","966837","0.0-108.0-0.0","A20CZCJPRP54G9","","","","{""Q0"":""this leaves me totally unmoved""}","","","","","","","","","","","","","","","","","","","","","","",""
"3239","","image-slider-response","110","970077","0.0-109.0","A20CZCJPRP54G9","","","","","-25","","","","","","","","","","","","","","","","","","","","","",""
"null","","image-button-response","111","975084","0.0-110.0","A20CZCJPRP54G9","img_art/7.jpg","null","","","","","","","","","","","","","","","","","","","","","","","","",""
"519","","image-button-response","112","975605","0.0-111.0","A20CZCJPRP54G9","img_art/7.jpg","1","","","","","","","","","","","","","","","","","","","","","","","","",""
"1246","","image-button-response","113","976853","0.0-112.0-0.0","A20CZCJPRP54G9","img_art/7.jpg","0","","","","","","","","","","","","","","","","","","","","","","","","",""
"5613","","image-button-response","114","982469","0.0-113.0-0.0","A20CZCJPRP54G9","img_art/7.jpg","2","","","","","","","","","","","","","","","","","","","","","","","","",""
"null","","html-keyboard-response","115","983977","0.0-114.0","A20CZCJPRP54G9","<p style=""font-size: 48px;"">+</p>","","","","","null","allTrialResponses","1500","1","10","img_art/7.jpg","-25","this leaves me totally unmoved","Matthew,Brandon,Travis,Tanner,Alex,Adam","landscape of amrs, yawn.,-25,120,20","Looks like bad wallpaper,-29,320,20","Just neutral...looks like sand at the beach.,3,260,20","sand, beach, tranquil,10,180,20","Hmm interesting, looks like mars or something terrestrial. Too abstract for me and too much brown,4,100,20","I like the earth tones here,5,40,20","Brandon","Looks like bad wallpaper,-29,320,20","Matthew","landscape of amrs, yawn.,-25,120,20","Travis","Just neutral...looks like sand at the beach.,3,260,20","2"
"3698","","survey-text","116","987684","0.0-115.0-0.0","A20CZCJPRP54G9","","","","{""Q0"":""our""}","","","","","","","","","","","","","","","","","","","","","","",""
"18400","","survey-text","117","1006085","0.0-116.0-0.0","A20CZCJPRP54G9","","","","{""Q0"":""seems like an odd-shaped waterfall""}","","","","","","","","","","","","","","","","","","","","","","",""
"4156","","image-slider-response","118","1010245","0.0-117.0","A20CZCJPRP54G9","","","","","-5","","","","","","","","","","","","","","","","","","","","","",""
"null","","image-button-response","119","1015251","0.0-118.0","A20CZCJPRP54G9","img_art/24.jpg","null","","","","","","","","","","","","","","","","","","","","","","","","",""
"816","","image-button-response","120","1016069","0.0-119.0","A20CZCJPRP54G9","img_art/24.jpg","2","","","","","","","","","","","","","","","","","","","","","","","","",""
"5006","","image-button-response","121","1021077","0.0-120.0-0.0","A20CZCJPRP54G9","img_art/24.jpg","4","","","","","","","","","","","","","","","","","","","","","","","","",""
"4711","","image-button-response","122","1025789","0.0-121.0-0.0","A20CZCJPRP54G9","img_art/24.jpg","0","","","","","","","","","","","","","","","","","","","","","","","","",""
"null","","html-keyboard-response","123","1027295","0.0-122.0","A20CZCJPRP54G9","<p style=""font-size: 48px;"">+</p>","","","","","null","allTrialResponses","1500","1","11","img_art/24.jpg","-5","seems like an odd-shaped waterfall","Matthew,Brandon,Travis,Bradley,Bryan,Elijah","NOt quite Bob Ross, but still good.,30,120,20","Simple. Not too abstract. Love the different flower colors.,20,320,20","I like it...looks like a waterfall.,11,260,20","Hmm. Don't know what to make of this one.,1,300,20","Abstract falls & nature.,41,400,20","Like it, nice attention to details,31,80,20","Travis","I like it...looks like a waterfall.,11,260,20","Bryan","Abstract falls & nature.,41,400,20","Matthew","NOt quite Bob Ross, but still good.,30,120,20","2"
"16135","","survey-text","124","1043437","0.0-123.0-0.0","A20CZCJPRP54G9","","","","{""Q0"":""interesting colors and shapes""}","","","","","","","","","","","","","","","","","","","","","","",""
"3988","","image-slider-response","125","1047429","0.0-124.0","A20CZCJPRP54G9","","","","","5","","","","","","","","","","","","","","","","","","","","","",""
"null","","image-button-response","126","1052434","0.0-125.0","A20CZCJPRP54G9","img_art/22.jpg","null","","","","","","","","","","","","","","","","","","","","","","","","",""
"89","","image-button-response","127","1052524","0.0-126.0","A20CZCJPRP54G9","img_art/22.jpg","4","","","","","","","","","","","","","","","","","","","","","","","","",""
"2375","","image-button-response","128","1054901","0.0-127.0-0.0","A20CZCJPRP54G9","img_art/22.jpg","5","","","","","","","","","","","","","","","","","","","","","","","","",""
"2604","","image-button-response","129","1057508","0.0-128.0-0.0","A20CZCJPRP54G9","img_art/22.jpg","3","","","","","","","","","","","","","","","","","","","","","","","","",""
"null","","html-keyboard-response","130","1058515","0.0-129.0","A20CZCJPRP54G9","<p style=""font-size: 48px;"">+</p>","","","","","null","allTrialResponses","1000","1","12","img_art/22.jpg","5","interesting colors and shapes","Matthew,Nathaniel,Travis,Paul,Bryan,Garrett","Another servicable piece of abstract art?,20,120,20","Looks like a giant blob,-45,220,20","Don't like it...too much red,-17,260,20","I really like the bright colors and sunset feel,31,300,20","Love vibrant colors & the abstractness.,43,400,20","I think this picture looks interesting because of the way the colors work together.,20,180,20","Bryan","Love vibrant colors & the abstractness.,43,400,20","Garrett","I think this picture looks interesting because of the way the colors work together.,20,180,20","Paul","I really like the bright colors and sunset feel,31,300,20","2"
"28243","","survey-text","131","1086765","0.0-130.0-0.0","A20CZCJPRP54G9","","","","{""Q0"":""looks like a melting Oscar statue""}","","","","","","","","","","","","","","","","","","","","","","",""
"4068","","image-slider-response","132","1090836","0.0-131.0","A20CZCJPRP54G9","","","","","-15","","","","","","","","","","","","","","","","","","","","","",""
"null","","image-button-response","133","1095841","0.0-132.0","A20CZCJPRP54G9","img_art/4.jpg","null","","","","","","","","","","","","","","","","","","","","","","","","",""
"865","","image-button-response","134","1096707","0.0-133.0","A20CZCJPRP54G9","img_art/4.jpg","4","","","","","","","","","","","","","","","","","","","","","","","","",""
"2392","","image-button-response","135","1099100","0.0-134.0-0.0","A20CZCJPRP54G9","img_art/4.jpg","3","","","","","","","","","","","","","","","","","","","","","","","","",""
"3829","","image-button-response","136","1102931","0.0-135.0-0.0","A20CZCJPRP54G9","img_art/4.jpg","5","","","","","","","","","","","","","","","","","","","","","","","","",""
"null","","html-keyboard-response","137","1104438","0.0-136.0","A20CZCJPRP54G9","<p style=""font-size: 48px;"">+</p>","","","","","null","allTrialResponses","1500","1","13","img_art/4.jpg","-15","looks like a melting Oscar statue","Jacob,Shawn,Juan,Paul,Bryan,Garrett","Looks like they just smothered on some paint and called it a day.,-17,340,20","Great movement but don't love the yellowy tones.,31,100,20","Again, this is too abstract and I really don't like the colors.,-21,260,20","The dark yellow color makes me think of mustard, which I dislike,-27,300,20","McDonald's golden arches on steroids.,-20,400,20","I think that this picture is too boring in terms of color and it looks ugly.,-41,180,20","Bryan","McDonald's golden arches on steroids.,-20,400,20","Paul","The dark yellow color makes me think of mustard, which I dislike,-27,300,20","Garrett","I think that this picture is too boring in terms of color and it looks ugly.,-41,180,20","2"
"36246","","survey-text","138","1140692","0.0-137.0-0.0","A20CZCJPRP54G9","","","","{""Q0"":""nice colors but I don't see anything interesting happening here""}","","","","","","","","","","","","","","","","","","","","","","",""
"6284","","image-slider-response","139","1146980","0.0-138.0","A20CZCJPRP54G9","","","","","-10","","","","","","","","","","","","","","","","","","","","","",""
"2253","","image-button-response","140","1151985","0.0-139.0","A20CZCJPRP54G9","img_art/21.jpg","1","","","","","","","","","","","","","","","","","","","","","","","","",""
"626","","image-button-response","141","1152613","0.0-140.0","A20CZCJPRP54G9","img_art/21.jpg","1","","","","","","","","","","","","","","","","","","","","","","","","",""
"10588","","image-button-response","142","1163203","0.0-141.0-0.0","A20CZCJPRP54G9","img_art/21.jpg","5","","","","","","","","","","","","","","","","","","","","","","","","",""
"11485","","image-button-response","143","1174692","0.0-142.0-0.0","A20CZCJPRP54G9","img_art/21.jpg","2","","","","","","","","","","","","","","","","","","","","","","","","",""
"null","","html-keyboard-response","144","1176198","0.0-143.0","A20CZCJPRP54G9","<p style=""font-size: 48px;"">+</p>","","","","","null","allTrialResponses","1500","1","14","img_art/21.jpg","-10","nice colors but I don't see anything interesting happening here","Taylor,Anthony,Jordan,Paul,Bryan,Garrett","Remove the rocks(?) on the lower right.,5,200,20","Bland, this painting is my least favorite,-20,200,20","Beautiful colors, remind me of my yoga studio,50,160,20","I like the dark blue in the lower right which reminds me of a storm but the orange is ugly,12,300,20","Like the colors, the cloudy, airy effects. Nice.,46,400,20","I like the sky a little bit the way the colors look for the sky, the cliff side looks a little weird though.,10,180,20","Anthony","Bland, this painting is my least favorite,-20,200,20","Garrett","I like the sky a little bit the way the colors look for the sky, the cliff side looks a little weird though.,10,180,20","Jordan","Beautiful colors, remind me of my yoga studio,50,160,20","2"
"110813","","survey-text","145","1287019","0.0-144.0-0.0","A20CZCJPRP54G9","","","","{""Q0"":""if I was that teddy bear I'd look scared too!""}","","","","","","","","","","","","","","","","","","","","","","",""
"5522","","image-slider-response","146","1292545","0.0-145.0","A20CZCJPRP54G9","","","","","-30","","","","","","","","","","","","","","","","","","","","","",""
"1974","","image-button-response","147","1297550","0.0-146.0","A20CZCJPRP54G9","img_art/16.jpg","1","","","","","","","","","","","","","","","","","","","","","","","","",""
"1657","","image-button-response","148","1299210","0.0-147.0","A20CZCJPRP54G9","img_art/16.jpg","1","","","","","","","","","","","","","","","","","","","","","","","","",""
"1197","","image-button-response","149","1300410","0.0-148.0-0.0","A20CZCJPRP54G9","img_art/16.jpg","0","","","","","","","","","","","","","","","","","","","","","","","","",""
"1621","","image-button-response","150","1302035","0.0-149.0-0.0","A20CZCJPRP54G9","img_art/16.jpg","4","","","","","","","","","","","","","","","","","","","","","","","","",""
"null","","html-keyboard-response","151","1303036","0.0-150.0","A20CZCJPRP54G9","<p style=""font-size: 48px;"">+</p>","","","","","null","allTrialResponses","1000","1","15","img_art/16.jpg","-30","if I was that teddy bear I'd look scared too!","Sean,Anthony,Jordan,Luis,Jared,Garrett","my reaction is that the picture is creepy,-19,40,20","Very creepy, it makes me feel uneasy,-31,200,20","The bear makes me very uncomfortable,-50,160,20","Kind of an edgy teenager vibe,32,400,20","it looks psychotic,-31,400,20","I think this picture is weird and the colors are very boring.,-50,180,20","Anthony","Very creepy, it makes me feel uneasy,-31,200,20","Sean","my reaction is that the picture is creepy,-19,40,20","Jared","it looks psychotic,-31,400,20","2"
"5161","","survey-text","152","1308210","0.0-151.0-0.0","A20CZCJPRP54G9","","","","{""Q0"":""course""}","","","","","","","","","","","","","","","","","","","","","","",""
"24085","","survey-text","153","1332298","0.0-152.0-0.0","A20CZCJPRP54G9","","","","{""Q0"":""can't tell if it's a boat or wagon but I'm unmoved either way""}","","","","","","","","","","","","","","","","","","","","","","",""
"6269","","image-slider-response","154","1338570","0.0-153.0","A20CZCJPRP54G9","","","","","-20","","","","","","","","","","","","","","","","","","","","","",""
"null","","image-button-response","155","1343578","0.0-154.0","A20CZCJPRP54G9","img_art/18.jpg","null","","","","","","","","","","","","","","","","","","","","","","","","",""
"717","","image-button-response","156","1344297","0.0-155.0","A20CZCJPRP54G9","img_art/18.jpg","1","","","","","","","","","","","","","","","","","","","","","","","","",""
"4039","","image-button-response","157","1348338","0.0-156.0-0.0","A20CZCJPRP54G9","img_art/18.jpg","3","","","","","","","","","","","","","","","","","","","","","","","","",""
"7547","","image-button-response","158","1355889","0.0-157.0-0.0","A20CZCJPRP54G9","img_art/18.jpg","2","","","","","","","","","","","","","","","","","","","","","","","","",""
"null","","html-keyboard-response","159","1356895","0.0-158.0","A20CZCJPRP54G9","<p style=""font-size: 48px;"">+</p>","","","","","null","allTrialResponses","1000","1","16","img_art/18.jpg","-20","can't tell if it's a boat or wagon but I'm unmoved either way","Sean,Anthony,Marcus,Kenneth,Jared,Devon","my response to the picture is a little bit of anxiety but I like the detail,16,40,20","I have no strong feelings about this image,1,200,20","like the grays and contrast of the yellow. This piece feels a bit angry,10,60,20","It's interesting. I'm not sure how I feel about it, but i enjoy the ghostly apparitions.,10,300,20","it looks like people,9,400,20","I really like this one - there seems to be a story behind it,32,400,20","Anthony","I have no strong feelings about this image,1,200,20","Kenneth","It's interesting. I'm not sure how I feel about it, but i enjoy the ghostly apparitions.,10,300,20","Marcus","like the grays and contrast of the yellow. This piece feels a bit angry,10,60,20","2"
"20787","","survey-text","160","1377688","0.0-159.0-0.0","A20CZCJPRP54G9","","","","{""Q0"":""too much brown and too abstract for my liking""}","","","","","","","","","","","","","","","","","","","","","","",""
"6951","","image-slider-response","161","1384640","0.0-160.0","A20CZCJPRP54G9","","","","","-15","","","","","","","","","","","","","","","","","","","","","",""
"null","","image-button-response","162","1389647","0.0-161.0","A20CZCJPRP54G9","img_art/28.jpg","null","","","","","","","","","","","","","","","","","","","","","","","","",""
"2129","","image-button-response","163","1391778","0.0-162.0","A20CZCJPRP54G9","img_art/28.jpg","3","","","","","","","","","","","","","","","","","","","","","","","","",""
"1406","","image-button-response","164","1393186","0.0-163.0-0.0","A20CZCJPRP54G9","img_art/28.jpg","5","","","","","","","","","","","","","","","","","","","","","","","","",""
"1979","","image-button-response","165","1395169","0.0-164.0-0.0","A20CZCJPRP54G9","img_art/28.jpg","2","","","","","","","","","","","","","","","","","","","","","","","","",""
"null","","html-keyboard-response","166","1396676","0.0-165.0","A20CZCJPRP54G9","<p style=""font-size: 48px;"">+</p>","","","","","null","allTrialResponses","1500","1","17","img_art/28.jpg","-15","too much brown and too abstract for my liking","Caleb,Anthony,Marcus,Kenneth,Colton,Austin","White and dark balance is way off- Seems dull.,-33,40,20","This picture doesn't really stand out to me,1,200,20","This reminds me of internal organs.,-10,60,20","This one is too bleak, not a fan of the image or colors.,-28,300,20","not a fan of the colors or strokes used,-27,220,20","Not really exciting,23,240,20","Kenneth","This one is too bleak, not a fan of the image or colors.,-28,300,20","Austin","Not really exciting,23,240,20","Marcus","This reminds me of internal organs.,-10,60,20","2"
"30596","","survey-text","167","1427281","0.0-166.0-0.0","A20CZCJPRP54G9","","","","{""Q0"":""looks like a glob of raisins or ants""}","","","","","","","","","","","","","","","","","","","","","","",""
"3853","","image-slider-response","168","1431136","0.0-167.0","A20CZCJPRP54G9","","","","","-10","","","","","","","","","","","","","","","","","","","","","",""
"null","","image-button-response","169","1436091","0.0-168.0","A20CZCJPRP54G9","img_art/15.jpg","null","","","","","","","","","","","","","","","","","","","","","","","","",""
"1049","","image-button-response","170","1437142","0.0-169.0","A20CZCJPRP54G9","img_art/15.jpg","0","","","","","","","","","","","","","","","","","","","","","","","","",""
"3597","","image-button-response","171","1440743","0.0-170.0-0.0","A20CZCJPRP54G9","img_art/15.jpg","3","","","","","","","","","","","","","","","","","","","","","","","","",""
"2203","","image-button-response","172","1442950","0.0-171.0-0.0","A20CZCJPRP54G9","img_art/15.jpg","2","","","","","","","","","","","","","","","","","","","","","","","","",""
"null","","html-keyboard-response","173","1444457","0.0-172.0","A20CZCJPRP54G9","<p style=""font-size: 48px;"">+</p>","","","","","null","allTrialResponses","1500","1","18","img_art/15.jpg","-10","looks like a glob of raisins or ants","Ian,Bryce,Marcus,Kenneth,Malik,Austin","This gives a skin crawling feeling. Like something that you could see under a mircoscope,10,260,20","The dots are cool with the blue accents.,24,20,20","Interesting, but don't really like it. Gloomy.,-10,60,20","I can't really make out what this is supposed to be.,-8,300,20","I like the dense patterns and the splashes  of blue,38,40,20","Perfect Abstract painting,50,240,20","Ian","This gives a skin crawling feeling. Like something that you could see under a mircoscope,10,260,20","Kenneth","I can't really make out what this is supposed to be.,-8,300,20","Marcus","Interesting, but don't really like it. Gloomy.,-10,60,20","2"
"51729","","survey-text","174","1496195","0.0-173.0-0.0","A20CZCJPRP54G9","","","","{""Q0"":""The left side looks like a freeway and after a long workweek sometimes the roads feel like this.""}","","","","","","","","","","","","","","","","","","","","","","",""
"5007","","image-slider-response","175","1501205","0.0-174.0","A20CZCJPRP54G9","","","","","-20","","","","","","","","","","","","","","","","","","","","","",""
"4845","","image-button-response","176","1506214","0.0-175.0","A20CZCJPRP54G9","img_art/19.jpg","1","","","","","","","","","","","","","","","","","","","","","","","","",""
"554","","image-button-response","177","1506771","0.0-176.0","A20CZCJPRP54G9","img_art/19.jpg","1","","","","","","","","","","","","","","","","","","","","","","","","",""
"2063","","image-button-response","178","1508837","0.0-177.0-0.0","A20CZCJPRP54G9","img_art/19.jpg","2","","","","","","","","","","","","","","","","","","","","","","","","",""
"3218","","image-button-response","179","1512058","0.0-178.0-0.0","A20CZCJPRP54G9","img_art/19.jpg","3","","","","","","","","","","","","","","","","","","","","","","","","",""
"null","","html-keyboard-response","180","1512563","0.0-179.0","A20CZCJPRP54G9","<p style=""font-size: 48px;"">+</p>","","","","","null","allTrialResponses","500","1","19","img_art/19.jpg","-20","The left side looks like a freeway and after a long workweek sometimes the roads feel like this.","Ian,Timothy,Marcus,Kenneth,Dylan,Tristan","It looks cool but at the time looks like it was done by a talented 5 year old.,13,260,20","Something weird is going on in this painting,-20,240,20","I like the colors but the scene itself feels too jumbled and cluttered,9,60,20","TOo much brown.,-24,300,20","This photo has too much going on.,-19,40,20","Though provoking. Adventurous.,10,300,20","Timothy","Something weird is going on in this painting,-20,240,20","Marcus","I like the colors but the scene itself feels too jumbled and cluttered,9,60,20","Kenneth","TOo much brown.,-24,300,20","2"
"13290","","survey-text","181","1525860","0.0-180.0-0.0","A20CZCJPRP54G9","","","","{""Q0"":""there's a simple elegance that works here""}","","","","","","","","","","","","","","","","","","","","","","",""
"4229","","image-slider-response","182","1530091","0.0-181.0","A20CZCJPRP54G9","","","","","15","","","","","","","","","","","","","","","","","","","","","",""
"null","","image-button-response","183","1535097","0.0-182.0","A20CZCJPRP54G9","img_art/14.jpg","null","","","","","","","","","","","","","","","","","","","","","","","","",""
"1273","","image-button-response","184","1536372","0.0-183.0","A20CZCJPRP54G9","img_art/14.jpg","4","","","","","","","","","","","","","","","","","","","","","","","","",""
"1708","","image-button-response","185","1538083","0.0-184.0-0.0","A20CZCJPRP54G9","img_art/14.jpg","2","","","","","","","","","","","","","","","","","","","","","","","","",""
"8392","","image-button-response","186","1546477","0.0-185.0-0.0","A20CZCJPRP54G9","img_art/14.jpg","1","","","","","","","","","","","","","","","","","","","","","","","","",""
"null","","html-keyboard-response","187","1547480","0.0-186.0","A20CZCJPRP54G9","<p style=""font-size: 48px;"">+</p>","","","","","null","allTrialResponses","1000","1","20","img_art/14.jpg","15","there's a simple elegance that works here","Jose,Timothy,Marcus,Kenneth,Seth,Brian","I don't like the color red,30,200,20","Something about the cahotic imagery makes me uncomfortable,-15,240,20","I like the colors and the shapes are interesting,11,60,20","Its cute, but not my favorite.,8,300,20","This piece feels inviting. It's like opening up the pages of your favorite book for the first time.,26,60,20","I don't care for the style,-38,380,20","Seth","This piece feels inviting. It's like opening up the pages of your favorite book for the first time.,26,60,20","Marcus","I like the colors and the shapes are interesting,11,60,20","Timothy","Something about the cahotic imagery makes me uncomfortable,-15,240,20","2"
"2768","","survey-text","188","1550259","0.0-187.0-0.0","A20CZCJPRP54G9","","","","{""Q0"":""we""}","","","","","","","","","","","","","","","","","","","","","","",""
"50635","","survey-text","189","1600896","0.0-188.0-0.0","A20CZCJPRP54G9","","","","{""Q0"":""to me it looks like a giant one-footed bird standing in a field.. unimpressed""}","","","","","","","","","","","","","","","","","","","","","","",""
"3903","","image-slider-response","190","1604802","0.0-189.0","A20CZCJPRP54G9","","","","","-8","","","","","","","","","","","","","","","","","","","","","",""
"4997","","image-button-response","191","1609810","0.0-190.0","A20CZCJPRP54G9","img_art/6.jpg","0","","","","","","","","","","","","","","","","","","","","","","","","",""
"798","","image-button-response","192","1610611","0.0-191.0","A20CZCJPRP54G9","img_art/6.jpg","0","","","","","","","","","","","","","","","","","","","","","","","","",""
"1189","","image-button-response","193","1611803","0.0-192.0-0.0","A20CZCJPRP54G9","img_art/6.jpg","1","","","","","","","","","","","","","","","","","","","","","","","","",""
"2260","","image-button-response","194","1614065","0.0-193.0-0.0","A20CZCJPRP54G9","img_art/6.jpg","4","","","","","","","","","","","","","","","","","","","","","","","","",""
"null","","html-keyboard-response","195","1615067","0.0-194.0","A20CZCJPRP54G9","<p style=""font-size: 48px;"">+</p>","","","","","null","allTrialResponses","1000","1","21","img_art/6.jpg","-8","to me it looks like a giant one-footed bird standing in a field.. unimpressed","Nicholas,Timothy,Marcus,Cole,Seth,Christopher","It isnt bad but sort of too bland,0,240,20","I dont feel much of a responce or connection to this one,0,240,20","I like the orange color, and I don't know why but I like this piece.,22,60,20","Close up peach? Hate it,-16,200,20","I love it. It reminds me of a bird sitting on a wall.,26,60,20","it's interesting but I don't love it,10,160,20","Nicholas","It isnt bad but sort of too bland,0,240,20","Timothy","I dont feel much of a responce or connection to this one,0,240,20","Seth","I love it. It reminds me of a bird sitting on a wall.,26,60,20","2"
"23712","","survey-text","196","1638786","0.0-195.0-0.0","A20CZCJPRP54G9","","","","{""Q0"":""neat overhead perspective""}","","","","","","","","","","","","","","","","","","","","","","",""
"3516","","image-slider-response","197","1642305","0.0-196.0","A20CZCJPRP54G9","","","","","7","","","","","","","","","","","","","","","","","","","","","",""
"null","","image-button-response","198","1647310","0.0-197.0","A20CZCJPRP54G9","img_art/20.jpg","null","","","","","","","","","","","","","","","","","","","","","","","","",""
"1712","","image-button-response","199","1649025","0.0-198.0","A20CZCJPRP54G9","img_art/20.jpg","4","","","","","","","","","","","","","","","","","","","","","","","","",""
"6254","","image-button-response","200","1655282","0.0-199.0-0.0","A20CZCJPRP54G9","img_art/20.jpg","5","","","","","","","","","","","","","","","","","","","","","","","","",""
"1980","","image-button-response","201","1657265","0.0-200.0-0.0","A20CZCJPRP54G9","img_art/20.jpg","1","","","","","","","","","","","","","","","","","","","","","","","","",""
"null","","html-keyboard-response","202","1657770","0.0-201.0","A20CZCJPRP54G9","<p style=""font-size: 48px;"">+</p>","","","","","null","allTrialResponses","500","1","22","img_art/20.jpg","7","neat overhead perspective","Nicholas,Timothy,Devin,William,Seth,Dalton","Use of white on foreground is too big and steals eyes away from rest of painting,2,240,20","Makes me think if a car crash or some sort of disaster,-20,240,20","Looks somewhat dark and emotional,-10,380,20","like the colors and desert feel,7,380,20","I'm not sure why this reminds me of surrealism. It might be the colors used.,16,60,20","make me feel like its a little country maybe a tractor and a skull head of a bull,1,300,20","Seth","I'm not sure why this reminds me of surrealism. It might be the colors used.,16,60,20","Dalton","make me feel like its a little country maybe a tractor and a skull head of a bull,1,300,20","Timothy","Makes me think if a car crash or some sort of disaster,-20,240,20","2"
"23333","","survey-text","203","1681111","0.0-202.0-0.0","A20CZCJPRP54G9","","","","{""Q0"":""i get a pleasant vibe from the colors""}","","","","","","","","","","","","","","","","","","","","","","",""
"2478","","image-slider-response","204","1683592","0.0-203.0","A20CZCJPRP54G9","","","","","15","","","","","","","","","","","","","","","","","","","","","",""
"3398","","image-button-response","205","1688596","0.0-204.0","A20CZCJPRP54G9","img_art/26.jpg","1","","","","","","","","","","","","","","","","","","","","","","","","",""
"393","","image-button-response","206","1688992","0.0-205.0","A20CZCJPRP54G9","img_art/26.jpg","1","","","","","","","","","","","","","","","","","","","","","","","","",""
"1550","","image-button-response","207","1690546","0.0-206.0-0.0","A20CZCJPRP54G9","img_art/26.jpg","3","","","","","","","","","","","","","","","","","","","","","","","","",""
"1979","","image-button-response","208","1692529","0.0-207.0-0.0","A20CZCJPRP54G9","img_art/26.jpg","2","","","","","","","","","","","","","","","","","","","","","","","","",""
"null","","html-keyboard-response","209","1693533","0.0-208.0","A20CZCJPRP54G9","<p style=""font-size: 48px;"">+</p>","","","","","null","allTrialResponses","1000","1","23","img_art/26.jpg","15","i get a pleasant vibe from the colors","Michael,Timothy,Jeffrey,Peter,Seth,Dalton","Not much skil went into this one either.,-41,140,20","Very pleasent little scene,40,240,20","very relaxing and easy going,22,40,20","Reminds me of a European street, I desire to walk in this picture,28,320,20","I'm not sure if this is the image of a furniture store or not.,-20,60,20","neighborhood and trees. i wonder if this is water paint.,1,300,20","Timothy","Very pleasent little scene,40,240,20","Peter","Reminds me of a European street, I desire to walk in this picture,28,320,20","Jeffrey","very relaxing and easy going,22,40,20","2"
"17427","","survey-text","210","1710968","0.0-209.0-0.0","A20CZCJPRP54G9","","","","{""Q0"":""thick red blob in the middle loses me""}","","","","","","","","","","","","","","","","","","","","","","",""
"3413","","image-slider-response","211","1714383","0.0-210.0","A20CZCJPRP54G9","","","","","-20","","","","","","","","","","","","","","","","","","","","","",""
"4678","","image-button-response","212","1719386","0.0-211.0","A20CZCJPRP54G9","img_art/1.jpg","3","","","","","","","","","","","","","","","","","","","","","","","","",""
"1060","","image-button-response","213","1720448","0.0-212.0","A20CZCJPRP54G9","img_art/1.jpg","3","","","","","","","","","","","","","","","","","","","","","","","","",""
"4134","","image-button-response","214","1724585","0.0-213.0-0.0","A20CZCJPRP54G9","img_art/1.jpg","5","","","","","","","","","","","","","","","","","","","","","","","","",""
"4805","","image-button-response","215","1729394","0.0-214.0-0.0","A20CZCJPRP54G9","img_art/1.jpg","0","","","","","","","","","","","","","","","","","","","","","","","","",""
"null","","html-keyboard-response","216","1730896","0.0-215.0","A20CZCJPRP54G9","<p style=""font-size: 48px;"">+</p>","","","","","null","allTrialResponses","1500","1","24","img_art/1.jpg","-20","thick red blob in the middle loses me","Corey,Timothy,Jeffrey,Peter,Logan,Zachary","basic reminds me of something a school would have on the wall,-7,260,20","This one has a pleasent energy,15,240,20","Makes me warm and relaxed,38,40,20","Nothing whatsoever,2,320,20","looks like an earlier painting. I wish I gave it -20 but oh well,21,360,20","While I like the colors, I find nothing interesting or thought provoking about it.,10,400,20","Peter","Nothing whatsoever,2,320,20","Zachary","While I like the colors, I find nothing interesting or thought provoking about it.,10,400,20","Corey","basic reminds me of something a school would have on the wall,-7,260,20","2"
"35942","","survey-text","217","1766846","0.0-216.0-0.0","A20CZCJPRP54G9","","","","{""Q0"":""The grey sky works well with the shapes below, almost like an undulating bridge""}","","","","","","","","","","","","","","","","","","","","","","",""
"5205","","image-slider-response","218","1772055","0.0-217.0","A20CZCJPRP54G9","","","","","20","","","","","","","","","","","","","","","","","","","","","",""
"4204","","image-button-response","219","1777058","0.0-218.0","A20CZCJPRP54G9","img_art/11.jpg","5","","","","","","","","","","","","","","","","","","","","","","","","",""
"603","","image-button-response","220","1777663","0.0-219.0","A20CZCJPRP54G9","img_art/11.jpg","5","","","","","","","","","","","","","","","","","","","","","","","","",""
"517","","image-button-response","221","1778182","0.0-220.0-0.0","A20CZCJPRP54G9","img_art/11.jpg","4","","","","","","","","","","","","","","","","","","","","","","","","",""
"6214","","image-button-response","222","1784399","0.0-221.0-0.0","A20CZCJPRP54G9","img_art/11.jpg","2","","","","","","","","","","","","","","","","","","","","","","","","",""
"null","","html-keyboard-response","223","1784902","0.0-222.0","A20CZCJPRP54G9","<p style=""font-size: 48px;"">+</p>","","","","","null","allTrialResponses","500","1","25","img_art/11.jpg","20","The grey sky works well with the shapes below, almost like an undulating bridge","Corey,Nathan,Brett,Peter,Cody,Zachary","dont like the colors. Its a gloomy day in london and this is the transit system,-26,260,20","Reminds me of some of post-apocalyptic view of street lights or maybe a city,30,200,20","This looks like a busy highway system along a suburban background,40,360,20","Smoggy, oily, industrial. Don't like,1,320,20","Pretty, interesting, feels like a city, feels like home,50,180,20","Makes me think of a futuristic scene of vehicles flying in the sky in a city.,36,400,20","Zachary","Makes me think of a futuristic scene of vehicles flying in the sky in a city.,36,400,20","Cody","Pretty, interesting, feels like a city, feels like home,50,180,20","Brett","This looks like a busy highway system along a suburban background,40,360,20","2"
"3432","","survey-text","224","1788349","0.0-223.0-0.0","A20CZCJPRP54G9","","","","{""Q0"":""table""}","","","","","","","","","","","","","","","","","","","","","","",""
"22247","","survey-text","225","1810598","0.0-224.0-0.0","A20CZCJPRP54G9","","","","{""Q0"":""the jagged lines take away from an otherwise pleasant feel""}","","","","","","","","","","","","","","","","","","","","","","",""
"3029","","image-slider-response","226","1813629","0.0-225.0","A20CZCJPRP54G9","","","","","-8","","","","","","","","","","","","","","","","","","","","","",""
"null","","image-button-response","227","1818633","0.0-226.0","A20CZCJPRP54G9","img_art/17.jpg","null","","","","","","","","","","","","","","","","","","","","","","","","",""
"3690","","image-button-response","228","1822326","0.0-227.0","A20CZCJPRP54G9","img_art/17.jpg","0","","","","","","","","","","","","","","","","","","","","","","","","",""
"2772","","image-button-response","229","1825103","0.0-228.0-0.0","A20CZCJPRP54G9","img_art/17.jpg","5","","","","","","","","","","","","","","","","","","","","","","","","",""
"7467","","image-button-response","230","1832573","0.0-229.0-0.0","A20CZCJPRP54G9","img_art/17.jpg","1","","","","","","","","","","","","","","","","","","","","","","","","",""
"null","","html-keyboard-response","231","1833577","0.0-230.0","A20CZCJPRP54G9","<p style=""font-size: 48px;"">+</p>","","","","","null","allTrialResponses","1000","1","26","img_art/17.jpg","-8","the jagged lines take away from an otherwise pleasant feel","Alexander,Christian,Brett,Jack,Cody,Zachary","Tree of knowledge in a quiet school.,17,120,20","tree sprouting out of a box (house) the invasion of nature?,39,140,20","Looks like an explosion of pretty artwork,45,360,20","stunning. makes me feel happy, hopeful, serene, and a little wistful.,50,320,20","Love the colors and the movement,46,180,20","Reminds me of a beautiful tree growing in a courtyard. I like the light and airy technique used.,34,400,20","Alexander","Tree of knowledge in a quiet school.,17,120,20","Zachary","Reminds me of a beautiful tree growing in a courtyard. I like the light and airy technique used.,34,400,20","Christian","tree sprouting out of a box (house) the invasion of nature?,39,140,20","2"
"16290","","survey-text","232","1849877","0.0-231.0-0.0","A20CZCJPRP54G9","","","","{""Q0"":""I like the colors though I'm not sure what this represents""}","","","","","","","","","","","","","","","","","","","","","","",""
"3269","","image-slider-response","233","1853149","0.0-232.0","A20CZCJPRP54G9","","","","","18","","","","","","","","","","","","","","","","","","","","","",""
"null","","image-button-response","234","1858155","0.0-233.0","A20CZCJPRP54G9","img_art/5.jpg","null","","","","","","","","","","","","","","","","","","","","","","","","",""
"4489","","image-button-response","235","1862645","0.0-234.0","A20CZCJPRP54G9","img_art/5.jpg","5","","","","","","","","","","","","","","","","","","","","","","","","",""
"1237","","image-button-response","236","1863884","0.0-235.0-0.0","A20CZCJPRP54G9","img_art/5.jpg","2","","","","","","","","","","","","","","","","","","","","","","","","",""
"6511","","image-button-response","237","1870396","0.0-236.0-0.0","A20CZCJPRP54G9","img_art/5.jpg","4","","","","","","","","","","","","","","","","","","","","","","","","",""
"null","","html-keyboard-response","238","1871399","0.0-237.0","A20CZCJPRP54G9","<p style=""font-size: 48px;"">+</p>","","","","","null","allTrialResponses","1000","1","27","img_art/5.jpg","18","I like the colors though I'm not sure what this represents","Alexander,Christian,John,Luke,Stephen,Zachary","Dull pyramid that says nothing.,7,120,20","sorry not my style,-37,140,20","It has a sense of vague familiarity that i like.Like a stick starting a fire at a campsite.,30,120,20","no clear emotion,-16,20,20","Very little going on.,-4,140,20","Not sure what to make of this one.,-1,400,20","Zachary","Not sure what to make of this one.,-1,400,20","John","It has a sense of vague familiarity that i like.Like a stick starting a fire at a campsite.,30,120,20","Stephen","Very little going on.,-4,140,20","2"
"24117","","survey-text","239","1895525","0.0-238.0-0.0","A20CZCJPRP54G9","","","","{""Q0"":""the blood splatter look leaves me cold""}","","","","","","","","","","","","","","","","","","","","","","",""
"2955","","image-slider-response","240","1898483","0.0-239.0","A20CZCJPRP54G9","","","","","-12","","","","","","","","","","","","","","","","","","","","","",""
"4910","","image-button-response","241","1903490","0.0-240.0","A20CZCJPRP54G9","img_art/3.jpg","0","","","","","","","","","","","","","","","","","","","","","","","","",""
"728","","image-button-response","242","1904220","0.0-241.0","A20CZCJPRP54G9","img_art/3.jpg","0","","","","","","","","","","","","","","","","","","","","","","","","",""
"2925","","image-button-response","243","1907149","0.0-242.0-0.0","A20CZCJPRP54G9","img_art/3.jpg","5","","","","","","","","","","","","","","","","","","","","","","","","",""
"2030","","image-button-response","244","1909180","0.0-243.0-0.0","A20CZCJPRP54G9","img_art/3.jpg","2","","","","","","","","","","","","","","","","","","","","","","","","",""
"null","","html-keyboard-response","245","1910687","0.0-244.0","A20CZCJPRP54G9","<p style=""font-size: 48px;"">+</p>","","","","","null","allTrialResponses","1500","1","28","img_art/3.jpg","-12","the blood splatter look leaves me cold","Blake,Kyle,John,Samuel,Stephen,Zachary","painted by a 2 year old. cold and boring,-30,280,20","I don't really have a strong reaction to this one,0,340,20","Looks like someone spilled ketchup and forgot to clean it up,-30,120,20","confusing taking over,-15,400,20","Don't see what the purpose is.,-31,140,20","Too red and chaotic. Not calming.,-41,400,20","Blake","painted by a 2 year old. cold and boring,-30,280,20","Zachary","Too red and chaotic. Not calming.,-41,400,20","John","Looks like someone spilled ketchup and forgot to clean it up,-30,120,20","2"
"18092","","survey-text","246","1928787","0.0-245.0-0.0","A20CZCJPRP54G9","","","","{""Q0"":""I like the flowery shapes but not so much the white lines in the middle""}","","","","","","","","","","","","","","","","","","","","","","",""
"4557","","image-slider-response","247","1933347","0.0-246.0","A20CZCJPRP54G9","","","","","3","","","","","","","","","","","","","","","","","","","","","",""
"null","","image-button-response","248","1938350","0.0-247.0","A20CZCJPRP54G9","img_art/23.jpg","null","","","","","","","","","","","","","","","","","","","","","","","","",""
"4315","","image-button-response","249","1942668","0.0-248.0","A20CZCJPRP54G9","img_art/23.jpg","4","","","","","","","","","","","","","","","","","","","","","","","","",""
"1013","","image-button-response","250","1943684","0.0-249.0-0.0","A20CZCJPRP54G9","img_art/23.jpg","3","","","","","","","","","","","","","","","","","","","","","","","","",""
"2092","","image-button-response","251","1945778","0.0-250.0-0.0","A20CZCJPRP54G9","img_art/23.jpg","0","","","","","","","","","","","","","","","","","","","","","","","","",""
"null","","html-keyboard-response","252","1947286","0.0-251.0","A20CZCJPRP54G9","<p style=""font-size: 48px;"">+</p>","","","","","null","allTrialResponses","1500","1","29","img_art/23.jpg","3","I like the flowery shapes but not so much the white lines in the middle","Blake,Charles,John,Dustin,Brendan,Zachary","cold and dark feeling,-27,280,20","Look at all the dancers,26,100,20","Very bright and eye catching.The White silhouettes remind me of people celebrating.,31,120,20","I don't get it! the white in the middle of the speckled rainbow is confusing.,-10,20,20","i completely dont get it,-47,340,20","Vivid colors and the white in the middle looks like people dancing.,31,400,20","Brendan","i completely dont get it,-47,340,20","Dustin","I don't get it! the white in the middle of the speckled rainbow is confusing.,-10,20,20","Blake","cold and dark feeling,-27,280,20","2"
"35105","","survey-text","253","1982402","0.0-252.0-0.0","A20CZCJPRP54G9","","","","{""Q0"":""Looks like an abstract city skyline full of clouds and buildings""}","","","","","","","","","","","","","","","","","","","","","","",""
"2823","","image-slider-response","254","1985227","0.0-253.0","A20CZCJPRP54G9","","","","","12","","","","","","","","","","","","","","","","","","","","","",""
"null","","image-button-response","255","1990231","0.0-254.0","A20CZCJPRP54G9","img_art/27.jpg","null","","","","","","","","","","","","","","","","","","","","","","","","",""
"89","","image-button-response","256","1990323","0.0-255.0","A20CZCJPRP54G9","img_art/27.jpg","1","","","","","","","","","","","","","","","","","","","","","","","","",""
"6125","","image-button-response","257","1996450","0.0-256.0-0.0","A20CZCJPRP54G9","img_art/27.jpg","5","","","","","","","","","","","","","","","","","","","","","","","","",""
"620","","image-button-response","258","1997073","0.0-257.0-0.0","A20CZCJPRP54G9","img_art/27.jpg","3","","","","","","","","","","","","","","","","","","","","","","","","",""
"null","","html-keyboard-response","259","1998579","0.0-258.0","A20CZCJPRP54G9","<p style=""font-size: 48px;"">+</p>","","","","","null","allTrialResponses","1500","1","30","img_art/27.jpg","12","Looks like an abstract city skyline full of clouds and buildings","Blake,Noah,Connor,Dustin,Brendan,Angel","fruity and sweet. warm and juicy,10,280,20","I generally enjoy the style, but I'm finding the green lines grating,-9,260,20","Looks like someone vandalized the original piece with a marker,-36,240,20","Fire, explosion. Red/orange colors are fire/explosion. White is smoke. Makes me worried/scared/anxious,-20,20,20","nice firestorm on desert,23,340,20","Makes me think of Japanese food. I perceive it as comfortable and healthy.,20,180,20","Noah","I generally enjoy the style, but I'm finding the green lines grating,-9,260,20","Angel","Makes me think of Japanese food. I perceive it as comfortable and healthy.,20,180,20","Dustin","Fire, explosion. Red/orange colors are fire/explosion. White is smoke. Makes me worried/scared/anxious,-20,20,20","2"
"3215","","image-button-response_instructions","260","2001803","0.0-259.0","A20CZCJPRP54G9","","0","instructions","","","","","","","","","","","","","","","","","","","","","","","",""
