"rt","url","trial_type","trial_index","time_elapsed","internal_node_id","participant_id","stimulus","button_pressed","Name","responses","response","key_press","variableName","fixationTime","condition","trial","photo","subjectRating","subjectResponse","agentsNames","agent_1_Response","agent_2_Response","agent_3_Response","agent_4_Response","agent_5_Response","agent_6_Response","kept_1_name","kept_1_response","kept_2_name","kept_2_response","kept_3_name","kept_3_response","errorCounter"
"18656","external_page_harvard.html","external-html","0","18883","0.0-0.0","A22ZYDQ7VRH6EL","","","","","","","","","","","","","","","","","","","","","","","","","","",""
"1862","","image-button-response","1","20748","0.0-1.0","A22ZYDQ7VRH6EL","","0","","","","","","","","","","","","","","","","","","","","","","","","",""
"1870","","image-button-response","2","22625","0.0-2.0-0.0","A22ZYDQ7VRH6EL","","1","phone","","","","","","","","","","","","","","","","","","","","","","","",""
"3325","","survey-text","3","25951","0.0-3.0-0.0","A22ZYDQ7VRH6EL","","","","{""Q0"":""A22ZYDQ7VRH6EL""}","","","","","","","","","","","","","","","","","","","","","","",""
"29384","","image-button-response_instructions","4","55338","0.0-4.0","A22ZYDQ7VRH6EL","","0","instructions","","","","","","","","","","","","","","","","","","","","","","","",""
"19420","","image-button-response_instructions","5","74760","0.0-5.0","A22ZYDQ7VRH6EL","img_art/ins/popularity/ins1.png","0","instructions","","","","","","","","","","","","","","","","","","","","","","","",""
"8590","","image-button-response_instructions","6","83351","0.0-6.0","A22ZYDQ7VRH6EL","img_art/ins/popularity/ins2.png","0","instructions","","","","","","","","","","","","","","","","","","","","","","","",""
"7907","","image-button-response_instructions","7","91261","0.0-7.0","A22ZYDQ7VRH6EL","img_art/ins/popularity/ins2Extreme.png","0","instructions","","","","","","","","","","","","","","","","","","","","","","","",""
"12845","","image-button-response_instructions","8","104108","0.0-8.0","A22ZYDQ7VRH6EL","img_art/ins/popularity/ins3KEEPpop.PNG","0","instructions","","","","","","","","","","","","","","","","","","","","","","","",""
"4122","","image-button-response_instructions","9","108232","0.0-9.0","A22ZYDQ7VRH6EL","img_art/ins/popularity/ins3ANamepop.PNG","0","instructions","","","","","","","","","","","","","","","","","","","","","","","",""
"6567","","image-button-response_instructions","10","114800","0.0-10.0","A22ZYDQ7VRH6EL","img_art/ins/popularity/ins3ARatingpop.png","0","instructions","","","","","","","","","","","","","","","","","","","","","","","",""
"5238","","image-button-response_instructions","11","120039","0.0-11.0","A22ZYDQ7VRH6EL","img_art/ins/popularity/ins3ATextpop.png","0","instructions","","","","","","","","","","","","","","","","","","","","","","","",""
"4914","","image-button-response_instructions","12","124954","0.0-12.0","A22ZYDQ7VRH6EL","img_art/ins/popularity/ins3ALikespop.png","0","instructions","","","","","","","","","","","","","","","","","","","","","","","",""
"11174","","image-button-response_instructions","13","136129","0.0-13.0","A22ZYDQ7VRH6EL","img_art/ins/popularity/ins3KEEPpop.PNG","0","instructions","","","","","","","","","","","","","","","","","","","","","","","",""
"13163","","image-button-response_instructions","14","149293","0.0-14.0","A22ZYDQ7VRH6EL","img_art/ins/popularity/ins3_5RED.png","0","instructions","","","","","","","","","","","","","","","","","","","","","","","",""
"3720","","image-button-response_instructions","15","153015","0.0-15.0","A22ZYDQ7VRH6EL","img_art/ins/popularity/ins3KEEPpop.PNG","0","instructions","","","","","","","","","","","","","","","","","","","","","","","",""
"9281","","image-button-response_instructions","16","162297","0.0-16.0","A22ZYDQ7VRH6EL","img_art/ins/popularity/ins4KEEPpop.PNG","0","instructions","","","","","","","","","","","","","","","","","","","","","","","",""
"9814","","image-button-response_instructions","17","172113","0.0-17.0","A22ZYDQ7VRH6EL","img_art/ins/popularity/ins5KEEPpop.PNG","0","instructions","","","","","","","","","","","","","","","","","","","","","","","",""
"1845","","image-button-response_instructions","18","173959","0.0-18.0","A22ZYDQ7VRH6EL","","0","instructions","","","","","","","","","","","","","","","","","","","","","","","",""
"5176","","survey-text","19","179169","0.0-19.0-0.0","A22ZYDQ7VRH6EL","","","","{""Q0"":""but""}","","","","","","","","","","","","","","","","","","","","","","",""
"21490","","survey-text","20","200659","0.0-20.0-0.0","A22ZYDQ7VRH6EL","","","","{""Q0"":""Looks like someone spilled their paint.""}","","","","","","","","","","","","","","","","","","","","","","",""
"4438.799999952316","","image-slider-response","21","205101","0.0-21.0","A22ZYDQ7VRH6EL","","","","","-37","","","","","","","","","","","","","","","","","","","","","",""
"null","","image-button-response","22","210106","0.0-22.0","A22ZYDQ7VRH6EL","img_art/ins/1.jpg","null","","","","","","","","","","","","","","","","","","","","","","","","",""
"932","","image-button-response","23","211042","0.0-23.0","A22ZYDQ7VRH6EL","img_art/ins/1.jpg","4","","","","","","","","","","","","","","","","","","","","","","","","",""
"11115","","image-button-response","24","222160","0.0-24.0-0.0","A22ZYDQ7VRH6EL","img_art/ins/1.jpg","0","","","","","","","","","","","","","","","","","","","","","","","","",""
"757","","image-button-response","25","222920","0.0-25.0-0.0","A22ZYDQ7VRH6EL","img_art/ins/1.jpg","2","","","","","","","","","","","","","","","","","","","","","","","","",""
"null","","html-keyboard-response","26","224423","0.0-26.0","A22ZYDQ7VRH6EL","<p style=""font-size: 48px;"">+</p>","","","","","null","allTrialResponses","1500","1","-2","img_art/ins/1.jpg","-37","Looks like someone spilled their paint.","Adam,Alex,Ben,Carl,Daniel,Jack","Seems like doodles,-20,20,20","very creative work.,36,40,20","This color reminds me of poo,-46,60,20","very calming artwork,42,80,20","It looks like a murder scene.,-48,100,20","I like the sophisticated brushwork,40,120,20","Daniel","It looks like a murder scene.,-48,100,20","Adam","Seems like doodles,-20,20,20","Ben","This color reminds me of poo,-46,60,20","0"
"21594","","survey-text","27","246022","0.0-27.0-0.0","A22ZYDQ7VRH6EL","","","","{""Q0"":""Not horrible but not great either. I like the colors.""}","","","","","","","","","","","","","","","","","","","","","","",""
"5789.700000047684","","image-slider-response","28","251813","0.0-28.0","A22ZYDQ7VRH6EL","","","","","4","","","","","","","","","","","","","","","","","","","","","",""
"null","","image-button-response","29","256819","0.0-29.0","A22ZYDQ7VRH6EL","img_art/ins/2.jpg","null","","","","","","","","","","","","","","","","","","","","","","","","",""
"2139","","image-button-response","30","258962","0.0-30.0","A22ZYDQ7VRH6EL","img_art/ins/2.jpg","0","","","","","","","","","","","","","","","","","","","","","","","","",""
"5403","","image-button-response","31","264368","0.0-31.0-0.0","A22ZYDQ7VRH6EL","img_art/ins/2.jpg","5","","","","","","","","","","","","","","","","","","","","","","","","",""
"2976","","image-button-response","32","267346","0.0-32.0-0.0","A22ZYDQ7VRH6EL","img_art/ins/2.jpg","2","","","","","","","","","","","","","","","","","","","","","","","","",""
"null","","html-keyboard-response","33","268348","0.0-33.0","A22ZYDQ7VRH6EL","<p style=""font-size: 48px;"">+</p>","","","","","null","allTrialResponses","1000","1","-1","img_art/ins/2.jpg","4","Not horrible but not great either. I like the colors.","Adam,John,Ben,James,Daniel,Kyle","too much color,-18,20,20","love the texture of paint,48,160,20","meaningless painting,-45,60,20","looks too angry,-50,140,20","One of my pet peevs,-48,100,20","Idk, it is just annoying,-32,180,20","Adam","too much color,-18,20,20","Kyle","Idk, it is just annoying,-32,180,20","Ben","meaningless painting,-45,60,20","0"
"13664","","survey-text","34","282015","0.0-34.0-0.0","A22ZYDQ7VRH6EL","","","","{""Q0"":""Horrible waste of paint.""}","","","","","","","","","","","","","","","","","","","","","","",""
"6735.899999856949","","image-slider-response","35","288753","0.0-35.0","A22ZYDQ7VRH6EL","","","","","-47","","","","","","","","","","","","","","","","","","","","","",""
"3431","","image-button-response","36","293759","0.0-36.0","A22ZYDQ7VRH6EL","img_art/ins/3.jpg","2","","","","","","","","","","","","","","","","","","","","","","","","",""
"1939","","image-button-response","37","295702","0.0-37.0","A22ZYDQ7VRH6EL","img_art/ins/3.jpg","4","","","","","","","","","","","","","","","","","","","","","","","","",""
"927","","image-button-response","38","296630","0.0-38.0-0.0","A22ZYDQ7VRH6EL","img_art/ins/3.jpg","5","","","","","","","","","","","","","","","","","","","","","","","","",""
"922","","image-button-response","39","297554","0.0-39.0-0.0","A22ZYDQ7VRH6EL","img_art/ins/3.jpg","2","","","","","","","","","","","","","","","","","","","","","","","","",""
"null","","html-keyboard-response","40","299056","0.0-40.0","A22ZYDQ7VRH6EL","<p style=""font-size: 48px;"">+</p>","","","","","null","allTrialResponses","1500","1","0","img_art/ins/3.jpg","-47","Horrible waste of paint.","Adam,Sam,Ben,Mike,Ron,Kyle","My daily routine, it's depressing,-20,20,20","I can feel a rainy day from this painting,18,240,20","This thing gives me anxiety,-41,60,20","enjoy the different shades of blue,22,200,20","It looks depressing,-26,220,20","It looks like a playground for bats,-36,180,20","Ron","It looks depressing,-26,220,20","Kyle","It looks like a playground for bats,-36,180,20","Ben","This thing gives me anxiety,-41,60,20","0"
"4685","","image-button-response_instructions","41","303750","0.0-41.0","A22ZYDQ7VRH6EL","","0","instructions","","","","","","","","","","","","","","","","","","","","","","","",""
"9277","","survey-likert","42","313030","0.0-42.0-0.0","A22ZYDQ7VRH6EL","","","","{""Q0"":"""",""Q1"":0,""Q2"":1}","","","","","","","","","","","","","","","","","","","","","","",""
"6792","","survey-text","43","319829","0.0-43.0-0.0","A22ZYDQ7VRH6EL","","","","{""Q0"":""rock""}","","","","","","","","","","","","","","","","","","","","","","",""
"18179","","survey-text","44","338010","0.0-44.0-0.0","A22ZYDQ7VRH6EL","","","","{""Q0"":""Interesting and somewhat enjoyable.""}","","","","","","","","","","","","","","","","","","","","","","",""
"3913.0999999046326","","image-slider-response","45","341925","0.0-45.0","A22ZYDQ7VRH6EL","","","","","26","","","","","","","","","","","","","","","","","","","","","",""
"3373","","image-button-response","46","346950","0.0-46.0","A22ZYDQ7VRH6EL","img_art/15.jpg","2","","","","","","","","","","","","","","","","","","","","","","","","",""
"731","","image-button-response","47","347685","0.0-47.0","A22ZYDQ7VRH6EL","img_art/15.jpg","4","","","","","","","","","","","","","","","","","","","","","","","","",""
"527","","image-button-response","48","348214","0.0-48.0-0.0","A22ZYDQ7VRH6EL","img_art/15.jpg","3","","","","","","","","","","","","","","","","","","","","","","","","",""
"1004","","image-button-response","49","349221","0.0-49.0-0.0","A22ZYDQ7VRH6EL","img_art/15.jpg","2","","","","","","","","","","","","","","","","","","","","","","","","",""
"null","","html-keyboard-response","50","349723","0.0-50.0","A22ZYDQ7VRH6EL","<p style=""font-size: 48px;"">+</p>","","","","","null","allTrialResponses","500","1","1","img_art/15.jpg","26","Interesting and somewhat enjoyable.","Adrian,Richard,Nathan,Andrew,Jorge,William","Not a fan. This piece would only go with very specific decor in a modern home.,-35,60,20","dark and provoking,-50,340,20","This is pretty nice, reminds me of dark peacock feathers, or perhaps a bush with berries in it?,15,200,20","The blues are soothing,21,160,20","interested in this transformation,20,180,20","makes me feel calm,40,380,20","Jorge","interested in this transformation,20,180,20","Andrew","The blues are soothing,21,160,20","Nathan","This is pretty nice, reminds me of dark peacock feathers, or perhaps a bush with berries in it?,15,200,20","0"
"31217","","survey-text","51","380952","0.0-51.0-0.0","A22ZYDQ7VRH6EL","","","","{""Q0"":""Looks like hidden messages lie within the painting.""}","","","","","","","","","","","","","","","","","","","","","","",""
"4270.899999856949","","image-slider-response","52","385225","0.0-52.0","A22ZYDQ7VRH6EL","","","","","18","","","","","","","","","","","","","","","","","","","","","",""
"null","","image-button-response","53","390229","0.0-53.0","A22ZYDQ7VRH6EL","img_art/28.jpg","null","","","","","","","","","","","","","","","","","","","","","","","","",""
"202","","image-button-response","54","390435","0.0-54.0","A22ZYDQ7VRH6EL","img_art/28.jpg","2","","","","","","","","","","","","","","","","","","","","","","","","",""
"2091","","image-button-response","55","392530","0.0-55.0-0.0","A22ZYDQ7VRH6EL","img_art/28.jpg","5","","","","","","","","","","","","","","","","","","","","","","","","",""
"974","","image-button-response","56","393507","0.0-56.0-0.0","A22ZYDQ7VRH6EL","img_art/28.jpg","4","","","","","","","","","","","","","","","","","","","","","","","","",""
"null","","html-keyboard-response","57","395010","0.0-57.0","A22ZYDQ7VRH6EL","<p style=""font-size: 48px;"">+</p>","","","","","null","allTrialResponses","1500","1","2","img_art/28.jpg","18","Looks like hidden messages lie within the painting.","Devon,Alexis,Nathan,Andrew,Jorge,Lucas","i'm not too impressed with this one.,-10,400,20","The brown and green colors used look dull and unappealing,-30,140,20","I enjoy the color themes, they seem gloomy and mysterious, and content in their own way, which I love.,20,200,20","Doesn't give me an emotional response,0,160,20","nostalgic from a memory,11,180,20","This painting is mysterious, it makes me curious.,5,380,20","Nathan","I enjoy the color themes, they seem gloomy and mysterious, and content in their own way, which I love.,20,200,20","Lucas","This painting is mysterious, it makes me curious.,5,380,20","Jorge","nostalgic from a memory,11,180,20","0"
"25535","","survey-text","58","420555","0.0-58.0-0.0","A22ZYDQ7VRH6EL","","","","{""Q0"":""Oh no, what happened to the bird's head? I like this.""}","","","","","","","","","","","","","","","","","","","","","","",""
"4199.5","","image-slider-response","59","424757","0.0-59.0","A22ZYDQ7VRH6EL","","","","","41","","","","","","","","","","","","","","","","","","","","","",""
"3811","","image-button-response","60","429760","0.0-60.0","A22ZYDQ7VRH6EL","img_art/6.jpg","0","","","","","","","","","","","","","","","","","","","","","","","","",""
"516","","image-button-response","61","430278","0.0-61.0","A22ZYDQ7VRH6EL","img_art/6.jpg","0","","","","","","","","","","","","","","","","","","","","","","","","",""
"1703","","image-button-response","62","431983","0.0-62.0-0.0","A22ZYDQ7VRH6EL","img_art/6.jpg","4","","","","","","","","","","","","","","","","","","","","","","","","",""
"1007","","image-button-response","63","432992","0.0-63.0-0.0","A22ZYDQ7VRH6EL","img_art/6.jpg","1","","","","","","","","","","","","","","","","","","","","","","","","",""
"null","","html-keyboard-response","64","434494","0.0-64.0","A22ZYDQ7VRH6EL","<p style=""font-size: 48px;"">+</p>","","","","","null","allTrialResponses","1500","1","3","img_art/6.jpg","41","Oh no, what happened to the bird's head? I like this.","Miguel,Bradley,Nathan,Jeremy,Jorge,Lucas","Bird? It's a bird.,23,160,20","It's okay. It kind of looks like a bird with his head buried in his feathers.,2,300,20","Not a fan of anything in this,-43,200,20","Kind of boring. I don't care for many abstracts,1,60,20","seeds of change,11,180,20","Nothing special.,-20,380,20","Miguel","Bird? It's a bird.,23,160,20","Jorge","seeds of change,11,180,20","Bradley","It's okay. It kind of looks like a bird with his head buried in his feathers.,2,300,20","0"
"23470","","survey-text","65","457973","0.0-65.0-0.0","A22ZYDQ7VRH6EL","","","","{""Q0"":""Peaceful city scene. Very calming.""}","","","","","","","","","","","","","","","","","","","","","","",""
"2937.5","","image-slider-response","66","460913","0.0-66.0","A22ZYDQ7VRH6EL","","","","","50","","","","","","","","","","","","","","","","","","","","","",""
"3651","","image-button-response","67","465916","0.0-67.0","A22ZYDQ7VRH6EL","img_art/26.jpg","1","","","","","","","","","","","","","","","","","","","","","","","","",""
"419","","image-button-response","68","466339","0.0-68.0","A22ZYDQ7VRH6EL","img_art/26.jpg","1","","","","","","","","","","","","","","","","","","","","","","","","",""
"1842","","image-button-response","69","468186","0.0-69.0-0.0","A22ZYDQ7VRH6EL","img_art/26.jpg","5","","","","","","","","","","","","","","","","","","","","","","","","",""
"3307","","image-button-response","70","471496","0.0-70.0-0.0","A22ZYDQ7VRH6EL","img_art/26.jpg","2","","","","","","","","","","","","","","","","","","","","","","","","",""
"null","","html-keyboard-response","71","472498","0.0-71.0","A22ZYDQ7VRH6EL","<p style=""font-size: 48px;"">+</p>","","","","","null","allTrialResponses","1000","1","4","img_art/26.jpg","50","Peaceful city scene. Very calming.","Miguel,Bradley,Jesse,Luis,Jorge,Jose","Murky, messy, kid like.,-45,160,20","I like this. Looks like a city street and I can use my imagination to make it come alive.,15,300,20","Looks bland and boring,-5,80,20","I dont see any expression,-29,400,20","dull and boring,-6,180,20","This style of objects that are supposed to be something but then are blurry is interesting.,38,200,20","Bradley","I like this. Looks like a city street and I can use my imagination to make it come alive.,15,300,20","Jose","This style of objects that are supposed to be something but then are blurry is interesting.,38,200,20","Jesse","Looks bland and boring,-5,80,20","0"
"38637","","survey-text","72","511149","0.0-72.0-0.0","A22ZYDQ7VRH6EL","","","","{""Q0"":""I love this. The hidden faces within makes this painting interesting.""}","","","","","","","","","","","","","","","","","","","","","","",""
"2897.2999999523163","","image-slider-response","73","514048","0.0-73.0","A22ZYDQ7VRH6EL","","","","","50","","","","","","","","","","","","","","","","","","","","","",""
"4875","","image-button-response","74","519051","0.0-74.0","A22ZYDQ7VRH6EL","img_art/8.jpg","4","","","","","","","","","","","","","","","","","","","","","","","","",""
"676","","image-button-response","75","519731","0.0-75.0","A22ZYDQ7VRH6EL","img_art/8.jpg","4","","","","","","","","","","","","","","","","","","","","","","","","",""
"1052","","image-button-response","76","520784","0.0-76.0-0.0","A22ZYDQ7VRH6EL","img_art/8.jpg","5","","","","","","","","","","","","","","","","","","","","","","","","",""
"1015","","image-button-response","77","521800","0.0-77.0-0.0","A22ZYDQ7VRH6EL","img_art/8.jpg","2","","","","","","","","","","","","","","","","","","","","","","","","",""
"null","","html-keyboard-response","78","522301","0.0-78.0","A22ZYDQ7VRH6EL","<p style=""font-size: 48px;"">+</p>","","","","","null","allTrialResponses","500","1","5","img_art/8.jpg","50","I love this. The hidden faces within makes this painting interesting.","James,Bradley,Jesse,Joseph,Aaron,Jose","It's very odd and I don't really like it,-30,380,20","Interesting but it has a bit of a dark feel to it.,6,300,20","I like the definition and the strong lines. It makes me think of someone watching over the world,24,80,20","The faces are kinda freaky.,-17,220,20","The shapes and colors work well together.,40,20,20","This is really cool, I love the fragments of faces,38,200,20","Aaron","The shapes and colors work well together.,40,20,20","Jose","This is really cool, I love the fragments of faces,38,200,20","Jesse","I like the definition and the strong lines. It makes me think of someone watching over the world,24,80,20","0"
"4863","","survey-text","79","527182","0.0-79.0-0.0","A22ZYDQ7VRH6EL","","","","{""Q0"":""sky""}","","","","","","","","","","","","","","","","","","","","","","",""
"37394","","survey-text","80","564577","0.0-80.0-0.0","A22ZYDQ7VRH6EL","","","","{""Q0"":""Looks like the artist gave up. Nonetheless, it has a bit of appeal to it.""}","","","","","","","","","","","","","","","","","","","","","","",""
"3030","","image-slider-response","81","567610","0.0-81.0","A22ZYDQ7VRH6EL","","","","","6","","","","","","","","","","","","","","","","","","","","","",""
"3563","","image-button-response","82","572613","0.0-82.0","A22ZYDQ7VRH6EL","img_art/29.jpg","5","","","","","","","","","","","","","","","","","","","","","","","","",""
"2406","","image-button-response","83","575022","0.0-83.0","A22ZYDQ7VRH6EL","img_art/29.jpg","2","","","","","","","","","","","","","","","","","","","","","","","","",""
"865","","image-button-response","84","575889","0.0-84.0-0.0","A22ZYDQ7VRH6EL","img_art/29.jpg","5","","","","","","","","","","","","","","","","","","","","","","","","",""
"1867","","image-button-response","85","577757","0.0-85.0-0.0","A22ZYDQ7VRH6EL","img_art/29.jpg","1","","","","","","","","","","","","","","","","","","","","","","","","",""
"null","","html-keyboard-response","86","578760","0.0-86.0","A22ZYDQ7VRH6EL","<p style=""font-size: 48px;"">+</p>","","","","","null","allTrialResponses","1000","1","6","img_art/29.jpg","6","Looks like the artist gave up. Nonetheless, it has a bit of appeal to it.","Devin,Anthony,Jesse,Corey,Aaron,Jose","Looks a bit messy,-13,380,20","Very interesting composition,41,200,20","Grabs interest but then confuses me,6,80,20","this does nothing for me. hate the colors. hate the design,-50,260,20","I like the texture and colors and how it makes me feel. I like how it's different from other abstract art.,45,20,20","I think the grey and red inspire negative feelings but it's not the worst thing.,13,200,20","Jesse","Grabs interest but then confuses me,6,80,20","Jose","I think the grey and red inspire negative feelings but it's not the worst thing.,13,200,20","Anthony","Very interesting composition,41,200,20","0"
"24304","","survey-text","87","603071","0.0-87.0-0.0","A22ZYDQ7VRH6EL","","","","{""Q0"":""I can't tell what is going on in this painting. Very confusing.""}","","","","","","","","","","","","","","","","","","","","","","",""
"2720","","image-slider-response","88","605793","0.0-88.0","A22ZYDQ7VRH6EL","","","","","-18","","","","","","","","","","","","","","","","","","","","","",""
"2772","","image-button-response","89","610797","0.0-89.0","A22ZYDQ7VRH6EL","img_art/18.jpg","2","","","","","","","","","","","","","","","","","","","","","","","","",""
"540","","image-button-response","90","611338","0.0-90.0","A22ZYDQ7VRH6EL","img_art/18.jpg","2","","","","","","","","","","","","","","","","","","","","","","","","",""
"1068","","image-button-response","91","612408","0.0-91.0-0.0","A22ZYDQ7VRH6EL","img_art/18.jpg","1","","","","","","","","","","","","","","","","","","","","","","","","",""
"1710","","image-button-response","92","614120","0.0-92.0-0.0","A22ZYDQ7VRH6EL","img_art/18.jpg","0","","","","","","","","","","","","","","","","","","","","","","","","",""
"null","","html-keyboard-response","93","615121","0.0-93.0","A22ZYDQ7VRH6EL","<p style=""font-size: 48px;"">+</p>","","","","","null","allTrialResponses","1000","1","7","img_art/18.jpg","-18","I can't tell what is going on in this painting. Very confusing.","Brett,Anthony,Jesse,Colton,Scott,Jose","Kind of weird in a confusing way,10,360,20","I have no strong feelings about this image,1,200,20","It reminds me of ghosts on a boat. Makes me nervous.,-27,80,20","reminds me of greek mythology,22,220,20","reminds me of sailors on a boat,17,20,20","Ok this is really badass. Like a warrior come to the last battle,50,200,20","Jesse","It reminds me of ghosts on a boat. Makes me nervous.,-27,80,20","Anthony","I have no strong feelings about this image,1,200,20","Brett","Kind of weird in a confusing way,10,360,20","0"
"31097","","survey-text","94","646227","0.0-94.0-0.0","A22ZYDQ7VRH6EL","","","","{""Q0"":""Very good use of soft colors. Calming, peaceful scene.""}","","","","","","","","","","","","","","","","","","","","","","",""
"3046.2999999523163","","image-slider-response","95","649274","0.0-95.0","A22ZYDQ7VRH6EL","","","","","19","","","","","","","","","","","","","","","","","","","","","",""
"null","","image-button-response","96","654278","0.0-96.0","A22ZYDQ7VRH6EL","img_art/17.jpg","null","","","","","","","","","","","","","","","","","","","","","","","","",""
"3718","","image-button-response","97","658000","0.0-97.0","A22ZYDQ7VRH6EL","img_art/17.jpg","5","","","","","","","","","","","","","","","","","","","","","","","","",""
"2044","","image-button-response","98","660046","0.0-98.0-0.0","A22ZYDQ7VRH6EL","img_art/17.jpg","4","","","","","","","","","","","","","","","","","","","","","","","","",""
"1508","","image-button-response","99","661558","0.0-99.0-0.0","A22ZYDQ7VRH6EL","img_art/17.jpg","3","","","","","","","","","","","","","","","","","","","","","","","","",""
"null","","html-keyboard-response","100","662062","0.0-100.0","A22ZYDQ7VRH6EL","<p style=""font-size: 48px;"">+</p>","","","","","null","allTrialResponses","500","1","8","img_art/17.jpg","19","Very good use of soft colors. Calming, peaceful scene.","Brett,Anthony,Jesse,Jared,Stephen,Shane","Looks like an explosion of pretty artwork,45,360,20","Very elegant, this design reminds me of trees,31,200,20","Doesnt completely turn me off but wouldnt look twice,-3,80,20","the colors, the arch and the wall,15,400,20","I like the colorfulness.,17,140,20","Pleasant fall to winter day,22,80,20","Shane","Pleasant fall to winter day,22,80,20","Stephen","I like the colorfulness.,17,140,20","Jared","the colors, the arch and the wall,15,400,20","0"
"20742","","survey-text","101","682815","0.0-101.0-0.0","A22ZYDQ7VRH6EL","","","","{""Q0"":""Not bad for a 3 year old. Horrible.""}","","","","","","","","","","","","","","","","","","","","","","",""
"3285.300000190735","","image-slider-response","102","686103","0.0-102.0","A22ZYDQ7VRH6EL","","","","","-50","","","","","","","","","","","","","","","","","","","","","",""
"null","","image-button-response","103","691105","0.0-103.0","A22ZYDQ7VRH6EL","img_art/4.jpg","null","","","","","","","","","","","","","","","","","","","","","","","","",""
"631","","image-button-response","104","691739","0.0-104.0","A22ZYDQ7VRH6EL","img_art/4.jpg","0","","","","","","","","","","","","","","","","","","","","","","","","",""
"1439","","image-button-response","105","693181","0.0-105.0-0.0","A22ZYDQ7VRH6EL","img_art/4.jpg","2","","","","","","","","","","","","","","","","","","","","","","","","",""
"2387","","image-button-response","106","695570","0.0-106.0-0.0","A22ZYDQ7VRH6EL","img_art/4.jpg","4","","","","","","","","","","","","","","","","","","","","","","","","",""
"null","","html-keyboard-response","107","696072","0.0-107.0","A22ZYDQ7VRH6EL","<p style=""font-size: 48px;"">+</p>","","","","","null","allTrialResponses","500","1","9","img_art/4.jpg","-50","Not bad for a 3 year old. Horrible.","Brandon,Cole,Garrett,Jared,Stephen,Shane","Really don't like this. Kindergarten art, sorry.,-50,320,20","Fingerpaint of a hand?,-30,200,20","I think that this picture is too boring in terms of color and it looks ugly.,-41,180,20","it looks like a deformed hand,-9,400,20","Just doesn't look nice.,-40,140,20","Looks like a creative hand,45,80,20","Brandon","Really don't like this. Kindergarten art, sorry.,-50,320,20","Garrett","I think that this picture is too boring in terms of color and it looks ugly.,-41,180,20","Stephen","Just doesn't look nice.,-40,140,20","0"
"39373","","survey-text","108","735455","0.0-108.0-0.0","A22ZYDQ7VRH6EL","","","","{""Q0"":""Not very pleasant to look at. The colors aren't bad but what am I looking at?""}","","","","","","","","","","","","","","","","","","","","","","",""
"2735.5","","image-slider-response","109","738192","0.0-109.0","A22ZYDQ7VRH6EL","","","","","-16","","","","","","","","","","","","","","","","","","","","","",""
"4876","","image-button-response","110","743196","0.0-110.0","A22ZYDQ7VRH6EL","img_art/21.jpg","4","","","","","","","","","","","","","","","","","","","","","","","","",""
"568","","image-button-response","111","743768","0.0-111.0","A22ZYDQ7VRH6EL","img_art/21.jpg","4","","","","","","","","","","","","","","","","","","","","","","","","",""
"2635","","image-button-response","112","746405","0.0-112.0-0.0","A22ZYDQ7VRH6EL","img_art/21.jpg","2","","","","","","","","","","","","","","","","","","","","","","","","",""
"5612","","image-button-response","113","752019","0.0-113.0-0.0","A22ZYDQ7VRH6EL","img_art/21.jpg","3","","","","","","","","","","","","","","","","","","","","","","","","",""
"null","","html-keyboard-response","114","752530","0.0-114.0","A22ZYDQ7VRH6EL","<p style=""font-size: 48px;"">+</p>","","","","","null","allTrialResponses","500","1","10","img_art/21.jpg","-16","Not very pleasant to look at. The colors aren't bad but what am I looking at?","Brandon,Jesus,Garrett,Zachary,Stephen,Gabriel","I love this. Reminds me of a coast. The colors flow beautifully,40,320,20","The shapes and colors are very interesting to look at.,41,100,20","I like the sky a little bit the way the colors look for the sky, the cliff side looks a little weird though.,10,180,20","Looks like a body of water during a sunset. I like this piece.,21,400,20","Don't see anything special about it,-21,140,20","i like watercolor,22,160,20","Stephen","Don't see anything special about it,-21,140,20","Garrett","I like the sky a little bit the way the colors look for the sky, the cliff side looks a little weird though.,10,180,20","Zachary","Looks like a body of water during a sunset. I like this piece.,21,400,20","0"
"4935","","survey-text","115","757484","0.0-115.0-0.0","A22ZYDQ7VRH6EL","","","","{""Q0"":""our""}","","","","","","","","","","","","","","","","","","","","","","",""
"34557","","survey-text","116","792043","0.0-116.0-0.0","A22ZYDQ7VRH6EL","","","","{""Q0"":""Looks like stones imbedded in a larger rock. I like this painting very much.""}","","","","","","","","","","","","","","","","","","","","","","",""
"3262","","image-slider-response","117","795307","0.0-117.0","A22ZYDQ7VRH6EL","","","","","44","","","","","","","","","","","","","","","","","","","","","",""
"null","","image-button-response","118","800311","0.0-118.0","A22ZYDQ7VRH6EL","img_art/7.jpg","null","","","","","","","","","","","","","","","","","","","","","","","","",""
"482","","image-button-response","119","800797","0.0-119.0","A22ZYDQ7VRH6EL","img_art/7.jpg","5","","","","","","","","","","","","","","","","","","","","","","","","",""
"695","","image-button-response","120","801495","0.0-120.0-0.0","A22ZYDQ7VRH6EL","img_art/7.jpg","4","","","","","","","","","","","","","","","","","","","","","","","","",""
"689","","image-button-response","121","802186","0.0-121.0-0.0","A22ZYDQ7VRH6EL","img_art/7.jpg","3","","","","","","","","","","","","","","","","","","","","","","","","",""
"null","","html-keyboard-response","122","803687","0.0-122.0","A22ZYDQ7VRH6EL","<p style=""font-size: 48px;"">+</p>","","","","","null","allTrialResponses","1500","1","11","img_art/7.jpg","44","Looks like stones imbedded in a larger rock. I like this painting very much.","Trevor,Dustin,Garrett,Zachary,Stephen,Malik","looks like the surface of the moon,-28,280,20","I see dryness, which is sad. Dirt, sand, the dessert. Barren dry lifeless,-30,20,20","I don't like the repetitiveness of the colors, and I think there should be more colors.,-50,180,20","Looks like a desert or another planet. While the color choices are narrow, it's still interesting because it is very natural.,12,400,20","Nice realistic feel but nothing stands out.,4,140,20","Detail oriented, like cracked paint wall,15,40,20","Malik","Detail oriented, like cracked paint wall,15,40,20","Stephen","Nice realistic feel but nothing stands out.,4,140,20","Zachary","Looks like a desert or another planet. While the color choices are narrow, it's still interesting because it is very natural.,12,400,20","0"
"35540","","survey-text","123","839242","0.0-123.0-0.0","A22ZYDQ7VRH6EL","","","","{""Q0"":""I would love to hang this on my wall. Great flow in this painting.""}","","","","","","","","","","","","","","","","","","","","","","",""
"2410","","image-slider-response","124","841654","0.0-124.0","A22ZYDQ7VRH6EL","","","","","50","","","","","","","","","","","","","","","","","","","","","",""
"null","","image-button-response","125","846659","0.0-125.0","A22ZYDQ7VRH6EL","img_art/11.jpg","null","","","","","","","","","","","","","","","","","","","","","","","","",""
"528","","image-button-response","126","847190","0.0-126.0","A22ZYDQ7VRH6EL","img_art/11.jpg","0","","","","","","","","","","","","","","","","","","","","","","","","",""
"1518","","image-button-response","127","848711","0.0-127.0-0.0","A22ZYDQ7VRH6EL","img_art/11.jpg","0","","","","","","","","","","","","","","","","","","","","","","","","",""
"2791","","image-button-response","128","855565","0.0-127.1-0.1","A22ZYDQ7VRH6EL","img_art/11.jpg","4","","","","","","","","","","","","","","","","","","","","","","","","",""
"3585","","image-button-response","129","859155","0.0-128.0-0.0","A22ZYDQ7VRH6EL","img_art/11.jpg","3","","","","","","","","","","","","","","","","","","","","","","","","",""
"null","","html-keyboard-response","130","859657","0.0-129.0","A22ZYDQ7VRH6EL","<p style=""font-size: 48px;"">+</p>","","","","","null","allTrialResponses","500","1","12","img_art/11.jpg","50","I would love to hang this on my wall. Great flow in this painting.","Austin,Peter,Luke,Zachary,Stephen,Malik","Very unique piece of art,50,240,20","Smoggy, oily, industrial. Don't like,1,320,20","it reminds me of music,43,20,20","Makes me think of a futuristic scene of vehicles flying in the sky in a city.,36,400,20","Very good use of colors,44,140,20","I want to know which skyline the artist is depicting,26,40,20","Austin","Very unique piece of art,50,240,20","Stephen","Very good use of colors,44,140,20","Zachary","Makes me think of a futuristic scene of vehicles flying in the sky in a city.,36,400,20","2"
"36578","","survey-text","131","896250","0.0-130.0-0.0","A22ZYDQ7VRH6EL","","","","{""Q0"":""Looks like a calm desert scene. It's actually not too bad.""}","","","","","","","","","","","","","","","","","","","","","","",""
"2912.0999999046326","","image-slider-response","132","899164","0.0-131.0","A22ZYDQ7VRH6EL","","","","","3","","","","","","","","","","","","","","","","","","","","","",""
"null","","image-button-response","133","904167","0.0-132.0","A22ZYDQ7VRH6EL","img_art/20.jpg","null","","","","","","","","","","","","","","","","","","","","","","","","",""
"6246","","image-button-response","134","910416","0.0-133.0","A22ZYDQ7VRH6EL","img_art/20.jpg","5","","","","","","","","","","","","","","","","","","","","","","","","",""
"1279","","image-button-response","135","911697","0.0-134.0-0.0","A22ZYDQ7VRH6EL","img_art/20.jpg","4","","","","","","","","","","","","","","","","","","","","","","","","",""
"1346","","image-button-response","136","913045","0.0-135.0-0.0","A22ZYDQ7VRH6EL","img_art/20.jpg","2","","","","","","","","","","","","","","","","","","","","","","","","",""
"null","","html-keyboard-response","137","914047","0.0-136.0","A22ZYDQ7VRH6EL","<p style=""font-size: 48px;"">+</p>","","","","","null","allTrialResponses","1000","1","13","img_art/20.jpg","3","Looks like a calm desert scene. It's actually not too bad.","Austin,Timothy,Alex,Zachary,Stephen,Nathaniel","This painting would make a great display art,50,240,20","Makes me think if a car crash or some sort of disaster,-20,240,20","Reminds me of Dali for some reason, whom I don't like,-7,100,20","While interesting in technique.. It looks like a blurry car wreck. Does not evoke great emotions.,-20,400,20","Liked the background,15,140,20","A bit hectic, but it does have a bit of coolness to it,6,220,20","Nathaniel","A bit hectic, but it does have a bit of coolness to it,6,220,20","Stephen","Liked the background,15,140,20","Alex","Reminds me of Dali for some reason, whom I don't like,-7,100,20","2"
"42747","","survey-text","138","956808","0.0-137.0-0.0","A22ZYDQ7VRH6EL","","","","{""Q0"":""Looks like finger painting meets stick figures. What a mess.""}","","","","","","","","","","","","","","","","","","","","","","",""
"2485.399999856949","","image-slider-response","139","959296","0.0-138.0","A22ZYDQ7VRH6EL","","","","","-50","","","","","","","","","","","","","","","","","","","","","",""
"null","","image-button-response","140","964300","0.0-139.0","A22ZYDQ7VRH6EL","img_art/27.jpg","null","","","","","","","","","","","","","","","","","","","","","","","","",""
"2933","","image-button-response","141","967236","0.0-140.0","A22ZYDQ7VRH6EL","img_art/27.jpg","5","","","","","","","","","","","","","","","","","","","","","","","","",""
"1267","","image-button-response","142","968506","0.0-141.0-0.0","A22ZYDQ7VRH6EL","img_art/27.jpg","1","","","","","","","","","","","","","","","","","","","","","","","","",""
"2231","","image-button-response","143","970740","0.0-142.0-0.0","A22ZYDQ7VRH6EL","img_art/27.jpg","0","","","","","","","","","","","","","","","","","","","","","","","","",""
"null","","html-keyboard-response","144","971242","0.0-143.0","A22ZYDQ7VRH6EL","<p style=""font-size: 48px;"">+</p>","","","","","null","allTrialResponses","500","1","14","img_art/27.jpg","-50","Looks like finger painting meets stick figures. What a mess.","Jake,Caleb,Alex,Juan,Stephen,Nathaniel","This looks like a poor copy of Cy Twombly's style.,-3,360,20","An abstract piece with such lifeless colors.,-26,40,20","very abstract, I don't understand it, but I like the bright, cheerful colors,14,100,20","Colors make me think of fall, but I don't like how the picture was done or the weird lines across the background,6,260,20","This one does nothing for me.,2,140,20","Looks like a splash of different colors and designs without purpose,-44,220,20","Nathaniel","Looks like a splash of different colors and designs without purpose,-44,220,20","Caleb","An abstract piece with such lifeless colors.,-26,40,20","Jake","This looks like a poor copy of Cy Twombly's style.,-3,360,20","2"
"37216","","survey-text","145","1008461","0.0-144.0-0.0","A22ZYDQ7VRH6EL","","","","{""Q0"":""So anybody can be an artist now? What a waste of paint.""}","","","","","","","","","","","","","","","","","","","","","","",""
"3225","","image-slider-response","146","1011688","0.0-145.0","A22ZYDQ7VRH6EL","","","","","-44","","","","","","","","","","","","","","","","","","","","","",""
"null","","image-button-response","147","1016694","0.0-146.0","A22ZYDQ7VRH6EL","img_art/30.jpg","null","","","","","","","","","","","","","","","","","","","","","","","","",""
"378","","image-button-response","148","1017076","0.0-147.0","A22ZYDQ7VRH6EL","img_art/30.jpg","2","","","","","","","","","","","","","","","","","","","","","","","","",""
"596","","image-button-response","149","1017674","0.0-148.0-0.0","A22ZYDQ7VRH6EL","img_art/30.jpg","1","","","","","","","","","","","","","","","","","","","","","","","","",""
"501","","image-button-response","150","1018178","0.0-149.0-0.0","A22ZYDQ7VRH6EL","img_art/30.jpg","0","","","","","","","","","","","","","","","","","","","","","","","","",""
"null","","html-keyboard-response","151","1019181","0.0-150.0","A22ZYDQ7VRH6EL","<p style=""font-size: 48px;"">+</p>","","","","","null","allTrialResponses","1000","1","15","img_art/30.jpg","-44","So anybody can be an artist now? What a waste of paint.","Jake,Caleb,Steven,Angel,Edward,Nathaniel","This is just simple and ugly.,-2,360,20","Colors are nice but it just seems too simple.,-26,40,20","cant see the meaning behind it,-20,160,20","It's like a child's art piece: carefree and not trying to conform to anything.,10,180,20","My son made me a painting that looked like this,26,60,20","No my favorite, but I do like the long strokes of color,11,220,20","Steven","cant see the meaning behind it,-20,160,20","Caleb","Colors are nice but it just seems too simple.,-26,40,20","Jake","This is just simple and ugly.,-2,360,20","2"
"5850","","survey-text","152","1025040","0.0-151.0-0.0","A22ZYDQ7VRH6EL","","","","{""Q0"":""course""}","","","","","","","","","","","","","","","","","","","","","","",""
"36316","","survey-text","153","1061358","0.0-152.0-0.0","A22ZYDQ7VRH6EL","","","","{""Q0"":""Looks like a whale throwing up. What is going on here?""}","","","","","","","","","","","","","","","","","","","","","","",""
"3431.7000000476837","","image-slider-response","154","1064792","0.0-153.0","A22ZYDQ7VRH6EL","","","","","-47","","","","","","","","","","","","","","","","","","","","","",""
"null","","image-button-response","155","1069796","0.0-154.0","A22ZYDQ7VRH6EL","img_art/9.jpg","null","","","","","","","","","","","","","","","","","","","","","","","","",""
"895","","image-button-response","156","1070695","0.0-155.0","A22ZYDQ7VRH6EL","img_art/9.jpg","2","","","","","","","","","","","","","","","","","","","","","","","","",""
"2022","","image-button-response","157","1072719","0.0-156.0-0.0","A22ZYDQ7VRH6EL","img_art/9.jpg","1","","","","","","","","","","","","","","","","","","","","","","","","",""
"1750","","image-button-response","158","1074471","0.0-157.0-0.0","A22ZYDQ7VRH6EL","img_art/9.jpg","0","","","","","","","","","","","","","","","","","","","","","","","","",""
"null","","html-keyboard-response","159","1075972","0.0-158.0","A22ZYDQ7VRH6EL","<p style=""font-size: 48px;"">+</p>","","","","","null","allTrialResponses","1500","1","16","img_art/9.jpg","-47","Looks like a whale throwing up. What is going on here?","Jake,Caleb,Steven,Gregory,Victor,Mark","The colors and image is ugly.,-7,360,20","Unfinished, weird composition.,-34,40,20","I just dont like it, no reaction from me at all,-50,160,20","Mash up of colors and designs don't really go together,-5,220,20","The colors are okay, but this looks like someone scribbled with a crayon,1,340,20","Sleeping woman in a cave. Makes me feel safe.,20,80,20","Steven","I just dont like it, no reaction from me at all,-50,160,20","Caleb","Unfinished, weird composition.,-34,40,20","Jake","The colors and image is ugly.,-7,360,20","2"
"40876","","survey-text","160","1116855","0.0-159.0-0.0","A22ZYDQ7VRH6EL","","","","{""Q0"":""I want to like this but for some reason I can't. Horrible colors for sure.""}","","","","","","","","","","","","","","","","","","","","","","",""
"3781.0999999046326","","image-slider-response","161","1120638","0.0-160.0","A22ZYDQ7VRH6EL","","","","","-18","","","","","","","","","","","","","","","","","","","","","",""
"null","","image-button-response","162","1125642","0.0-161.0","A22ZYDQ7VRH6EL","img_art/2.jpg","null","","","","","","","","","","","","","","","","","","","","","","","","",""
"1297","","image-button-response","163","1126943","0.0-162.0","A22ZYDQ7VRH6EL","img_art/2.jpg","1","","","","","","","","","","","","","","","","","","","","","","","","",""
"920","","image-button-response","164","1127865","0.0-163.0-0.0","A22ZYDQ7VRH6EL","img_art/2.jpg","2","","","","","","","","","","","","","","","","","","","","","","","","",""
"773","","image-button-response","165","1128641","0.0-164.0-0.0","A22ZYDQ7VRH6EL","img_art/2.jpg","0","","","","","","","","","","","","","","","","","","","","","","","","",""
"null","","html-keyboard-response","166","1129643","0.0-165.0","A22ZYDQ7VRH6EL","<p style=""font-size: 48px;"">+</p>","","","","","null","allTrialResponses","1000","1","17","img_art/2.jpg","-18","I want to like this but for some reason I can't. Horrible colors for sure.","Jake,Caleb,Steven,Dalton,Chase,Kevin","These colors are ugly.,-40,360,20","Very gross colors. What were they thinking?,-47,40,20","I can't get past the fact that it looks like someone wearing a mask,-46,160,20","i like the colors and again can make out my own picture,38,300,20","A bit ugly with the greens.,-20,120,20","That looks look a cartoon character of some kind.,11,320,20","Caleb","Very gross colors. What were they thinking?,-47,40,20","Steven","I can't get past the fact that it looks like someone wearing a mask,-46,160,20","Jake","These colors are ugly.,-40,360,20","2"
"55755","","survey-text","167","1185404","0.0-166.0-0.0","A22ZYDQ7VRH6EL","","","","{""Q0"":""Love the colors and how the globe contradicts the blocks in the background.""}","","","","","","","","","","","","","","","","","","","","","","",""
"2951.800000190735","","image-slider-response","168","1188358","0.0-167.0","A22ZYDQ7VRH6EL","","","","","24","","","","","","","","","","","","","","","","","","","","","",""
"null","","image-button-response","169","1193362","0.0-168.0","A22ZYDQ7VRH6EL","img_art/22.jpg","null","","","","","","","","","","","","","","","","","","","","","","","","",""
"1872","","image-button-response","170","1195237","0.0-169.0","A22ZYDQ7VRH6EL","img_art/22.jpg","5","","","","","","","","","","","","","","","","","","","","","","","","",""
"618","","image-button-response","171","1195857","0.0-170.0-0.0","A22ZYDQ7VRH6EL","img_art/22.jpg","4","","","","","","","","","","","","","","","","","","","","","","","","",""
"889","","image-button-response","172","1196749","0.0-171.0-0.0","A22ZYDQ7VRH6EL","img_art/22.jpg","2","","","","","","","","","","","","","","","","","","","","","","","","",""
"null","","html-keyboard-response","173","1197262","0.0-172.0","A22ZYDQ7VRH6EL","<p style=""font-size: 48px;"">+</p>","","","","","null","allTrialResponses","500","1","18","img_art/22.jpg","24","Love the colors and how the globe contradicts the blocks in the background.","Jake,Caleb,Steven,Sean,Matthew,Vincent","It's bland and ugly.,-21,360,20","Seems too simple.,-19,40,20","not a fan of this, it's boring,1,160,20","my reaction is that the picture is confusion,-9,40,20","Another servicable piece of abstract art?,20,120,20","Can fit with anyone. And in any home a great piece of art,35,360,20","Vincent","Can fit with anyone. And in any home a great piece of art,35,360,20","Matthew","Another servicable piece of abstract art?,20,120,20","Steven","not a fan of this, it's boring,1,160,20","2"
"27629","","survey-text","174","1224898","0.0-173.0-0.0","A22ZYDQ7VRH6EL","","","","{""Q0"":""Wow. This took quite a bit of work. I only wish the colors were more bold.""}","","","","","","","","","","","","","","","","","","","","","","",""
"3323.7999999523163","","image-slider-response","175","1228224","0.0-174.0","A22ZYDQ7VRH6EL","","","","","8","","","","","","","","","","","","","","","","","","","","","",""
"null","","image-button-response","176","1233227","0.0-175.0","A22ZYDQ7VRH6EL","img_art/12.jpg","null","","","","","","","","","","","","","","","","","","","","","","","","",""
"562","","image-button-response","177","1233790","0.0-176.0","A22ZYDQ7VRH6EL","img_art/12.jpg","2","","","","","","","","","","","","","","","","","","","","","","","","",""
"1201","","image-button-response","178","1234993","0.0-177.0-0.0","A22ZYDQ7VRH6EL","img_art/12.jpg","4","","","","","","","","","","","","","","","","","","","","","","","","",""
"1237","","image-button-response","179","1236233","0.0-178.0-0.0","A22ZYDQ7VRH6EL","img_art/12.jpg","5","","","","","","","","","","","","","","","","","","","","","","","","",""
"null","","html-keyboard-response","180","1237735","0.0-179.0","A22ZYDQ7VRH6EL","<p style=""font-size: 48px;"">+</p>","","","","","null","allTrialResponses","1500","1","19","img_art/12.jpg","8","Wow. This took quite a bit of work. I only wish the colors were more bold.","Adam,Brendan,Steven,Seth,Matthew,Vincent","Minimalist colors and shapes.,-5,40,20","wtf is that i dont get it,-50,340,20","not my kind of thing,1,160,20","This is beautiful. It looks like 1,000 different sunrises and sunsets.,44,60,20","It's boxy, cubist immpressionism? Very ncie.,32,120,20","I have seen some like this before very popular and full of life,42,360,20","Steven","not my kind of thing,1,160,20","Matthew","It's boxy, cubist immpressionism? Very ncie.,32,120,20","Vincent","I have seen some like this before very popular and full of life,42,360,20","2"
"42074","","survey-text","181","1279821","0.0-180.0-0.0","A22ZYDQ7VRH6EL","","","","{""Q0"":""Looks like nothing but splatter. It is a bit interesting but not captivating.""}","","","","","","","","","","","","","","","","","","","","","","",""
"4106.399999856949","","image-slider-response","182","1283929","0.0-181.0","A22ZYDQ7VRH6EL","","","","","-3","","","","","","","","","","","","","","","","","","","","","",""
"null","","image-button-response","183","1288933","0.0-182.0","A22ZYDQ7VRH6EL","img_art/13.jpg","null","","","","","","","","","","","","","","","","","","","","","","","","",""
"4923","","image-button-response","184","1293860","0.0-183.0","A22ZYDQ7VRH6EL","img_art/13.jpg","2","","","","","","","","","","","","","","","","","","","","","","","","",""
"2717","","image-button-response","185","1296580","0.0-184.0-0.0","A22ZYDQ7VRH6EL","img_art/13.jpg","1","","","","","","","","","","","","","","","","","","","","","","","","",""
"1338","","image-button-response","186","1297921","0.0-185.0-0.0","A22ZYDQ7VRH6EL","img_art/13.jpg","0","","","","","","","","","","","","","","","","","","","","","","","","",""
"null","","html-keyboard-response","187","1298924","0.0-186.0","A22ZYDQ7VRH6EL","<p style=""font-size: 48px;"">+</p>","","","","","null","allTrialResponses","1000","1","20","img_art/13.jpg","-3","Looks like nothing but splatter. It is a bit interesting but not captivating.","Carlos,Evan,Steven,Jordan,Matthew,Vincent","Rain on a cold window.,22,80,20","It reminds me of looking out the window on a stormy night at cars drive by,21,140,20","It's just paint splatter, no real meaning to me,-50,160,20","This is easy to look at,46,160,20","AWESOME! Pollack but with more direction.,32,120,20","I love the colors reminds me of a rainy day..it's calm and relaxing,32,360,20","Steven","It's just paint splatter, no real meaning to me,-50,160,20","Evan","It reminds me of looking out the window on a stormy night at cars drive by,21,140,20","Carlos","Rain on a cold window.,22,80,20","2"
"4037","","survey-text","188","1302968","0.0-187.0-0.0","A22ZYDQ7VRH6EL","","","","{""Q0"":""we""}","","","","","","","","","","","","","","","","","","","","","","",""
"40217","","survey-text","189","1343186","0.0-188.0-0.0","A22ZYDQ7VRH6EL","","","","{""Q0"":""Ouch. I can never \""unsee\"" this painting.""}","","","","","","","","","","","","","","","","","","","","","","",""
"4045.5","","image-slider-response","190","1347234","0.0-189.0","A22ZYDQ7VRH6EL","","","","","-50","","","","","","","","","","","","","","","","","","","","","",""
"null","","image-button-response","191","1352238","0.0-190.0","A22ZYDQ7VRH6EL","img_art/3.jpg","null","","","","","","","","","","","","","","","","","","","","","","","","",""
"861","","image-button-response","192","1353102","0.0-191.0","A22ZYDQ7VRH6EL","img_art/3.jpg","2","","","","","","","","","","","","","","","","","","","","","","","","",""
"1479","","image-button-response","193","1354584","0.0-192.0-0.0","A22ZYDQ7VRH6EL","img_art/3.jpg","3","","","","","","","","","","","","","","","","","","","","","","","","",""
"1625","","image-button-response","194","1356212","0.0-193.0-0.0","A22ZYDQ7VRH6EL","img_art/3.jpg","1","","","","","","","","","","","","","","","","","","","","","","","","",""
"null","","html-keyboard-response","195","1357715","0.0-194.0","A22ZYDQ7VRH6EL","<p style=""font-size: 48px;"">+</p>","","","","","null","allTrialResponses","1500","1","21","img_art/3.jpg","-50","Ouch. I can never ""unsee"" this painting.","Carlos,Evan,Steven,Patrick,Eric,Jeffrey","The composition keeps the eye moving, the colors are satisfying.,31,80,20","It feels like a half assed and failed imitation of Japanese signatures on old paintings,-22,140,20","i don't like this, just looks like scribbles,-50,160,20","Random use of red and looks scary,-50,280,20","This piece makes me think it has a backstory or a reason which I like.,5,100,20","Associates with blood and crime scene,-12,40,20","Steven","i don't like this, just looks like scribbles,-50,160,20","Patrick","Random use of red and looks scary,-50,280,20","Evan","It feels like a half assed and failed imitation of Japanese signatures on old paintings,-22,140,20","2"
"46641","","survey-text","196","1404374","0.0-195.0-0.0","A22ZYDQ7VRH6EL","","","","{""Q0"":""Looks like this teddy bear is gonna be incarcerated for a while. I like it.""}","","","","","","","","","","","","","","","","","","","","","","",""
"3820","","image-slider-response","197","1408196","0.0-196.0","A22ZYDQ7VRH6EL","","","","","32","","","","","","","","","","","","","","","","","","","","","",""
"null","","image-button-response","198","1413201","0.0-197.0","A22ZYDQ7VRH6EL","img_art/16.jpg","null","","","","","","","","","","","","","","","","","","","","","","","","",""
"3944","","image-button-response","199","1417150","0.0-198.0","A22ZYDQ7VRH6EL","img_art/16.jpg","4","","","","","","","","","","","","","","","","","","","","","","","","",""
"2147","","image-button-response","200","1419299","0.0-199.0-0.0","A22ZYDQ7VRH6EL","img_art/16.jpg","2","","","","","","","","","","","","","","","","","","","","","","","","",""
"1774","","image-button-response","201","1421075","0.0-200.0-0.0","A22ZYDQ7VRH6EL","img_art/16.jpg","5","","","","","","","","","","","","","","","","","","","","","","","","",""
"null","","html-keyboard-response","202","1422076","0.0-201.0","A22ZYDQ7VRH6EL","<p style=""font-size: 48px;"">+</p>","","","","","null","allTrialResponses","1000","1","22","img_art/16.jpg","32","Looks like this teddy bear is gonna be incarcerated for a while. I like it.","Benjamin,Evan,Steven,Patrick,Noah,Jason","Don't like the teddy bear. It takes away from the painting.,-39,260,20","I do not like this dark and twisted portrayal of childhood,-42,140,20","Not interested at all,-15,160,20","This painting is too random,-30,280,20","feel a little creeped out,-20,260,20","The bear is a weird choice,-22,20,20","Noah","feel a little creeped out,-20,260,20","Steven","Not interested at all,-15,160,20","Jason","The bear is a weird choice,-22,20,20","2"
"34701","","survey-text","203","1456794","0.0-202.0-0.0","A22ZYDQ7VRH6EL","","","","{""Q0"":""The colors are great, It looks a bit like a peaceful country scene.""}","","","","","","","","","","","","","","","","","","","","","","",""
"2735.2999999523163","","image-slider-response","204","1459532","0.0-203.0","A22ZYDQ7VRH6EL","","","","","32","","","","","","","","","","","","","","","","","","","","","",""
"null","","image-button-response","205","1464534","0.0-204.0","A22ZYDQ7VRH6EL","img_art/19.jpg","null","","","","","","","","","","","","","","","","","","","","","","","","",""
"485","","image-button-response","206","1465020","0.0-205.0","A22ZYDQ7VRH6EL","img_art/19.jpg","3","","","","","","","","","","","","","","","","","","","","","","","","",""
"849","","image-button-response","207","1465872","0.0-206.0-0.0","A22ZYDQ7VRH6EL","img_art/19.jpg","4","","","","","","","","","","","","","","","","","","","","","","","","",""
"790","","image-button-response","208","1466664","0.0-207.0-0.0","A22ZYDQ7VRH6EL","img_art/19.jpg","2","","","","","","","","","","","","","","","","","","","","","","","","",""
"null","","html-keyboard-response","209","1467167","0.0-208.0","A22ZYDQ7VRH6EL","<p style=""font-size: 48px;"">+</p>","","","","","null","allTrialResponses","500","1","23","img_art/19.jpg","32","The colors are great, It looks a bit like a peaceful country scene.","Dylan,Ian,Steven,Logan,Noah,Jason","This photo has too much going on.,-19,40,20","It looks cool but at the time looks like it was done by a talented 5 year old.,13,260,20","I like it, I see someone walking his dog in the early morning time,23,160,20","this flow I just really like how everything blends but also doesn't,45,360,20","the way the landscape is portrayed captivates me - I enjoy studying the structure,32,260,20","The picture contains a lot of brown and weird drips,-4,20,20","Logan","this flow I just really like how everything blends but also doesn't,45,360,20","Noah","the way the landscape is portrayed captivates me - I enjoy studying the structure,32,260,20","Steven","I like it, I see someone walking his dog in the early morning time,23,160,20","2"
"32178","","survey-text","210","1499352","0.0-209.0-0.0","A22ZYDQ7VRH6EL","","","","{""Q0"":""Awesome painting. Everything is pretty much perfect.""}","","","","","","","","","","","","","","","","","","","","","","",""
"3967.7000000476837","","image-slider-response","211","1503321","0.0-210.0","A22ZYDQ7VRH6EL","","","","","50","","","","","","","","","","","","","","","","","","","","","",""
"null","","image-button-response","212","1508326","0.0-211.0","A22ZYDQ7VRH6EL","img_art/24.jpg","null","","","","","","","","","","","","","","","","","","","","","","","","",""
"2704","","image-button-response","213","1511035","0.0-212.0","A22ZYDQ7VRH6EL","img_art/24.jpg","3","","","","","","","","","","","","","","","","","","","","","","","","",""
"1534","","image-button-response","214","1512571","0.0-213.0-0.0","A22ZYDQ7VRH6EL","img_art/24.jpg","2","","","","","","","","","","","","","","","","","","","","","","","","",""
"1454","","image-button-response","215","1514028","0.0-214.0-0.0","A22ZYDQ7VRH6EL","img_art/24.jpg","1","","","","","","","","","","","","","","","","","","","","","","","","",""
"null","","html-keyboard-response","216","1515530","0.0-215.0","A22ZYDQ7VRH6EL","<p style=""font-size: 48px;"">+</p>","","","","","null","allTrialResponses","1500","1","24","img_art/24.jpg","50","Awesome painting. Everything is pretty much perfect.","Taylor,John,Steven,Logan,Noah,Connor","I actually like this one. You can tell what it is.,25,200,20","Beautiful.Nice use of colors and invokes feelings of serene and peace,40,120,20","It's beautiful! I love it! I see a waterfall, and they are my favorite things in the world,50,160,20","brick wall waterfall girl you think you got it all,50,360,20","this evokes a gutural reaction - it displeases me how similar it is to art I saw growing up,-30,260,20","Too literal, not abstract,-29,240,20","Logan","brick wall waterfall girl you think you got it all,50,360,20","Steven","It's beautiful! I love it! I see a waterfall, and they are my favorite things in the world,50,160,20","John","Beautiful.Nice use of colors and invokes feelings of serene and peace,40,120,20","2"
"47004","","survey-text","217","1562545","0.0-216.0-0.0","A22ZYDQ7VRH6EL","","","","{""Q0"":""Very interesting. I like this even though it's hard to determine what I am looking at.""}","","","","","","","","","","","","","","","","","","","","","","",""
"4619.299999952316","","image-slider-response","218","1567165","0.0-217.0","A22ZYDQ7VRH6EL","","","","","28","","","","","","","","","","","","","","","","","","","","","",""
"null","","image-button-response","219","1572169","0.0-218.0","A22ZYDQ7VRH6EL","img_art/10.jpg","null","","","","","","","","","","","","","","","","","","","","","","","","",""
"396","","image-button-response","220","1572569","0.0-219.0","A22ZYDQ7VRH6EL","img_art/10.jpg","4","","","","","","","","","","","","","","","","","","","","","","","","",""
"1602","","image-button-response","221","1574174","0.0-220.0-0.0","A22ZYDQ7VRH6EL","img_art/10.jpg","3","","","","","","","","","","","","","","","","","","","","","","","","",""
"1749","","image-button-response","222","1575925","0.0-221.0-0.0","A22ZYDQ7VRH6EL","img_art/10.jpg","1","","","","","","","","","","","","","","","","","","","","","","","","",""
"null","","html-keyboard-response","223","1576928","0.0-222.0","A22ZYDQ7VRH6EL","<p style=""font-size: 48px;"">+</p>","","","","","null","allTrialResponses","1000","1","25","img_art/10.jpg","28","Very interesting. I like this even though it's hard to determine what I am looking at.","Jonathan,John,Steven,Logan,Christian,Bryce","Too much negative space makes it feel unfinished,-25,140,20","Bleak and uninteresting,-10,120,20","I dont like it, there is too much going on,-19,160,20","The more I look the more I like. Reminds me of a rollercoaster and a war scene. A lot going on which is unnerving, like a rollercoaster but still fun,22,360,20","gives a sense of a roller coaster unit splashed in water. it's not but i love it nevertheless,44,140,20","Kinda creepy not my favorite,-26,20,20","Christian","gives a sense of a roller coaster unit splashed in water. it's not but i love it nevertheless,44,140,20","Logan","The more I look the more I like. Reminds me of a rollercoaster and a war scene. A lot going on which is unnerving, like a rollercoaster but still fun,22,360,20","John","Bleak and uninteresting,-10,120,20","2"
"5166","","survey-text","224","1582105","0.0-223.0-0.0","A22ZYDQ7VRH6EL","","","","{""Q0"":""table""}","","","","","","","","","","","","","","","","","","","","","","",""
"37752","","survey-text","225","1619859","0.0-224.0-0.0","A22ZYDQ7VRH6EL","","","","{""Q0"":""It looks like a space scene in a way. The colors are great but the content is a bit confusing.""}","","","","","","","","","","","","","","","","","","","","","","",""
"3757.4000000953674","","image-slider-response","226","1623619","0.0-225.0","A22ZYDQ7VRH6EL","","","","","2","","","","","","","","","","","","","","","","","","","","","",""
"null","","image-button-response","227","1628622","0.0-226.0","A22ZYDQ7VRH6EL","img_art/23.jpg","null","","","","","","","","","","","","","","","","","","","","","","","","",""
"1088","","image-button-response","228","1629714","0.0-227.0","A22ZYDQ7VRH6EL","img_art/23.jpg","5","","","","","","","","","","","","","","","","","","","","","","","","",""
"3068","","image-button-response","229","1632784","0.0-228.0-0.0","A22ZYDQ7VRH6EL","img_art/23.jpg","4","","","","","","","","","","","","","","","","","","","","","","","","",""
"1215","","image-button-response","230","1634002","0.0-229.0-0.0","A22ZYDQ7VRH6EL","img_art/23.jpg","1","","","","","","","","","","","","","","","","","","","","","","","","",""
"null","","html-keyboard-response","231","1635005","0.0-230.0","A22ZYDQ7VRH6EL","<p style=""font-size: 48px;"">+</p>","","","","","null","allTrialResponses","1000","1","26","img_art/23.jpg","2","It looks like a space scene in a way. The colors are great but the content is a bit confusing.","Dakota,John,Ethan,Logan,Christian,Daniel","teeth! dancing people, celebrations,-39,280,20","Very bright and eye catching.The White silhouettes remind me of people celebrating.,31,120,20","The colors are ugly. I don't like the white. It doesn't compliment the piece at all.,-44,120,20","This looks like the cover art for a scene band,-29,360,20","love the contrast (was this painted by a left-handed artist?),7,140,20","Too busy with color with warrior lineup,0,320,20","Daniel","Too busy with color with warrior lineup,0,320,20","Christian","love the contrast (was this painted by a left-handed artist?),7,140,20","John","Very bright and eye catching.The White silhouettes remind me of people celebrating.,31,120,20","2"
"33698","","survey-text","232","1668721","0.0-231.0-0.0","A22ZYDQ7VRH6EL","","","","{""Q0"":""Not too bad. The colors are a little too soft but the painting is nice.""}","","","","","","","","","","","","","","","","","","","","","","",""
"3092.100000143051","","image-slider-response","233","1671815","0.0-232.0","A22ZYDQ7VRH6EL","","","","","8","","","","","","","","","","","","","","","","","","","","","",""
"null","","image-button-response","234","1676820","0.0-233.0","A22ZYDQ7VRH6EL","img_art/14.jpg","null","","","","","","","","","","","","","","","","","","","","","","","","",""
"3126","","image-button-response","235","1679948","0.0-234.0","A22ZYDQ7VRH6EL","img_art/14.jpg","4","","","","","","","","","","","","","","","","","","","","","","","","",""
"7269","","image-button-response","236","1687219","0.0-235.0-0.0","A22ZYDQ7VRH6EL","img_art/14.jpg","3","","","","","","","","","","","","","","","","","","","","","","","","",""
"1729","","image-button-response","237","1688950","0.0-236.0-0.0","A22ZYDQ7VRH6EL","img_art/14.jpg","1","","","","","","","","","","","","","","","","","","","","","","","","",""
"null","","html-keyboard-response","238","1690452","0.0-237.0","A22ZYDQ7VRH6EL","<p style=""font-size: 48px;"">+</p>","","","","","null","allTrialResponses","1500","1","27","img_art/14.jpg","8","Not too bad. The colors are a little too soft but the painting is nice.","Derek,John,Jack,Robert,Christian,Daniel","Very abstract and colorful,40,360,20","Beautiful tree,the use of water colors makes it soothing to look at,37,120,20","love the colors. despite their brightness it seems sad somehow.,41,320,20","Late Winter when things are just starting to bloom.,21,360,20","medium recalls back to an oriental style,16,140,20","Baby's room palette with tree confusion in a more confused substrate.,-15,320,20","Christian","medium recalls back to an oriental style,16,140,20","Robert","Late Winter when things are just starting to bloom.,21,360,20","John","Beautiful tree,the use of water colors makes it soothing to look at,37,120,20","2"
"41772","","survey-text","239","1732239","0.0-238.0-0.0","A22ZYDQ7VRH6EL","","","","{""Q0"":""The colors are awesome. I'm not sure what is going on but like it a lot.""}","","","","","","","","","","","","","","","","","","","","","","",""
"4935.600000143051","","image-slider-response","240","1737177","0.0-239.0","A22ZYDQ7VRH6EL","","","","","44","","","","","","","","","","","","","","","","","","","","","",""
"null","","image-button-response","241","1742182","0.0-240.0","A22ZYDQ7VRH6EL","img_art/1.jpg","null","","","","","","","","","","","","","","","","","","","","","","","","",""
"977","","image-button-response","242","1743162","0.0-241.0","A22ZYDQ7VRH6EL","img_art/1.jpg","0","","","","","","","","","","","","","","","","","","","","","","","","",""
"1472","","image-button-response","243","1744636","0.0-242.0-0.0","A22ZYDQ7VRH6EL","img_art/1.jpg","3","","","","","","","","","","","","","","","","","","","","","","","","",""
"3447","","image-button-response","244","1748084","0.0-243.0-0.0","A22ZYDQ7VRH6EL","img_art/1.jpg","4","","","","","","","","","","","","","","","","","","","","","","","","",""
"null","","html-keyboard-response","245","1749086","0.0-244.0","A22ZYDQ7VRH6EL","<p style=""font-size: 48px;"">+</p>","","","","","null","allTrialResponses","1000","1","28","img_art/1.jpg","44","The colors are awesome. I'm not sure what is going on but like it a lot.","Cody,John,Alejandro,Robert,Christian,Christopher","Pretty, nice use of color,40,180,20","Its okay,not great.,1,120,20","Interesting color scheme but to bled to me,11,80,20","Pretty colors. Fall day in the East Coast of USA.,42,360,20","bamboo boat in sunset,12,140,20","it's boring despite all the colors,-2,160,20","Cody","Pretty, nice use of color,40,180,20","Robert","Pretty colors. Fall day in the East Coast of USA.,42,360,20","Christian","bamboo boat in sunset,12,140,20","2"
"81203","","survey-text","246","1830308","0.0-245.0-0.0","A22ZYDQ7VRH6EL","","","","{""Q0"":""Don Quixote? I love this. Very original.""}","","","","","","","","","","","","","","","","","","","","","","",""
"3014.600000143051","","image-slider-response","247","1833324","0.0-246.0","A22ZYDQ7VRH6EL","","","","","50","","","","","","","","","","","","","","","","","","","","","",""
"null","","image-button-response","248","1838327","0.0-247.0","A22ZYDQ7VRH6EL","img_art/25.jpg","null","","","","","","","","","","","","","","","","","","","","","","","","",""
"2489","","image-button-response","249","1840820","0.0-248.0","A22ZYDQ7VRH6EL","img_art/25.jpg","2","","","","","","","","","","","","","","","","","","","","","","","","",""
"1477","","image-button-response","250","1842300","0.0-249.0-0.0","A22ZYDQ7VRH6EL","img_art/25.jpg","0","","","","","","","","","","","","","","","","","","","","","","","","",""
"1486","","image-button-response","251","1843788","0.0-250.0-0.0","A22ZYDQ7VRH6EL","img_art/25.jpg","3","","","","","","","","","","","","","","","","","","","","","","","","",""
"null","","html-keyboard-response","252","1844289","0.0-251.0","A22ZYDQ7VRH6EL","<p style=""font-size: 48px;"">+</p>","","","","","null","allTrialResponses","500","1","29","img_art/25.jpg","50","Don Quixote? I love this. Very original.","Cody,Hunter,Kyle,Robert,Christian,Tyler","Like the colors and the figure,30,180,20","do not like that color of green,-11,240,20","I liked it as it seems unique in a way,21,340,20","It made me think of healing.,22,360,20","I'm sorry but I don't uderstand this,-20,140,20","Meh. Hardly abstract, though.,-40,320,20","Kyle","I liked it as it seems unique in a way,21,340,20","Cody","Like the colors and the figure,30,180,20","Robert","It made me think of healing.,22,360,20","2"
"26097","","survey-text","253","1870401","0.0-252.0-0.0","A22ZYDQ7VRH6EL","","","","{""Q0"":""Looks like it was painted by a toddler. No thanks.""}","","","","","","","","","","","","","","","","","","","","","","",""
"2914.4000000953674","","image-slider-response","254","1873318","0.0-253.0","A22ZYDQ7VRH6EL","","","","","-50","","","","","","","","","","","","","","","","","","","","","",""
"null","","image-button-response","255","1878322","0.0-254.0","A22ZYDQ7VRH6EL","img_art/5.jpg","null","","","","","","","","","","","","","","","","","","","","","","","","",""
"675","","image-button-response","256","1879000","0.0-255.0","A22ZYDQ7VRH6EL","img_art/5.jpg","5","","","","","","","","","","","","","","","","","","","","","","","","",""
"1417","","image-button-response","257","1880418","0.0-256.0-0.0","A22ZYDQ7VRH6EL","img_art/5.jpg","3","","","","","","","","","","","","","","","","","","","","","","","","",""
"3765","","image-button-response","258","1884186","0.0-257.0-0.0","A22ZYDQ7VRH6EL","img_art/5.jpg","1","","","","","","","","","","","","","","","","","","","","","","","","",""
"null","","html-keyboard-response","259","1884688","0.0-258.0","A22ZYDQ7VRH6EL","<p style=""font-size: 48px;"">+</p>","","","","","null","allTrialResponses","500","1","30","img_art/5.jpg","-50","Looks like it was painted by a toddler. No thanks.","Cody,Cameron,Kyle,Robert,Samuel,Michael","Kind of ugly ....,-21,180,20","No. What even is this? A mop?,-35,60,20","Not sure what to say about this piece honestly. It's okay I guess.,0,340,20","This did not do a thing for me.,-50,360,20","a brush in time,-14,400,20","Complete garbage. Looks like a kid drew it.,-50,140,20","Michael","Complete garbage. Looks like a kid drew it.,-50,140,20","Robert","This did not do a thing for me.,-50,360,20","Cameron","No. What even is this? A mop?,-35,60,20","2"
"6438","","image-button-response_instructions","260","1891141","0.0-259.0","A22ZYDQ7VRH6EL","","0","instructions","","","","","","","","","","","","","","","","","","","","","","","",""
"1737","","image-button-response","261","1892885","0.0-260.0","A22ZYDQ7VRH6EL","","0","","","","","","","","","","","","","","","","","","","","","","","","",""
