"rt","url","trial_type","trial_index","time_elapsed","internal_node_id","participant_id","stimulus","button_pressed","Name","responses","response","key_press","variableName","fixationTime","condition","trial","photo","subjectRating","subjectResponse","agentsNames","agent_1_Response","agent_2_Response","agent_3_Response","agent_4_Response","agent_5_Response","agent_6_Response","kept_1_name","kept_1_response","kept_2_name","kept_2_response","kept_3_name","kept_3_response","errorCounter"
"4175","external_page_harvard.html","external-html","0","4272","0.0-0.0","A2328BC1EPV043","","","","","","","","","","","","","","","","","","","","","","","","","","",""
"1339","","image-button-response","1","5613","0.0-1.0","A2328BC1EPV043","","1","","","","","","","","","","","","","","","","","","","","","","","","",""
"2120","","image-button-response","2","7736","0.0-2.0-0.0","A2328BC1EPV043","","1","phone","","","","","","","","","","","","","","","","","","","","","","","",""
"4179","","survey-text","3","11917","0.0-3.0-0.0","A2328BC1EPV043","","","","{""Q0"":""A2328BC1EPV043""}","","","","","","","","","","","","","","","","","","","","","","",""
"3709","","image-button-response_instructions","4","15628","0.0-4.0","A2328BC1EPV043","","0","instructions","","","","","","","","","","","","","","","","","","","","","","","",""
"15907","","image-button-response_instructions","5","31536","0.0-5.0","A2328BC1EPV043","img_art/ins/popularity/ins1.png","0","instructions","","","","","","","","","","","","","","","","","","","","","","","",""
"7342","","image-button-response_instructions","6","38878","0.0-6.0","A2328BC1EPV043","img_art/ins/popularity/ins2.png","0","instructions","","","","","","","","","","","","","","","","","","","","","","","",""
"11190","","image-button-response_instructions","7","50070","0.0-7.0","A2328BC1EPV043","img_art/ins/popularity/ins2Extreme.png","0","instructions","","","","","","","","","","","","","","","","","","","","","","","",""
"4087","","image-button-response_instructions","8","54158","0.0-8.0","A2328BC1EPV043","img_art/ins/popularity/ins3KEEPpop.PNG","0","instructions","","","","","","","","","","","","","","","","","","","","","","","",""
"2471","","image-button-response_instructions","9","56630","0.0-9.0","A2328BC1EPV043","img_art/ins/popularity/ins3ANamepop.PNG","0","instructions","","","","","","","","","","","","","","","","","","","","","","","",""
"1986","","image-button-response_instructions","10","58618","0.0-10.0","A2328BC1EPV043","img_art/ins/popularity/ins3ARatingpop.png","0","instructions","","","","","","","","","","","","","","","","","","","","","","","",""
"2556","","image-button-response_instructions","11","61174","0.0-11.0","A2328BC1EPV043","img_art/ins/popularity/ins3ATextpop.png","0","instructions","","","","","","","","","","","","","","","","","","","","","","","",""
"3485","","image-button-response_instructions","12","64661","0.0-12.0","A2328BC1EPV043","img_art/ins/popularity/ins3ALikespop.png","0","instructions","","","","","","","","","","","","","","","","","","","","","","","",""
"198145","","image-button-response_instructions","13","262806","0.0-13.0","A2328BC1EPV043","img_art/ins/popularity/ins3KEEPpop.PNG","0","instructions","","","","","","","","","","","","","","","","","","","","","","","",""
"7561","","image-button-response_instructions","14","270369","0.0-14.0","A2328BC1EPV043","img_art/ins/popularity/ins3_5RED.png","0","instructions","","","","","","","","","","","","","","","","","","","","","","","",""
"6654","","image-button-response_instructions","15","277023","0.0-15.0","A2328BC1EPV043","img_art/ins/popularity/ins3KEEPpop.PNG","0","instructions","","","","","","","","","","","","","","","","","","","","","","","",""
"38951","","image-button-response_instructions","16","315976","0.0-16.0","A2328BC1EPV043","img_art/ins/popularity/ins4KEEPpop.PNG","0","instructions","","","","","","","","","","","","","","","","","","","","","","","",""
"3222","","image-button-response_instructions","17","319198","0.0-17.0","A2328BC1EPV043","img_art/ins/popularity/ins5KEEPpop.PNG","0","instructions","","","","","","","","","","","","","","","","","","","","","","","",""
"1729","","image-button-response_instructions","18","320928","0.0-18.0","A2328BC1EPV043","","0","instructions","","","","","","","","","","","","","","","","","","","","","","","",""
"10283","","survey-text","19","331226","0.0-19.0-0.0","A2328BC1EPV043","","","","{""Q0"":""but""}","","","","","","","","","","","","","","","","","","","","","","",""
"29436","","survey-text","20","360664","0.0-20.0-0.0","A2328BC1EPV043","","","","{""Q0"":""the brown ruins it for me""}","","","","","","","","","","","","","","","","","","","","","","",""
"4163.300000011921","","image-slider-response","21","364829","0.0-21.0","A2328BC1EPV043","","","","","-17","","","","","","","","","","","","","","","","","","","","","",""
"null","","image-button-response","22","369832","0.0-22.0","A2328BC1EPV043","img_art/ins/1.jpg","null","","","","","","","","","","","","","","","","","","","","","","","","",""
"2138","","image-button-response","23","371973","0.0-23.0","A2328BC1EPV043","img_art/ins/1.jpg","3","","","","","","","","","","","","","","","","","","","","","","","","",""
"4698","","image-button-response","24","376671","0.0-24.0-0.0","A2328BC1EPV043","img_art/ins/1.jpg","1","","","","","","","","","","","","","","","","","","","","","","","","",""
"1866","","image-button-response","25","378540","0.0-25.0-0.0","A2328BC1EPV043","img_art/ins/1.jpg","0","","","","","","","","","","","","","","","","","","","","","","","","",""
"null","","html-keyboard-response","26","379542","0.0-26.0","A2328BC1EPV043","<p style=""font-size: 48px;"">+</p>","","","","","null","allTrialResponses","1000","1","-2","img_art/ins/1.jpg","-17","the brown ruins it for me","Allison,Ashley,Beth,Dora,Erika,Jen","looks like a lot of things going on in the mist,20,20,20","I just don't get why these type of art would be popular,-32,40,20","This color reminds me of poo,-46,60,20","looks like what my niece in 3rd grade did this afternoon,-50,80,20","I like the sophisticated brushwork,40,100,20","It reminds me of a candy land dream I had,36,120,20","Dora","looks like what my niece in 3rd grade did this afternoon,-50,80,20","Ashley","I just don't get why these type of art would be popular,-32,40,20","Allison","looks like a lot of things going on in the mist,20,20,20","0"
"24113","","survey-text","27","403661","0.0-27.0-0.0","A2328BC1EPV043","","","","{""Q0"":""reminds me of blood, dark-themed""}","","","","","","","","","","","","","","","","","","","","","","",""
"3501.699999988079","","image-slider-response","28","407164","0.0-28.0","A2328BC1EPV043","","","","","7","","","","","","","","","","","","","","","","","","","","","",""
"null","","image-button-response","29","412168","0.0-29.0","A2328BC1EPV043","img_art/ins/2.jpg","null","","","","","","","","","","","","","","","","","","","","","","","","",""
"4741","","image-button-response","30","416912","0.0-30.0","A2328BC1EPV043","img_art/ins/2.jpg","3","","","","","","","","","","","","","","","","","","","","","","","","",""
"9766","","image-button-response","31","426680","0.0-31.0-0.0","A2328BC1EPV043","img_art/ins/2.jpg","5","","","","","","","","","","","","","","","","","","","","","","","","",""
"1035","","image-button-response","32","427717","0.0-32.0-0.0","A2328BC1EPV043","img_art/ins/2.jpg","4","","","","","","","","","","","","","","","","","","","","","","","","",""
"null","","html-keyboard-response","33","429218","0.0-33.0","A2328BC1EPV043","<p style=""font-size: 48px;"">+</p>","","","","","null","allTrialResponses","1500","1","-1","img_art/ins/2.jpg","7","reminds me of blood, dark-themed","Allison,Ashley,Jenna,Dora,Kara,Katie","I don't have strong feelings about this,10,20,20","Idk, it is just annoying,-32,40,20","One of my pet peevs,-48,140,20","looks too angry,-50,80,20","I like the blocks of color arrangements,30,160,20","too much color!,-28,180,20","Dora","looks too angry,-50,80,20","Katie","too much color!,-28,180,20","Kara","I like the blocks of color arrangements,30,160,20","0"
"23794","","survey-text","34","453014","0.0-34.0-0.0","A2328BC1EPV043","","","","{""Q0"":""cold and winter like. ""}","","","","","","","","","","","","","","","","","","","","","","",""
"2686.600000023842","","image-slider-response","35","455702","0.0-35.0","A2328BC1EPV043","","","","","18","","","","","","","","","","","","","","","","","","","","","",""
"4343","","image-button-response","36","460705","0.0-36.0","A2328BC1EPV043","img_art/ins/3.jpg","4","","","","","","","","","","","","","","","","","","","","","","","","",""
"1776","","image-button-response","37","462483","0.0-37.0","A2328BC1EPV043","img_art/ins/3.jpg","2","","","","","","","","","","","","","","","","","","","","","","","","",""
"3117","","image-button-response","38","465602","0.0-38.0-0.0","A2328BC1EPV043","img_art/ins/3.jpg","4","","","","","","","","","","","","","","","","","","","","","","","","",""
"1774","","image-button-response","39","467378","0.0-39.0-0.0","A2328BC1EPV043","img_art/ins/3.jpg","5","","","","","","","","","","","","","","","","","","","","","","","","",""
"null","","html-keyboard-response","40","468879","0.0-40.0","A2328BC1EPV043","<p style=""font-size: 48px;"">+</p>","","","","","null","allTrialResponses","1500","1","0","img_art/ins/3.jpg","18","cold and winter like. ","Leslie,Mary,Rose,Dora,Kara,Katie","It's an alright work,15,200,20","I like the overlapping of brushes,41,220,20","My daily routine, it's depressing,-20,240,20","My worst nightmare,-42,80,20","calming blue is very nice,36,160,20","It looks depressing,-26,180,20","Rose","My daily routine, it's depressing,-20,240,20","Kara","calming blue is very nice,36,160,20","Katie","It looks depressing,-26,180,20","0"
"5509","","image-button-response_instructions","41","474391","0.0-41.0","A2328BC1EPV043","","0","instructions","","","","","","","","","","","","","","","","","","","","","","","",""
"6882","","survey-likert","42","481275","0.0-42.0-0.0","A2328BC1EPV043","","","","{""Q0"":"""",""Q1"":0,""Q2"":1}","","","","","","","","","","","","","","","","","","","","","","",""
"3585","","survey-text","43","484863","0.0-43.0-0.0","A2328BC1EPV043","","","","{""Q0"":""rock""}","","","","","","","","","","","","","","","","","","","","","","",""
"17070","","survey-text","44","501934","0.0-44.0-0.0","A2328BC1EPV043","","","","{""Q0"":""looks like an angry sea creature, no thanks""}","","","","","","","","","","","","","","","","","","","","","","",""
"4100.799999952316","","image-slider-response","45","506036","0.0-45.0","A2328BC1EPV043","","","","","-43","","","","","","","","","","","","","","","","","","","","","",""
"null","","image-button-response","46","511052","0.0-46.0","A2328BC1EPV043","img_art/9.jpg","null","","","","","","","","","","","","","","","","","","","","","","","","",""
"3588","","image-button-response","47","514641","0.0-47.0","A2328BC1EPV043","img_art/9.jpg","4","","","","","","","","","","","","","","","","","","","","","","","","",""
"6486","","image-button-response","48","521129","0.0-48.0-0.0","A2328BC1EPV043","img_art/9.jpg","2","","","","","","","","","","","","","","","","","","","","","","","","",""
"700","","image-button-response","49","521831","0.0-49.0-0.0","A2328BC1EPV043","img_art/9.jpg","0","","","","","","","","","","","","","","","","","","","","","","","","",""
"null","","html-keyboard-response","50","523334","0.0-50.0","A2328BC1EPV043","<p style=""font-size: 48px;"">+</p>","","","","","null","allTrialResponses","1500","1","1","img_art/9.jpg","-43","looks like an angry sea creature, no thanks","Jessica,Rachel,Christina,Jenna,Angela,Monica","So I don't really like this style but it looks somewhat okay,3,400,20","It looks like a lady taking a peaceful nap on a blanket in the grass.,41,80,20","nice colors but it looks like it's from the 80s,10,240,20","gorgeous colors, love the little details,42,360,20","This painting feels too jumbled for me to like it.,-12,260,20","I like the greens and blues around the sides and the person reclining in the center makes me feel relaxed,24,360,20","Angela","This painting feels too jumbled for me to like it.,-12,260,20","Christina","nice colors but it looks like it's from the 80s,10,240,20","Jessica","So I don't really like this style but it looks somewhat okay,3,400,20","0"
"52219","","survey-text","51","575556","0.0-51.0-0.0","A2328BC1EPV043","","","","{""Q0"":""more color clarity, i see a jumbled rat""}","","","","","","","","","","","","","","","","","","","","","","",""
"3410.399999976158","","image-slider-response","52","578968","0.0-52.0","A2328BC1EPV043","","","","","-26","","","","","","","","","","","","","","","","","","","","","",""
"4106","","image-button-response","53","583970","0.0-53.0","A2328BC1EPV043","img_art/28.jpg","1","","","","","","","","","","","","","","","","","","","","","","","","",""
"772","","image-button-response","54","584744","0.0-54.0","A2328BC1EPV043","img_art/28.jpg","1","","","","","","","","","","","","","","","","","","","","","","","","",""
"489","","image-button-response","55","585234","0.0-55.0-0.0","A2328BC1EPV043","img_art/28.jpg","2","","","","","","","","","","","","","","","","","","","","","","","","",""
"2208","","image-button-response","56","587444","0.0-56.0-0.0","A2328BC1EPV043","img_art/28.jpg","4","","","","","","","","","","","","","","","","","","","","","","","","",""
"null","","html-keyboard-response","57","587945","0.0-57.0","A2328BC1EPV043","<p style=""font-size: 48px;"">+</p>","","","","","null","allTrialResponses","500","1","2","img_art/28.jpg","-26","more color clarity, i see a jumbled rat","Jessica,Mackenzie,Christina,Olivia,Angela,Margaret","I can't tell what's going on but it looks a little bit more lively at least,7,400,20","The muted tones aren't my favorite.,-10,20,20","very blah colors and it's not fun,-27,240,20","conversating means hope,15,40,20","This reminds me of internal organs.,-10,260,20","i like the neutral color pallette but i dont know what i am looking at,26,100,20","Mackenzie","The muted tones aren't my favorite.,-10,20,20","Christina","very blah colors and it's not fun,-27,240,20","Angela","This reminds me of internal organs.,-10,260,20","0"
"18712","","survey-text","58","606663","0.0-58.0-0.0","A2328BC1EPV043","","","","{""Q0"":""delicate with some vibrancy. i like it""}","","","","","","","","","","","","","","","","","","","","","","",""
"2427.5","","image-slider-response","59","609092","0.0-59.0","A2328BC1EPV043","","","","","29","","","","","","","","","","","","","","","","","","","","","",""
"4136","","image-button-response","60","614094","0.0-60.0","A2328BC1EPV043","img_art/14.jpg","1","","","","","","","","","","","","","","","","","","","","","","","","",""
"696","","image-button-response","61","614792","0.0-61.0","A2328BC1EPV043","img_art/14.jpg","1","","","","","","","","","","","","","","","","","","","","","","","","",""
"5111","","image-button-response","62","619904","0.0-62.0-0.0","A2328BC1EPV043","img_art/14.jpg","4","","","","","","","","","","","","","","","","","","","","","","","","",""
"1818","","image-button-response","63","621723","0.0-63.0-0.0","A2328BC1EPV043","img_art/14.jpg","2","","","","","","","","","","","","","","","","","","","","","","","","",""
"null","","html-keyboard-response","64","623225","0.0-64.0","A2328BC1EPV043","<p style=""font-size: 48px;"">+</p>","","","","","null","allTrialResponses","1500","1","3","img_art/14.jpg","29","delicate with some vibrancy. i like it","Brooke,Mackenzie,Christina,Marissa,Angela,Alexis","cotton candy skies. pretty.,35,60,20","I like the combination of colors and textures.,35,20,20","has a tree look to it and it's colors are happy,9,240,20","I like the sharpness of the lines,20,160,20","I like the colors and the shapes are interesting,11,260,20","Don't like the colors on this. Too simple,-20,100,20","Mackenzie","I like the combination of colors and textures.,35,20,20","Angela","I like the colors and the shapes are interesting,11,260,20","Christina","has a tree look to it and it's colors are happy,9,240,20","0"
"79772","","survey-text","65","703000","0.0-65.0-0.0","A2328BC1EPV043","","","","{""Q0"":""cityscape with great splash of color. i like it""}","","","","","","","","","","","","","","","","","","","","","","",""
"1895.699999988079","","image-slider-response","66","704897","0.0-66.0","A2328BC1EPV043","","","","","27","","","","","","","","","","","","","","","","","","","","","",""
"3566","","image-button-response","67","709899","0.0-67.0","A2328BC1EPV043","img_art/11.jpg","1","","","","","","","","","","","","","","","","","","","","","","","","",""
"859","","image-button-response","68","710760","0.0-68.0","A2328BC1EPV043","img_art/11.jpg","1","","","","","","","","","","","","","","","","","","","","","","","","",""
"2266","","image-button-response","69","713028","0.0-69.0-0.0","A2328BC1EPV043","img_art/11.jpg","4","","","","","","","","","","","","","","","","","","","","","","","","",""
"737","","image-button-response","70","713767","0.0-70.0-0.0","A2328BC1EPV043","img_art/11.jpg","3","","","","","","","","","","","","","","","","","","","","","","","","",""
"null","","html-keyboard-response","71","714270","0.0-71.0","A2328BC1EPV043","<p style=""font-size: 48px;"">+</p>","","","","","null","allTrialResponses","500","1","4","img_art/11.jpg","27","cityscape with great splash of color. i like it","Hannah,Mackenzie,Christina,Elizabeth,Angela,Natalie","Is interesting. Wouldn't bother me to have this hanging where I'd see it every day.,11,240,20","The different textures and colors make this pleasing to look at.,30,20,20","I like how it looks like buildings but i'm not a fan of colors,20,240,20","Very unique piece of art,50,20,20","I like this one very much, especially the shades of gray.,30,260,20","pic looks alright,8,400,20","Mackenzie","The different textures and colors make this pleasing to look at.,30,20,20","Angela","I like this one very much, especially the shades of gray.,30,260,20","Elizabeth","Very unique piece of art,50,20,20","0"
"11014","","survey-text","72","725289","0.0-72.0-0.0","A2328BC1EPV043","","","","{""Q0"":""i would hang this up at halloween time""}","","","","","","","","","","","","","","","","","","","","","","",""
"2327.199999988079","","image-slider-response","73","727618","0.0-73.0","A2328BC1EPV043","","","","","6","","","","","","","","","","","","","","","","","","","","","",""
"null","","image-button-response","74","732621","0.0-74.0","A2328BC1EPV043","img_art/25.jpg","null","","","","","","","","","","","","","","","","","","","","","","","","",""
"50725","","image-button-response","75","783349","0.0-75.0","A2328BC1EPV043","img_art/25.jpg","1","","","","","","","","","","","","","","","","","","","","","","","","",""
"776","","image-button-response","76","784127","0.0-76.0-0.0","A2328BC1EPV043","img_art/25.jpg","2","","","","","","","","","","","","","","","","","","","","","","","","",""
"1250","","image-button-response","77","785378","0.0-77.0-0.0","A2328BC1EPV043","img_art/25.jpg","5","","","","","","","","","","","","","","","","","","","","","","","","",""
"null","","html-keyboard-response","78","786380","0.0-78.0","A2328BC1EPV043","<p style=""font-size: 48px;"">+</p>","","","","","null","allTrialResponses","1000","1","5","img_art/25.jpg","6","i would hang this up at halloween time","Maria,Mackenzie,Alyssa,Elizabeth,Angela,Katherine","I find it enjoyable - mainly because it is not art I ever expected to see,16,120,20","Very nice color contrast and design.,40,20,20","Dark silhouette against the murky background Illicites an ominous feeling. Don't really like it.,-20,160,20","Love the color hues and the texture it creates,50,20,20","Ugly green color and don't like it at all,-30,260,20","That's pretty awesome. I love the green and black combo, reminds me of one of those cartoon creepy movies,47,120,20","Mackenzie","Very nice color contrast and design.,40,20,20","Alyssa","Dark silhouette against the murky background Illicites an ominous feeling. Don't really like it.,-20,160,20","Katherine","That's pretty awesome. I love the green and black combo, reminds me of one of those cartoon creepy movies,47,120,20","0"
"3788","","survey-text","79","790177","0.0-79.0-0.0","A2328BC1EPV043","","","","{""Q0"":""sky""}","","","","","","","","","","","","","","","","","","","","","","",""
"19666","","survey-text","80","809844","0.0-80.0-0.0","A2328BC1EPV043","","","","{""Q0"":""I like the contrasting textures. The colors are meh""}","","","","","","","","","","","","","","","","","","","","","","",""
"2143.899999976158","","image-slider-response","81","811989","0.0-81.0","A2328BC1EPV043","","","","","8","","","","","","","","","","","","","","","","","","","","","",""
"4856","","image-button-response","82","816992","0.0-82.0","A2328BC1EPV043","img_art/13.jpg","2","","","","","","","","","","","","","","","","","","","","","","","","",""
"650","","image-button-response","83","817644","0.0-83.0","A2328BC1EPV043","img_art/13.jpg","2","","","","","","","","","","","","","","","","","","","","","","","","",""
"3707","","image-button-response","84","821353","0.0-84.0-0.0","A2328BC1EPV043","img_art/13.jpg","3","","","","","","","","","","","","","","","","","","","","","","","","",""
"2051","","image-button-response","85","823406","0.0-85.0-0.0","A2328BC1EPV043","img_art/13.jpg","1","","","","","","","","","","","","","","","","","","","","","","","","",""
"null","","html-keyboard-response","86","824408","0.0-86.0","A2328BC1EPV043","<p style=""font-size: 48px;"">+</p>","","","","","null","allTrialResponses","1000","1","6","img_art/13.jpg","8","I like the contrasting textures. The colors are meh","Sophia,Mackenzie,Alyssa,Stephanie,Paige,Katherine","I like the colors used in this piece.,2,280,20","I enjoy the cool colors mixed together,31,20,20","Pretty and it reminds me of rain droplets running down a window on a rainy day.,40,160,20","Raindrops splashing on the window.,50,300,20","Pleased. I like to combination of colors,17,60,20","Best color combo. i love this.,50,120,20","Alyssa","Pretty and it reminds me of rain droplets running down a window on a rainy day.,40,160,20","Stephanie","Raindrops splashing on the window.,50,300,20","Mackenzie","I enjoy the cool colors mixed together,31,20,20","0"
"191609","","survey-text","87","1016022","0.0-87.0-0.0","A2328BC1EPV043","","","","{""Q0"":""artistic violin? it's ok, i wouldn't display it though.""}","","","","","","","","","","","","","","","","","","","","","","",""
"6766.5","","image-slider-response","88","1022789","0.0-88.0","A2328BC1EPV043","","","","","3","","","","","","","","","","","","","","","","","","","","","",""
"null","","image-button-response","89","1027792","0.0-89.0","A2328BC1EPV043","img_art/10.jpg","null","","","","","","","","","","","","","","","","","","","","","","","","",""
"2714","","image-button-response","90","1030508","0.0-90.0","A2328BC1EPV043","img_art/10.jpg","3","","","","","","","","","","","","","","","","","","","","","","","","",""
"1637","","image-button-response","91","1032146","0.0-91.0-0.0","A2328BC1EPV043","img_art/10.jpg","1","","","","","","","","","","","","","","","","","","","","","","","","",""
"499","","image-button-response","92","1032647","0.0-92.0-0.0","A2328BC1EPV043","img_art/10.jpg","0","","","","","","","","","","","","","","","","","","","","","","","","",""
"null","","html-keyboard-response","93","1033149","0.0-93.0","A2328BC1EPV043","<p style=""font-size: 48px;"">+</p>","","","","","null","allTrialResponses","500","1","7","img_art/10.jpg","3","artistic violin? it's ok, i wouldn't display it though.","Shannon,Mackenzie,Alyssa,Stephanie,Cassidy,Alexandra","I can't tell what this picture is supposed to mean and I think the colors are lacking variety.,-42,220,20","The design is very fluid and fun to interpret,35,20,20","Bleak and uninteresting,-10,160,20","The black color is depressing.,-50,300,20","Looks like someone just smeared some paint and called it good. Do not like.,-6,140,20","The longer I looked at this, the more I liked it,33,60,20","Stephanie","The black color is depressing.,-50,300,20","Mackenzie","The design is very fluid and fun to interpret,35,20,20","Shannon","I can't tell what this picture is supposed to mean and I think the colors are lacking variety.,-42,220,20","0"
"22272","","survey-text","94","1055423","0.0-94.0-0.0","A2328BC1EPV043","","","","{""Q0"":""i love the splash of color and the yellow is illuminating. very pretty.""}","","","","","","","","","","","","","","","","","","","","","","",""
"9330.599999964237","","image-slider-response","95","1064754","0.0-95.0","A2328BC1EPV043","","","","","34","","","","","","","","","","","","","","","","","","","","","",""
"2821","","image-button-response","96","1069757","0.0-96.0","A2328BC1EPV043","img_art/30.jpg","0","","","","","","","","","","","","","","","","","","","","","","","","",""
"7671","","image-button-response","97","1077430","0.0-97.0","A2328BC1EPV043","img_art/30.jpg","1","","","","","","","","","","","","","","","","","","","","","","","","",""
"1511","","image-button-response","98","1078942","0.0-98.0-0.0","A2328BC1EPV043","img_art/30.jpg","5","","","","","","","","","","","","","","","","","","","","","","","","",""
"3965","","image-button-response","99","1082909","0.0-99.0-0.0","A2328BC1EPV043","img_art/30.jpg","2","","","","","","","","","","","","","","","","","","","","","","","","",""
"null","","html-keyboard-response","100","1083411","0.0-100.0","A2328BC1EPV043","<p style=""font-size: 48px;"">+</p>","","","","","null","allTrialResponses","500","1","8","img_art/30.jpg","34","i love the splash of color and the yellow is illuminating. very pretty.","Shannon,Mackenzie,Kylie,Stephanie,Destiny,Sarah","I feel like the colors are too repetitive and not very eyecatching.,-20,220,20","I like the forefront design.,10,20,20","I can't figure this out,25,300,20","My kindergarten class could do this,-50,300,20","literally stupid I made this with as seen on tv products when I was 7,-42,360,20","looks simple, I can't see a lot of care going into this,-33,180,20","Mackenzie","I like the forefront design.,10,20,20","Sarah","looks simple, I can't see a lot of care going into this,-33,180,20","Kylie","I can't figure this out,25,300,20","0"
"23312","","survey-text","101","1106728","0.0-101.0-0.0","A2328BC1EPV043","","","","{""Q0"":""this is too muted and too much red""}","","","","","","","","","","","","","","","","","","","","","","",""
"2435.100000023842","","image-slider-response","102","1109164","0.0-102.0","A2328BC1EPV043","","","","","-9","","","","","","","","","","","","","","","","","","","","","",""
"null","","image-button-response","103","1114167","0.0-103.0","A2328BC1EPV043","img_art/1.jpg","null","","","","","","","","","","","","","","","","","","","","","","","","",""
"117130","","image-button-response","104","1231298","0.0-104.0","A2328BC1EPV043","img_art/1.jpg","2","","","","","","","","","","","","","","","","","","","","","","","","",""
"1366","","image-button-response","105","1232666","0.0-105.0-0.0","A2328BC1EPV043","img_art/1.jpg","0","","","","","","","","","","","","","","","","","","","","","","","","",""
"1974","","image-button-response","106","1234642","0.0-106.0-0.0","A2328BC1EPV043","img_art/1.jpg","3","","","","","","","","","","","","","","","","","","","","","","","","",""
"null","","html-keyboard-response","107","1235643","0.0-107.0","A2328BC1EPV043","<p style=""font-size: 48px;"">+</p>","","","","","null","allTrialResponses","1000","1","9","img_art/1.jpg","-9","this is too muted and too much red","Miranda,Mackenzie,Kylie,Alicia,Andrea,Sarah","Someone painted a landscape and decided they didn't like it so they covered it up.,13,320,20","I like the simple aspect to the design,21,20,20","I don't know how I feel about this,1,300,20","just colors mixed together. not interesting.,5,120,20","It just doesn't speak to me.,0,240,20","it's boring despite all the colors,-2,180,20","Kylie","I don't know how I feel about this,1,300,20","Miranda","Someone painted a landscape and decided they didn't like it so they covered it up.,13,320,20","Alicia","just colors mixed together. not interesting.,5,120,20","0"
"28089","","survey-text","108","1263736","0.0-108.0-0.0","A2328BC1EPV043","","","","{""Q0"":""clean lines but too surreal for me""}","","","","","","","","","","","","","","","","","","","","","","",""
"2872","","image-slider-response","109","1266610","0.0-109.0","A2328BC1EPV043","","","","","-2","","","","","","","","","","","","","","","","","","","","","",""
"null","","image-button-response","110","1271613","0.0-110.0","A2328BC1EPV043","img_art/8.jpg","null","","","","","","","","","","","","","","","","","","","","","","","","",""
"572","","image-button-response","111","1272186","0.0-111.0","A2328BC1EPV043","img_art/8.jpg","2","","","","","","","","","","","","","","","","","","","","","","","","",""
"3249","","image-button-response","112","1275436","0.0-112.0-0.0","A2328BC1EPV043","img_art/8.jpg","4","","","","","","","","","","","","","","","","","","","","","","","","",""
"1513","","image-button-response","113","1276951","0.0-113.0-0.0","A2328BC1EPV043","img_art/8.jpg","0","","","","","","","","","","","","","","","","","","","","","","","","",""
"null","","html-keyboard-response","114","1278453","0.0-114.0","A2328BC1EPV043","<p style=""font-size: 48px;"">+</p>","","","","","null","allTrialResponses","1500","1","10","img_art/8.jpg","-2","clean lines but too surreal for me","Miranda,Heather,Kylie,Alicia,Taylor,Lauren","I like this, the longer I look at in the more details I see.,41,320,20","woman looking over a the community,1,260,20","Very abstract and seems symbolic,45,300,20","wow. blocky, angled, neat colors. The faces are what makes it. love it.,45,120,20","Looks like it would be an interesting place to live,35,340,20","I like how the piece is showcasing emotion in relation to something.,25,340,20","Kylie","Very abstract and seems symbolic,45,300,20","Taylor","Looks like it would be an interesting place to live,35,340,20","Miranda","I like this, the longer I look at in the more details I see.,41,320,20","0"
"21427","","survey-text","115","1299889","0.0-115.0-0.0","A2328BC1EPV043","","","","{""Q0"":""our""}","","","","","","","","","","","","","","","","","","","","","","",""
"21054","","survey-text","116","1320944","0.0-116.0-0.0","A2328BC1EPV043","","","","{""Q0"":""i love the gold color and highlighted areas that stand out""}","","","","","","","","","","","","","","","","","","","","","","",""
"1922.199999988079","","image-slider-response","117","1322867","0.0-117.0","A2328BC1EPV043","","","","","23","","","","","","","","","","","","","","","","","","","","","",""
"null","","image-button-response","118","1327869","0.0-118.0","A2328BC1EPV043","img_art/21.jpg","null","","","","","","","","","","","","","","","","","","","","","","","","",""
"18831","","image-button-response","119","1346702","0.0-119.0","A2328BC1EPV043","img_art/21.jpg","1","","","","","","","","","","","","","","","","","","","","","","","","",""
"2838","","image-button-response","120","1349542","0.0-120.0-0.0","A2328BC1EPV043","img_art/21.jpg","3","","","","","","","","","","","","","","","","","","","","","","","","",""
"1393","","image-button-response","121","1350936","0.0-121.0-0.0","A2328BC1EPV043","img_art/21.jpg","4","","","","","","","","","","","","","","","","","","","","","","","","",""
"null","","html-keyboard-response","122","1352438","0.0-122.0","A2328BC1EPV043","<p style=""font-size: 48px;"">+</p>","","","","","null","allTrialResponses","1500","1","11","img_art/21.jpg","23","i love the gold color and highlighted areas that stand out","Miranda,Vanessa,Kylie,Savannah,Taylor,Kathryn","This looks very interesting because something is happening but I can't tell what.,28,320,20","The colors and softness work together to make something that's lovely.,42,380,20","Makes me think of a battleship targeting a beautiful mountainside,0,300,20","Almost appears like the background of an old renaissance painting.,40,200,20","I love the contrasting tones between the two sides,36,340,20","This feels chaotic, like a battle or a storm.,-20,140,20","Vanessa","The colors and softness work together to make something that's lovely.,42,380,20","Savannah","Almost appears like the background of an old renaissance painting.,40,200,20","Taylor","I love the contrasting tones between the two sides,36,340,20","0"
"67479","","survey-text","123","1419923","0.0-123.0-0.0","A2328BC1EPV043","","","","{""Q0"":""extremely chaotic and i do not like the texture and shininess""}","","","","","","","","","","","","","","","","","","","","","","",""
"1822.300000011921","","image-slider-response","124","1421746","0.0-124.0","A2328BC1EPV043","","","","","-24","","","","","","","","","","","","","","","","","","","","","",""
"1668","","image-button-response","125","1426750","0.0-125.0","A2328BC1EPV043","img_art/29.jpg","0","","","","","","","","","","","","","","","","","","","","","","","","",""
"6603","","image-button-response","126","1433355","0.0-126.0","A2328BC1EPV043","img_art/29.jpg","1","","","","","","","","","","","","","","","","","","","","","","","","",""
"481","","image-button-response","127","1433837","0.0-127.0-0.0","A2328BC1EPV043","img_art/29.jpg","2","","","","","","","","","","","","","","","","","","","","","","","","",""
"3000","","image-button-response","128","1436838","0.0-128.0-0.0","A2328BC1EPV043","img_art/29.jpg","0","","","","","","","","","","","","","","","","","","","","","","","","",""
"null","","html-keyboard-response","129","1437341","0.0-129.0","A2328BC1EPV043","<p style=""font-size: 48px;"">+</p>","","","","","null","allTrialResponses","500","1","12","img_art/29.jpg","-24","extremely chaotic and i do not like the texture and shininess","Melissa,Vanessa,Brianna,Savannah,Taylor,Jasmine","abrasive and grotesque textures,-36,240,20","I hate the red x over everything, hate the black hate how hopeless this is.,-50,380,20","It has a red X on there, and x's mean bad in my perspective,-29,20,20","Looks wrong. Like a real painting was vandalized.,-50,200,20","It seems like there's anger in the painting.,-20,340,20","I like the usage of blacks and greys in this,8,340,20","Vanessa","I hate the red x over everything, hate the black hate how hopeless this is.,-50,380,20","Brianna","It has a red X on there, and x's mean bad in my perspective,-29,20,20","Melissa","abrasive and grotesque textures,-36,240,20","0"
"77417","","survey-text","130","1514763","0.0-130.0-0.0","A2328BC1EPV043","","","","{""Q0"":""i like the heart, but it also like hand that was started and then scrapped""}","","","","","","","","","","","","","","","","","","","","","","",""
"1729.800000011921","","image-slider-response","131","1516495","0.0-131.0","A2328BC1EPV043","","","","","-12","","","","","","","","","","","","","","","","","","","","","",""
"4301","","image-button-response","132","1521498","0.0-132.0","A2328BC1EPV043","img_art/4.jpg","2","","","","","","","","","","","","","","","","","","","","","","","","",""
"809","","image-button-response","133","1522309","0.0-133.0","A2328BC1EPV043","img_art/4.jpg","2","","","","","","","","","","","","","","","","","","","","","","","","",""
"867","","image-button-response","134","1523178","0.0-134.0-0.0","A2328BC1EPV043","img_art/4.jpg","1","","","","","","","","","","","","","","","","","","","","","","","","",""
"2430","","image-button-response","135","1525609","0.0-135.0-0.0","A2328BC1EPV043","img_art/4.jpg","5","","","","","","","","","","","","","","","","","","","","","","","","",""
"null","","html-keyboard-response","136","1527111","0.0-136.0","A2328BC1EPV043","<p style=""font-size: 48px;"">+</p>","","","","","null","allTrialResponses","1500","1","13","img_art/4.jpg","-12","i like the heart, but it also like hand that was started and then scrapped","Melissa,Vanessa,Brianna,Haley,Rebecca,Breanna","appealing warm palette,6,240,20","Again, this is too abstract and I really don't like the colors.,-21,380,20","Really don't care for the yellowish brown color in the center.,-19,20,20","This image doesn't invoke anything in me,-9,220,20","no sorry i can't really understand,-18,100,20","Looks like a hand, not very impressed,-22,380,20","Brianna","Really don't care for the yellowish brown color in the center.,-19,20,20","Vanessa","Again, this is too abstract and I really don't like the colors.,-21,380,20","Breanna","Looks like a hand, not very impressed,-22,380,20","0"
"19373","","survey-text","137","1546489","0.0-137.0-0.0","A2328BC1EPV043","","","","{""Q0"":""too much red, looks like a murder scene""}","","","","","","","","","","","","","","","","","","","","","","",""
"3490.699999988079","","image-slider-response","138","1549981","0.0-138.0","A2328BC1EPV043","","","","","-21","","","","","","","","","","","","","","","","","","","","","",""
"2578","","image-button-response","139","1554984","0.0-139.0","A2328BC1EPV043","img_art/3.jpg","1","","","","","","","","","","","","","","","","","","","","","","","","",""
"1787","","image-button-response","140","1556773","0.0-140.0","A2328BC1EPV043","img_art/3.jpg","5","","","","","","","","","","","","","","","","","","","","","","","","",""
"1320","","image-button-response","141","1558095","0.0-141.0-0.0","A2328BC1EPV043","img_art/3.jpg","1","","","","","","","","","","","","","","","","","","","","","","","","",""
"472","","image-button-response","142","1558567","0.0-142.0-0.0","A2328BC1EPV043","img_art/3.jpg","0","","","","","","","","","","","","","","","","","","","","","","","","",""
"null","","html-keyboard-response","143","1560071","0.0-143.0","A2328BC1EPV043","<p style=""font-size: 48px;"">+</p>","","","","","null","allTrialResponses","1500","1","14","img_art/3.jpg","-21","too much red, looks like a murder scene","Hailey,Vanessa,Brianna,Amy,Madison,Breanna","painted by a 2 year old. cold and boring,-30,200,20","It makes me think of just an angry scribble. There's no beauty to it for me.,-50,380,20","It's very plain,-20,20,20","i like the colors particulairly the contrast of foreground to background. Exciting and thoughtful.,10,220,20","This doesn't grab me. Perhaps the red is meant to be provocative; I find it gimmicky.,-9,60,20","Somebody scribbled on a piece of paper,-35,380,20","Breanna","Somebody scribbled on a piece of paper,-35,380,20","Vanessa","It makes me think of just an angry scribble. There's no beauty to it for me.,-50,380,20","Hailey","painted by a 2 year old. cold and boring,-30,200,20","0"
"21973","","survey-text","144","1582050","0.0-144.0-0.0","A2328BC1EPV043","","","","{""Q0"":""i like the precision. i wish the colors were brighter""}","","","","","","","","","","","","","","","","","","","","","","",""
"2184.300000011921","","image-slider-response","145","1584236","0.0-145.0","A2328BC1EPV043","","","","","9","","","","","","","","","","","","","","","","","","","","","",""
"3783","","image-button-response","146","1589240","0.0-146.0","A2328BC1EPV043","img_art/12.jpg","1","","","","","","","","","","","","","","","","","","","","","","","","",""
"4159","","image-button-response","147","1593401","0.0-147.0","A2328BC1EPV043","img_art/12.jpg","5","","","","","","","","","","","","","","","","","","","","","","","","",""
"1477","","image-button-response","148","1594879","0.0-148.0-0.0","A2328BC1EPV043","img_art/12.jpg","1","","","","","","","","","","","","","","","","","","","","","","","","",""
"412","","image-button-response","149","1595293","0.0-149.0-0.0","A2328BC1EPV043","img_art/12.jpg","2","","","","","","","","","","","","","","","","","","","","","","","","",""
"null","","html-keyboard-response","150","1595794","0.0-150.0","A2328BC1EPV043","<p style=""font-size: 48px;"">+</p>","","","","","null","allTrialResponses","500","1","15","img_art/12.jpg","9","i like the precision. i wish the colors were brighter","Hailey,Vanessa,Nicole,Gabriela,Jamie,Breanna","negative feelings with these blocks,-20,200,20","This is too abstract and the colors are too worn out.,-23,380,20","I like all the squares and the colors but it feels too cluttered to me,20,20,20","In my opinion, this photo has an old school vibe,22,140,20","Black and white contrast with color looks nice,15,320,20","It makes me feel confused,-15,380,20","Breanna","It makes me feel confused,-15,380,20","Vanessa","This is too abstract and the colors are too worn out.,-23,380,20","Nicole","I like all the squares and the colors but it feels too cluttered to me,20,20,20","0"
"4303","","survey-text","151","1600103","0.0-151.0-0.0","A2328BC1EPV043","","","","{""Q0"":""course""}","","","","","","","","","","","","","","","","","","","","","","",""
"17784","","survey-text","152","1617888","0.0-152.0-0.0","A2328BC1EPV043","","","","{""Q0"":""this is a purse? it's ok. kind of undecided. like the bold yellow.""}","","","","","","","","","","","","","","","","","","","","","","",""
"2062.5","","image-slider-response","153","1619952","0.0-153.0","A2328BC1EPV043","","","","","8","","","","","","","","","","","","","","","","","","","","","",""
"null","","image-button-response","154","1624953","0.0-154.0","A2328BC1EPV043","img_art/5.jpg","null","","","","","","","","","","","","","","","","","","","","","","","","",""
"1259","","image-button-response","155","1626213","0.0-155.0","A2328BC1EPV043","img_art/5.jpg","4","","","","","","","","","","","","","","","","","","","","","","","","",""
"933","","image-button-response","156","1627147","0.0-156.0-0.0","A2328BC1EPV043","img_art/5.jpg","5","","","","","","","","","","","","","","","","","","","","","","","","",""
"3466","","image-button-response","157","1630615","0.0-157.0-0.0","A2328BC1EPV043","img_art/5.jpg","0","","","","","","","","","","","","","","","","","","","","","","","","",""
"null","","html-keyboard-response","158","1632117","0.0-158.0","A2328BC1EPV043","<p style=""font-size: 48px;"">+</p>","","","","","null","allTrialResponses","1500","1","16","img_art/5.jpg","8","this is a purse? it's ok. kind of undecided. like the bold yellow.","Michelle,Vanessa,Nicole,Kelly,Isabella,Breanna","What is this? It looks like no effort was put into this work,-2,280,20","The yellow is garish and the picture doesn't look liked anything.,-49,380,20","I hate the shapes,-30,20,20","It looks like daffy duck's leg with a random trail of pink.,-22,220,20","Seems clean and neat,11,280,20","Makes me feel weird,-16,380,20","Isabella","Seems clean and neat,11,280,20","Breanna","Makes me feel weird,-16,380,20","Michelle","What is this? It looks like no effort was put into this work,-2,280,20","0"
"17450","","survey-text","159","1649571","0.0-159.0-0.0","A2328BC1EPV043","","","","{""Q0"":""mold? dirt? no thanks""}","","","","","","","","","","","","","","","","","","","","","","",""
"1959.300000011921","","image-slider-response","160","1651532","0.0-160.0","A2328BC1EPV043","","","","","-17","","","","","","","","","","","","","","","","","","","","","",""
"2291","","image-button-response","161","1656534","0.0-161.0","A2328BC1EPV043","img_art/7.jpg","1","","","","","","","","","","","","","","","","","","","","","","","","",""
"1255","","image-button-response","162","1657791","0.0-162.0","A2328BC1EPV043","img_art/7.jpg","3","","","","","","","","","","","","","","","","","","","","","","","","",""
"706","","image-button-response","163","1658499","0.0-163.0-0.0","A2328BC1EPV043","img_art/7.jpg","4","","","","","","","","","","","","","","","","","","","","","","","","",""
"1523","","image-button-response","164","1660023","0.0-164.0-0.0","A2328BC1EPV043","img_art/7.jpg","1","","","","","","","","","","","","","","","","","","","","","","","","",""
"null","","html-keyboard-response","165","1660525","0.0-165.0","A2328BC1EPV043","<p style=""font-size: 48px;"">+</p>","","","","","null","allTrialResponses","500","1","17","img_art/7.jpg","-17","mold? dirt? no thanks","Michelle,Madeline,Crystal,Kaitlyn,Isabella,Breanna","Hmm interesting, looks like mars or something terrestrial. Too abstract for me and too much brown,4,280,20","Not very big on the sameness here,-20,40,20","I thought I was looking at a satellite image of mars.,21,300,20","Boring  and lacks color,-11,80,20","Dessert like almost like dry land,4,280,20","Not highly impressed,-5,380,20","Kaitlyn","Boring  and lacks color,-11,80,20","Isabella","Dessert like almost like dry land,4,280,20","Madeline","Not very big on the sameness here,-20,40,20","0"
"14773","","survey-text","166","1675302","0.0-166.0-0.0","A2328BC1EPV043","","","","{""Q0"":""i like this, wish the color was just a little brighter""}","","","","","","","","","","","","","","","","","","","","","","",""
"3291.899999976158","","image-slider-response","167","1678595","0.0-167.0","A2328BC1EPV043","","","","","12","","","","","","","","","","","","","","","","","","","","","",""
"1675","","image-button-response","168","1683597","0.0-168.0","A2328BC1EPV043","img_art/15.jpg","0","","","","","","","","","","","","","","","","","","","","","","","","",""
"185","","image-button-response","169","1683783","0.0-169.0","A2328BC1EPV043","img_art/15.jpg","0","","","","","","","","","","","","","","","","","","","","","","","","",""
"894","","image-button-response","170","1684679","0.0-170.0-0.0","A2328BC1EPV043","img_art/15.jpg","1","","","","","","","","","","","","","","","","","","","","","","","","",""
"3132","","image-button-response","171","1687812","0.0-171.0-0.0","A2328BC1EPV043","img_art/15.jpg","3","","","","","","","","","","","","","","","","","","","","","","","","",""
"null","","html-keyboard-response","172","1688314","0.0-172.0","A2328BC1EPV043","<p style=""font-size: 48px;"">+</p>","","","","","null","allTrialResponses","500","1","18","img_art/15.jpg","12","i like this, wish the color was just a little brighter","Erika,Madeline,Lindsey,Kaitlyn,Isabella,Jennifer","I like the dense patterns and the splashes  of blue,38,100,20","Simple but needs some more detail somehow,-3,40,20","Not a fan. This piece would only go with very specific decor in a modern home.,-35,400,20","Simplicity of colors is nice,11,80,20","Too intense with the black dotting,-22,280,20","This piece isn't particularly attractive, but it's not ugly either.,1,380,20","Erika","I like the dense patterns and the splashes  of blue,38,100,20","Madeline","Simple but needs some more detail somehow,-3,40,20","Kaitlyn","Simplicity of colors is nice,11,80,20","0"
"39875","","survey-text","173","1728192","0.0-173.0-0.0","A2328BC1EPV043","","","","{""Q0"":""definitely a child's doodling. ruined a nice background""}","","","","","","","","","","","","","","","","","","","","","","",""
"2387.400000035763","","image-slider-response","174","1730581","0.0-174.0","A2328BC1EPV043","","","","","-11","","","","","","","","","","","","","","","","","","","","","",""
"null","","image-button-response","175","1735583","0.0-175.0","A2328BC1EPV043","img_art/27.jpg","null","","","","","","","","","","","","","","","","","","","","","","","","",""
"5464","","image-button-response","176","1741049","0.0-176.0","A2328BC1EPV043","img_art/27.jpg","4","","","","","","","","","","","","","","","","","","","","","","","","",""
"1443","","image-button-response","177","1742494","0.0-177.0-0.0","A2328BC1EPV043","img_art/27.jpg","2","","","","","","","","","","","","","","","","","","","","","","","","",""
"688","","image-button-response","178","1743184","0.0-178.0-0.0","A2328BC1EPV043","img_art/27.jpg","1","","","","","","","","","","","","","","","","","","","","","","","","",""
"null","","html-keyboard-response","179","1744687","0.0-179.0","A2328BC1EPV043","<p style=""font-size: 48px;"">+</p>","","","","","null","allTrialResponses","1500","1","19","img_art/27.jpg","-11","definitely a child's doodling. ruined a nice background","Erika,Madeline,Emma,Kaitlyn,Briana,Kaylee","Nice color, but too vague,-12,100,20","Looks like the green bits were added on later,-1,40,20","Not sure how I feel about this. Messy, even for art. But good colors.,0,60,20","The variation of orange is nice,9,80,20","Unfinished something?,-30,400,20","nice firestorm on desert,23,200,20","Briana","Unfinished something?,-30,400,20","Emma","Not sure how I feel about this. Messy, even for art. But good colors.,0,60,20","Madeline","Looks like the green bits were added on later,-1,40,20","0"
"10074","","survey-text","180","1754766","0.0-180.0-0.0","A2328BC1EPV043","","","","{""Q0"":""i hate the colors and the randomness""}","","","","","","","","","","","","","","","","","","","","","","",""
"2513.899999976158","","image-slider-response","181","1757281","0.0-181.0","A2328BC1EPV043","","","","","-23","","","","","","","","","","","","","","","","","","","","","",""
"3661","","image-button-response","182","1762283","0.0-182.0","A2328BC1EPV043","img_art/2.jpg","2","","","","","","","","","","","","","","","","","","","","","","","","",""
"1455","","image-button-response","183","1763739","0.0-183.0","A2328BC1EPV043","img_art/2.jpg","3","","","","","","","","","","","","","","","","","","","","","","","","",""
"2299","","image-button-response","184","1766040","0.0-184.0-0.0","A2328BC1EPV043","img_art/2.jpg","2","","","","","","","","","","","","","","","","","","","","","","","","",""
"410","","image-button-response","185","1766452","0.0-185.0-0.0","A2328BC1EPV043","img_art/2.jpg","1","","","","","","","","","","","","","","","","","","","","","","","","",""
"null","","html-keyboard-response","186","1767453","0.0-186.0","A2328BC1EPV043","<p style=""font-size: 48px;"">+</p>","","","","","null","allTrialResponses","1000","1","20","img_art/2.jpg","-23","i hate the colors and the randomness","Sydney,Madeline,Emma,Allison,Briana,Bailey","I like the color, but I feel like I see a creepy face which I dislike.,-5,320,20","I don't really like this style,-5,40,20","Don't love the colors,-30,60,20","Hate the vomit green.,-31,140,20","Childish smiley face,-19,400,20","Too gloopy and unfocused,-38,360,20","Allison","Hate the vomit green.,-31,140,20","Emma","Don't love the colors,-30,60,20","Madeline","I don't really like this style,-5,40,20","0"
"2931","","survey-text","187","1770394","0.0-187.0-0.0","A2328BC1EPV043","","","","{""Q0"":""we""}","","","","","","","","","","","","","","","","","","","","","","",""
"17498","","survey-text","188","1787893","0.0-188.0-0.0","A2328BC1EPV043","","","","{""Q0"":""i really like the image. i wish it wasn't so black""}","","","","","","","","","","","","","","","","","","","","","","",""
"2326.2999999523163","","image-slider-response","189","1790221","0.0-189.0","A2328BC1EPV043","","","","","6","","","","","","","","","","","","","","","","","","","","","",""
"3933","","image-button-response","190","1795223","0.0-190.0","A2328BC1EPV043","img_art/20.jpg","1","","","","","","","","","","","","","","","","","","","","","","","","",""
"965","","image-button-response","191","1796190","0.0-191.0","A2328BC1EPV043","img_art/20.jpg","1","","","","","","","","","","","","","","","","","","","","","","","","",""
"6685","","image-button-response","192","1802876","0.0-192.0-0.0","A2328BC1EPV043","img_art/20.jpg","3","","","","","","","","","","","","","","","","","","","","","","","","",""
"1054","","image-button-response","193","1803931","0.0-193.0-0.0","A2328BC1EPV043","img_art/20.jpg","4","","","","","","","","","","","","","","","","","","","","","","","","",""
"null","","html-keyboard-response","194","1805433","0.0-194.0","A2328BC1EPV043","<p style=""font-size: 48px;"">+</p>","","","","","null","allTrialResponses","1500","1","21","img_art/20.jpg","6","i really like the image. i wish it wasn't so black","Kristen,Madeline,Emma,Allison,Cassandra,Morgan","danger, car crash, stressful,-12,280,20","Looks somewhat dark and emotional,-10,40,20","I like the distortion of the objects, good colors,20,60,20","Melty picture. Reminiscent of Dali.,10,140,20","I liked this...I liked the blue and the black and I liked the smoothness to it.,31,120,20","The beach and industry.,12,380,20","Madeline","Looks somewhat dark and emotional,-10,40,20","Allison","Melty picture. Reminiscent of Dali.,10,140,20","Cassandra","I liked this...I liked the blue and the black and I liked the smoothness to it.,31,120,20","0"
"22215","","survey-text","195","1827655","0.0-195.0-0.0","A2328BC1EPV043","","","","{""Q0"":""i like everything, except the squiggly lines ruin it for me. ""}","","","","","","","","","","","","","","","","","","","","","","",""
"2105.2999999523163","","image-slider-response","196","1829762","0.0-196.0","A2328BC1EPV043","","","","","-4","","","","","","","","","","","","","","","","","","","","","",""
"null","","image-button-response","197","1834764","0.0-197.0","A2328BC1EPV043","img_art/17.jpg","null","","","","","","","","","","","","","","","","","","","","","","","","",""
"440","","image-button-response","198","1835204","0.0-198.0","A2328BC1EPV043","img_art/17.jpg","2","","","","","","","","","","","","","","","","","","","","","","","","",""
"4093","","image-button-response","199","1839299","0.0-199.0-0.0","A2328BC1EPV043","img_art/17.jpg","5","","","","","","","","","","","","","","","","","","","","","","","","",""
"1099","","image-button-response","200","1840399","0.0-200.0-0.0","A2328BC1EPV043","img_art/17.jpg","4","","","","","","","","","","","","","","","","","","","","","","","","",""
"null","","html-keyboard-response","201","1841902","0.0-201.0","A2328BC1EPV043","<p style=""font-size: 48px;"">+</p>","","","","","null","allTrialResponses","1500","1","22","img_art/17.jpg","-4","i like everything, except the squiggly lines ruin it for me. ","Julia,Madeline,Chloe,Allison,Cassandra,Erica","I'm not into paintings of trees,-18,40,20","So expressive and wonderful wow!,17,40,20","Pretty but a little cheesy,-10,220,20","Very washed out.,-10,140,20","Very pretty...the colors and good and flow well.,33,120,20","Makes me warm and cozy just by looking at it,29,80,20","Chloe","Pretty but a little cheesy,-10,220,20","Erica","Makes me warm and cozy just by looking at it,29,80,20","Cassandra","Very pretty...the colors and good and flow well.,33,120,20","0"
"12107","","survey-text","202","1854013","0.0-202.0-0.0","A2328BC1EPV043","","","","{""Q0"":""scary murderer collage?""}","","","","","","","","","","","","","","","","","","","","","","",""
"2191.7999999523163","","image-slider-response","203","1856206","0.0-203.0","A2328BC1EPV043","","","","","-32","","","","","","","","","","","","","","","","","","","","","",""
"null","","image-button-response","204","1861208","0.0-204.0","A2328BC1EPV043","img_art/16.jpg","null","","","","","","","","","","","","","","","","","","","","","","","","",""
"3832","","image-button-response","205","1865041","0.0-205.0","A2328BC1EPV043","img_art/16.jpg","3","","","","","","","","","","","","","","","","","","","","","","","","",""
"2572","","image-button-response","206","1867615","0.0-206.0-0.0","A2328BC1EPV043","img_art/16.jpg","0","","","","","","","","","","","","","","","","","","","","","","","","",""
"809","","image-button-response","207","1868425","0.0-207.0-0.0","A2328BC1EPV043","img_art/16.jpg","1","","","","","","","","","","","","","","","","","","","","","","","","",""
"null","","html-keyboard-response","208","1869427","0.0-208.0","A2328BC1EPV043","<p style=""font-size: 48px;"">+</p>","","","","","null","allTrialResponses","1000","1","23","img_art/16.jpg","-32","scary murderer collage?","Sabrina,Ashley,Chloe,Kayla,Cassandra,Erica","Kind of an edgy teenager vibe,32,120,20","A lot fo these could abstract or childrens work.,23,320,20","Fun but a little cheesy,15,220,20","Looks upsetting. Like it's actually graphic violence but you can't tell.,-24,180,20","I like the teddy bear,but a neutral feeling,5,120,20","Teddy bear calls positive emotional response but then I get worried about what is about to happen,18,80,20","Kayla","Looks upsetting. Like it's actually graphic violence but you can't tell.,-24,180,20","Sabrina","Kind of an edgy teenager vibe,32,120,20","Ashley","A lot fo these could abstract or childrens work.,23,320,20","0"
"19994","","survey-text","209","1889425","0.0-209.0-0.0","A2328BC1EPV043","","","","{""Q0"":""i like the image but i dislike how dense the colors are""}","","","","","","","","","","","","","","","","","","","","","","",""
"2160.300000011921","","image-slider-response","210","1891587","0.0-210.0","A2328BC1EPV043","","","","","-2","","","","","","","","","","","","","","","","","","","","","",""
"2908","","image-button-response","211","1896590","0.0-211.0","A2328BC1EPV043","img_art/24.jpg","2","","","","","","","","","","","","","","","","","","","","","","","","",""
"3261","","image-button-response","212","1899853","0.0-212.0","A2328BC1EPV043","img_art/24.jpg","3","","","","","","","","","","","","","","","","","","","","","","","","",""
"3016","","image-button-response","213","1902870","0.0-213.0-0.0","A2328BC1EPV043","img_art/24.jpg","1","","","","","","","","","","","","","","","","","","","","","","","","",""
"2162","","image-button-response","214","1905033","0.0-214.0-0.0","A2328BC1EPV043","img_art/24.jpg","2","","","","","","","","","","","","","","","","","","","","","","","","",""
"null","","html-keyboard-response","215","1905535","0.0-215.0","A2328BC1EPV043","<p style=""font-size: 48px;"">+</p>","","","","","null","allTrialResponses","500","1","24","img_art/24.jpg","-2","i like the image but i dislike how dense the colors are","Sabrina,Ashley,Victoria,Kayla,Courtney,Alexandria","Love the natural vibe,50,120,20","NOt quite Bob Ross, but still good.,30,320,20","very peaceful and serene,47,400,20","It looks like a poor dead bunny in a field of flowers. I don't want the bunny to be dead.,-37,180,20","What a nice refreshing waterfall.,39,280,20","very colorful and intricate and makes me feel at peace,50,80,20","Kayla","It looks like a poor dead bunny in a field of flowers. I don't want the bunny to be dead.,-37,180,20","Ashley","NOt quite Bob Ross, but still good.,30,320,20","Victoria","very peaceful and serene,47,400,20","0"
"15856","","survey-text","216","1921395","0.0-216.0-0.0","A2328BC1EPV043","","","","{""Q0"":""light and airy, i like the feeling this evokes. ""}","","","","","","","","","","","","","","","","","","","","","","",""
"1876.4000000357628","","image-slider-response","217","1923273","0.0-217.0","A2328BC1EPV043","","","","","9","","","","","","","","","","","","","","","","","","","","","",""
"null","","image-button-response","218","1928275","0.0-218.0","A2328BC1EPV043","img_art/19.jpg","null","","","","","","","","","","","","","","","","","","","","","","","","",""
"4047","","image-button-response","219","1932323","0.0-219.0","A2328BC1EPV043","img_art/19.jpg","1","","","","","","","","","","","","","","","","","","","","","","","","",""
"1914","","image-button-response","220","1934239","0.0-220.0-0.0","A2328BC1EPV043","img_art/19.jpg","3","","","","","","","","","","","","","","","","","","","","","","","","",""
"296","","image-button-response","221","1934537","0.0-221.0-0.0","A2328BC1EPV043","img_art/19.jpg","4","","","","","","","","","","","","","","","","","","","","","","","","",""
"null","","html-keyboard-response","222","1935539","0.0-222.0","A2328BC1EPV043","<p style=""font-size: 48px;"">+</p>","","","","","null","allTrialResponses","1000","1","25","img_art/19.jpg","9","light and airy, i like the feeling this evokes. ","Emily,Ashley,Victoria,Kayla,Makayla,Caroline","Loks like an amature did it, Not pleasing.,-45,40,20","someone at the beach maybe?,27,320,20","to much going on,-22,400,20","Too messy and busy. Too much going on there for me.,-12,180,20","Looks like hustle and bustle ,,3,80,20","Chaotic. Too much going on in the picture,14,100,20","Ashley","someone at the beach maybe?,27,320,20","Kayla","Too messy and busy. Too much going on there for me.,-12,180,20","Makayla","Looks like hustle and bustle ,,3,80,20","0"
"3988","","survey-text","223","1939533","0.0-223.0-0.0","A2328BC1EPV043","","","","{""Q0"":""table""}","","","","","","","","","","","","","","","","","","","","","","",""
"14997","","survey-text","224","1954531","0.0-224.0-0.0","A2328BC1EPV043","","","","{""Q0"":""simple image, nice neutral colors""}","","","","","","","","","","","","","","","","","","","","","","",""
"1681","","image-slider-response","225","1956213","0.0-225.0","A2328BC1EPV043","","","","","13","","","","","","","","","","","","","","","","","","","","","",""
"null","","image-button-response","226","1961216","0.0-226.0","A2328BC1EPV043","img_art/26.jpg","null","","","","","","","","","","","","","","","","","","","","","","","","",""
"1047","","image-button-response","227","1962264","0.0-227.0","A2328BC1EPV043","img_art/26.jpg","2","","","","","","","","","","","","","","","","","","","","","","","","",""
"2449","","image-button-response","228","1964715","0.0-228.0-0.0","A2328BC1EPV043","img_art/26.jpg","3","","","","","","","","","","","","","","","","","","","","","","","","",""
"577","","image-button-response","229","1965293","0.0-229.0-0.0","A2328BC1EPV043","img_art/26.jpg","4","","","","","","","","","","","","","","","","","","","","","","","","",""
"null","","html-keyboard-response","230","1966295","0.0-230.0","A2328BC1EPV043","<p style=""font-size: 48px;"">+</p>","","","","","null","allTrialResponses","1000","1","26","img_art/26.jpg","13","simple image, nice neutral colors","Alexa,Ashley,Sierra,Kayla,Makayla,Meghan","Looks messy and like it was painted by a small child,-48,40,20","Telented watercolor artist or second grader.,18,320,20","soothing and subtle,1,260,20","Looks like the suburbs. I live in those.,13,180,20","Reminds me of a European street, I desire to walk in this picture,28,80,20","nothing really special, quite bland,1,220,20","Sierra","soothing and subtle,1,260,20","Kayla","Looks like the suburbs. I live in those.,13,180,20","Makayla","Reminds me of a European street, I desire to walk in this picture,28,80,20","0"
"26845","","survey-text","231","1993144","0.0-231.0-0.0","A2328BC1EPV043","","","","{""Q0"":""colors are too saturated for the image, which is simple""}","","","","","","","","","","","","","","","","","","","","","","",""
"2115.599999964237","","image-slider-response","232","1995261","0.0-232.0","A2328BC1EPV043","","","","","-8","","","","","","","","","","","","","","","","","","","","","",""
"4154","","image-button-response","233","2000264","0.0-233.0","A2328BC1EPV043","img_art/22.jpg","0","","","","","","","","","","","","","","","","","","","","","","","","",""
"733","","image-button-response","234","2000997","0.0-234.0","A2328BC1EPV043","img_art/22.jpg","2","","","","","","","","","","","","","","","","","","","","","","","","",""
"616","","image-button-response","235","2001615","0.0-235.0-0.0","A2328BC1EPV043","img_art/22.jpg","0","","","","","","","","","","","","","","","","","","","","","","","","",""
"2664","","image-button-response","236","2004281","0.0-236.0-0.0","A2328BC1EPV043","img_art/22.jpg","0","","","","","","","","","","","","","","","","","","","","","","","","",""
"6588","","image-button-response","237","2014675","0.0-236.1-0.1","A2328BC1EPV043","img_art/22.jpg","5","","","","","","","","","","","","","","","","","","","","","","","","",""
"null","","html-keyboard-response","238","2015677","0.0-237.0","A2328BC1EPV043","<p style=""font-size: 48px;"">+</p>","","","","","null","allTrialResponses","1000","1","27","img_art/22.jpg","-8","colors are too saturated for the image, which is simple","Erin,Katelyn,Sierra,Kayla,Makayla,Abigail","Seems dated with geometic forms,-20,120,20","I usually dont like blurry pieces but the colors are amazing in this,14,100,20","colorful. but not much happening,1,260,20","I don't like that it looks like a person is there upside down.,-16,180,20","Just neutral no feelings,2,80,20","The colors are too dark, too much red,2,20,20","Sierra","colorful. but not much happening,1,260,20","Erin","Seems dated with geometic forms,-20,120,20","Abigail","The colors are too dark, too much red,2,20,20","2"
"10012","","survey-text","239","2025695","0.0-238.0-0.0","A2328BC1EPV043","","","","{""Q0"":""i really like this. looks like a celebration""}","","","","","","","","","","","","","","","","","","","","","","",""
"1976.300000011921","","image-slider-response","240","2027672","0.0-239.0","A2328BC1EPV043","","","","","25","","","","","","","","","","","","","","","","","","","","","",""
"1592","","image-button-response","241","2032674","0.0-240.0","A2328BC1EPV043","img_art/23.jpg","0","","","","","","","","","","","","","","","","","","","","","","","","",""
"252","","image-button-response","242","2032929","0.0-241.0","A2328BC1EPV043","img_art/23.jpg","3","","","","","","","","","","","","","","","","","","","","","","","","",""
"1694","","image-button-response","243","2034625","0.0-242.0-0.0","A2328BC1EPV043","img_art/23.jpg","4","","","","","","","","","","","","","","","","","","","","","","","","",""
"1423","","image-button-response","244","2036049","0.0-243.0-0.0","A2328BC1EPV043","img_art/23.jpg","1","","","","","","","","","","","","","","","","","","","","","","","","",""
"null","","html-keyboard-response","245","2037051","0.0-244.0","A2328BC1EPV043","<p style=""font-size: 48px;"">+</p>","","","","","null","allTrialResponses","1000","1","28","img_art/23.jpg","25","i really like this. looks like a celebration","Erin,Michaela,Sierra,Mariah,Dominique,Abigail","Confetti dancer,-7,120,20","This would make a great mural,37,260,20","it makes me aggitated,-21,260,20","It feels active and vibrant.,20,140,20","Very happy , busy , free, and full of Hope,28,400,20","I like the contrast,29,20,20","Mariah","It feels active and vibrant.,20,140,20","Dominique","Very happy , busy , free, and full of Hope,28,400,20","Michaela","This would make a great mural,37,260,20","2"
"9639","","survey-text","246","2046695","0.0-245.0-0.0","A2328BC1EPV043","","","","{""Q0"":""simple bird on a beach. pleasing""}","","","","","","","","","","","","","","","","","","","","","","",""
"1678.199999988079","","image-slider-response","247","2048374","0.0-246.0","A2328BC1EPV043","","","","","15","","","","","","","","","","","","","","","","","","","","","",""
"3000","","image-button-response","248","2053376","0.0-247.0","A2328BC1EPV043","img_art/6.jpg","0","","","","","","","","","","","","","","","","","","","","","","","","",""
"534","","image-button-response","249","2053910","0.0-248.0","A2328BC1EPV043","img_art/6.jpg","2","","","","","","","","","","","","","","","","","","","","","","","","",""
"1878","","image-button-response","250","2055789","0.0-249.0-0.0","A2328BC1EPV043","img_art/6.jpg","3","","","","","","","","","","","","","","","","","","","","","","","","",""
"1166","","image-button-response","251","2056957","0.0-250.0-0.0","A2328BC1EPV043","img_art/6.jpg","5","","","","","","","","","","","","","","","","","","","","","","","","",""
"null","","html-keyboard-response","252","2057460","0.0-251.0","A2328BC1EPV043","<p style=""font-size: 48px;"">+</p>","","","","","null","allTrialResponses","500","1","29","img_art/6.jpg","15","simple bird on a beach. pleasing","Jordan,Michaela,Amber,Mariah,Dominique,Diana","This is interesting, I feel solitude, and loneliness from this.,13,20,20","It looks like a bird looking away,32,260,20","Something very simplistic about it. The colors mesh well.,10,200,20","Clean and simple, a pleasant resting place for the eyes.,21,140,20","Calm and catching,30,400,20","I love it. It reminds me of a bird sitting on a wall.,26,380,20","Amber","Something very simplistic about it. The colors mesh well.,10,200,20","Mariah","Clean and simple, a pleasant resting place for the eyes.,21,140,20","Diana","I love it. It reminds me of a bird sitting on a wall.,26,380,20","2"
"13858","","survey-text","253","2071322","0.0-252.0-0.0","A2328BC1EPV043","","","","{""Q0"":""pirate ship going down? not my cup""}","","","","","","","","","","","","","","","","","","","","","","",""
"34191.200000047684","","image-slider-response","254","2105515","0.0-253.0","A2328BC1EPV043","","","","","-11","","","","","","","","","","","","","","","","","","","","","",""
"4856","","image-button-response","255","2110517","0.0-254.0","A2328BC1EPV043","img_art/18.jpg","2","","","","","","","","","","","","","","","","","","","","","","","","",""
"685","","image-button-response","256","2111204","0.0-255.0","A2328BC1EPV043","img_art/18.jpg","2","","","","","","","","","","","","","","","","","","","","","","","","",""
"2974","","image-button-response","257","2114180","0.0-256.0-0.0","A2328BC1EPV043","img_art/18.jpg","5","","","","","","","","","","","","","","","","","","","","","","","","",""
"1343","","image-button-response","258","2115525","0.0-257.0-0.0","A2328BC1EPV043","img_art/18.jpg","1","","","","","","","","","","","","","","","","","","","","","","","","",""
"null","","html-keyboard-response","259","2117026","0.0-258.0","A2328BC1EPV043","<p style=""font-size: 48px;"">+</p>","","","","","null","allTrialResponses","1500","1","30","img_art/18.jpg","-11","pirate ship going down? not my cup","Kimberly,Kelsey,Amber,Mariah,Autumn,Diana","I enjoy the detailed line work in this one,21,260,20","its messy, it seems angry,-21,240,20","ugly and lots of movement,-6,200,20","It is too busy, but the colors are pleasant.,15,140,20","This looks amazing.,40,340,20","This painting reminds me of the 4 horsemen of the apocalypse. It feels haunting.,31,380,20","Amber","ugly and lots of movement,-6,200,20","Diana","This painting reminds me of the 4 horsemen of the apocalypse. It feels haunting.,31,380,20","Kelsey","its messy, it seems angry,-21,240,20","2"
"23196","","image-button-response_instructions","260","2140231","0.0-259.0","A2328BC1EPV043","","0","instructions","","","","","","","","","","","","","","","","","","","","","","","",""
"1120","","image-button-response","261","2141355","0.0-260.0","A2328BC1EPV043","","0","","","","","","","","","","","","","","","","","","","","","","","","",""
