"rt","url","trial_type","trial_index","time_elapsed","internal_node_id","participant_id","stimulus","button_pressed","Name","responses","response","key_press","variableName","fixationTime","condition","trial","photo","subjectRating","subjectResponse","agentsNames","agent_1_Response","agent_2_Response","agent_3_Response","agent_4_Response","agent_5_Response","agent_6_Response","kept_1_name","kept_1_response","kept_2_name","kept_2_response","kept_3_name","kept_3_response","errorCounter"
"10018","external_page_harvard.html","external-html","0","10238","0.0-0.0","A249EWKM1EOARK","","","","","","","","","","","","","","","","","","","","","","","","","","",""
"1842","","image-button-response","1","12084","0.0-1.0","A249EWKM1EOARK","","1","","","","","","","","","","","","","","","","","","","","","","","","",""
"1640","","image-button-response","2","13733","0.0-2.0-0.0","A249EWKM1EOARK","","1","phone","","","","","","","","","","","","","","","","","","","","","","","",""
"4381","","survey-text","3","18127","0.0-3.0-0.0","A249EWKM1EOARK","","","","{""Q0"":""A249EWKM1EOARK""}","","","","","","","","","","","","","","","","","","","","","","",""
"3768","","image-button-response_instructions","4","21897","0.0-4.0","A249EWKM1EOARK","","0","instructions","","","","","","","","","","","","","","","","","","","","","","","",""
"10434","","image-button-response_instructions","5","32333","0.0-5.0","A249EWKM1EOARK","img_art/ins/popularity/ins1.png","0","instructions","","","","","","","","","","","","","","","","","","","","","","","",""
"9276","","image-button-response_instructions","6","41611","0.0-6.0","A249EWKM1EOARK","img_art/ins/popularity/ins2.png","0","instructions","","","","","","","","","","","","","","","","","","","","","","","",""
"5271","","image-button-response_instructions","7","46884","0.0-7.0","A249EWKM1EOARK","img_art/ins/popularity/ins2Extreme.png","0","instructions","","","","","","","","","","","","","","","","","","","","","","","",""
"9251","","image-button-response_instructions","8","56137","0.0-8.0","A249EWKM1EOARK","img_art/ins/popularity/ins3KEEPpop.PNG","0","instructions","","","","","","","","","","","","","","","","","","","","","","","",""
"6070","","image-button-response_instructions","9","62209","0.0-9.0","A249EWKM1EOARK","img_art/ins/popularity/ins3ANamepop.PNG","0","instructions","","","","","","","","","","","","","","","","","","","","","","","",""
"4299","","image-button-response_instructions","10","66511","0.0-10.0","A249EWKM1EOARK","img_art/ins/popularity/ins3ARatingpop.png","0","instructions","","","","","","","","","","","","","","","","","","","","","","","",""
"3303","","image-button-response_instructions","11","69817","0.0-11.0","A249EWKM1EOARK","img_art/ins/popularity/ins3ATextpop.png","0","instructions","","","","","","","","","","","","","","","","","","","","","","","",""
"7209","","image-button-response_instructions","12","77029","0.0-12.0","A249EWKM1EOARK","img_art/ins/popularity/ins3ALikespop.png","0","instructions","","","","","","","","","","","","","","","","","","","","","","","",""
"5045","","image-button-response_instructions","13","82077","0.0-13.0","A249EWKM1EOARK","img_art/ins/popularity/ins3KEEPpop.PNG","0","instructions","","","","","","","","","","","","","","","","","","","","","","","",""
"13648","","image-button-response_instructions","14","95728","0.0-14.0","A249EWKM1EOARK","img_art/ins/popularity/ins3_5RED.png","0","instructions","","","","","","","","","","","","","","","","","","","","","","","",""
"2191","","image-button-response_instructions","15","97921","0.0-15.0","A249EWKM1EOARK","img_art/ins/popularity/ins3KEEPpop.PNG","0","instructions","","","","","","","","","","","","","","","","","","","","","","","",""
"7204","","image-button-response_instructions","16","105127","0.0-16.0","A249EWKM1EOARK","img_art/ins/popularity/ins4KEEPpop.PNG","0","instructions","","","","","","","","","","","","","","","","","","","","","","","",""
"3199","","image-button-response_instructions","17","108328","0.0-17.0","A249EWKM1EOARK","img_art/ins/popularity/ins5KEEPpop.PNG","0","instructions","","","","","","","","","","","","","","","","","","","","","","","",""
"2237","","image-button-response_instructions","18","110566","0.0-18.0","A249EWKM1EOARK","","0","instructions","","","","","","","","","","","","","","","","","","","","","","","",""
"5502","","survey-text","19","116100","0.0-19.0-0.0","A249EWKM1EOARK","","","","{""Q0"":""but""}","","","","","","","","","","","","","","","","","","","","","","",""
"7174","","survey-text","20","123276","0.0-20.0-0.0","A249EWKM1EOARK","","","","{""Q0"":""calming""}","","","","","","","","","","","","","","","","","","","","","","",""
"4185.9000000059605","","image-slider-response","21","127468","0.0-21.0","A249EWKM1EOARK","","","","","14","","","","","","","","","","","","","","","","","","","","","",""
"null","","image-button-response","22","132477","0.0-22.0","A249EWKM1EOARK","img_art/ins/1.jpg","null","","","","","","","","","","","","","","","","","","","","","","","","",""
"6159","","image-button-response","23","138642","0.0-23.0","A249EWKM1EOARK","img_art/ins/1.jpg","3","","","","","","","","","","","","","","","","","","","","","","","","",""
"4874","","image-button-response","24","143524","0.0-24.0-0.0","A249EWKM1EOARK","img_art/ins/1.jpg","4","","","","","","","","","","","","","","","","","","","","","","","","",""
"1760","","image-button-response","25","145288","0.0-25.0-0.0","A249EWKM1EOARK","img_art/ins/1.jpg","5","","","","","","","","","","","","","","","","","","","","","","","","",""
"null","","html-keyboard-response","26","146790","0.0-26.0","A249EWKM1EOARK","<p style=""font-size: 48px;"">+</p>","","","","","null","allTrialResponses","1500","1","-2","img_art/ins/1.jpg","14","calming","Allison,Ashley,Beth,Dora,Erika,Jen","looks like a lot of things going on in the mist,20,20,20","I just don't get why these type of art would be popular,-32,40,20","This color reminds me of poo,-46,60,20","looks like what my niece in 3rd grade did this afternoon,-50,80,20","I like the sophisticated brushwork,40,100,20","It reminds me of a candy land dream I had,36,120,20","Dora","looks like what my niece in 3rd grade did this afternoon,-50,80,20","Erika","I like the sophisticated brushwork,40,100,20","Jen","It reminds me of a candy land dream I had,36,120,20","0"
"6401","","survey-text","27","153201","0.0-27.0-0.0","A249EWKM1EOARK","","","","{""Q0"":""to dark""}","","","","","","","","","","","","","","","","","","","","","","",""
"5961.4000000059605","","image-slider-response","28","159165","0.0-28.0","A249EWKM1EOARK","","","","","-36","","","","","","","","","","","","","","","","","","","","","",""
"null","","image-button-response","29","164169","0.0-29.0","A249EWKM1EOARK","img_art/ins/2.jpg","null","","","","","","","","","","","","","","","","","","","","","","","","",""
"1817","","image-button-response","30","165990","0.0-30.0","A249EWKM1EOARK","img_art/ins/2.jpg","2","","","","","","","","","","","","","","","","","","","","","","","","",""
"2483","","image-button-response","31","168477","0.0-31.0-0.0","A249EWKM1EOARK","img_art/ins/2.jpg","3","","","","","","","","","","","","","","","","","","","","","","","","",""
"5492","","image-button-response","32","173977","0.0-32.0-0.0","A249EWKM1EOARK","img_art/ins/2.jpg","5","","","","","","","","","","","","","","","","","","","","","","","","",""
"null","","html-keyboard-response","33","174979","0.0-33.0","A249EWKM1EOARK","<p style=""font-size: 48px;"">+</p>","","","","","null","allTrialResponses","1000","1","-1","img_art/ins/2.jpg","-36","to dark","Jenna,Kara,Katie,Dora,Erika,Jen","One of my pet peevs,-48,140,20","I like the blocks of color arrangements,30,160,20","too much color!,-28,180,20","looks too angry,-50,80,20","I would never be able to compose a sophisticated pallete like this,48,100,20","It reminds me of a fireplace,36,120,20","Katie","too much color!,-28,180,20","Dora","looks too angry,-50,80,20","Jen","It reminds me of a fireplace,36,120,20","0"
"6818","","survey-text","34","181809","0.0-34.0-0.0","A249EWKM1EOARK","","","","{""Q0"":""cool""}","","","","","","","","","","","","","","","","","","","","","","",""
"9927","","survey-text","35","196755","0.0-34.1-0.1","A249EWKM1EOARK","","","","{""Q0"":""cool and relaxing""}","","","","","","","","","","","","","","","","","","","","","","",""
"7439.20000000298","","image-slider-response","36","204198","0.0-35.0","A249EWKM1EOARK","","","","","49","","","","","","","","","","","","","","","","","","","","","",""
"null","","image-button-response","37","209203","0.0-36.0","A249EWKM1EOARK","img_art/ins/3.jpg","null","","","","","","","","","","","","","","","","","","","","","","","","",""
"4855","","image-button-response","38","214063","0.0-37.0","A249EWKM1EOARK","img_art/ins/3.jpg","0","","","","","","","","","","","","","","","","","","","","","","","","",""
"2055","","image-button-response","39","216125","0.0-38.0-0.0","A249EWKM1EOARK","img_art/ins/3.jpg","4","","","","","","","","","","","","","","","","","","","","","","","","",""
"875","","image-button-response","40","217005","0.0-39.0-0.0","A249EWKM1EOARK","img_art/ins/3.jpg","5","","","","","","","","","","","","","","","","","","","","","","","","",""
"null","","html-keyboard-response","41","218508","0.0-40.0","A249EWKM1EOARK","<p style=""font-size: 48px;"">+</p>","","","","","null","allTrialResponses","1500","1","0","img_art/ins/3.jpg","49","cool and relaxing","Leslie,Rose,Katie,Dora,Mary,Jen","It's an alright work,15,200,20","My daily routine, it's depressing,-20,240,20","It looks depressing,-26,180,20","My worst nightmare,-42,80,20","I like the overlapping of brushes,41,220,20","I can feel a rainy day from this painting,18,120,20","Leslie","It's an alright work,15,200,20","Mary","I like the overlapping of brushes,41,220,20","Jen","I can feel a rainy day from this painting,18,120,20","0"
"7460","","image-button-response_instructions","42","225975","0.0-41.0","A249EWKM1EOARK","","0","instructions","","","","","","","","","","","","","","","","","","","","","","","",""
"19533","","survey-likert","43","245511","0.0-42.0-0.0","A249EWKM1EOARK","","","","{""Q0"":"""",""Q1"":1,""Q2"":1}","","","","","","","","","","","","","","","","","","","","","","",""
"5086","","survey-likert","44","253569","0.0-42.1-0.1","A249EWKM1EOARK","","","","{""Q0"":"""",""Q1"":0,""Q2"":1}","","","","","","","","","","","","","","","","","","","","","","",""
"6800","","survey-text","45","260377","0.0-43.0-0.0","A249EWKM1EOARK","","","","{""Q0"":""rock""}","","","","","","","","","","","","","","","","","","","","","","",""
"11362","","survey-text","46","271742","0.0-44.0-0.0","A249EWKM1EOARK","","","","{""Q0"":""a little to plain""}","","","","","","","","","","","","","","","","","","","","","","",""
"7515.5","","image-slider-response","47","279261","0.0-45.0","A249EWKM1EOARK","","","","","-7","","","","","","","","","","","","","","","","","","","","","",""
"null","","image-button-response","48","284309","0.0-46.0","A249EWKM1EOARK","img_art/17.jpg","null","","","","","","","","","","","","","","","","","","","","","","","","",""
"3305","","image-button-response","49","287620","0.0-47.0","A249EWKM1EOARK","img_art/17.jpg","5","","","","","","","","","","","","","","","","","","","","","","","","",""
"4750","","image-button-response","50","292375","0.0-48.0-0.0","A249EWKM1EOARK","img_art/17.jpg","0","","","","","","","","","","","","","","","","","","","","","","","","",""
"3754","","image-button-response","51","296131","0.0-49.0-0.0","A249EWKM1EOARK","img_art/17.jpg","3","","","","","","","","","","","","","","","","","","","","","","","","",""
"null","","html-keyboard-response","52","297634","0.0-50.0","A249EWKM1EOARK","<p style=""font-size: 48px;"">+</p>","","","","","null","allTrialResponses","1500","1","1","img_art/17.jpg","-7","a little to plain","Monica,Stephanie,Cassandra,Tiffany,Caroline,Megan","The colors remind me of a sunset and give a bittersweet feeling. It looks unfinished but not terrible.,6,360,20","The wispy trees caught my eye.,42,300,20","Very pretty...the colors and good and flow well.,33,120,20","The painting makes me feel relaxed, and a bit lonely, like I'm sitting at a park waiting for someone.,30,360,20","Beautiful colors. Made me feel soft and feminine,50,100,20","2 paintings in 1 with shared colors,5,200,20","Megan","2 paintings in 1 with shared colors,5,200,20","Monica","The colors remind me of a sunset and give a bittersweet feeling. It looks unfinished but not terrible.,6,360,20","Tiffany","The painting makes me feel relaxed, and a bit lonely, like I'm sitting at a park waiting for someone.,30,360,20","1"
"18896","","survey-text","53","316538","0.0-51.0-0.0","A249EWKM1EOARK","","","","{""Q0"":""kindergarten drawing""}","","","","","","","","","","","","","","","","","","","","","","",""
"5529.399999991059","","image-slider-response","54","322070","0.0-52.0","A249EWKM1EOARK","","","","","-50","","","","","","","","","","","","","","","","","","","","","",""
"3913","","image-button-response","55","327077","0.0-53.0","A249EWKM1EOARK","img_art/3.jpg","1","","","","","","","","","","","","","","","","","","","","","","","","",""
"664","","image-button-response","56","327744","0.0-54.0","A249EWKM1EOARK","img_art/3.jpg","0","","","","","","","","","","","","","","","","","","","","","","","","",""
"4477","","image-button-response","57","332224","0.0-55.0-0.0","A249EWKM1EOARK","img_art/3.jpg","1","","","","","","","","","","","","","","","","","","","","","","","","",""
"2840","","image-button-response","58","335069","0.0-56.0-0.0","A249EWKM1EOARK","img_art/3.jpg","2","","","","","","","","","","","","","","","","","","","","","","","","",""
"null","","html-keyboard-response","59","336572","0.0-57.0","A249EWKM1EOARK","<p style=""font-size: 48px;"">+</p>","","","","","null","allTrialResponses","1500","1","2","img_art/3.jpg","-50","kindergarten drawing","Monica,Savannah,Shannon,Tiffany,Abigail,Megan","It looks like random scribbles by a child and not appealing,-38,360,20","Completely incomprehensible.,-33,200,20","I can't tell what this image is supposed to be it looks extremely ugly and color variety is boring.,-50,220,20","I feel uncomfortable, like I am looking at a crime scene.,-17,360,20","Reminded me of blood or something bad,-21,20,20","5 min scribble by a 3 year old,-46,200,20","Monica","It looks like random scribbles by a child and not appealing,-38,360,20","Savannah","Completely incomprehensible.,-33,200,20","Shannon","I can't tell what this image is supposed to be it looks extremely ugly and color variety is boring.,-50,220,20","1"
"11400","","survey-text","60","347978","0.0-58.0-0.0","A249EWKM1EOARK","","","","{""Q0"":""to obstract""}","","","","","","","","","","","","","","","","","","","","","","",""
"5296.70000000298","","image-slider-response","61","353278","0.0-59.0","A249EWKM1EOARK","","","","","-50","","","","","","","","","","","","","","","","","","","","","",""
"4046","","image-button-response","62","358287","0.0-60.0","A249EWKM1EOARK","img_art/29.jpg","1","","","","","","","","","","","","","","","","","","","","","","","","",""
"639","","image-button-response","63","358930","0.0-61.0","A249EWKM1EOARK","img_art/29.jpg","0","","","","","","","","","","","","","","","","","","","","","","","","",""
"1698","","image-button-response","64","360637","0.0-62.0-0.0","A249EWKM1EOARK","img_art/29.jpg","1","","","","","","","","","","","","","","","","","","","","","","","","",""
"1629","","image-button-response","65","362270","0.0-63.0-0.0","A249EWKM1EOARK","img_art/29.jpg","2","","","","","","","","","","","","","","","","","","","","","","","","",""
"null","","html-keyboard-response","66","363774","0.0-64.0","A249EWKM1EOARK","<p style=""font-size: 48px;"">+</p>","","","","","null","allTrialResponses","1500","1","3","img_art/29.jpg","-50","to obstract","Monica,Savannah,Shannon,Alexandra,Chloe,Mariah","There's too much black and it looks sloppy,-35,360,20","Looks wrong. Like a real painting was vandalized.,-50,200,20","I think this image looks ugly and needs more colors so it looks nicer.,-30,220,20","I don't like this. It is ugly and dark,-29,60,20","Looks muddy and sticky,-31,220,20","It feels like looking through layers of frustration.,19,140,20","Monica","There's too much black and it looks sloppy,-35,360,20","Savannah","Looks wrong. Like a real painting was vandalized.,-50,200,20","Shannon","I think this image looks ugly and needs more colors so it looks nicer.,-30,220,20","1"
"9934","","survey-text","67","373713","0.0-65.0-0.0","A249EWKM1EOARK","","","","{""Q0"":""autumny""}","","","","","","","","","","","","","","","","","","","","","","",""
"4580.100000008941","","image-slider-response","68","378296","0.0-66.0","A249EWKM1EOARK","","","","","9","","","","","","","","","","","","","","","","","","","","","",""
"null","","image-button-response","69","383303","0.0-67.0","A249EWKM1EOARK","img_art/14.jpg","null","","","","","","","","","","","","","","","","","","","","","","","","",""
"9204","","image-button-response","70","392511","0.0-68.0","A249EWKM1EOARK","img_art/14.jpg","3","","","","","","","","","","","","","","","","","","","","","","","","",""
"1126","","image-button-response","71","393642","0.0-69.0-0.0","A249EWKM1EOARK","img_art/14.jpg","5","","","","","","","","","","","","","","","","","","","","","","","","",""
"1065","","image-button-response","72","394712","0.0-70.0-0.0","A249EWKM1EOARK","img_art/14.jpg","2","","","","","","","","","","","","","","","","","","","","","","","","",""
"null","","html-keyboard-response","73","396215","0.0-71.0","A249EWKM1EOARK","<p style=""font-size: 48px;"">+</p>","","","","","null","allTrialResponses","1500","1","4","img_art/14.jpg","9","autumny","Monica,Savannah,Shannon,Sabrina,Natalie,Lauren","Just don't like it, maybe it's the bleeding colors on the left of the tree-looking thing in the center or the faded background,-10,360,20","Again. This is pretty neutral, leaning dislike.,-18,200,20","I like this picture because it looks like a tree and the colors used look cool.,20,220,20","Love the assortment of colors and flowers, expressing gentle and caring,50,120,20","my reaction is that the picture is wierd,-14,400,20","I like how balanced the piece is with its symmetrical design.,20,340,20","Sabrina","Love the assortment of colors and flowers, expressing gentle and caring,50,120,20","Lauren","I like how balanced the piece is with its symmetrical design.,20,340,20","Shannon","I like this picture because it looks like a tree and the colors used look cool.,20,220,20","1"
"8408","","survey-text","74","404638","0.0-72.0-0.0","A249EWKM1EOARK","","","","{""Q0"":""ancient""}","","","","","","","","","","","","","","","","","","","","","","",""
"7116.79999999702","","image-slider-response","75","411758","0.0-73.0","A249EWKM1EOARK","","","","","-20","","","","","","","","","","","","","","","","","","","","","",""
"null","","image-button-response","76","416766","0.0-74.0","A249EWKM1EOARK","img_art/25.jpg","null","","","","","","","","","","","","","","","","","","","","","","","","",""
"6154","","image-button-response","77","422923","0.0-75.0","A249EWKM1EOARK","img_art/25.jpg","4","","","","","","","","","","","","","","","","","","","","","","","","",""
"1192","","image-button-response","78","424119","0.0-76.0-0.0","A249EWKM1EOARK","img_art/25.jpg","5","","","","","","","","","","","","","","","","","","","","","","","","",""
"7929","","image-button-response","79","432056","0.0-77.0-0.0","A249EWKM1EOARK","img_art/25.jpg","2","","","","","","","","","","","","","","","","","","","","","","","","",""
"null","","html-keyboard-response","80","433060","0.0-78.0","A249EWKM1EOARK","<p style=""font-size: 48px;"">+</p>","","","","","null","allTrialResponses","1000","1","5","img_art/25.jpg","-20","ancient","Sydney,Haley,Shannon,Sabrina,Alyssa,Lauren","This piece gives me a lot of questions which I kind of like.,10,320,20","I like the design but the brightness of the color feels almost blinding to me.,-3,220,20","I like the way the persons clothes look, there could be more color though.,10,220,20","New life, rising from your personal battles,50,120,20","Dark silhouette against the murky background Illicites an ominous feeling. Don't really like it.,-20,160,20","Depicts something negative, such as ritual. I'm not a fan.,-10,340,20","Alyssa","Dark silhouette against the murky background Illicites an ominous feeling. Don't really like it.,-20,160,20","Lauren","Depicts something negative, such as ritual. I'm not a fan.,-10,340,20","Shannon","I like the way the persons clothes look, there could be more color though.,10,220,20","1"
"6371","","survey-text","81","439446","0.0-79.0-0.0","A249EWKM1EOARK","","","","{""Q0"":""sky""}","","","","","","","","","","","","","","","","","","","","","","",""
"37427","","survey-text","82","476876","0.0-80.0-0.0","A249EWKM1EOARK","","","","{""Q0"":""too busy""}","","","","","","","","","","","","","","","","","","","","","","",""
"4490.79999999702","","image-slider-response","83","481371","0.0-81.0","A249EWKM1EOARK","","","","","-40","","","","","","","","","","","","","","","","","","","","","",""
"null","","image-button-response","84","486379","0.0-82.0","A249EWKM1EOARK","img_art/22.jpg","null","","","","","","","","","","","","","","","","","","","","","","","","",""
"1585","","image-button-response","85","487970","0.0-83.0","A249EWKM1EOARK","img_art/22.jpg","5","","","","","","","","","","","","","","","","","","","","","","","","",""
"5826","","image-button-response","86","493802","0.0-84.0-0.0","A249EWKM1EOARK","img_art/22.jpg","0","","","","","","","","","","","","","","","","","","","","","","","","",""
"982","","image-button-response","87","494790","0.0-85.0-0.0","A249EWKM1EOARK","img_art/22.jpg","1","","","","","","","","","","","","","","","","","","","","","","","","",""
"null","","html-keyboard-response","88","495793","0.0-86.0","A249EWKM1EOARK","<p style=""font-size: 48px;"">+</p>","","","","","null","allTrialResponses","1000","1","6","img_art/22.jpg","-40","too busy","Hailey,Jacqueline,Shannon,Brittany,Alyssa,Lauren","a lost balloon in outer space,12,200,20","I feel like I've seen this one already.,-9,300,20","I think this picture looks interesting because of the way the colors work together.,20,220,20","It reminds me of sunsets and dusks.,22,40,20","Its okay,it doesnt make me feel any sort of strong emotion,1,160,20","This doesn't invoke anything, since I can't tell what the piece represents.,0,340,20","Lauren","This doesn't invoke anything, since I can't tell what the piece represents.,0,340,20","Hailey","a lost balloon in outer space,12,200,20","Jacqueline","I feel like I've seen this one already.,-9,300,20","1"
"6701","","survey-text","89","502500","0.0-87.0-0.0","A249EWKM1EOARK","","","","{""Q0"":""weird""}","","","","","","","","","","","","","","","","","","","","","","",""
"8095","","survey-text","90","513668","0.0-87.1-0.1","A249EWKM1EOARK","","","","{""Q0"":""wierd looking""}","","","","","","","","","","","","","","","","","","","","","","",""
"5934","","image-slider-response","91","519606","0.0-88.0","A249EWKM1EOARK","","","","","-48","","","","","","","","","","","","","","","","","","","","","",""
"4340","","image-button-response","92","524614","0.0-89.0","A249EWKM1EOARK","img_art/4.jpg","3","","","","","","","","","","","","","","","","","","","","","","","","",""
"1428","","image-button-response","93","526047","0.0-90.0","A249EWKM1EOARK","img_art/4.jpg","1","","","","","","","","","","","","","","","","","","","","","","","","",""
"2773","","image-button-response","94","528826","0.0-91.0-0.0","A249EWKM1EOARK","img_art/4.jpg","0","","","","","","","","","","","","","","","","","","","","","","","","",""
"1769","","image-button-response","95","530598","0.0-92.0-0.0","A249EWKM1EOARK","img_art/4.jpg","3","","","","","","","","","","","","","","","","","","","","","","","","",""
"null","","html-keyboard-response","96","532102","0.0-93.0","A249EWKM1EOARK","<p style=""font-size: 48px;"">+</p>","","","","","null","allTrialResponses","1500","1","7","img_art/4.jpg","-48","wierd looking","Hailey,Jacqueline,Amy,Mikayla,Morgan,Lauren","ugly puke yellow is cold and dark,-29,200,20","It looks like smeared poop.,-27,300,20","disturbing and uncomfortable.,10,220,20","Not very interesting to look at.,-34,300,20","Pretzel noodles.,7,380,20","I like the design. It can be interpreted in various ways, such as a hand of horror or still piece.,15,340,20","Jacqueline","It looks like smeared poop.,-27,300,20","Hailey","ugly puke yellow is cold and dark,-29,200,20","Mikayla","Not very interesting to look at.,-34,300,20","1"
"7025","","survey-text","97","539132","0.0-94.0-0.0","A249EWKM1EOARK","","","","{""Q0"":""too busy""}","","","","","","","","","","","","","","","","","","","","","","",""
"4249.4000000059605","","image-slider-response","98","543384","0.0-95.0","A249EWKM1EOARK","","","","","-23","","","","","","","","","","","","","","","","","","","","","",""
"4393","","image-button-response","99","548388","0.0-96.0","A249EWKM1EOARK","img_art/19.jpg","5","","","","","","","","","","","","","","","","","","","","","","","","",""
"507","","image-button-response","100","548898","0.0-97.0","A249EWKM1EOARK","img_art/19.jpg","2","","","","","","","","","","","","","","","","","","","","","","","","",""
"1040","","image-button-response","101","549942","0.0-98.0-0.0","A249EWKM1EOARK","img_art/19.jpg","1","","","","","","","","","","","","","","","","","","","","","","","","",""
"1202","","image-button-response","102","551149","0.0-99.0-0.0","A249EWKM1EOARK","img_art/19.jpg","5","","","","","","","","","","","","","","","","","","","","","","","","",""
"null","","html-keyboard-response","103","552653","0.0-100.0","A249EWKM1EOARK","<p style=""font-size: 48px;"">+</p>","","","","","null","allTrialResponses","1500","1","8","img_art/19.jpg","-23","too busy","Hailey,Jacqueline,Alexis,Mikayla,Elizabeth,Sarah","an old cityfrom many years ago. its ok,6,200,20","This is just a mess.,-30,300,20","Not a fan of the blobbiness,-22,100,20","Very pretty and colorful.,23,300,20","Like the painting strokes,39,20,20","too much of a mix of lines and shading,-22,180,20","Alexis","Not a fan of the blobbiness,-22,100,20","Jacqueline","This is just a mess.,-30,300,20","Sarah","too much of a mix of lines and shading,-22,180,20","1"
"8186","","survey-text","104","560857","0.0-101.0-0.0","A249EWKM1EOARK","","","","{""Q0"":""beautiful""}","","","","","","","","","","","","","","","","","","","","","","",""
"5708.29999999702","","image-slider-response","105","566568","0.0-102.0","A249EWKM1EOARK","","","","","49","","","","","","","","","","","","","","","","","","","","","",""
"null","","image-button-response","106","571576","0.0-103.0","A249EWKM1EOARK","img_art/24.jpg","null","","","","","","","","","","","","","","","","","","","","","","","","",""
"1773","","image-button-response","107","573352","0.0-104.0","A249EWKM1EOARK","img_art/24.jpg","3","","","","","","","","","","","","","","","","","","","","","","","","",""
"1460","","image-button-response","108","574815","0.0-105.0-0.0","A249EWKM1EOARK","img_art/24.jpg","0","","","","","","","","","","","","","","","","","","","","","","","","",""
"2223","","image-button-response","109","577042","0.0-106.0-0.0","A249EWKM1EOARK","img_art/24.jpg","1","","","","","","","","","","","","","","","","","","","","","","","","",""
"null","","html-keyboard-response","110","578545","0.0-107.0","A249EWKM1EOARK","<p style=""font-size: 48px;"">+</p>","","","","","null","allTrialResponses","1500","1","9","img_art/24.jpg","49","beautiful","Gabrielle,Jacqueline,Alexis,Jessica,Leslie,Sarah","flowing water part is good, some of the rest is ok but dark,14,160,20","This one isn't that abstract. It clearly looks like a waterfall.,31,300,20","Simple. Not too abstract. Love the different flower colors.,20,100,20","Vibrant, beautiful depiction.,50,400,20","The colors look nice, but the painting bores me.,-20,380,20","it's fine, the colors are pleasing, but not my taste,9,180,20","Jessica","Vibrant, beautiful depiction.,50,400,20","Gabrielle","flowing water part is good, some of the rest is ok but dark,14,160,20","Jacqueline","This one isn't that abstract. It clearly looks like a waterfall.,31,300,20","1"
"12605","","survey-text","111","591158","0.0-108.0-0.0","A249EWKM1EOARK","","","","{""Q0"":""strange""}","","","","","","","","","","","","","","","","","","","","","","",""
"5127","","image-slider-response","112","596288","0.0-109.0","A249EWKM1EOARK","","","","","-29","","","","","","","","","","","","","","","","","","","","","",""
"4791","","image-button-response","113","601297","0.0-110.0","A249EWKM1EOARK","img_art/16.jpg","0","","","","","","","","","","","","","","","","","","","","","","","","",""
"650","","image-button-response","114","601951","0.0-111.0","A249EWKM1EOARK","img_art/16.jpg","1","","","","","","","","","","","","","","","","","","","","","","","","",""
"3859","","image-button-response","115","605817","0.0-112.0-0.0","A249EWKM1EOARK","img_art/16.jpg","5","","","","","","","","","","","","","","","","","","","","","","","","",""
"2888","","image-button-response","116","608710","0.0-113.0-0.0","A249EWKM1EOARK","img_art/16.jpg","0","","","","","","","","","","","","","","","","","","","","","","","","",""
"null","","html-keyboard-response","117","609712","0.0-114.0","A249EWKM1EOARK","<p style=""font-size: 48px;"">+</p>","","","","","null","allTrialResponses","1000","1","10","img_art/16.jpg","-29","strange","Gabrielle,Jacqueline,Amanda,Jessica,Cheyenne,Grace","nonsense art, not really art,-44,160,20","Seems very twisted and dark.,-35,300,20","Very modern, reminds me of bansky,43,180,20","Cool but the bear creeps me out?,8,400,20","Cute but there's a lot going on.,7,200,20","Something terrible happened. Either the figure on the right is the victim or another shredded toy.,-49,180,20","Jacqueline","Seems very twisted and dark.,-35,300,20","Grace","Something terrible happened. Either the figure on the right is the victim or another shredded toy.,-49,180,20","Gabrielle","nonsense art, not really art,-44,160,20","1"
"4339","","survey-text","118","614064","0.0-115.0-0.0","A249EWKM1EOARK","","","","{""Q0"":""our""}","","","","","","","","","","","","","","","","","","","","","","",""
"6938","","survey-text","119","621004","0.0-116.0-0.0","A249EWKM1EOARK","","","","{""Q0"":""abstract""}","","","","","","","","","","","","","","","","","","","","","","",""
"5589.79999999702","","image-slider-response","120","626596","0.0-117.0","A249EWKM1EOARK","","","","","-39","","","","","","","","","","","","","","","","","","","","","",""
"2436","","image-button-response","121","631601","0.0-118.0","A249EWKM1EOARK","img_art/9.jpg","0","","","","","","","","","","","","","","","","","","","","","","","","",""
"1328","","image-button-response","122","632933","0.0-119.0","A249EWKM1EOARK","img_art/9.jpg","2","","","","","","","","","","","","","","","","","","","","","","","","",""
"1584","","image-button-response","123","634520","0.0-120.0-0.0","A249EWKM1EOARK","img_art/9.jpg","0","","","","","","","","","","","","","","","","","","","","","","","","",""
"1741","","image-button-response","124","636264","0.0-121.0-0.0","A249EWKM1EOARK","img_art/9.jpg","3","","","","","","","","","","","","","","","","","","","","","","","","",""
"null","","html-keyboard-response","125","637267","0.0-122.0","A249EWKM1EOARK","<p style=""font-size: 48px;"">+</p>","","","","","null","allTrialResponses","1000","1","11","img_art/9.jpg","-39","abstract","Gabrielle,Jacqueline,Angelica,Erin,Cynthia,Grace","looks like an imitation of a real piece of art, reclining lady,-1,160,20","Looks like a sloppy iguana.,-11,300,20","The colors and image is ugly.,-7,280,20","Framing is overwhelming,-35,120,20","curious and unsure,12,320,20","Huh?  Doesn't invoke much.,-37,180,20","Angelica","The colors and image is ugly.,-7,280,20","Gabrielle","looks like an imitation of a real piece of art, reclining lady,-1,160,20","Erin","Framing is overwhelming,-35,120,20","1"
"7936","","survey-text","126","645222","0.0-123.0-0.0","A249EWKM1EOARK","","","","{""Q0"":""delicate""}","","","","","","","","","","","","","","","","","","","","","","",""
"5065.70000000298","","image-slider-response","127","650290","0.0-124.0","A249EWKM1EOARK","","","","","25","","","","","","","","","","","","","","","","","","","","","",""
"2992","","image-button-response","128","655294","0.0-125.0","A249EWKM1EOARK","img_art/13.jpg","3","","","","","","","","","","","","","","","","","","","","","","","","",""
"1555","","image-button-response","129","656853","0.0-126.0","A249EWKM1EOARK","img_art/13.jpg","3","","","","","","","","","","","","","","","","","","","","","","","","",""
"2063","","image-button-response","130","658918","0.0-127.0-0.0","A249EWKM1EOARK","img_art/13.jpg","5","","","","","","","","","","","","","","","","","","","","","","","","",""
"3641","","image-button-response","131","662564","0.0-128.0-0.0","A249EWKM1EOARK","img_art/13.jpg","1","","","","","","","","","","","","","","","","","","","","","","","","",""
"null","","html-keyboard-response","132","663067","0.0-129.0","A249EWKM1EOARK","<p style=""font-size: 48px;"">+</p>","","","","","null","allTrialResponses","500","1","12","img_art/13.jpg","25","delicate","Gabrielle,Heather,Angelica,Erin,Angela,Michelle","kind of like the pattern and colors but don't love it,13,160,20","rain in blue black and white,1,260,20","It's too violent looking and there's too much contrast between the white/black.,-21,280,20","Color palette is complementary,40,120,20","It's okay. Feels like a blander take on a Jackson Pollack,11,260,20","I like the blue colors and the symmetry and paint splatters but I would not hang it in my house,8,280,20","Erin","Color palette is complementary,40,120,20","Michelle","I like the blue colors and the symmetry and paint splatters but I would not hang it in my house,8,280,20","Heather","rain in blue black and white,1,260,20","1"
"10948","","survey-text","133","674026","0.0-130.0-0.0","A249EWKM1EOARK","","","","{""Q0"":""too black""}","","","","","","","","","","","","","","","","","","","","","","",""
"4598.100000008941","","image-slider-response","134","678631","0.0-131.0","A249EWKM1EOARK","","","","","-47","","","","","","","","","","","","","","","","","","","","","",""
"null","","image-button-response","135","683639","0.0-132.0","A249EWKM1EOARK","img_art/15.jpg","null","","","","","","","","","","","","","","","","","","","","","","","","",""
"1620","","image-button-response","136","685263","0.0-133.0","A249EWKM1EOARK","img_art/15.jpg","5","","","","","","","","","","","","","","","","","","","","","","","","",""
"3341","","image-button-response","137","688610","0.0-134.0-0.0","A249EWKM1EOARK","img_art/15.jpg","3","","","","","","","","","","","","","","","","","","","","","","","","",""
"1728","","image-button-response","138","690346","0.0-135.0-0.0","A249EWKM1EOARK","img_art/15.jpg","0","","","","","","","","","","","","","","","","","","","","","","","","",""
"null","","html-keyboard-response","139","691350","0.0-136.0","A249EWKM1EOARK","<p style=""font-size: 48px;"">+</p>","","","","","null","allTrialResponses","1000","1","13","img_art/15.jpg","-47","too black","Michaela,Heather,Meghan,Erin,Caitlin,Michelle","Reminds me of lilacs,26,260,20","black leaves makes the blue birds stand out.,1,260,20","I like the pattern of it,11,220,20","Neat to explore meaning, blue is interesting,11,120,20","Getting better.,10,80,20","Interesting to look at but I don't appreciate the abstraction,2,280,20","Michelle","Interesting to look at but I don't appreciate the abstraction,2,280,20","Erin","Neat to explore meaning, blue is interesting,11,120,20","Michaela","Reminds me of lilacs,26,260,20","1"
"13684","","survey-text","140","705044","0.0-137.0-0.0","A249EWKM1EOARK","","","","{""Q0"":""It is to abstract""}","","","","","","","","","","","","","","","","","","","","","","",""
"6832.4000000059605","","image-slider-response","141","711880","0.0-138.0","A249EWKM1EOARK","","","","","-23","","","","","","","","","","","","","","","","","","","","","",""
"null","","image-button-response","142","716885","0.0-139.0","A249EWKM1EOARK","img_art/10.jpg","null","","","","","","","","","","","","","","","","","","","","","","","","",""
"2466","","image-button-response","143","719358","0.0-140.0","A249EWKM1EOARK","img_art/10.jpg","3","","","","","","","","","","","","","","","","","","","","","","","","",""
"1710","","image-button-response","144","721071","0.0-141.0-0.0","A249EWKM1EOARK","img_art/10.jpg","4","","","","","","","","","","","","","","","","","","","","","","","","",""
"1956","","image-button-response","145","723029","0.0-142.0-0.0","A249EWKM1EOARK","img_art/10.jpg","5","","","","","","","","","","","","","","","","","","","","","","","","",""
"null","","html-keyboard-response","146","724531","0.0-143.0","A249EWKM1EOARK","<p style=""font-size: 48px;"">+</p>","","","","","null","allTrialResponses","1500","1","14","img_art/10.jpg","-23","It is to abstract","Michaela,Mackenzie,Hannah,Erin,Brooke,Michelle","It looks like it's sinking but it could also be a view from above,40,260,20","The design is very fluid and fun to interpret,35,20,20","This one is interesting. I like it.,11,240,20","Cello music instrument,11,120,20","artistic cello piece?,30,60,20","This could be a guitar, or it could be a completely random shape.,-3,280,20","Erin","Cello music instrument,11,120,20","Brooke","artistic cello piece?,30,60,20","Michelle","This could be a guitar, or it could be a completely random shape.,-3,280,20","1"
"7404","","survey-text","147","731945","0.0-144.0-0.0","A249EWKM1EOARK","","","","{""Q0"":""too busy""}","","","","","","","","","","","","","","","","","","","","","","",""
"4690.4000000059605","","image-slider-response","148","736639","0.0-145.0","A249EWKM1EOARK","","","","","-42","","","","","","","","","","","","","","","","","","","","","",""
"null","","image-button-response","149","741643","0.0-146.0","A249EWKM1EOARK","img_art/18.jpg","null","","","","","","","","","","","","","","","","","","","","","","","","",""
"4668","","image-button-response","150","746315","0.0-147.0","A249EWKM1EOARK","img_art/18.jpg","5","","","","","","","","","","","","","","","","","","","","","","","","",""
"1350","","image-button-response","151","747669","0.0-148.0-0.0","A249EWKM1EOARK","img_art/18.jpg","4","","","","","","","","","","","","","","","","","","","","","","","","",""
"1130","","image-button-response","152","748805","0.0-149.0-0.0","A249EWKM1EOARK","img_art/18.jpg","3","","","","","","","","","","","","","","","","","","","","","","","","",""
"null","","html-keyboard-response","153","750308","0.0-150.0","A249EWKM1EOARK","<p style=""font-size: 48px;"">+</p>","","","","","null","allTrialResponses","1500","1","15","img_art/18.jpg","-42","too busy","Erika,Leah,Alicia,Erin,Brooke,Michelle","Gently chaotic and beautiful,40,100,20","I really like it, like hells drivers,43,360,20","Skeletons, death, bleak colors, still kinda like it.,16,120,20","See a weird horse,-22,120,20","Don't like the color scheme. Or the theme.,-5,60,20","The small lines elicit a very nauseating response for some reason, too Dali like for me,-19,280,20","Michelle","The small lines elicit a very nauseating response for some reason, too Dali like for me,-19,280,20","Brooke","Don't like the color scheme. Or the theme.,-5,60,20","Erin","See a weird horse,-22,120,20","1"
"5363","","survey-text","154","755685","0.0-151.0-0.0","A249EWKM1EOARK","","","","{""Q0"":""course""}","","","","","","","","","","","","","","","","","","","","","","",""
"16413","","survey-text","155","772102","0.0-152.0-0.0","A249EWKM1EOARK","","","","{""Q0"":""kind of childish""}","","","","","","","","","","","","","","","","","","","","","","",""
"6499.899999991059","","image-slider-response","156","778604","0.0-153.0","A249EWKM1EOARK","","","","","-48","","","","","","","","","","","","","","","","","","","","","",""
"null","","image-button-response","157","783607","0.0-154.0","A249EWKM1EOARK","img_art/5.jpg","null","","","","","","","","","","","","","","","","","","","","","","","","",""
"380","","image-button-response","158","783990","0.0-155.0","A249EWKM1EOARK","img_art/5.jpg","4","","","","","","","","","","","","","","","","","","","","","","","","",""
"1310","","image-button-response","159","785304","0.0-156.0-0.0","A249EWKM1EOARK","img_art/5.jpg","5","","","","","","","","","","","","","","","","","","","","","","","","",""
"4379","","image-button-response","160","789690","0.0-157.0-0.0","A249EWKM1EOARK","img_art/5.jpg","2","","","","","","","","","","","","","","","","","","","","","","","","",""
"null","","html-keyboard-response","161","791195","0.0-158.0","A249EWKM1EOARK","<p style=""font-size: 48px;"">+</p>","","","","","null","allTrialResponses","1500","1","16","img_art/5.jpg","-48","kind of childish","Erica,Laura,Alexa,Erin,Brooke,Michelle","positive colours; yellow calls attention,6,80,20","fresh and fun - bright and active,16,320,20","It's okay. Don't hate it but don't love it either,0,40,20","Flame, candle, wind,30,120,20","No. What even is this? A mop?,-35,60,20","What is this? It looks like no effort was put into this work,-2,280,20","Brooke","No. What even is this? A mop?,-35,60,20","Michelle","What is this? It looks like no effort was put into this work,-2,280,20","Alexa","It's okay. Don't hate it but don't love it either,0,40,20","1"
"9169","","survey-text","162","800371","0.0-159.0-0.0","A249EWKM1EOARK","","","","{""Q0"":""Not enough meaning""}","","","","","","","","","","","","","","","","","","","","","","",""
"4927.699999988079","","image-slider-response","163","805302","0.0-160.0","A249EWKM1EOARK","","","","","-38","","","","","","","","","","","","","","","","","","","","","",""
"2269","","image-button-response","164","810305","0.0-161.0","A249EWKM1EOARK","img_art/6.jpg","0","","","","","","","","","","","","","","","","","","","","","","","","",""
"347","","image-button-response","165","810654","0.0-162.0","A249EWKM1EOARK","img_art/6.jpg","0","","","","","","","","","","","","","","","","","","","","","","","","",""
"1491","","image-button-response","166","812147","0.0-163.0-0.0","A249EWKM1EOARK","img_art/6.jpg","2","","","","","","","","","","","","","","","","","","","","","","","","",""
"1482","","image-button-response","167","813632","0.0-164.0-0.0","A249EWKM1EOARK","img_art/6.jpg","3","","","","","","","","","","","","","","","","","","","","","","","","",""
"null","","html-keyboard-response","168","814135","0.0-165.0","A249EWKM1EOARK","<p style=""font-size: 48px;"">+</p>","","","","","null","allTrialResponses","500","1","17","img_art/6.jpg","-38","Not enough meaning","Kaitlin,Catherine,Alexa,Molly,Brooke,Michelle","This one also confuses me a bit.,-19,60,20","Looking, searching at the same time being content.,30,160,20","Too basic for me,-20,40,20","Nothing special.,-20,340,20","Kind of neat, but then that's a weird looking bird. too weird.,0,60,20","Definitely belongs at a doctor's office, I think it's a crow or a tree?,-3,280,20","Kaitlin","This one also confuses me a bit.,-19,60,20","Alexa","Too basic for me,-20,40,20","Molly","Nothing special.,-20,340,20","1"
"10724","","survey-text","169","824869","0.0-166.0-0.0","A249EWKM1EOARK","","","","{""Q0"":""Looks like a farm""}","","","","","","","","","","","","","","","","","","","","","","",""
"4841.100000008941","","image-slider-response","170","829713","0.0-167.0","A249EWKM1EOARK","","","","","6","","","","","","","","","","","","","","","","","","","","","",""
"null","","image-button-response","171","834718","0.0-168.0","A249EWKM1EOARK","img_art/27.jpg","null","","","","","","","","","","","","","","","","","","","","","","","","",""
"717","","image-button-response","172","835440","0.0-169.0","A249EWKM1EOARK","img_art/27.jpg","5","","","","","","","","","","","","","","","","","","","","","","","","",""
"1381","","image-button-response","173","836825","0.0-170.0-0.0","A249EWKM1EOARK","img_art/27.jpg","4","","","","","","","","","","","","","","","","","","","","","","","","",""
"1369","","image-button-response","174","838197","0.0-171.0-0.0","A249EWKM1EOARK","img_art/27.jpg","3","","","","","","","","","","","","","","","","","","","","","","","","",""
"null","","html-keyboard-response","175","838699","0.0-172.0","A249EWKM1EOARK","<p style=""font-size: 48px;"">+</p>","","","","","null","allTrialResponses","500","1","18","img_art/27.jpg","6","Looks like a farm","Kaitlin,Lindsey,Alexa,Molly,Kaitlyn,Sara","this reminds me of simpler time,31,60,20","Looks like my niece's doodles.,-50,400,20","I love the mood of this painting,30,40,20","No clue what to say.,0,340,20","The variation of orange is nice,9,80,20","Not cohesive design,-31,160,20","Sara","Not cohesive design,-31,160,20","Kaitlyn","The variation of orange is nice,9,80,20","Molly","No clue what to say.,0,340,20","1"
"7159","","survey-text","176","845868","0.0-173.0-0.0","A249EWKM1EOARK","","","","{""Q0"":""Too abstract""}","","","","","","","","","","","","","","","","","","","","","","",""
"5407.5","","image-slider-response","177","851278","0.0-174.0","A249EWKM1EOARK","","","","","6","","","","","","","","","","","","","","","","","","","","","",""
"4650","","image-button-response","178","856283","0.0-175.0","A249EWKM1EOARK","img_art/12.jpg","0","","","","","","","","","","","","","","","","","","","","","","","","",""
"1215","","image-button-response","179","857502","0.0-176.0","A249EWKM1EOARK","img_art/12.jpg","2","","","","","","","","","","","","","","","","","","","","","","","","",""
"2903","","image-button-response","180","860409","0.0-177.0-0.0","A249EWKM1EOARK","img_art/12.jpg","3","","","","","","","","","","","","","","","","","","","","","","","","",""
"1517","","image-button-response","181","861932","0.0-178.0-0.0","A249EWKM1EOARK","img_art/12.jpg","5","","","","","","","","","","","","","","","","","","","","","","","","",""
"null","","html-keyboard-response","182","863435","0.0-179.0","A249EWKM1EOARK","<p style=""font-size: 48px;"">+</p>","","","","","null","allTrialResponses","1500","1","19","img_art/12.jpg","6","Too abstract","Allison,Courtney,Taylor,Molly,Kaitlyn,Sara","Minimalist colors and shapes.,-5,140,20","That is a warn quilt grama made.,11,280,20","It's kind of ominous,-15,340,20","Seems to be puzzles.,25,340,20","The shapes present in the picture make it very interesting,17,80,20","I don't like the blocking,-20,160,20","Taylor","It's kind of ominous,-15,340,20","Molly","Seems to be puzzles.,25,340,20","Sara","I don't like the blocking,-20,160,20","1"
"18974","","survey-text","183","882430","0.0-180.0-0.0","A249EWKM1EOARK","","","","{""Q0"":""Autumn looking""}","","","","","","","","","","","","","","","","","","","","","","",""
"5279","","image-slider-response","184","887713","0.0-181.0","A249EWKM1EOARK","","","","","17","","","","","","","","","","","","","","","","","","","","","",""
"null","","image-button-response","185","892719","0.0-182.0","A249EWKM1EOARK","img_art/26.jpg","null","","","","","","","","","","","","","","","","","","","","","","","","",""
"2573","","image-button-response","186","895297","0.0-183.0","A249EWKM1EOARK","img_art/26.jpg","1","","","","","","","","","","","","","","","","","","","","","","","","",""
"1040","","image-button-response","187","896343","0.0-184.0-0.0","A249EWKM1EOARK","img_art/26.jpg","2","","","","","","","","","","","","","","","","","","","","","","","","",""
"1674","","image-button-response","188","898025","0.0-185.0-0.0","A249EWKM1EOARK","img_art/26.jpg","4","","","","","","","","","","","","","","","","","","","","","","","","",""
"null","","html-keyboard-response","189","898528","0.0-186.0","A249EWKM1EOARK","<p style=""font-size: 48px;"">+</p>","","","","","null","allTrialResponses","500","1","20","img_art/26.jpg","17","Autumn looking","Katherine,Alexandria,Taylor,Molly,Katie,Sara","This style of objects that are supposed to be something but then are blurry is interesting.,38,120,20","makes me happy and reminds me of a paris courtyard,29,80,20","Makes me want to walk down a cool street,20,340,20","Nothing to say.,0,340,20","Reminds me of watercolor. Muted tones and blurry soft brush strokes. Calm to me.,1,160,20","I can somewhat city a city in this drawing,11,160,20","Alexandria","makes me happy and reminds me of a paris courtyard,29,80,20","Taylor","Makes me want to walk down a cool street,20,340,20","Katie","Reminds me of watercolor. Muted tones and blurry soft brush strokes. Calm to me.,1,160,20","1"
"6570","","survey-text","190","905112","0.0-187.0-0.0","A249EWKM1EOARK","","","","{""Q0"":""we""}","","","","","","","","","","","","","","","","","","","","","","",""
"16420","","survey-text","191","921537","0.0-188.0-0.0","A249EWKM1EOARK","","","","{""Q0"":""The sky when there is a storm coming""}","","","","","","","","","","","","","","","","","","","","","","",""
"4058.7000000029802","","image-slider-response","192","925598","0.0-189.0","A249EWKM1EOARK","","","","","11","","","","","","","","","","","","","","","","","","","","","",""
"null","","image-button-response","193","930603","0.0-190.0","A249EWKM1EOARK","img_art/21.jpg","null","","","","","","","","","","","","","","","","","","","","","","","","",""
"2430","","image-button-response","194","933037","0.0-191.0","A249EWKM1EOARK","img_art/21.jpg","3","","","","","","","","","","","","","","","","","","","","","","","","",""
"1176","","image-button-response","195","934218","0.0-192.0-0.0","A249EWKM1EOARK","img_art/21.jpg","4","","","","","","","","","","","","","","","","","","","","","","","","",""
"1253","","image-button-response","196","935477","0.0-193.0-0.0","A249EWKM1EOARK","img_art/21.jpg","5","","","","","","","","","","","","","","","","","","","","","","","","",""
"null","","html-keyboard-response","197","936980","0.0-194.0","A249EWKM1EOARK","<p style=""font-size: 48px;"">+</p>","","","","","null","allTrialResponses","1500","1","21","img_art/21.jpg","11","The sky when there is a storm coming","Margaret,Alexandria,Taylor,Makayla,Katie,Brianna","i like the colors and the blending,17,100,20","the vast colors make me happy,15,80,20","I love the contrasting tones between the two sides,36,340,20","I like the two sides meeting, like a movie scene,15,80,20","Immediately a positive response! I like the muted colors. the blurriness calms me. It's serene,40,160,20","Don't really lean either way.,1,20,20","Makayla","I like the two sides meeting, like a movie scene,15,80,20","Katie","Immediately a positive response! I like the muted colors. the blurriness calms me. It's serene,40,160,20","Brianna","Don't really lean either way.,1,20,20","1"
"13741","","survey-text","198","950729","0.0-195.0-0.0","A249EWKM1EOARK","","","","{""Q0"":""Too many shapes that don't blend""}","","","","","","","","","","","","","","","","","","","","","","",""
"4758.70000000298","","image-slider-response","199","955493","0.0-196.0","A249EWKM1EOARK","","","","","-30","","","","","","","","","","","","","","","","","","","","","",""
"2194","","image-button-response","200","960500","0.0-197.0","A249EWKM1EOARK","img_art/28.jpg","0","","","","","","","","","","","","","","","","","","","","","","","","",""
"2359","","image-button-response","201","962862","0.0-198.0","A249EWKM1EOARK","img_art/28.jpg","2","","","","","","","","","","","","","","","","","","","","","","","","",""
"1669","","image-button-response","202","964534","0.0-199.0-0.0","A249EWKM1EOARK","img_art/28.jpg","0","","","","","","","","","","","","","","","","","","","","","","","","",""
"1779","","image-button-response","203","966319","0.0-200.0-0.0","A249EWKM1EOARK","img_art/28.jpg","3","","","","","","","","","","","","","","","","","","","","","","","","",""
"null","","html-keyboard-response","204","966822","0.0-201.0","A249EWKM1EOARK","<p style=""font-size: 48px;"">+</p>","","","","","null","allTrialResponses","500","1","22","img_art/28.jpg","-30","Too many shapes that don't blend","Kayla,Madison,Jamie,Makayla,Katie,Brianna","Don't love it, don't hate it. It's just there.,1,180,20","It's okay. There is harmony and balance.,11,60,20","Gloomy colors and picture,5,320,20","The earthy colors smeared around looks like prison food tray,-17,80,20","Like the muted pink colors. However, the mood is sad because of the blurriness,22,160,20","My grandparents would like this, maybe my great grandparents. It's not my style.,-30,20,20","Jamie","Gloomy colors and picture,5,320,20","Kayla","Don't love it, don't hate it. It's just there.,1,180,20","Makayla","The earthy colors smeared around looks like prison food tray,-17,80,20","1"
"15504","","survey-text","205","982337","0.0-202.0-0.0","A249EWKM1EOARK","","","","{""Q0"":""Looks like ants""}","","","","","","","","","","","","","","","","","","","","","","",""
"3924.1000000089407","","image-slider-response","206","986266","0.0-203.0","A249EWKM1EOARK","","","","","-27","","","","","","","","","","","","","","","","","","","","","",""
"null","","image-button-response","207","991271","0.0-204.0","A249EWKM1EOARK","img_art/7.jpg","null","","","","","","","","","","","","","","","","","","","","","","","","",""
"590","","image-button-response","208","991865","0.0-205.0","A249EWKM1EOARK","img_art/7.jpg","2","","","","","","","","","","","","","","","","","","","","","","","","",""
"3332","","image-button-response","209","995199","0.0-206.0-0.0","A249EWKM1EOARK","img_art/7.jpg","4","","","","","","","","","","","","","","","","","","","","","","","","",""
"1051","","image-button-response","210","996255","0.0-207.0-0.0","A249EWKM1EOARK","img_art/7.jpg","5","","","","","","","","","","","","","","","","","","","","","","","","",""
"null","","html-keyboard-response","211","997756","0.0-208.0","A249EWKM1EOARK","<p style=""font-size: 48px;"">+</p>","","","","","null","allTrialResponses","1500","1","23","img_art/7.jpg","-27","Looks like ants","Kayla,Kaylee,Jamie,Makayla,Victoria,Jennifer","Dinosaur bones. Death.,-14,180,20","some rocks on a mars?,7,200,20","Looks like a battle raging on,20,320,20","It's just like sand from the beach,2,80,20","looks like a photograph,-4,400,20","Very, very dull compared to the other paintings,-36,380,20","Jamie","Looks like a battle raging on,20,320,20","Victoria","looks like a photograph,-4,400,20","Jennifer","Very, very dull compared to the other paintings,-36,380,20","1"
"14343","","survey-text","212","1012111","0.0-209.0-0.0","A249EWKM1EOARK","","","","{""Q0"":""Looks eerie""}","","","","","","","","","","","","","","","","","","","","","","",""
"4843.100000008941","","image-slider-response","213","1016960","0.0-210.0","A249EWKM1EOARK","","","","","4","","","","","","","","","","","","","","","","","","","","","",""
"3167","","image-button-response","214","1021968","0.0-211.0","A249EWKM1EOARK","img_art/20.jpg","1","","","","","","","","","","","","","","","","","","","","","","","","",""
"1302","","image-button-response","215","1023272","0.0-212.0","A249EWKM1EOARK","img_art/20.jpg","1","","","","","","","","","","","","","","","","","","","","","","","","",""
"3277","","image-button-response","216","1026553","0.0-213.0-0.0","A249EWKM1EOARK","img_art/20.jpg","3","","","","","","","","","","","","","","","","","","","","","","","","",""
"2362","","image-button-response","217","1028921","0.0-214.0-0.0","A249EWKM1EOARK","img_art/20.jpg","5","","","","","","","","","","","","","","","","","","","","","","","","",""
"null","","html-keyboard-response","218","1029923","0.0-215.0","A249EWKM1EOARK","<p style=""font-size: 48px;"">+</p>","","","","","null","allTrialResponses","1000","1","24","img_art/20.jpg","4","Looks eerie","Kylie,Kimberly,Jamie,Emily,Victoria,Jennifer","City life vs shore life,40,300,20","Something bad has happened TO reality,-23,260,20","Looks like some type of future dystopian civilization,35,320,20","Brings about an emotion response of dspair. Loose lines but yet has a cohesion.,8,40,20","like the colors and desert feel,7,400,20","Neutral, this piece doesn't strike me as particularly bad or good,0,380,20","Kimberly","Something bad has happened TO reality,-23,260,20","Emily","Brings about an emotion response of dspair. Loose lines but yet has a cohesion.,8,40,20","Jennifer","Neutral, this piece doesn't strike me as particularly bad or good,0,380,20","1"
"12958","","survey-text","219","1042904","0.0-216.0-0.0","A249EWKM1EOARK","","","","{""Q0"":""Colors don't blend to well""}","","","","","","","","","","","","","","","","","","","","","","",""
"3533.9000000059605","","image-slider-response","220","1046442","0.0-217.0","A249EWKM1EOARK","","","","","-44","","","","","","","","","","","","","","","","","","","","","",""
"4937","","image-button-response","221","1051447","0.0-218.0","A249EWKM1EOARK","img_art/1.jpg","0","","","","","","","","","","","","","","","","","","","","","","","","",""
"1029","","image-button-response","222","1052479","0.0-219.0","A249EWKM1EOARK","img_art/1.jpg","0","","","","","","","","","","","","","","","","","","","","","","","","",""
"2496","","image-button-response","223","1054978","0.0-220.0-0.0","A249EWKM1EOARK","img_art/1.jpg","1","","","","","","","","","","","","","","","","","","","","","","","","",""
"1208","","image-button-response","224","1056190","0.0-221.0-0.0","A249EWKM1EOARK","img_art/1.jpg","2","","","","","","","","","","","","","","","","","","","","","","","","",""
"null","","html-keyboard-response","225","1056693","0.0-222.0","A249EWKM1EOARK","<p style=""font-size: 48px;"">+</p>","","","","","null","allTrialResponses","500","1","25","img_art/1.jpg","-44","Colors don't blend to well","Rachel,Kimberly,Sierra,Emily,Miranda,Jennifer","While I like the colors, I find nothing interesting or thought provoking about it.,10,80,20","It's like being out on a psychedelic lake,32,260,20","there isnt anything clear to look at,-2,260,20","Just a mess though a better mess than some others.,-11,40,20","Someone painted a landscape and decided they didn't like it so they covered it up.,13,320,20","Bright and colorful without being overpowering,32,380,20","Rachel","While I like the colors, I find nothing interesting or thought provoking about it.,10,80,20","Kimberly","It's like being out on a psychedelic lake,32,260,20","Sierra","there isnt anything clear to look at,-2,260,20","1"
"4198","","survey-text","226","1060910","0.0-223.0-0.0","A249EWKM1EOARK","","","","{""Q0"":""table""}","","","","","","","","","","","","","","","","","","","","","","",""
"10462","","survey-text","227","1071378","0.0-224.0-0.0","A249EWKM1EOARK","","","","{""Q0"":""A line of horses""}","","","","","","","","","","","","","","","","","","","","","","",""
"3097.2000000029802","","image-slider-response","228","1074483","0.0-225.0","A249EWKM1EOARK","","","","","11","","","","","","","","","","","","","","","","","","","","","",""
"2047","","image-button-response","229","1079486","0.0-226.0","A249EWKM1EOARK","img_art/23.jpg","0","","","","","","","","","","","","","","","","","","","","","","","","",""
"1843","","image-button-response","230","1081332","0.0-227.0","A249EWKM1EOARK","img_art/23.jpg","5","","","","","","","","","","","","","","","","","","","","","","","","",""
"2619","","image-button-response","231","1083953","0.0-228.0-0.0","A249EWKM1EOARK","img_art/23.jpg","3","","","","","","","","","","","","","","","","","","","","","","","","",""
"1028","","image-button-response","232","1084987","0.0-229.0-0.0","A249EWKM1EOARK","img_art/23.jpg","0","","","","","","","","","","","","","","","","","","","","","","","","",""
"null","","html-keyboard-response","233","1085991","0.0-230.0","A249EWKM1EOARK","<p style=""font-size: 48px;"">+</p>","","","","","null","allTrialResponses","1000","1","26","img_art/23.jpg","11","A line of horses","Rachel,Kimberly,Sierra,Anna,Andrea,Katelyn","Vivid colors and the white in the middle looks like people dancing.,31,80,20","Look at all the dancers,26,260,20","it makes me aggitated,-21,260,20","I love the colors and the contrast.,50,300,20","I see souls in torment and that makes me feel uneasy.,-21,240,20","Makes me want to stare at it for hours. Like there is something deeper to find.,37,100,20","Katelyn","Makes me want to stare at it for hours. Like there is something deeper to find.,37,100,20","Anna","I love the colors and the contrast.,50,300,20","Rachel","Vivid colors and the white in the middle looks like people dancing.,31,80,20","1"
"16140","","survey-text","234","1102154","0.0-231.0-0.0","A249EWKM1EOARK","","","","{""Q0"":""Looks like a castle""}","","","","","","","","","","","","","","","","","","","","","","",""
"5904","","image-slider-response","235","1108060","0.0-232.0","A249EWKM1EOARK","","","","","11","","","","","","","","","","","","","","","","","","","","","",""
"3065","","image-button-response","236","1113065","0.0-233.0","A249EWKM1EOARK","img_art/8.jpg","3","","","","","","","","","","","","","","","","","","","","","","","","",""
"835","","image-button-response","237","1113903","0.0-234.0","A249EWKM1EOARK","img_art/8.jpg","4","","","","","","","","","","","","","","","","","","","","","","","","",""
"1922","","image-button-response","238","1115830","0.0-235.0-0.0","A249EWKM1EOARK","img_art/8.jpg","5","","","","","","","","","","","","","","","","","","","","","","","","",""
"1299","","image-button-response","239","1117132","0.0-236.0-0.0","A249EWKM1EOARK","img_art/8.jpg","2","","","","","","","","","","","","","","","","","","","","","","","","",""
"null","","html-keyboard-response","240","1117635","0.0-237.0","A249EWKM1EOARK","<p style=""font-size: 48px;"">+</p>","","","","","null","allTrialResponses","500","1","27","img_art/8.jpg","11","Looks like a castle","Rachel,Crystal,Destiny,Anna,Bailey,Katelyn","I like all of the faces that can be found in this piece. Interesting.,35,80,20","i like the abstract nature of a birds eye view of the city. The hard shapes and squares present with a softness rather than rigidity.,26,300,20","a cute little cute with some protectors,25,360,20","The shapes and colors work well together.,40,300,20","Not a fan of abstract looking pieces with too many focal points. The tunnel and face, for example,-31,360,20","I like the definition and the strong lines. It makes me think of someone watching over the world,24,100,20","Bailey","Not a fan of abstract looking pieces with too many focal points. The tunnel and face, for example,-31,360,20","Katelyn","I like the definition and the strong lines. It makes me think of someone watching over the world,24,100,20","Destiny","a cute little cute with some protectors,25,360,20","1"
"8896","","survey-text","241","1126539","0.0-238.0-0.0","A249EWKM1EOARK","","","","{""Q0"":""Busy city""}","","","","","","","","","","","","","","","","","","","","","","",""
"18861.40000000596","","image-slider-response","242","1145402","0.0-239.0","A249EWKM1EOARK","","","","","-10","","","","","","","","","","","","","","","","","","","","","",""
"null","","image-button-response","243","1150406","0.0-240.0","A249EWKM1EOARK","img_art/11.jpg","null","","","","","","","","","","","","","","","","","","","","","","","","",""
"510","","image-button-response","244","1150921","0.0-241.0","A249EWKM1EOARK","img_art/11.jpg","2","","","","","","","","","","","","","","","","","","","","","","","","",""
"2833","","image-button-response","245","1153757","0.0-242.0-0.0","A249EWKM1EOARK","img_art/11.jpg","3","","","","","","","","","","","","","","","","","","","","","","","","",""
"1556","","image-button-response","246","1155317","0.0-243.0-0.0","A249EWKM1EOARK","img_art/11.jpg","5","","","","","","","","","","","","","","","","","","","","","","","","",""
"null","","html-keyboard-response","247","1156818","0.0-244.0","A249EWKM1EOARK","<p style=""font-size: 48px;"">+</p>","","","","","null","allTrialResponses","1500","1","28","img_art/11.jpg","-10","Busy city","Cassidy,Julia,Destiny,Paige,Bailey,Katelyn","Love the colors against the black and gray. The lines are calming.,22,140,20","this looks like a beautiful rainy day in a hellish urban mountain city,14,40,20","life is a highway,12,360,20","gave me a sense of gloom,-21,60,20","Kind of bizzare in that I can imagine ships or something from it.,11,360,20","I like the dark lines and it interests me,13,100,20","Destiny","life is a highway,12,360,20","Paige","gave me a sense of gloom,-21,60,20","Katelyn","I like the dark lines and it interests me,13,100,20","1"
"12195","","survey-text","248","1169022","0.0-245.0-0.0","A249EWKM1EOARK","","","","{""Q0"":""A childs painting""}","","","","","","","","","","","","","","","","","","","","","","",""
"4396.5","","image-slider-response","249","1173422","0.0-246.0","A249EWKM1EOARK","","","","","-34","","","","","","","","","","","","","","","","","","","","","",""
"3503","","image-button-response","250","1178430","0.0-247.0","A249EWKM1EOARK","img_art/30.jpg","1","","","","","","","","","","","","","","","","","","","","","","","","",""
"1166","","image-button-response","251","1179600","0.0-248.0","A249EWKM1EOARK","img_art/30.jpg","2","","","","","","","","","","","","","","","","","","","","","","","","",""
"1349","","image-button-response","252","1180952","0.0-249.0-0.0","A249EWKM1EOARK","img_art/30.jpg","1","","","","","","","","","","","","","","","","","","","","","","","","",""
"2004","","image-button-response","253","1182961","0.0-250.0-0.0","A249EWKM1EOARK","img_art/30.jpg","4","","","","","","","","","","","","","","","","","","","","","","","","",""
"null","","html-keyboard-response","254","1183964","0.0-251.0","A249EWKM1EOARK","<p style=""font-size: 48px;"">+</p>","","","","","null","allTrialResponses","1000","1","29","img_art/30.jpg","-34","A childs painting","Jenna,Christina,Destiny,Paige,Danielle,Katelyn","love the movement of the brush strokes. very interesting piece.,38,360,20","it looks like some thing I could make it my garage,-18,240,20","literally stupid I made this with as seen on tv products when I was 7,-42,360,20","Happy. Makes me think of childhood finger painting,49,60,20","It's okay. It should either have stuck to the grey-blue, or added more red. Seems unorganized (maybe that's the point?),-9,340,20","I do like the multi-dimensional aspect of this piece,10,100,20","Destiny","literally stupid I made this with as seen on tv products when I was 7,-42,360,20","Christina","it looks like some thing I could make it my garage,-18,240,20","Danielle","It's okay. It should either have stuck to the grey-blue, or added more red. Seems unorganized (maybe that's the point?),-9,340,20","1"
"9323","","survey-text","255","1193299","0.0-252.0-0.0","A249EWKM1EOARK","","","","{""Q0"":""Blotches of paint""}","","","","","","","","","","","","","","","","","","","","","","",""
"5614.5999999940395","","image-slider-response","256","1198918","0.0-253.0","A249EWKM1EOARK","","","","","-38","","","","","","","","","","","","","","","","","","","","","",""
"2843","","image-button-response","257","1203921","0.0-254.0","A249EWKM1EOARK","img_art/2.jpg","1","","","","","","","","","","","","","","","","","","","","","","","","",""
"2639","","image-button-response","258","1206563","0.0-255.0","A249EWKM1EOARK","img_art/2.jpg","4","","","","","","","","","","","","","","","","","","","","","","","","",""
"1491","","image-button-response","259","1208056","0.0-256.0-0.0","A249EWKM1EOARK","img_art/2.jpg","3","","","","","","","","","","","","","","","","","","","","","","","","",""
"1338","","image-button-response","260","1209397","0.0-257.0-0.0","A249EWKM1EOARK","img_art/2.jpg","1","","","","","","","","","","","","","","","","","","","","","","","","",""
"null","","html-keyboard-response","261","1210400","0.0-258.0","A249EWKM1EOARK","<p style=""font-size: 48px;"">+</p>","","","","","null","allTrialResponses","1000","1","30","img_art/2.jpg","-38","Blotches of paint","Vanessa,Christina,Destiny,Madeline,Danielle,Ashley","I don't like the abstract nature of this painting or the colors used.,-50,380,20","It looks like a little kids primary color picture,3,240,20","omg she's so cute look at that little smile those eyelashes ugh love it,30,360,20","I don't really like this style,-5,40,20","Not a fan of this style,-30,340,20","I think I can make out a face in there.,25,320,20","Danielle","Not a fan of this style,-30,340,20","Madeline","I don't really like this style,-5,40,20","Christina","It looks like a little kids primary color picture,3,240,20","1"
"2727","","image-button-response_instructions","262","1213135","0.0-259.0","A249EWKM1EOARK","","0","instructions","","","","","","","","","","","","","","","","","","","","","","","",""
"1910","","image-button-response","263","1215054","0.0-260.0","A249EWKM1EOARK","","0","","","","","","","","","","","","","","","","","","","","","","","","",""
