"rt","url","trial_type","trial_index","time_elapsed","internal_node_id","participant_id","stimulus","button_pressed","Name","responses","response","key_press","variableName","fixationTime","condition","trial","photo","subjectRating","subjectResponse","agentsNames","agent_1_Response","agent_2_Response","agent_3_Response","agent_4_Response","agent_5_Response","agent_6_Response","kept_1_name","kept_1_response","kept_2_name","kept_2_response","kept_3_name","kept_3_response","errorCounter"
"80829","external_page_harvard.html","external-html","0","80905","0.0-0.0","A24FAL69IKL8RA","","","","","","","","","","","","","","","","","","","","","","","","","","",""
"1909","","image-button-response","1","82815","0.0-1.0","A24FAL69IKL8RA","","1","","","","","","","","","","","","","","","","","","","","","","","","",""
"2244","","image-button-response","2","85063","0.0-2.0-0.0","A24FAL69IKL8RA","","1","phone","","","","","","","","","","","","","","","","","","","","","","","",""
"12967","","survey-text","3","98032","0.0-3.0-0.0","A24FAL69IKL8RA","","","","{""Q0"":""A24FAL69IKL8RA""}","","","","","","","","","","","","","","","","","","","","","","",""
"8021","","image-button-response_instructions","4","106055","0.0-4.0","A24FAL69IKL8RA","","0","instructions","","","","","","","","","","","","","","","","","","","","","","","",""
"24151","","image-button-response_instructions","5","130207","0.0-5.0","A24FAL69IKL8RA","img_art/ins/popularity/ins1.png","0","instructions","","","","","","","","","","","","","","","","","","","","","","","",""
"9934","","image-button-response_instructions","6","140143","0.0-6.0","A24FAL69IKL8RA","img_art/ins/popularity/ins2.png","0","instructions","","","","","","","","","","","","","","","","","","","","","","","",""
"7278","","image-button-response_instructions","7","147423","0.0-7.0","A24FAL69IKL8RA","img_art/ins/popularity/ins2Extreme.png","0","instructions","","","","","","","","","","","","","","","","","","","","","","","",""
"21431","","image-button-response_instructions","8","168855","0.0-8.0","A24FAL69IKL8RA","img_art/ins/popularity/ins3KEEPpop.PNG","0","instructions","","","","","","","","","","","","","","","","","","","","","","","",""
"5358","","image-button-response_instructions","9","174215","0.0-9.0","A24FAL69IKL8RA","img_art/ins/popularity/ins3ANamepop.PNG","0","instructions","","","","","","","","","","","","","","","","","","","","","","","",""
"3806","","image-button-response_instructions","10","178023","0.0-10.0","A24FAL69IKL8RA","img_art/ins/popularity/ins3ARatingpop.png","0","instructions","","","","","","","","","","","","","","","","","","","","","","","",""
"3671","","image-button-response_instructions","11","181695","0.0-11.0","A24FAL69IKL8RA","img_art/ins/popularity/ins3ATextpop.png","0","instructions","","","","","","","","","","","","","","","","","","","","","","","",""
"4752","","image-button-response_instructions","12","186447","0.0-12.0","A24FAL69IKL8RA","img_art/ins/popularity/ins3ALikespop.png","0","instructions","","","","","","","","","","","","","","","","","","","","","","","",""
"14190","","image-button-response_instructions","13","200639","0.0-13.0","A24FAL69IKL8RA","img_art/ins/popularity/ins3KEEPpop.PNG","0","instructions","","","","","","","","","","","","","","","","","","","","","","","",""
"29847","","image-button-response_instructions","14","230487","0.0-14.0","A24FAL69IKL8RA","img_art/ins/popularity/ins3_5RED.png","0","instructions","","","","","","","","","","","","","","","","","","","","","","","",""
"11166","","image-button-response_instructions","15","241655","0.0-15.0","A24FAL69IKL8RA","img_art/ins/popularity/ins3KEEPpop.PNG","0","instructions","","","","","","","","","","","","","","","","","","","","","","","",""
"16975","","image-button-response_instructions","16","258631","0.0-16.0","A24FAL69IKL8RA","img_art/ins/popularity/ins4KEEPpop.PNG","0","instructions","","","","","","","","","","","","","","","","","","","","","","","",""
"8439","","image-button-response_instructions","17","267071","0.0-17.0","A24FAL69IKL8RA","img_art/ins/popularity/ins5KEEPpop.PNG","0","instructions","","","","","","","","","","","","","","","","","","","","","","","",""
"3271","","image-button-response_instructions","18","270343","0.0-18.0","A24FAL69IKL8RA","","0","instructions","","","","","","","","","","","","","","","","","","","","","","","",""
"13729","","survey-text","19","284087","0.0-19.0-0.0","A24FAL69IKL8RA","","","","{""Q0"":""but""}","","","","","","","","","","","","","","","","","","","","","","",""
"53383","","survey-text","20","337471","0.0-20.0-0.0","A24FAL69IKL8RA","","","","{""Q0"":""soothing, the blue and the red create a wave effect""}","","","","","","","","","","","","","","","","","","","","","","",""
"14829.800000011921","","image-slider-response","21","352304","0.0-21.0","A24FAL69IKL8RA","","","","","19","","","","","","","","","","","","","","","","","","","","","",""
"null","","image-button-response","22","357307","0.0-22.0","A24FAL69IKL8RA","img_art/ins/1.jpg","null","","","","","","","","","","","","","","","","","","","","","","","","",""
"6777","","image-button-response","23","364087","0.0-23.0","A24FAL69IKL8RA","img_art/ins/1.jpg","4","","","","","","","","","","","","","","","","","","","","","","","","",""
"2093","","image-button-response","24","366183","0.0-24.0-0.0","A24FAL69IKL8RA","img_art/ins/1.jpg","5","","","","","","","","","","","","","","","","","","","","","","","","",""
"6102","","image-button-response","25","372287","0.0-25.0-0.0","A24FAL69IKL8RA","img_art/ins/1.jpg","0","","","","","","","","","","","","","","","","","","","","","","","","",""
"null","","html-keyboard-response","26","373289","0.0-26.0","A24FAL69IKL8RA","<p style=""font-size: 48px;"">+</p>","","","","","null","allTrialResponses","1000","1","-2","img_art/ins/1.jpg","19","soothing, the blue and the red create a wave effect","Allison,Ashley,Beth,Dora,Erika,Jen","looks like a lot of things going on in the mist,20,20,20","I just don't get why these type of art would be popular,-32,40,20","This color reminds me of poo,-46,60,20","looks like what my niece in 3rd grade did this afternoon,-50,80,20","I like the sophisticated brushwork,40,100,20","It reminds me of a candy land dream I had,36,120,20","Erika","I like the sophisticated brushwork,40,100,20","Jen","It reminds me of a candy land dream I had,36,120,20","Allison","looks like a lot of things going on in the mist,20,20,20","0"
"28505","","survey-text","27","401798","0.0-27.0-0.0","A24FAL69IKL8RA","","","","{""Q0"":""looks like a danger sign""}","","","","","","","","","","","","","","","","","","","","","","",""
"10094.40000000596","","image-slider-response","28","411895","0.0-28.0","A24FAL69IKL8RA","","","","","19","","","","","","","","","","","","","","","","","","","","","",""
"null","","image-button-response","29","416899","0.0-29.0","A24FAL69IKL8RA","img_art/ins/2.jpg","null","","","","","","","","","","","","","","","","","","","","","","","","",""
"3866","","image-button-response","30","420767","0.0-30.0","A24FAL69IKL8RA","img_art/ins/2.jpg","0","","","","","","","","","","","","","","","","","","","","","","","","",""
"3446","","image-button-response","31","424215","0.0-31.0-0.0","A24FAL69IKL8RA","img_art/ins/2.jpg","1","","","","","","","","","","","","","","","","","","","","","","","","",""
"3077","","image-button-response","32","427295","0.0-32.0-0.0","A24FAL69IKL8RA","img_art/ins/2.jpg","0","","","","","","","","","","","","","","","","","","","","","","","","",""
"8287","","image-button-response","33","443391","0.0-32.1-0.1","A24FAL69IKL8RA","img_art/ins/2.jpg","5","","","","","","","","","","","","","","","","","","","","","","","","",""
"null","","html-keyboard-response","34","444392","0.0-33.0","A24FAL69IKL8RA","<p style=""font-size: 48px;"">+</p>","","","","","null","allTrialResponses","1000","1","-1","img_art/ins/2.jpg","19","looks like a danger sign","Allison,Kara,Katie,Jenna,Erika,Jen","I don't have strong feelings about this,10,20,20","I like the blocks of color arrangements,30,160,20","too much color!,-28,180,20","One of my pet peevs,-48,140,20","I would never be able to compose a sophisticated pallete like this,48,100,20","It reminds me of a fireplace,36,120,20","Allison","I don't have strong feelings about this,10,20,20","Kara","I like the blocks of color arrangements,30,160,20","Jen","It reminds me of a fireplace,36,120,20","2"
"30834","","survey-text","35","475231","0.0-34.0-0.0","A24FAL69IKL8RA","","","","{""Q0"":""feels like ice, but not in a bad way""}","","","","","","","","","","","","","","","","","","","","","","",""
"11149.59999999404","","image-slider-response","36","486382","0.0-35.0","A24FAL69IKL8RA","","","","","33","","","","","","","","","","","","","","","","","","","","","",""
"4278","","image-button-response","37","491385","0.0-36.0","A24FAL69IKL8RA","img_art/ins/3.jpg","0","","","","","","","","","","","","","","","","","","","","","","","","",""
"6083","","image-button-response","38","497471","0.0-37.0","A24FAL69IKL8RA","img_art/ins/3.jpg","4","","","","","","","","","","","","","","","","","","","","","","","","",""
"2869","","image-button-response","39","500343","0.0-38.0-0.0","A24FAL69IKL8RA","img_art/ins/3.jpg","1","","","","","","","","","","","","","","","","","","","","","","","","",""
"16894","","image-button-response","40","517238","0.0-39.0-0.0","A24FAL69IKL8RA","img_art/ins/3.jpg","0","","","","","","","","","","","","","","","","","","","","","","","","",""
"null","","html-keyboard-response","41","518747","0.0-40.0","A24FAL69IKL8RA","<p style=""font-size: 48px;"">+</p>","","","","","null","allTrialResponses","1500","1","0","img_art/ins/3.jpg","33","feels like ice, but not in a bad way","Allison,Kara,Rose,Leslie,Mary,Jen","enjoy the different shades of blue,22,20,20","calming blue is very nice,36,160,20","My daily routine, it's depressing,-20,240,20","It's an alright work,15,200,20","I like the overlapping of brushes,41,220,20","I can feel a rainy day from this painting,18,120,20","Mary","I like the overlapping of brushes,41,220,20","Kara","calming blue is very nice,36,160,20","Allison","enjoy the different shades of blue,22,20,20","2"
"11437","","image-button-response_instructions","42","530190","0.0-41.0","A24FAL69IKL8RA","","0","instructions","","","","","","","","","","","","","","","","","","","","","","","",""
"18991","","survey-likert","43","549183","0.0-42.0-0.0","A24FAL69IKL8RA","","","","{""Q0"":"""",""Q1"":0,""Q2"":1}","","","","","","","","","","","","","","","","","","","","","","",""
"11715","","survey-text","44","560902","0.0-43.0-0.0","A24FAL69IKL8RA","","","","{""Q0"":""rock""}","","","","","","","","","","","","","","","","","","","","","","",""
"31592","","survey-text","45","592495","0.0-44.0-0.0","A24FAL69IKL8RA","","","","{""Q0"":""looks like acne scarred skin""}","","","","","","","","","","","","","","","","","","","","","","",""
"8861.300000011921","","image-slider-response","46","601358","0.0-45.0","A24FAL69IKL8RA","","","","","-46","","","","","","","","","","","","","","","","","","","","","",""
"null","","image-button-response","47","606376","0.0-46.0","A24FAL69IKL8RA","img_art/7.jpg","null","","","","","","","","","","","","","","","","","","","","","","","","",""
"2869","","image-button-response","48","609247","0.0-47.0","A24FAL69IKL8RA","img_art/7.jpg","2","","","","","","","","","","","","","","","","","","","","","","","","",""
"4534","","image-button-response","49","613783","0.0-48.0-0.0","A24FAL69IKL8RA","img_art/7.jpg","4","","","","","","","","","","","","","","","","","","","","","","","","",""
"4110","","image-button-response","50","617894","0.0-49.0-0.0","A24FAL69IKL8RA","img_art/7.jpg","0","","","","","","","","","","","","","","","","","","","","","","","","",""
"null","","html-keyboard-response","51","618908","0.0-50.0","A24FAL69IKL8RA","<p style=""font-size: 48px;"">+</p>","","","","","null","allTrialResponses","1000","1","1","img_art/7.jpg","-46","looks like acne scarred skin","Kaitlyn,Tiffany,Lindsey,Gabriela,Kimberly,Melissa","Boring  and lacks color,-11,80,20","I feel relaxed and a little nostalgic, like I'm exploring the wall of a very old building.,18,360,20","It's dirty. I don't mind the colors so much as the way they are put together in this dirty-looking pattern.,-41,400,20","it looks like an ant farm,12,140,20","Looks like a bad picture of a beach,-21,260,20","textures are engaging,8,240,20","Lindsey","It's dirty. I don't mind the colors so much as the way they are put together in this dirty-looking pattern.,-41,400,20","Kimberly","Looks like a bad picture of a beach,-21,260,20","Kaitlyn","Boring  and lacks color,-11,80,20","2"
"94965","","survey-text","52","713879","0.0-51.0-0.0","A24FAL69IKL8RA","","","","{""Q0"":""feels like a date night at a jazz bar""}","","","","","","","","","","","","","","","","","","","","","","",""
"6069.800000011921","","image-slider-response","53","719951","0.0-52.0","A24FAL69IKL8RA","","","","","50","","","","","","","","","","","","","","","","","","","","","",""
"null","","image-button-response","54","724954","0.0-53.0","A24FAL69IKL8RA","img_art/1.jpg","null","","","","","","","","","","","","","","","","","","","","","","","","",""
"4130","","image-button-response","55","729087","0.0-54.0","A24FAL69IKL8RA","img_art/1.jpg","4","","","","","","","","","","","","","","","","","","","","","","","","",""
"3214","","image-button-response","56","732303","0.0-55.0-0.0","A24FAL69IKL8RA","img_art/1.jpg","0","","","","","","","","","","","","","","","","","","","","","","","","",""
"7030","","image-button-response","57","739335","0.0-56.0-0.0","A24FAL69IKL8RA","img_art/1.jpg","3","","","","","","","","","","","","","","","","","","","","","","","","",""
"null","","html-keyboard-response","58","739837","0.0-57.0","A24FAL69IKL8RA","<p style=""font-size: 48px;"">+</p>","","","","","null","allTrialResponses","500","1","2","img_art/1.jpg","50","feels like a date night at a jazz bar","Kaitlyn,Destiny,Lindsey,Ashley,Kimberly,Allison","Interesting blend of colors,9,80,20","looks like an earlier painting. I wish I gave it -20 but oh well,21,360,20","Not a fan of the colors. Makes me think of the Australian bush fires.,-5,400,20","More passable, colorful, abstract.,13,320,20","It's like being out on a psychedelic lake,32,260,20","Messy mix of primary colors.,-10,140,20","Kimberly","It's like being out on a psychedelic lake,32,260,20","Kaitlyn","Interesting blend of colors,9,80,20","Ashley","More passable, colorful, abstract.,13,320,20","2"
"51493","","survey-text","59","791334","0.0-58.0-0.0","A24FAL69IKL8RA","","","","{""Q0"":""angry tears and confusion""}","","","","","","","","","","","","","","","","","","","","","","",""
"15006","","image-slider-response","60","806342","0.0-59.0","A24FAL69IKL8RA","","","","","9","","","","","","","","","","","","","","","","","","","","","",""
"null","","image-button-response","61","811350","0.0-60.0","A24FAL69IKL8RA","img_art/3.jpg","null","","","","","","","","","","","","","","","","","","","","","","","","",""
"9061","","image-button-response","62","820414","0.0-61.0","A24FAL69IKL8RA","img_art/3.jpg","4","","","","","","","","","","","","","","","","","","","","","","","","",""
"5006","","image-button-response","63","825423","0.0-62.0-0.0","A24FAL69IKL8RA","img_art/3.jpg","3","","","","","","","","","","","","","","","","","","","","","","","","",""
"12614","","image-button-response","64","838039","0.0-63.0-0.0","A24FAL69IKL8RA","img_art/3.jpg","0","","","","","","","","","","","","","","","","","","","","","","","","",""
"null","","html-keyboard-response","65","839041","0.0-64.0","A24FAL69IKL8RA","<p style=""font-size: 48px;"">+</p>","","","","","null","allTrialResponses","1000","1","3","img_art/3.jpg","9","angry tears and confusion","Kaitlyn,Brittany,Cassandra,Ashley,Kimberly,Alexa","Too much red; very bland,-26,80,20","I don't care for art that looks like it was just scribbled.,-19,40,20","I hate this...just a scribble of red.,-50,120,20","Reminds of John Lenonn's art a bit.,27,320,20","I like that it feels kind of simple but still chaotic,6,260,20","Looks messy and too much for my eyes,-35,40,20","Kimberly","I like that it feels kind of simple but still chaotic,6,260,20","Ashley","Reminds of John Lenonn's art a bit.,27,320,20","Kaitlyn","Too much red; very bland,-26,80,20","2"
"33433","","survey-text","66","872479","0.0-65.0-0.0","A24FAL69IKL8RA","","","","{""Q0"":""saturday morning cartoons, delightful""}","","","","","","","","","","","","","","","","","","","","","","",""
"9126.200000017881","","image-slider-response","67","881607","0.0-66.0","A24FAL69IKL8RA","","","","","50","","","","","","","","","","","","","","","","","","","","","",""
"4229","","image-button-response","68","886624","0.0-67.0","A24FAL69IKL8RA","img_art/2.jpg","3","","","","","","","","","","","","","","","","","","","","","","","","",""
"1668","","image-button-response","69","888295","0.0-68.0","A24FAL69IKL8RA","img_art/2.jpg","3","","","","","","","","","","","","","","","","","","","","","","","","",""
"5702","","image-button-response","70","893999","0.0-69.0-0.0","A24FAL69IKL8RA","img_art/2.jpg","4","","","","","","","","","","","","","","","","","","","","","","","","",""
"7029","","image-button-response","71","901031","0.0-70.0-0.0","A24FAL69IKL8RA","img_art/2.jpg","2","","","","","","","","","","","","","","","","","","","","","","","","",""
"null","","html-keyboard-response","72","902041","0.0-71.0","A24FAL69IKL8RA","<p style=""font-size: 48px;"">+</p>","","","","","null","allTrialResponses","1000","1","4","img_art/2.jpg","50","saturday morning cartoons, delightful","Kaitlyn,Caitlin,Nicole,Ashley,Kimberly,Maria","Too jumbled and disorienting,-13,80,20","Have now advanced from kindergarten to the first grade.,-5,80,20","It's a cool piece but honestly these color choices are the worst thing in the world,-31,20,20","I think I can make out a face in there.,25,320,20","I like the green,13,260,20","again, I struggle to see the art and I dislike the green in particular.,-31,120,20","Ashley","I think I can make out a face in there.,25,320,20","Kimberly","I like the green,13,260,20","Nicole","It's a cool piece but honestly these color choices are the worst thing in the world,-31,20,20","2"
"86823","","survey-text","73","988869","0.0-72.0-0.0","A24FAL69IKL8RA","","","","{""Q0"":""greek countryside""}","","","","","","","","","","","","","","","","","","","","","","",""
"7727.0999999940395","","image-slider-response","74","996598","0.0-73.0","A24FAL69IKL8RA","","","","","50","","","","","","","","","","","","","","","","","","","","","",""
"3430","","image-button-response","75","1001600","0.0-74.0","A24FAL69IKL8RA","img_art/8.jpg","0","","","","","","","","","","","","","","","","","","","","","","","","",""
"1939","","image-button-response","76","1003542","0.0-75.0","A24FAL69IKL8RA","img_art/8.jpg","0","","","","","","","","","","","","","","","","","","","","","","","","",""
"10990","","image-button-response","77","1014534","0.0-76.0-0.0","A24FAL69IKL8RA","img_art/8.jpg","2","","","","","","","","","","","","","","","","","","","","","","","","",""
"3381","","image-button-response","78","1017918","0.0-77.0-0.0","A24FAL69IKL8RA","img_art/8.jpg","1","","","","","","","","","","","","","","","","","","","","","","","","",""
"null","","html-keyboard-response","79","1019420","0.0-78.0","A24FAL69IKL8RA","<p style=""font-size: 48px;"">+</p>","","","","","null","allTrialResponses","1500","1","5","img_art/8.jpg","50","greek countryside","Sydney,Alexandria,Nicole,Ashley,Kimberly,Cassidy","I love the colors in this piece.,25,320,20","It is very colorful with a deeper meaning,25,80,20","It's very grand and ominous but I like it,25,20,20","Escher? Dali? Could be their lovechild?,50,320,20","Feels very 90's but I like the doorway,15,260,20","I like the colors,10,140,20","Sydney","I love the colors in this piece.,25,320,20","Nicole","It's very grand and ominous but I like it,25,20,20","Alexandria","It is very colorful with a deeper meaning,25,80,20","2"
"9881","","survey-text","80","1029310","0.0-79.0-0.0","A24FAL69IKL8RA","","","","{""Q0"":""sky""}","","","","","","","","","","","","","","","","","","","","","","",""
"39551","","survey-text","81","1068862","0.0-80.0-0.0","A24FAL69IKL8RA","","","","{""Q0"":""looks like someone riding a hornet in a storm, creepy""}","","","","","","","","","","","","","","","","","","","","","","",""
"9166.09999999404","","image-slider-response","82","1078030","0.0-81.0","A24FAL69IKL8RA","","","","","22","","","","","","","","","","","","","","","","","","","","","",""
"null","","image-button-response","83","1083033","0.0-82.0","A24FAL69IKL8RA","img_art/18.jpg","null","","","","","","","","","","","","","","","","","","","","","","","","",""
"5723","","image-button-response","84","1088758","0.0-83.0","A24FAL69IKL8RA","img_art/18.jpg","2","","","","","","","","","","","","","","","","","","","","","","","","",""
"5703","","image-button-response","85","1094462","0.0-84.0-0.0","A24FAL69IKL8RA","img_art/18.jpg","1","","","","","","","","","","","","","","","","","","","","","","","","",""
"3957","","image-button-response","86","1098422","0.0-85.0-0.0","A24FAL69IKL8RA","img_art/18.jpg","0","","","","","","","","","","","","","","","","","","","","","","","","",""
"null","","html-keyboard-response","87","1098928","0.0-86.0","A24FAL69IKL8RA","<p style=""font-size: 48px;"">+</p>","","","","","null","allTrialResponses","500","1","6","img_art/18.jpg","22","looks like someone riding a hornet in a storm, creepy","Sydney,Alexandria,Nicole,Mikayla,Monica,Shelby","I like the colors being used, but I don't like the chaos in the middle of it.,20,320,20","the harsh lines with the smooth lines makes me think of wild animals,20,80,20","There's danger in this painting and it's awesome,40,20,20","Kinda boring. Not my favorite,-34,300,20","It doesn't look like much, the colors are dark and it doesn't really make me feel anything.,-2,360,20","This gives a very ominous feeling,-30,240,20","Nicole","There's danger in this painting and it's awesome,40,20,20","Alexandria","the harsh lines with the smooth lines makes me think of wild animals,20,80,20","Sydney","I like the colors being used, but I don't like the chaos in the middle of it.,20,320,20","2"
"36234","","survey-text","88","1135166","0.0-87.0-0.0","A24FAL69IKL8RA","","","","{""Q0"":""thunderstorm, scary but intriguing""}","","","","","","","","","","","","","","","","","","","","","","",""
"5670.0999999940395","","image-slider-response","89","1140838","0.0-88.0","A24FAL69IKL8RA","","","","","50","","","","","","","","","","","","","","","","","","","","","",""
"null","","image-button-response","90","1145849","0.0-89.0","A24FAL69IKL8RA","img_art/13.jpg","null","","","","","","","","","","","","","","","","","","","","","","","","",""
"19506","","image-button-response","91","1165358","0.0-90.0","A24FAL69IKL8RA","img_art/13.jpg","1","","","","","","","","","","","","","","","","","","","","","","","","",""
"2894","","image-button-response","92","1168254","0.0-91.0-0.0","A24FAL69IKL8RA","img_art/13.jpg","0","","","","","","","","","","","","","","","","","","","","","","","","",""
"10311","","image-button-response","93","1178567","0.0-92.0-0.0","A24FAL69IKL8RA","img_art/13.jpg","2","","","","","","","","","","","","","","","","","","","","","","","","",""
"null","","html-keyboard-response","94","1179074","0.0-93.0","A24FAL69IKL8RA","<p style=""font-size: 48px;"">+</p>","","","","","null","allTrialResponses","500","1","7","img_art/13.jpg","50","thunderstorm, scary but intriguing","Sydney,Alexandria,Nicole,Julia,Olivia,Danielle","I love the style of this piece, but the color choice could've been more eye catching or calming.,40,320,20","the monochrome of blue with splatters makes me excited and happy,36,80,20","It's pretty basic but it makes me feel like I'm looking at the ocean,30,20,20","I don't really care for splatter paintings; the spectral colors underneath are nice.,-18,40,20","eighties here we come,7,40,20","While it is a bit basic and doesn't speak to me much, I like the feeling it gives,40,340,20","Alexandria","the monochrome of blue with splatters makes me excited and happy,36,80,20","Sydney","I love the style of this piece, but the color choice could've been more eye catching or calming.,40,320,20","Nicole","It's pretty basic but it makes me feel like I'm looking at the ocean,30,20,20","2"
"68256","","survey-text","95","1247334","0.0-94.0-0.0","A24FAL69IKL8RA","","","","{""Q0"":""harsh but still has soft grandeur at the same time""}","","","","","","","","","","","","","","","","","","","","","","",""
"6350.199999988079","","image-slider-response","96","1253686","0.0-95.0","A24FAL69IKL8RA","","","","","50","","","","","","","","","","","","","","","","","","","","","",""
"null","","image-button-response","97","1258694","0.0-96.0","A24FAL69IKL8RA","img_art/17.jpg","null","","","","","","","","","","","","","","","","","","","","","","","","",""
"2733","","image-button-response","98","1261431","0.0-97.0","A24FAL69IKL8RA","img_art/17.jpg","5","","","","","","","","","","","","","","","","","","","","","","","","",""
"3686","","image-button-response","99","1265119","0.0-98.0-0.0","A24FAL69IKL8RA","img_art/17.jpg","1","","","","","","","","","","","","","","","","","","","","","","","","",""
"2500","","image-button-response","100","1267622","0.0-99.0-0.0","A24FAL69IKL8RA","img_art/17.jpg","0","","","","","","","","","","","","","","","","","","","","","","","","",""
"null","","html-keyboard-response","101","1268126","0.0-100.0","A24FAL69IKL8RA","<p style=""font-size: 48px;"">+</p>","","","","","null","allTrialResponses","500","1","8","img_art/17.jpg","50","harsh but still has soft grandeur at the same time","Sydney,Alexandria,Nicole,Alexis,Meghan,Mary","This picture is calming to me, and I love the colors.,45,320,20","it looks very intricate and colorful,50,80,20","Feels nostalgic somehow,31,20,20","Love the color and nature motif,36,100,20","pretty bland in coloring,1,220,20","The colors are nice and soft but not very complimentary.,7,180,20","Mary","The colors are nice and soft but not very complimentary.,7,180,20","Alexandria","it looks very intricate and colorful,50,80,20","Sydney","This picture is calming to me, and I love the colors.,45,320,20","2"
"56741","","survey-text","102","1324870","0.0-101.0-0.0","A24FAL69IKL8RA","","","","{""Q0"":""looks like an architect's rendering of a cottage""}","","","","","","","","","","","","","","","","","","","","","","",""
"6205.799999982119","","image-slider-response","103","1331078","0.0-102.0","A24FAL69IKL8RA","","","","","41","","","","","","","","","","","","","","","","","","","","","",""
"null","","image-button-response","104","1336086","0.0-103.0","A24FAL69IKL8RA","img_art/26.jpg","null","","","","","","","","","","","","","","","","","","","","","","","","",""
"4879","","image-button-response","105","1340967","0.0-104.0","A24FAL69IKL8RA","img_art/26.jpg","1","","","","","","","","","","","","","","","","","","","","","","","","",""
"4070","","image-button-response","106","1345038","0.0-105.0-0.0","A24FAL69IKL8RA","img_art/26.jpg","3","","","","","","","","","","","","","","","","","","","","","","","","",""
"7005","","image-button-response","107","1352046","0.0-106.0-0.0","A24FAL69IKL8RA","img_art/26.jpg","0","","","","","","","","","","","","","","","","","","","","","","","","",""
"null","","html-keyboard-response","108","1353048","0.0-107.0","A24FAL69IKL8RA","<p style=""font-size: 48px;"">+</p>","","","","","null","allTrialResponses","1000","1","9","img_art/26.jpg","41","looks like an architect's rendering of a cottage","Sydney,Alexandria,Jessica,Kaylee,Hailey,Mary","I wish there was more detail, but I really like this simple piece.,35,320,20","makes me happy and reminds me of a paris courtyard,29,80,20","It doesn't look so vibrant, I'm not sure what feelings they were trying to capture,-41,400,20","cool cozy town vibes,50,200,20","bedroom in the outdoors. warm,9,200,20","I can tell it's some sort of outdoor scene. It looks very amateurish.,-9,180,20","Alexandria","makes me happy and reminds me of a paris courtyard,29,80,20","Kaylee","cool cozy town vibes,50,200,20","Sydney","I wish there was more detail, but I really like this simple piece.,35,320,20","2"
"75347","","survey-text","109","1428398","0.0-108.0-0.0","A24FAL69IKL8RA","","","","{""Q0"":""desolation, the beginning of a horror movie""}","","","","","","","","","","","","","","","","","","","","","","",""
"7733.699999988079","","image-slider-response","110","1436134","0.0-109.0","A24FAL69IKL8RA","","","","","-25","","","","","","","","","","","","","","","","","","","","","",""
"null","","image-button-response","111","1441151","0.0-110.0","A24FAL69IKL8RA","img_art/6.jpg","null","","","","","","","","","","","","","","","","","","","","","","","","",""
"7500","","image-button-response","112","1448654","0.0-111.0","A24FAL69IKL8RA","img_art/6.jpg","5","","","","","","","","","","","","","","","","","","","","","","","","",""
"2166","","image-button-response","113","1450823","0.0-112.0-0.0","A24FAL69IKL8RA","img_art/6.jpg","2","","","","","","","","","","","","","","","","","","","","","","","","",""
"3109","","image-button-response","114","1453934","0.0-113.0-0.0","A24FAL69IKL8RA","img_art/6.jpg","0","","","","","","","","","","","","","","","","","","","","","","","","",""
"null","","html-keyboard-response","115","1455440","0.0-114.0","A24FAL69IKL8RA","<p style=""font-size: 48px;"">+</p>","","","","","null","allTrialResponses","1500","1","10","img_art/6.jpg","-25","desolation, the beginning of a horror movie","Sydney,Alexandria,Angelica,Kaylee,Brianna,Brooke","This piece reminds me of the lorax.,5,320,20","i like it but it is very neutral,9,80,20","It feels sad but it's nice to look at.,4,280,20","just an another tree on a desert?,9,200,20","Nice desert scene,10,20,20","Kind of neat, but then that's a weird looking bird. too weird.,0,60,20","Brooke","Kind of neat, but then that's a weird looking bird. too weird.,0,60,20","Angelica","It feels sad but it's nice to look at.,4,280,20","Sydney","This piece reminds me of the lorax.,5,320,20","2"
"6126","","survey-text","116","1461574","0.0-115.0-0.0","A24FAL69IKL8RA","","","","{""Q0"":""our""}","","","","","","","","","","","","","","","","","","","","","","",""
"41887","","survey-text","117","1503462","0.0-116.0-0.0","A24FAL69IKL8RA","","","","{""Q0"":""looks like lips that have been stitched closed""}","","","","","","","","","","","","","","","","","","","","","","",""
"7990.0999999940395","","image-slider-response","118","1511454","0.0-117.0","A24FAL69IKL8RA","","","","","9","","","","","","","","","","","","","","","","","","","","","",""
"null","","image-button-response","119","1516457","0.0-118.0","A24FAL69IKL8RA","img_art/23.jpg","null","","","","","","","","","","","","","","","","","","","","","","","","",""
"6411","","image-button-response","120","1522870","0.0-119.0","A24FAL69IKL8RA","img_art/23.jpg","0","","","","","","","","","","","","","","","","","","","","","","","","",""
"8454","","image-button-response","121","1531326","0.0-120.0-0.0","A24FAL69IKL8RA","img_art/23.jpg","4","","","","","","","","","","","","","","","","","","","","","","","","",""
"8079","","image-button-response","122","1539407","0.0-121.0-0.0","A24FAL69IKL8RA","img_art/23.jpg","2","","","","","","","","","","","","","","","","","","","","","","","","",""
"null","","html-keyboard-response","123","1539908","0.0-122.0","A24FAL69IKL8RA","<p style=""font-size: 48px;"">+</p>","","","","","null","allTrialResponses","500","1","11","img_art/23.jpg","9","looks like lips that have been stitched closed","Sydney,Courtney,Angelica,Jenna,Jennifer,Brooke","The piece seems chaotic, and I dislike the random pop of white within so many colors.,-10,320,20","Looks like fish fossils,12,280,20","This looks like hotel room art, it's ugly and odd.,-2,280,20","awesome colors. love the white drawing the eye to the center. oddly comforting.,50,360,20","The cluster of white silhouettes against the colorful background makes me feel uneasy for some reason,-36,380,20","looks like those paper chain things.,0,60,20","Sydney","The piece seems chaotic, and I dislike the random pop of white within so many colors.,-10,320,20","Jennifer","The cluster of white silhouettes against the colorful background makes me feel uneasy for some reason,-36,380,20","Angelica","This looks like hotel room art, it's ugly and odd.,-2,280,20","2"
"45157","","survey-text","124","1585070","0.0-123.0-0.0","A24FAL69IKL8RA","","","","{""Q0"":""serpents coming out of the sea""}","","","","","","","","","","","","","","","","","","","","","","",""
"8350.199999988079","","image-slider-response","125","1593422","0.0-124.0","A24FAL69IKL8RA","","","","","22","","","","","","","","","","","","","","","","","","","","","",""
"null","","image-button-response","126","1598426","0.0-125.0","A24FAL69IKL8RA","img_art/30.jpg","null","","","","","","","","","","","","","","","","","","","","","","","","",""
"3619","","image-button-response","127","1602047","0.0-126.0","A24FAL69IKL8RA","img_art/30.jpg","3","","","","","","","","","","","","","","","","","","","","","","","","",""
"3662","","image-button-response","128","1605711","0.0-127.0-0.0","A24FAL69IKL8RA","img_art/30.jpg","0","","","","","","","","","","","","","","","","","","","","","","","","",""
"9278","","image-button-response","129","1614991","0.0-128.0-0.0","A24FAL69IKL8RA","img_art/30.jpg","1","","","","","","","","","","","","","","","","","","","","","","","","",""
"null","","html-keyboard-response","130","1615499","0.0-129.0","A24FAL69IKL8RA","<p style=""font-size: 48px;"">+</p>","","","","","null","allTrialResponses","500","1","12","img_art/30.jpg","22","serpents coming out of the sea","Sydney,Michaela,Angelica,Amber,Jennifer,Erica","I love the colors, the style, and the uniqueness in this piece. I love everything.,50,320,20","My son made me a painting that looked like this,26,260,20","This is just simple and ugly.,-2,280,20","fresh and bold. outgoing.,15,200,20","The color scheme used in this piece is very ugly.,-50,380,20","calming and relaxing,14,80,20","Amber","fresh and bold. outgoing.,15,200,20","Sydney","I love the colors, the style, and the uniqueness in this piece. I love everything.,50,320,20","Michaela","My son made me a painting that looked like this,26,260,20","2"
"75862","","survey-text","131","1691367","0.0-130.0-0.0","A24FAL69IKL8RA","","","","{""Q0"":""looks like someone decided to leave their art work in the floor""}","","","","","","","","","","","","","","","","","","","","","","",""
"15197.800000011921","","image-slider-response","132","1706566","0.0-131.0","A24FAL69IKL8RA","","","","","-9","","","","","","","","","","","","","","","","","","","","","",""
"null","","image-button-response","133","1711586","0.0-132.0","A24FAL69IKL8RA","img_art/29.jpg","null","","","","","","","","","","","","","","","","","","","","","","","","",""
"12819","","image-button-response","134","1724407","0.0-133.0","A24FAL69IKL8RA","img_art/29.jpg","4","","","","","","","","","","","","","","","","","","","","","","","","",""
"4549","","image-button-response","135","1728958","0.0-134.0-0.0","A24FAL69IKL8RA","img_art/29.jpg","1","","","","","","","","","","","","","","","","","","","","","","","","",""
"2318","","image-button-response","136","1731279","0.0-135.0-0.0","A24FAL69IKL8RA","img_art/29.jpg","2","","","","","","","","","","","","","","","","","","","","","","","","",""
"null","","html-keyboard-response","137","1732793","0.0-136.0","A24FAL69IKL8RA","<p style=""font-size: 48px;"">+</p>","","","","","null","allTrialResponses","1500","1","13","img_art/29.jpg","-9","looks like someone decided to leave their art work in the floor","Sydney,Michaela,Autumn,Amber,Marissa,Sarah","I like that the colors are toned down even though they're everywhere.,5,320,20","Like a crime scene. It's neat and different,30,260,20","It's too messy.,-25,340,20","Don't like the red X across the painting.,-15,200,20","It makes me feel as though the artist put in a lot of time and effort and then gave up,10,160,20","it's interesting but not my style,9,180,20","Marissa","It makes me feel as though the artist put in a lot of time and effort and then gave up,10,160,20","Michaela","Like a crime scene. It's neat and different,30,260,20","Autumn","It's too messy.,-25,340,20","2"
"32240","","survey-text","138","1765039","0.0-137.0-0.0","A24FAL69IKL8RA","","","","{""Q0"":""black crows in winter""}","","","","","","","","","","","","","","","","","","","","","","",""
"7606","","image-slider-response","139","1772646","0.0-138.0","A24FAL69IKL8RA","","","","","28","","","","","","","","","","","","","","","","","","","","","",""
"null","","image-button-response","140","1777648","0.0-139.0","A24FAL69IKL8RA","img_art/15.jpg","null","","","","","","","","","","","","","","","","","","","","","","","","",""
"3092","","image-button-response","141","1780743","0.0-140.0","A24FAL69IKL8RA","img_art/15.jpg","3","","","","","","","","","","","","","","","","","","","","","","","","",""
"4038","","image-button-response","142","1784783","0.0-141.0-0.0","A24FAL69IKL8RA","img_art/15.jpg","0","","","","","","","","","","","","","","","","","","","","","","","","",""
"7110","","image-button-response","143","1791895","0.0-142.0-0.0","A24FAL69IKL8RA","img_art/15.jpg","5","","","","","","","","","","","","","","","","","","","","","","","","",""
"null","","html-keyboard-response","144","1792896","0.0-143.0","A24FAL69IKL8RA","<p style=""font-size: 48px;"">+</p>","","","","","null","allTrialResponses","1000","1","14","img_art/15.jpg","28","black crows in winter","Erin,Michaela,Autumn,Michelle,Marissa,Miranda","Neat to explore meaning, blue is interesting,11,120,20","Reminds me of lilacs,26,260,20","Simple but not good,-34,340,20","Interesting to look at but I don't appreciate the abstraction,2,280,20","I am reminded of spring flowers swaying in the dark night's breeze,9,160,20","This gives a skin crawling feeling. Like something that you could see under a mircoscope,10,320,20","Michelle","Interesting to look at but I don't appreciate the abstraction,2,280,20","Erin","Neat to explore meaning, blue is interesting,11,120,20","Miranda","This gives a skin crawling feeling. Like something that you could see under a mircoscope,10,320,20","2"
"19352","","survey-text","145","1812255","0.0-144.0-0.0","A24FAL69IKL8RA","","","","{""Q0"":""city life""}","","","","","","","","","","","","","","","","","","","","","","",""
"6221.600000023842","","image-slider-response","146","1818478","0.0-145.0","A24FAL69IKL8RA","","","","","28","","","","","","","","","","","","","","","","","","","","","",""
"null","","image-button-response","147","1823481","0.0-146.0","A24FAL69IKL8RA","img_art/11.jpg","null","","","","","","","","","","","","","","","","","","","","","","","","",""
"1507","","image-button-response","148","1824991","0.0-147.0","A24FAL69IKL8RA","img_art/11.jpg","1","","","","","","","","","","","","","","","","","","","","","","","","",""
"3262","","image-button-response","149","1828254","0.0-148.0-0.0","A24FAL69IKL8RA","img_art/11.jpg","2","","","","","","","","","","","","","","","","","","","","","","","","",""
"8526","","image-button-response","150","1836782","0.0-149.0-0.0","A24FAL69IKL8RA","img_art/11.jpg","3","","","","","","","","","","","","","","","","","","","","","","","","",""
"null","","html-keyboard-response","151","1837291","0.0-150.0","A24FAL69IKL8RA","<p style=""font-size: 48px;"">+</p>","","","","","null","allTrialResponses","500","1","15","img_art/11.jpg","28","city life","Erin,Angela,Madeline,Michelle,Katie,Miranda","Frank Lloyd Wright, music,24,120,20","I like this one very much, especially the shades of gray.,30,260,20","I like the vibe of the painting,-3,40,20","I think this is a city but I'm not sure, very abstract,18,280,20","Dark and dreary. Makes me think of rain/water. I see grey clouds and high waves. Looks unsettling.,-20,160,20","This one is a little erie, gives me post-apocalyptic feeling,27,320,20","Angela","I like this one very much, especially the shades of gray.,30,260,20","Madeline","I like the vibe of the painting,-3,40,20","Michelle","I think this is a city but I'm not sure, very abstract,18,280,20","2"
"7903","","survey-text","152","1845205","0.0-151.0-0.0","A24FAL69IKL8RA","","","","{""Q0"":""course""}","","","","","","","","","","","","","","","","","","","","","","",""
"77943","","survey-text","153","1923150","0.0-152.0-0.0","A24FAL69IKL8RA","","","","{""Q0"":""daffy duck's foot""}","","","","","","","","","","","","","","","","","","","","","","",""
"7245.800000011921","","image-slider-response","154","1930398","0.0-153.0","A24FAL69IKL8RA","","","","","-16","","","","","","","","","","","","","","","","","","","","","",""
"null","","image-button-response","155","1935416","0.0-154.0","A24FAL69IKL8RA","img_art/5.jpg","null","","","","","","","","","","","","","","","","","","","","","","","","",""
"3147","","image-button-response","156","1938566","0.0-155.0","A24FAL69IKL8RA","img_art/5.jpg","1","","","","","","","","","","","","","","","","","","","","","","","","",""
"4638","","image-button-response","157","1943206","0.0-156.0-0.0","A24FAL69IKL8RA","img_art/5.jpg","3","","","","","","","","","","","","","","","","","","","","","","","","",""
"5717","","image-button-response","158","1948925","0.0-157.0-0.0","A24FAL69IKL8RA","img_art/5.jpg","2","","","","","","","","","","","","","","","","","","","","","","","","",""
"null","","html-keyboard-response","159","1950431","0.0-158.0","A24FAL69IKL8RA","<p style=""font-size: 48px;"">+</p>","","","","","null","allTrialResponses","1500","1","16","img_art/5.jpg","-16","daffy duck's foot","Caroline,Angela,Madeline,Michelle,Alexandra,Chloe","Too much angular things happening, makes me think of stabbing something which makes me uncomfortable,-50,100,20","I really dislike this. It's ugly and looks dirty.,-44,260,20","A bit too messy in my eyes,-4,40,20","What is this? It looks like no effort was put into this work,-2,280,20","This looks like a twelve year old did it,-40,60,20","Black stripe looks violent,-31,220,20","Angela","I really dislike this. It's ugly and looks dirty.,-44,260,20","Michelle","What is this? It looks like no effort was put into this work,-2,280,20","Madeline","A bit too messy in my eyes,-4,40,20","2"
"26297","","survey-text","160","1976734","0.0-159.0-0.0","A24FAL69IKL8RA","","","","{""Q0"":""village life""}","","","","","","","","","","","","","","","","","","","","","","",""
"5054.5999999940395","","image-slider-response","161","1981790","0.0-160.0","A24FAL69IKL8RA","","","","","30","","","","","","","","","","","","","","","","","","","","","",""
"null","","image-button-response","162","1986794","0.0-161.0","A24FAL69IKL8RA","img_art/19.jpg","null","","","","","","","","","","","","","","","","","","","","","","","","",""
"6489","","image-button-response","163","1993285","0.0-162.0","A24FAL69IKL8RA","img_art/19.jpg","1","","","","","","","","","","","","","","","","","","","","","","","","",""
"3847","","image-button-response","164","1997134","0.0-163.0-0.0","A24FAL69IKL8RA","img_art/19.jpg","0","","","","","","","","","","","","","","","","","","","","","","","","",""
"11062","","image-button-response","165","2008198","0.0-164.0-0.0","A24FAL69IKL8RA","img_art/19.jpg","4","","","","","","","","","","","","","","","","","","","","","","","","",""
"null","","html-keyboard-response","166","2008714","0.0-165.0","A24FAL69IKL8RA","<p style=""font-size: 48px;"">+</p>","","","","","null","allTrialResponses","500","1","17","img_art/19.jpg","30","village life","Sabrina,Angela,Madeline,Michelle,Sierra,Samantha","Gives a very open and freeing vibe,42,120,20","I like the colors but the scene itself feels too jumbled and cluttered,9,260,20","Looks a bit too loose,-2,40,20","I like the water but again, the small lines with no detail are irritating,3,280,20","green and orange are my favorite colors.  this cityscape feels warm,34,260,20","Intersting but not for me,21,140,20","Angela","I like the colors but the scene itself feels too jumbled and cluttered,9,260,20","Sabrina","Gives a very open and freeing vibe,42,120,20","Sierra","green and orange are my favorite colors.  this cityscape feels warm,34,260,20","2"
"28100","","survey-text","167","2036822","0.0-166.0-0.0","A24FAL69IKL8RA","","","","{""Q0"":""live music""}","","","","","","","","","","","","","","","","","","","","","","",""
"7534.4000000059605","","image-slider-response","168","2044358","0.0-167.0","A24FAL69IKL8RA","","","","","22","","","","","","","","","","","","","","","","","","","","","",""
"null","","image-button-response","169","2049374","0.0-168.0","A24FAL69IKL8RA","img_art/22.jpg","null","","","","","","","","","","","","","","","","","","","","","","","","",""
"1126","","image-button-response","170","2050503","0.0-169.0","A24FAL69IKL8RA","img_art/22.jpg","1","","","","","","","","","","","","","","","","","","","","","","","","",""
"4252","","image-button-response","171","2054758","0.0-170.0-0.0","A24FAL69IKL8RA","img_art/22.jpg","3","","","","","","","","","","","","","","","","","","","","","","","","",""
"13869","","image-button-response","172","2068630","0.0-171.0-0.0","A24FAL69IKL8RA","img_art/22.jpg","5","","","","","","","","","","","","","","","","","","","","","","","","",""
"null","","html-keyboard-response","173","2069632","0.0-172.0","A24FAL69IKL8RA","<p style=""font-size: 48px;"">+</p>","","","","","null","allTrialResponses","1000","1","18","img_art/22.jpg","22","live music","Sabrina,Angela,Amanda,Crystal,Sierra,Leah","Just not feeling it,-19,120,20","Like the colors. I enjoy looking at this one.,15,260,20","Very generic, seen many times before,-43,180,20","Beautiful use of chalk or pastels. Love the abstract nature.,35,300,20","colorful. but not much happening,1,260,20","Pretty colors but too blocky for me,-19,360,20","Angela","Like the colors. I enjoy looking at this one.,15,260,20","Crystal","Beautiful use of chalk or pastels. Love the abstract nature.,35,300,20","Leah","Pretty colors but too blocky for me,-19,360,20","2"
"30312","","survey-text","174","2099949","0.0-173.0-0.0","A24FAL69IKL8RA","","","","{""Q0"":""looks like a battle in the sea""}","","","","","","","","","","","","","","","","","","","","","","",""
"5318.399999976158","","image-slider-response","175","2105270","0.0-174.0","A24FAL69IKL8RA","","","","","29","","","","","","","","","","","","","","","","","","","","","",""
"null","","image-button-response","176","2110280","0.0-175.0","A24FAL69IKL8RA","img_art/10.jpg","null","","","","","","","","","","","","","","","","","","","","","","","","",""
"10475","","image-button-response","177","2120758","0.0-176.0","A24FAL69IKL8RA","img_art/10.jpg","4","","","","","","","","","","","","","","","","","","","","","","","","",""
"4134","","image-button-response","178","2124895","0.0-177.0-0.0","A24FAL69IKL8RA","img_art/10.jpg","1","","","","","","","","","","","","","","","","","","","","","","","","",""
"3550","","image-button-response","179","2128447","0.0-178.0-0.0","A24FAL69IKL8RA","img_art/10.jpg","0","","","","","","","","","","","","","","","","","","","","","","","","",""
"null","","html-keyboard-response","180","2128949","0.0-179.0","A24FAL69IKL8RA","<p style=""font-size: 48px;"">+</p>","","","","","null","allTrialResponses","500","1","19","img_art/10.jpg","29","looks like a battle in the sea","Grace,Angela,Shannon,Crystal,Andrea,Leah","First impression was musical instrument then, because of the gray colors, death.,5,180,20","This makes me think of a city, specifically London.,20,260,20","I can't tell what this picture is supposed to mean and I think the colors are lacking variety.,-42,220,20","The contrast between the messy dots/dabs vs the straight affluent lines is unappealing,-20,300,20","Kraken, and I love it.,39,240,20","Dark with no object, looks like experimentation, slightly like a storm on the ocean,-21,360,20","Andrea","Kraken, and I love it.,39,240,20","Angela","This makes me think of a city, specifically London.,20,260,20","Grace","First impression was musical instrument then, because of the gray colors, death.,5,180,20","2"
"34756","","survey-text","181","2163709","0.0-180.0-0.0","A24FAL69IKL8RA","","","","{""Q0"":""looks like an incomplete collage""}","","","","","","","","","","","","","","","","","","","","","","",""
"9174.699999988079","","image-slider-response","182","2172886","0.0-181.0","A24FAL69IKL8RA","","","","","-44","","","","","","","","","","","","","","","","","","","","","",""
"null","","image-button-response","183","2177891","0.0-182.0","A24FAL69IKL8RA","img_art/16.jpg","null","","","","","","","","","","","","","","","","","","","","","","","","",""
"3921","","image-button-response","184","2181814","0.0-183.0","A24FAL69IKL8RA","img_art/16.jpg","0","","","","","","","","","","","","","","","","","","","","","","","","",""
"9502","","image-button-response","185","2191318","0.0-184.0-0.0","A24FAL69IKL8RA","img_art/16.jpg","4","","","","","","","","","","","","","","","","","","","","","","","","",""
"12741","","image-button-response","186","2204062","0.0-185.0-0.0","A24FAL69IKL8RA","img_art/16.jpg","1","","","","","","","","","","","","","","","","","","","","","","","","",""
"null","","html-keyboard-response","187","2205577","0.0-186.0","A24FAL69IKL8RA","<p style=""font-size: 48px;"">+</p>","","","","","null","allTrialResponses","1500","1","20","img_art/16.jpg","-44","looks like an incomplete collage","Grace,Angela,Breanna,Alicia,Andrea,Catherine","Something terrible happened. Either the figure on the right is the victim or another shredded toy.,-49,180,20","Hate this, especially the jarring contrast of the super realistic teddybear face.,-50,260,20","The bear is terrifying,-50,380,20","Don't get it. Hate it. ugly.,-44,120,20","I think it's about child abuse. The teddy bear represents innocence and the dark shape is approaching it.,40,240,20","A teddybear, gun, crying person does not give a happy reaction. Death, still, no life.,-50,160,20","Grace","Something terrible happened. Either the figure on the right is the victim or another shredded toy.,-49,180,20","Andrea","I think it's about child abuse. The teddy bear represents innocence and the dark shape is approaching it.,40,240,20","Angela","Hate this, especially the jarring contrast of the super realistic teddybear face.,-50,260,20","2"
"5146","","survey-text","188","2210734","0.0-187.0-0.0","A24FAL69IKL8RA","","","","{""Q0"":""we""}","","","","","","","","","","","","","","","","","","","","","","",""
"26743","","survey-text","189","2237479","0.0-188.0-0.0","A24FAL69IKL8RA","","","","{""Q0"":""ocean front view, very relaxing""}","","","","","","","","","","","","","","","","","","","","","","",""
"4341","","image-slider-response","190","2241822","0.0-189.0","A24FAL69IKL8RA","","","","","50","","","","","","","","","","","","","","","","","","","","","",""
"null","","image-button-response","191","2246825","0.0-190.0","A24FAL69IKL8RA","img_art/21.jpg","null","","","","","","","","","","","","","","","","","","","","","","","","",""
"1411","","image-button-response","192","2248238","0.0-191.0","A24FAL69IKL8RA","img_art/21.jpg","0","","","","","","","","","","","","","","","","","","","","","","","","",""
"9663","","image-button-response","193","2257903","0.0-192.0-0.0","A24FAL69IKL8RA","img_art/21.jpg","3","","","","","","","","","","","","","","","","","","","","","","","","",""
"5830","","image-button-response","194","2263735","0.0-193.0-0.0","A24FAL69IKL8RA","img_art/21.jpg","4","","","","","","","","","","","","","","","","","","","","","","","","",""
"null","","html-keyboard-response","195","2264736","0.0-194.0","A24FAL69IKL8RA","<p style=""font-size: 48px;"">+</p>","","","","","null","allTrialResponses","1000","1","21","img_art/21.jpg","50","ocean front view, very relaxing","Grace,Angela,Kylie,Diana,Andrea,Kaitlin","Like the colors, the cloudy, airy effects. Nice.,46,180,20","I feel like I'm looking at two different paintings mashed together in the middle.,20,260,20","Makes me think of a battleship targeting a beautiful mountainside,0,300,20","Makes me feel light and airy. Like I've gone back in time to 1700th century France.,43,380,20","It feels like a day at sea but the pink is slightly jarring and holding my eye.,26,240,20","waterpaint is attractive,13,60,20","Grace","Like the colors, the cloudy, airy effects. Nice.,46,180,20","Diana","Makes me feel light and airy. Like I've gone back in time to 1700th century France.,43,380,20","Andrea","It feels like a day at sea but the pink is slightly jarring and holding my eye.,26,240,20","2"
"36839","","survey-text","196","2301582","0.0-195.0-0.0","A24FAL69IKL8RA","","","","{""Q0"":""two people plotting something in a bar""}","","","","","","","","","","","","","","","","","","","","","","",""
"5958.0999999940395","","image-slider-response","197","2307542","0.0-196.0","A24FAL69IKL8RA","","","","","39","","","","","","","","","","","","","","","","","","","","","",""
"null","","image-button-response","198","2312556","0.0-197.0","A24FAL69IKL8RA","img_art/28.jpg","null","","","","","","","","","","","","","","","","","","","","","","","","",""
"3336","","image-button-response","199","2315895","0.0-198.0","A24FAL69IKL8RA","img_art/28.jpg","3","","","","","","","","","","","","","","","","","","","","","","","","",""
"2030","","image-button-response","200","2317926","0.0-199.0-0.0","A24FAL69IKL8RA","img_art/28.jpg","4","","","","","","","","","","","","","","","","","","","","","","","","",""
"3126","","image-button-response","201","2321054","0.0-200.0-0.0","A24FAL69IKL8RA","img_art/28.jpg","0","","","","","","","","","","","","","","","","","","","","","","","","",""
"null","","html-keyboard-response","202","2321556","0.0-201.0","A24FAL69IKL8RA","<p style=""font-size: 48px;"">+</p>","","","","","null","allTrialResponses","500","1","22","img_art/28.jpg","39","two people plotting something in a bar","Grace,Jordan,Hannah,Diana,Andrea,Mackenzie","A meeting in Old Jerusalem.,11,180,20","It's a bike that was left abandoned by someone who doesnt care for it,1,20,20","The colors are drab and a little depressing.,-20,240,20","I think this piece is interesting. I love the faces drawn into it.,29,380,20","It reminds me of the cantina in Star Wars.,37,240,20","The muted tones aren't my favorite.,-10,20,20","Diana","I think this piece is interesting. I love the faces drawn into it.,29,380,20","Andrea","It reminds me of the cantina in Star Wars.,37,240,20","Grace","A meeting in Old Jerusalem.,11,180,20","2"
"36990","","survey-text","203","2358550","0.0-202.0-0.0","A24FAL69IKL8RA","","","","{""Q0"":""the rainforest, what it used to look like""}","","","","","","","","","","","","","","","","","","","","","","",""
"6582.200000017881","","image-slider-response","204","2365134","0.0-203.0","A24FAL69IKL8RA","","","","","50","","","","","","","","","","","","","","","","","","","","","",""
"null","","image-button-response","205","2370148","0.0-204.0","A24FAL69IKL8RA","img_art/24.jpg","null","","","","","","","","","","","","","","","","","","","","","","","","",""
"920","","image-button-response","206","2371070","0.0-205.0","A24FAL69IKL8RA","img_art/24.jpg","4","","","","","","","","","","","","","","","","","","","","","","","","",""
"1511","","image-button-response","207","2372583","0.0-206.0-0.0","A24FAL69IKL8RA","img_art/24.jpg","3","","","","","","","","","","","","","","","","","","","","","","","","",""
"2694","","image-button-response","208","2375279","0.0-207.0-0.0","A24FAL69IKL8RA","img_art/24.jpg","0","","","","","","","","","","","","","","","","","","","","","","","","",""
"null","","html-keyboard-response","209","2375781","0.0-208.0","A24FAL69IKL8RA","<p style=""font-size: 48px;"">+</p>","","","","","null","allTrialResponses","500","1","23","img_art/24.jpg","50","the rainforest, what it used to look like","Grace,Abigail,Jasmine,Diana,Andrea,Briana","Abstract falls & nature.,41,180,20","Beautiful waterfall I like waterfalls,39,20,20","This one is nice because it reminds me of nature,18,340,20","This is stunning. I love how the brown, red and oranges are blended in together.,40,380,20","Waterfall, and I love the coloring.,48,240,20","Abstract waterfall landscape. Confusing,-13,400,20","Andrea","Waterfall, and I love the coloring.,48,240,20","Diana","This is stunning. I love how the brown, red and oranges are blended in together.,40,380,20","Grace","Abstract falls & nature.,41,180,20","2"
"35691","","survey-text","210","2411478","0.0-209.0-0.0","A24FAL69IKL8RA","","","","{""Q0"":""spaceship leaving for parts unknown""}","","","","","","","","","","","","","","","","","","","","","","",""
"5126.299999982119","","image-slider-response","211","2416606","0.0-210.0","A24FAL69IKL8RA","","","","","50","","","","","","","","","","","","","","","","","","","","","",""
"null","","image-button-response","212","2421612","0.0-211.0","A24FAL69IKL8RA","img_art/20.jpg","null","","","","","","","","","","","","","","","","","","","","","","","","",""
"7160","","image-button-response","213","2428775","0.0-212.0","A24FAL69IKL8RA","img_art/20.jpg","5","","","","","","","","","","","","","","","","","","","","","","","","",""
"2630","","image-button-response","214","2431407","0.0-213.0-0.0","A24FAL69IKL8RA","img_art/20.jpg","3","","","","","","","","","","","","","","","","","","","","","","","","",""
"4349","","image-button-response","215","2435758","0.0-214.0-0.0","A24FAL69IKL8RA","img_art/20.jpg","1","","","","","","","","","","","","","","","","","","","","","","","","",""
"null","","html-keyboard-response","216","2437274","0.0-215.0","A24FAL69IKL8RA","<p style=""font-size: 48px;"">+</p>","","","","","null","allTrialResponses","1500","1","24","img_art/20.jpg","50","spaceship leaving for parts unknown","Grace,Emma,Margaret,Diana,Andrea,Lauren","Reminds me of Georgia O'Keefe.,11,180,20","I like the distortion of the objects, good colors,20,60,20","It seems to be a neutral cool toned art piece. Gives me alamo/desert vibes,2,100,20","I'm not sure why this reminds me of surrealism. It might be the colors used.,16,380,20","Reminds me of persistance of time (a favorite of mine).,30,240,20","I like how the image is depicting a scene.,10,340,20","Lauren","I like how the image is depicting a scene.,10,340,20","Diana","I'm not sure why this reminds me of surrealism. It might be the colors used.,16,380,20","Emma","I like the distortion of the objects, good colors,20,60,20","2"
"92157","","survey-text","217","2529437","0.0-216.0-0.0","A24FAL69IKL8RA","","","","{""Q0"":""looks like the claws of a horror villain in a movie""}","","","","","","","","","","","","","","","","","","","","","","",""
"5230.199999988079","","image-slider-response","218","2534669","0.0-217.0","A24FAL69IKL8RA","","","","","-28","","","","","","","","","","","","","","","","","","","","","",""
"null","","image-button-response","219","2539686","0.0-218.0","A24FAL69IKL8RA","img_art/4.jpg","null","","","","","","","","","","","","","","","","","","","","","","","","",""
"1093","","image-button-response","220","2540782","0.0-219.0","A24FAL69IKL8RA","img_art/4.jpg","1","","","","","","","","","","","","","","","","","","","","","","","","",""
"4430","","image-button-response","221","2545214","0.0-220.0-0.0","A24FAL69IKL8RA","img_art/4.jpg","2","","","","","","","","","","","","","","","","","","","","","","","","",""
"8357","","image-button-response","222","2553574","0.0-221.0-0.0","A24FAL69IKL8RA","img_art/4.jpg","5","","","","","","","","","","","","","","","","","","","","","","","","",""
"null","","html-keyboard-response","223","2554078","0.0-222.0","A24FAL69IKL8RA","<p style=""font-size: 48px;"">+</p>","","","","","null","allTrialResponses","500","1","25","img_art/4.jpg","-28","looks like the claws of a horror villain in a movie","Makayla,Emma,Kelly,Diana,Alyssa,Lauren","Looks like poop on walks,-27,80,20","Interesting but maybe a little creepy,0,60,20","The longer I stare at this the less I like it.,-19,220,20","Odd but intriguing. I feel emotion from this. Like a woman bent over carrying these emotions on her back.,33,380,20","Extremely simple and like not alot of time was put into it,-20,160,20","I like the design. It can be interpreted in various ways, such as a hand of horror or still piece.,15,340,20","Emma","Interesting but maybe a little creepy,0,60,20","Kelly","The longer I stare at this the less I like it.,-19,220,20","Lauren","I like the design. It can be interpreted in various ways, such as a hand of horror or still piece.,15,340,20","2"
"6709","","survey-text","224","2560798","0.0-223.0-0.0","A24FAL69IKL8RA","","","","{""Q0"":""table""}","","","","","","","","","","","","","","","","","","","","","","",""
"15503","","survey-text","225","2576302","0.0-224.0-0.0","A24FAL69IKL8RA","","","","{""Q0"":""butterfly garden""}","","","","","","","","","","","","","","","","","","","","","","",""
"4653.399999976158","","image-slider-response","226","2580958","0.0-225.0","A24FAL69IKL8RA","","","","","45","","","","","","","","","","","","","","","","","","","","","",""
"null","","image-button-response","227","2585965","0.0-226.0","A24FAL69IKL8RA","img_art/9.jpg","null","","","","","","","","","","","","","","","","","","","","","","","","",""
"983","","image-button-response","228","2586951","0.0-227.0","A24FAL69IKL8RA","img_art/9.jpg","4","","","","","","","","","","","","","","","","","","","","","","","","",""
"1397","","image-button-response","229","2588350","0.0-228.0-0.0","A24FAL69IKL8RA","img_art/9.jpg","5","","","","","","","","","","","","","","","","","","","","","","","","",""
"5702","","image-button-response","230","2594054","0.0-229.0-0.0","A24FAL69IKL8RA","img_art/9.jpg","2","","","","","","","","","","","","","","","","","","","","","","","","",""
"null","","html-keyboard-response","231","2595556","0.0-230.0","A24FAL69IKL8RA","<p style=""font-size: 48px;"">+</p>","","","","","null","allTrialResponses","1500","1","26","img_art/9.jpg","45","butterfly garden","Sophia,Emma,Kelly,Madison,Elizabeth,Lauren","Yikes. I'm not sure what to make of this one.,-14,280,20","Feels angry .....,-40,60,20","It looks like a child drew it.,-28,220,20","No cohesive form whatsoever. Hard pass.,-31,60,20","Love the uniqueness,21,20,20","I like how design can be interpreted differently, I see a person sleeping or a mountainous region.,10,340,20","Elizabeth","Love the uniqueness,21,20,20","Lauren","I like how design can be interpreted differently, I see a person sleeping or a mountainous region.,10,340,20","Kelly","It looks like a child drew it.,-28,220,20","2"
"19619","","survey-text","232","2615181","0.0-231.0-0.0","A24FAL69IKL8RA","","","","{""Q0"":""garden in the desert""}","","","","","","","","","","","","","","","","","","","","","","",""
"5006.4000000059605","","image-slider-response","233","2620190","0.0-232.0","A24FAL69IKL8RA","","","","","32","","","","","","","","","","","","","","","","","","","","","",""
"null","","image-button-response","234","2625193","0.0-233.0","A24FAL69IKL8RA","img_art/14.jpg","null","","","","","","","","","","","","","","","","","","","","","","","","",""
"1075","","image-button-response","235","2626270","0.0-234.0","A24FAL69IKL8RA","img_art/14.jpg","1","","","","","","","","","","","","","","","","","","","","","","","","",""
"2230","","image-button-response","236","2628502","0.0-235.0-0.0","A24FAL69IKL8RA","img_art/14.jpg","4","","","","","","","","","","","","","","","","","","","","","","","","",""
"2213","","image-button-response","237","2630718","0.0-236.0-0.0","A24FAL69IKL8RA","img_art/14.jpg","5","","","","","","","","","","","","","","","","","","","","","","","","",""
"null","","html-keyboard-response","238","2631720","0.0-237.0","A24FAL69IKL8RA","<p style=""font-size: 48px;"">+</p>","","","","","null","allTrialResponses","1000","1","27","img_art/14.jpg","32","garden in the desert","Stephanie,Rebecca,Kelly,Cynthia,Elizabeth,Lauren","Late Winter when things are just starting to bloom.,21,300,20","medium recalls back to an oriental style,16,100,20","Its cute, but not my favorite.,8,220,20","unsure and dull feeling,-1,320,20","Love the abstractness of this painting,39,20,20","I like how balanced the piece is with its symmetrical design.,20,340,20","Rebecca","medium recalls back to an oriental style,16,100,20","Elizabeth","Love the abstractness of this painting,39,20,20","Lauren","I like how balanced the piece is with its symmetrical design.,20,340,20","2"
"17311","","survey-text","239","2649038","0.0-238.0-0.0","A24FAL69IKL8RA","","","","{""Q0"":""the crip keeper""}","","","","","","","","","","","","","","","","","","","","","","",""
"5605.899999976158","","image-slider-response","240","2654645","0.0-239.0","A24FAL69IKL8RA","","","","","-25","","","","","","","","","","","","","","","","","","","","","",""
"null","","image-button-response","241","2659657","0.0-240.0","A24FAL69IKL8RA","img_art/25.jpg","null","","","","","","","","","","","","","","","","","","","","","","","","",""
"1562","","image-button-response","242","2661222","0.0-241.0","A24FAL69IKL8RA","img_art/25.jpg","0","","","","","","","","","","","","","","","","","","","","","","","","",""
"3350","","image-button-response","243","2664574","0.0-242.0-0.0","A24FAL69IKL8RA","img_art/25.jpg","5","","","","","","","","","","","","","","","","","","","","","","","","",""
"3638","","image-button-response","244","2668214","0.0-243.0-0.0","A24FAL69IKL8RA","img_art/25.jpg","2","","","","","","","","","","","","","","","","","","","","","","","","",""
"null","","html-keyboard-response","245","2669216","0.0-244.0","A24FAL69IKL8RA","<p style=""font-size: 48px;"">+</p>","","","","","null","allTrialResponses","1000","1","28","img_art/25.jpg","-25","the crip keeper","Kristen,Rebecca,Natalie,Claire,Elizabeth,Lauren","reminds me of the grim reaper,3,280,20","I'm sorry but I don't uderstand this,-20,100,20","my response to the picture its weird,-9,400,20","the colors are pretty,11,260,20","Love the color hues and the texture it creates,50,20,20","Depicts something negative, such as ritual. I'm not a fan.,-10,340,20","Kristen","reminds me of the grim reaper,3,280,20","Lauren","Depicts something negative, such as ritual. I'm not a fan.,-10,340,20","Natalie","my response to the picture its weird,-9,400,20","2"
"31285","","survey-text","246","2700509","0.0-245.0-0.0","A24FAL69IKL8RA","","","","{""Q0"":""leather walls, masculine""}","","","","","","","","","","","","","","","","","","","","","","",""
"5926.0999999940395","","image-slider-response","247","2706438","0.0-246.0","A24FAL69IKL8RA","","","","","19","","","","","","","","","","","","","","","","","","","","","",""
"null","","image-button-response","248","2711440","0.0-247.0","A24FAL69IKL8RA","img_art/12.jpg","null","","","","","","","","","","","","","","","","","","","","","","","","",""
"3340","","image-button-response","249","2714782","0.0-248.0","A24FAL69IKL8RA","img_art/12.jpg","1","","","","","","","","","","","","","","","","","","","","","","","","",""
"3022","","image-button-response","250","2717806","0.0-249.0-0.0","A24FAL69IKL8RA","img_art/12.jpg","3","","","","","","","","","","","","","","","","","","","","","","","","",""
"1950","","image-button-response","251","2719758","0.0-250.0-0.0","A24FAL69IKL8RA","img_art/12.jpg","5","","","","","","","","","","","","","","","","","","","","","","","","",""
"null","","html-keyboard-response","252","2720771","0.0-251.0","A24FAL69IKL8RA","<p style=""font-size: 48px;"">+</p>","","","","","null","allTrialResponses","1000","1","29","img_art/12.jpg","19","leather walls, masculine","Kristen,Amy,Natalie,Molly,Paige,Lauren","stressful, upsetting,-10,280,20","Quite lovely with depth and possibility.,21,220,20","my reaction is that the picture is wierd,-11,400,20","Seems to be puzzles.,25,340,20","do not like it. Seems too busy,-10,60,20","This doesn't invoke anything. Just a mosaic of random images.,0,340,20","Amy","Quite lovely with depth and possibility.,21,220,20","Molly","Seems to be puzzles.,25,340,20","Lauren","This doesn't invoke anything. Just a mosaic of random images.,0,340,20","2"
"13162","","survey-text","253","2733941","0.0-252.0-0.0","A24FAL69IKL8RA","","","","{""Q0"":""flowers in the sky""}","","","","","","","","","","","","","","","","","","","","","","",""
"5414.5","","image-slider-response","254","2739358","0.0-253.0","A24FAL69IKL8RA","","","","","29","","","","","","","","","","","","","","","","","","","","","",""
"null","","image-button-response","255","2744362","0.0-254.0","A24FAL69IKL8RA","img_art/27.jpg","null","","","","","","","","","","","","","","","","","","","","","","","","",""
"1081","","image-button-response","256","2745446","0.0-255.0","A24FAL69IKL8RA","img_art/27.jpg","1","","","","","","","","","","","","","","","","","","","","","","","","",""
"1214","","image-button-response","257","2746662","0.0-256.0-0.0","A24FAL69IKL8RA","img_art/27.jpg","2","","","","","","","","","","","","","","","","","","","","","","","","",""
"7221","","image-button-response","258","2753886","0.0-257.0-0.0","A24FAL69IKL8RA","img_art/27.jpg","0","","","","","","","","","","","","","","","","","","","","","","","","",""
"null","","html-keyboard-response","259","2754903","0.0-258.0","A24FAL69IKL8RA","<p style=""font-size: 48px;"">+</p>","","","","","null","allTrialResponses","1000","1","30","img_art/27.jpg","29","flowers in the sky","Katherine,Amy,Dominique,Molly,Emily,Lauren","it's like a weird version of heaven,16,120,20","The colors provide a complexity to the nearly child-like sketches.,5,220,20","A beautiful day full of Hope and Inspiritation. The warmth of hot cocoa with the family gathering around,33,400,20","No clue what to say.,0,340,20","Anyone could do that.,-31,40,20","Not a fan of the green; gives off the impression that someone else drew on it.,-20,340,20","Amy","The colors provide a complexity to the nearly child-like sketches.,5,220,20","Dominique","A beautiful day full of Hope and Inspiritation. The warmth of hot cocoa with the family gathering around,33,400,20","Katherine","it's like a weird version of heaven,16,120,20","2"
"5111","","image-button-response_instructions","260","2760022","0.0-259.0","A24FAL69IKL8RA","","0","instructions","","","","","","","","","","","","","","","","","","","","","","","",""
"1778","","image-button-response","261","2761806","0.0-260.0","A24FAL69IKL8RA","","0","","","","","","","","","","","","","","","","","","","","","","","","",""
