"rt","url","trial_type","trial_index","time_elapsed","internal_node_id","participant_id","stimulus","button_pressed","Name","responses","response","key_press","variableName","fixationTime","condition","trial","photo","subjectRating","subjectResponse","agentsNames","agent_1_Response","agent_2_Response","agent_3_Response","agent_4_Response","agent_5_Response","agent_6_Response","kept_1_name","kept_1_response","kept_2_name","kept_2_response","kept_3_name","kept_3_response","errorCounter"
"59911","external_page_harvard.html","external-html","0","60090","0.0-0.0","A25AYMSZNDW1VJ","","","","","","","","","","","","","","","","","","","","","","","","","","",""
"2661","","image-button-response","1","62756","0.0-1.0","A25AYMSZNDW1VJ","","0","","","","","","","","","","","","","","","","","","","","","","","","",""
"2327","","image-button-response","2","65100","0.0-2.0-0.0","A25AYMSZNDW1VJ","","1","phone","","","","","","","","","","","","","","","","","","","","","","","",""
"6115","","survey-text","3","71220","0.0-3.0-0.0","A25AYMSZNDW1VJ","","","","{""Q0"":""A25AYMSZNDW1VJ""}","","","","","","","","","","","","","","","","","","","","","","",""
"123650","","image-button-response_instructions","4","194876","0.0-4.0","A25AYMSZNDW1VJ","","0","instructions","","","","","","","","","","","","","","","","","","","","","","","",""
"5996","","image-button-response_instructions","5","200875","0.0-5.0","A25AYMSZNDW1VJ","img_art/ins/popularity/ins1.png","0","instructions","","","","","","","","","","","","","","","","","","","","","","","",""
"2179","","image-button-response_instructions","6","203059","0.0-6.0","A25AYMSZNDW1VJ","img_art/ins/popularity/ins2.png","0","instructions","","","","","","","","","","","","","","","","","","","","","","","",""
"2596","","image-button-response_instructions","7","205660","0.0-7.0","A25AYMSZNDW1VJ","img_art/ins/popularity/ins2Extreme.png","0","instructions","","","","","","","","","","","","","","","","","","","","","","","",""
"28551","","image-button-response_instructions","8","234219","0.0-8.0","A25AYMSZNDW1VJ","img_art/ins/popularity/ins3KEEPpop.PNG","0","instructions","","","","","","","","","","","","","","","","","","","","","","","",""
"3525","","image-button-response_instructions","9","237748","0.0-9.0","A25AYMSZNDW1VJ","img_art/ins/popularity/ins3ANamepop.PNG","0","instructions","","","","","","","","","","","","","","","","","","","","","","","",""
"2004","","image-button-response_instructions","10","239756","0.0-10.0","A25AYMSZNDW1VJ","img_art/ins/popularity/ins3ARatingpop.png","0","instructions","","","","","","","","","","","","","","","","","","","","","","","",""
"1908","","image-button-response_instructions","11","241668","0.0-11.0","A25AYMSZNDW1VJ","img_art/ins/popularity/ins3ATextpop.png","0","instructions","","","","","","","","","","","","","","","","","","","","","","","",""
"2916","","image-button-response_instructions","12","244588","0.0-12.0","A25AYMSZNDW1VJ","img_art/ins/popularity/ins3ALikespop.png","0","instructions","","","","","","","","","","","","","","","","","","","","","","","",""
"2835","","image-button-response_instructions","13","247427","0.0-13.0","A25AYMSZNDW1VJ","img_art/ins/popularity/ins3KEEPpop.PNG","0","instructions","","","","","","","","","","","","","","","","","","","","","","","",""
"3389","","image-button-response_instructions","14","250820","0.0-14.0","A25AYMSZNDW1VJ","img_art/ins/popularity/ins3_5RED.png","0","instructions","","","","","","","","","","","","","","","","","","","","","","","",""
"1557","","image-button-response_instructions","15","252380","0.0-15.0","A25AYMSZNDW1VJ","img_art/ins/popularity/ins3KEEPpop.PNG","0","instructions","","","","","","","","","","","","","","","","","","","","","","","",""
"6308","","image-button-response_instructions","16","258692","0.0-16.0","A25AYMSZNDW1VJ","img_art/ins/popularity/ins4KEEPpop.PNG","0","instructions","","","","","","","","","","","","","","","","","","","","","","","",""
"4669","","image-button-response_instructions","17","263364","0.0-17.0","A25AYMSZNDW1VJ","img_art/ins/popularity/ins5KEEPpop.PNG","0","instructions","","","","","","","","","","","","","","","","","","","","","","","",""
"1517","","image-button-response_instructions","18","264884","0.0-18.0","A25AYMSZNDW1VJ","","0","instructions","","","","","","","","","","","","","","","","","","","","","","","",""
"5831","","survey-text","19","270805","0.0-19.0-0.0","A25AYMSZNDW1VJ","","","","{""Q0"":""but""}","","","","","","","","","","","","","","","","","","","","","","",""
"9539","","survey-text","20","280348","0.0-20.0-0.0","A25AYMSZNDW1VJ","","","","{""Q0"":""It's a mix up of various colors.""}","","","","","","","","","","","","","","","","","","","","","","",""
"8064.0999999940395","","image-slider-response","21","288420","0.0-21.0","A25AYMSZNDW1VJ","","","","","0","","","","","","","","","","","","","","","","","","","","","",""
"null","","image-button-response","22","293432","0.0-22.0","A25AYMSZNDW1VJ","img_art/ins/1.jpg","null","","","","","","","","","","","","","","","","","","","","","","","","",""
"4128","","image-button-response","23","297567","0.0-23.0","A25AYMSZNDW1VJ","img_art/ins/1.jpg","5","","","","","","","","","","","","","","","","","","","","","","","","",""
"1734","","image-button-response","24","299309","0.0-24.0-0.0","A25AYMSZNDW1VJ","img_art/ins/1.jpg","1","","","","","","","","","","","","","","","","","","","","","","","","",""
"841","","image-button-response","25","300157","0.0-25.0-0.0","A25AYMSZNDW1VJ","img_art/ins/1.jpg","0","","","","","","","","","","","","","","","","","","","","","","","","",""
"null","","html-keyboard-response","26","301675","0.0-26.0","A25AYMSZNDW1VJ","<p style=""font-size: 48px;"">+</p>","","","","","null","allTrialResponses","1500","1","-2","img_art/ins/1.jpg","0","It's a mix up of various colors.","Adam,Alex,Ben,Carl,Daniel,Jack","Seems like doodles,-20,20,20","very creative work.,36,40,20","This color reminds me of poo,-46,60,20","very calming artwork,42,80,20","It looks like a murder scene.,-48,100,20","I like the sophisticated brushwork,40,120,20","Jack","I like the sophisticated brushwork,40,120,20","Alex","very creative work.,36,40,20","Adam","Seems like doodles,-20,20,20","0"
"10630","","survey-text","27","312318","0.0-27.0-0.0","A25AYMSZNDW1VJ","","","","{""Q0"":""An intense color scheme is used here""}","","","","","","","","","","","","","","","","","","","","","","",""
"2751.9000000059605","","image-slider-response","28","315076","0.0-28.0","A25AYMSZNDW1VJ","","","","","10","","","","","","","","","","","","","","","","","","","","","",""
"4121","","image-button-response","29","320082","0.0-29.0","A25AYMSZNDW1VJ","img_art/ins/2.jpg","1","","","","","","","","","","","","","","","","","","","","","","","","",""
"3181","","image-button-response","30","323269","0.0-30.0","A25AYMSZNDW1VJ","img_art/ins/2.jpg","4","","","","","","","","","","","","","","","","","","","","","","","","",""
"730","","image-button-response","31","324005","0.0-31.0-0.0","A25AYMSZNDW1VJ","img_art/ins/2.jpg","5","","","","","","","","","","","","","","","","","","","","","","","","",""
"1936","","image-button-response","32","325948","0.0-32.0-0.0","A25AYMSZNDW1VJ","img_art/ins/2.jpg","1","","","","","","","","","","","","","","","","","","","","","","","","",""
"null","","html-keyboard-response","33","327454","0.0-33.0","A25AYMSZNDW1VJ","<p style=""font-size: 48px;"">+</p>","","","","","null","allTrialResponses","1500","1","-1","img_art/ins/2.jpg","10","An intense color scheme is used here","Adam,Alex,Kyle,James,John,Jack","too much color,-18,20,20","I like the blocks of color arrangements,30,40,20","Idk, it is just annoying,-32,180,20","looks too angry,-50,140,20","love the texture of paint,48,160,20","I would never be able to compose a sophisticated pallete like this,48,120,20","John","love the texture of paint,48,160,20","Jack","I would never be able to compose a sophisticated pallete like this,48,120,20","Alex","I like the blocks of color arrangements,30,40,20","0"
"12635","","survey-text","34","340099","0.0-34.0-0.0","A25AYMSZNDW1VJ","","","","{""Q0"":""Beautiful colors of blue mesh well together.""}","","","","","","","","","","","","","","","","","","","","","","",""
"3155.2999999970198","","image-slider-response","35","343259","0.0-35.0","A25AYMSZNDW1VJ","","","","","34","","","","","","","","","","","","","","","","","","","","","",""
"4499","","image-button-response","36","348267","0.0-36.0","A25AYMSZNDW1VJ","img_art/ins/3.jpg","4","","","","","","","","","","","","","","","","","","","","","","","","",""
"906","","image-button-response","37","349177","0.0-37.0","A25AYMSZNDW1VJ","img_art/ins/3.jpg","3","","","","","","","","","","","","","","","","","","","","","","","","",""
"856","","image-button-response","38","350036","0.0-38.0-0.0","A25AYMSZNDW1VJ","img_art/ins/3.jpg","4","","","","","","","","","","","","","","","","","","","","","","","","",""
"633","","image-button-response","39","350677","0.0-39.0-0.0","A25AYMSZNDW1VJ","img_art/ins/3.jpg","5","","","","","","","","","","","","","","","","","","","","","","","","",""
"null","","html-keyboard-response","40","351180","0.0-40.0","A25AYMSZNDW1VJ","<p style=""font-size: 48px;"">+</p>","","","","","null","allTrialResponses","500","1","0","img_art/ins/3.jpg","34","Beautiful colors of blue mesh well together.","Sam,Alex,Ron,Mike,John,Jack","I can feel a rainy day from this painting,18,240,20","calming blue is very nice,36,40,20","It looks depressing,-26,220,20","enjoy the different shades of blue,22,200,20","I like the overlapping of brushes,41,160,20","I feel connected to the artist,40,120,20","Mike","enjoy the different shades of blue,22,200,20","John","I like the overlapping of brushes,41,160,20","Jack","I feel connected to the artist,40,120,20","0"
"5716","","image-button-response_instructions","41","356907","0.0-41.0","A25AYMSZNDW1VJ","","0","instructions","","","","","","","","","","","","","","","","","","","","","","","",""
"9004","","survey-likert","42","365917","0.0-42.0-0.0","A25AYMSZNDW1VJ","","","","{""Q0"":"""",""Q1"":0,""Q2"":1}","","","","","","","","","","","","","","","","","","","","","","",""
"4206","","survey-text","43","370140","0.0-43.0-0.0","A25AYMSZNDW1VJ","","","","{""Q0"":""rock""}","","","","","","","","","","","","","","","","","","","","","","",""
"8844","","survey-text","44","378987","0.0-44.0-0.0","A25AYMSZNDW1VJ","","","","{""Q0"":""It's an interesting concept.""}","","","","","","","","","","","","","","","","","","","","","","",""
"5820.899999991059","","image-slider-response","45","384814","0.0-45.0","A25AYMSZNDW1VJ","","","","","-1","","","","","","","","","","","","","","","","","","","","","",""
"4030","","image-button-response","46","389923","0.0-46.0","A25AYMSZNDW1VJ","img_art/7.jpg","3","","","","","","","","","","","","","","","","","","","","","","","","",""
"3974","","image-button-response","47","393901","0.0-47.0","A25AYMSZNDW1VJ","img_art/7.jpg","4","","","","","","","","","","","","","","","","","","","","","","","","",""
"929","","image-button-response","48","394837","0.0-48.0-0.0","A25AYMSZNDW1VJ","img_art/7.jpg","3","","","","","","","","","","","","","","","","","","","","","","","","",""
"640","","image-button-response","49","395486","0.0-49.0-0.0","A25AYMSZNDW1VJ","img_art/7.jpg","1","","","","","","","","","","","","","","","","","","","","","","","","",""
"null","","html-keyboard-response","50","395992","0.0-50.0","A25AYMSZNDW1VJ","<p style=""font-size: 48px;"">+</p>","","","","","null","allTrialResponses","500","1","1","img_art/7.jpg","-1","It's an interesting concept.","Jason,Brendan,Seth,Luke,Joseph,Kyle","Boring  and lacks color,-11,20,20","some rocks on a mars?,7,340,20","This piece reminds me of ants and it makes my skin crawl.,-37,60,20","reminds me of the desert,-20,20,20","Dinosaur bones. Death.,-14,220,20","It just reminds me of dirt,-10,340,20","Joseph","Dinosaur bones. Death.,-14,220,20","Luke","reminds me of the desert,-20,20,20","Brendan","some rocks on a mars?,7,340,20","0"
"11046","","survey-text","51","407049","0.0-51.0-0.0","A25AYMSZNDW1VJ","","","","{""Q0"":""I cannot say I am a fan of this.""}","","","","","","","","","","","","","","","","","","","","","","",""
"5136.0999999940395","","image-slider-response","52","412187","0.0-52.0","A25AYMSZNDW1VJ","","","","","-38","","","","","","","","","","","","","","","","","","","","","",""
"null","","image-button-response","53","417193","0.0-53.0","A25AYMSZNDW1VJ","img_art/16.jpg","null","","","","","","","","","","","","","","","","","","","","","","","","",""
"1518","","image-button-response","54","418717","0.0-54.0","A25AYMSZNDW1VJ","img_art/16.jpg","4","","","","","","","","","","","","","","","","","","","","","","","","",""
"1083","","image-button-response","55","419808","0.0-55.0-0.0","A25AYMSZNDW1VJ","img_art/16.jpg","5","","","","","","","","","","","","","","","","","","","","","","","","",""
"2811","","image-button-response","56","422629","0.0-56.0-0.0","A25AYMSZNDW1VJ","img_art/16.jpg","0","","","","","","","","","","","","","","","","","","","","","","","","",""
"null","","html-keyboard-response","57","424136","0.0-57.0","A25AYMSZNDW1VJ","<p style=""font-size: 48px;"">+</p>","","","","","null","allTrialResponses","1500","1","2","img_art/16.jpg","-38","I cannot say I am a fan of this.","Tristan,Brendan,David,Luke,Joseph,Cameron","visceral and a little disturbing.,10,300,20","cool teddy bear,50,340,20","The colored teddy bear clashes with the color scheme.,-20,340,20","while simple, it seems to have a deeper meaning on childhood,33,20,20","Looks upsetting. Like it's actually graphic violence but you can't tell.,-24,220,20","Don't like teddy bears in art. I could draw that house.,-20,60,20","Joseph","Looks upsetting. Like it's actually graphic violence but you can't tell.,-24,220,20","Cameron","Don't like teddy bears in art. I could draw that house.,-20,60,20","Tristan","visceral and a little disturbing.,10,300,20","0"
"12624","","survey-text","58","436772","0.0-58.0-0.0","A25AYMSZNDW1VJ","","","","{""Q0"":""Interesting art concept of a barren land perhaps.""}","","","","","","","","","","","","","","","","","","","","","","",""
"2427.7999999970198","","image-slider-response","59","439204","0.0-59.0","A25AYMSZNDW1VJ","","","","","7","","","","","","","","","","","","","","","","","","","","","",""
"4256","","image-button-response","60","444228","0.0-60.0","A25AYMSZNDW1VJ","img_art/6.jpg","5","","","","","","","","","","","","","","","","","","","","","","","","",""
"1106","","image-button-response","61","445342","0.0-61.0","A25AYMSZNDW1VJ","img_art/6.jpg","5","","","","","","","","","","","","","","","","","","","","","","","","",""
"2551","","image-button-response","62","447900","0.0-62.0-0.0","A25AYMSZNDW1VJ","img_art/6.jpg","1","","","","","","","","","","","","","","","","","","","","","","","","",""
"1619","","image-button-response","63","449525","0.0-63.0-0.0","A25AYMSZNDW1VJ","img_art/6.jpg","0","","","","","","","","","","","","","","","","","","","","","","","","",""
"null","","html-keyboard-response","64","450542","0.0-64.0","A25AYMSZNDW1VJ","<p style=""font-size: 48px;"">+</p>","","","","","null","allTrialResponses","1000","1","3","img_art/6.jpg","7","Interesting art concept of a barren land perhaps.","Tristan,Malik,Blake,Vincent,Joseph,Cameron","Lack of context makes this painting 1-d for me. The headless bird is mysterious and indecipherable.,-10,300,20","Lonesome in nature,13,40,20","one lonely thing trying to grow,-24,280,20","Calm and catching,30,360,20","Little birdie in a desert. Seeking better frontiers.,13,220,20","Kind of neat, but then that's a weird looking bird. too weird.,0,60,20","Cameron","Kind of neat, but then that's a weird looking bird. too weird.,0,60,20","Malik","Lonesome in nature,13,40,20","Tristan","Lack of context makes this painting 1-d for me. The headless bird is mysterious and indecipherable.,-10,300,20","0"
"11416","","survey-text","65","461971","0.0-65.0-0.0","A25AYMSZNDW1VJ","","","","{""Q0"":""I'm not sure what I am looking at.""}","","","","","","","","","","","","","","","","","","","","","","",""
"3546.7999999970198","","image-slider-response","66","465524","0.0-66.0","A25AYMSZNDW1VJ","","","","","-21","","","","","","","","","","","","","","","","","","","","","",""
"null","","image-button-response","67","470543","0.0-67.0","A25AYMSZNDW1VJ","img_art/29.jpg","null","","","","","","","","","","","","","","","","","","","","","","","","",""
"6465","","image-button-response","68","477013","0.0-68.0","A25AYMSZNDW1VJ","img_art/29.jpg","2","","","","","","","","","","","","","","","","","","","","","","","","",""
"869","","image-button-response","69","477893","0.0-69.0-0.0","A25AYMSZNDW1VJ","img_art/29.jpg","5","","","","","","","","","","","","","","","","","","","","","","","","",""
"1522","","image-button-response","70","479420","0.0-70.0-0.0","A25AYMSZNDW1VJ","img_art/29.jpg","3","","","","","","","","","","","","","","","","","","","","","","","","",""
"null","","html-keyboard-response","71","480924","0.0-71.0","A25AYMSZNDW1VJ","<p style=""font-size: 48px;"">+</p>","","","","","null","allTrialResponses","1500","1","4","img_art/29.jpg","-21","I'm not sure what I am looking at.","Tristan,Malik,Devin,Ethan,Mark,Cameron","The textures bring this painting alive. A window to another existence with infinite possibility.,25,300,20","Feels like an abandoned dream,13,40,20","Looks a bit messy,-13,380,20","I love the angry emotion to this art. I feel very drawn to it.,18,120,20","Bottomless pit and prison. Feels like its saying time is precious.,11,80,20","Lines and light are clean but subject doesn't interest me,0,60,20","Devin","Looks a bit messy,-13,380,20","Cameron","Lines and light are clean but subject doesn't interest me,0,60,20","Ethan","I love the angry emotion to this art. I feel very drawn to it.,18,120,20","0"
"12260","","survey-text","72","493196","0.0-72.0-0.0","A25AYMSZNDW1VJ","","","","{""Q0"":""A thoughtful piece of artwork.""}","","","","","","","","","","","","","","","","","","","","","","",""
"2082.7000000029802","","image-slider-response","73","495284","0.0-73.0","A25AYMSZNDW1VJ","","","","","11","","","","","","","","","","","","","","","","","","","","","",""
"null","","image-button-response","74","500304","0.0-74.0","A25AYMSZNDW1VJ","img_art/18.jpg","null","","","","","","","","","","","","","","","","","","","","","","","","",""
"2472","","image-button-response","75","502780","0.0-75.0","A25AYMSZNDW1VJ","img_art/18.jpg","0","","","","","","","","","","","","","","","","","","","","","","","","",""
"1515","","image-button-response","76","504301","0.0-76.0-0.0","A25AYMSZNDW1VJ","img_art/18.jpg","3","","","","","","","","","","","","","","","","","","","","","","","","",""
"977","","image-button-response","77","505285","0.0-77.0-0.0","A25AYMSZNDW1VJ","img_art/18.jpg","0","","","","","","","","","","","","","","","","","","","","","","","","",""
"813","","image-button-response","78","510637","0.0-77.1-0.1","A25AYMSZNDW1VJ","img_art/18.jpg","2","","","","","","","","","","","","","","","","","","","","","","","","",""
"null","","html-keyboard-response","79","511139","0.0-78.0","A25AYMSZNDW1VJ","<p style=""font-size: 48px;"">+</p>","","","","","null","allTrialResponses","500","1","5","img_art/18.jpg","11","A thoughtful piece of artwork.","Steven,Gabriel,Devin,Ethan,Scott,Cameron","Oh heck yes! I see two warriors riding down from valhalla, awesome painting,50,160,20","its messy, it seems angry,-21,160,20","Good concept but then scribbled on a bit?,15,380,20","I like the expression of this piece. The colors are very outdated though.,-5,120,20","reminds me of sailors on a boat,17,20,20","Don't like the color scheme. Or the theme.,-5,60,20","Steven","Oh heck yes! I see two warriors riding down from valhalla, awesome painting,50,160,20","Ethan","I like the expression of this piece. The colors are very outdated though.,-5,120,20","Devin","Good concept but then scribbled on a bit?,15,380,20","2"
"3998","","survey-text","80","515163","0.0-79.0-0.0","A25AYMSZNDW1VJ","","","","{""Q0"":""sky""}","","","","","","","","","","","","","","","","","","","","","","",""
"10996","","survey-text","81","526163","0.0-80.0-0.0","A25AYMSZNDW1VJ","","","","{""Q0"":""I love the color scheme behind this one.""}","","","","","","","","","","","","","","","","","","","","","","",""
"4643.29999999702","","image-slider-response","82","530811","0.0-81.0","A25AYMSZNDW1VJ","","","","","26","","","","","","","","","","","","","","","","","","","","","",""
"4588","","image-button-response","83","535818","0.0-82.0","A25AYMSZNDW1VJ","img_art/1.jpg","1","","","","","","","","","","","","","","","","","","","","","","","","",""
"618","","image-button-response","84","536447","0.0-83.0","A25AYMSZNDW1VJ","img_art/1.jpg","5","","","","","","","","","","","","","","","","","","","","","","","","",""
"1687","","image-button-response","85","538141","0.0-84.0-0.0","A25AYMSZNDW1VJ","img_art/1.jpg","0","","","","","","","","","","","","","","","","","","","","","","","","",""
"879","","image-button-response","86","539029","0.0-85.0-0.0","A25AYMSZNDW1VJ","img_art/1.jpg","1","","","","","","","","","","","","","","","","","","","","","","","","",""
"null","","html-keyboard-response","87","540036","0.0-86.0","A25AYMSZNDW1VJ","<p style=""font-size: 48px;"">+</p>","","","","","null","allTrialResponses","1000","1","6","img_art/1.jpg","26","I love the color scheme behind this one.","Steven,Jonathan,Devin,Ethan,Hunter,Jordan","It's fine, but its like something you'd see in the restroom of a cheap restaurant,10,160,20","I love the colors but it's too intense sometimes,22,140,20","Quite messy looking,-22,380,20","This piece feels soft and romantic to me. I do not care for so much orange though.,3,120,20","muddy and uninteresting,-16,240,20","I like the warmth of the picture,21,160,20","Jordan","I like the warmth of the picture,21,160,20","Steven","It's fine, but its like something you'd see in the restroom of a cheap restaurant,10,160,20","Jonathan","I love the colors but it's too intense sometimes,22,140,20","2"
"13334","","survey-text","88","553389","0.0-87.0-0.0","A25AYMSZNDW1VJ","","","","{""Q0"":""This one reminds me of nature for some reason.""}","","","","","","","","","","","","","","","","","","","","","","",""
"2256.5","","image-slider-response","89","555652","0.0-88.0","A25AYMSZNDW1VJ","","","","","8","","","","","","","","","","","","","","","","","","","","","",""
"null","","image-button-response","90","560660","0.0-89.0","A25AYMSZNDW1VJ","img_art/14.jpg","null","","","","","","","","","","","","","","","","","","","","","","","","",""
"1227","","image-button-response","91","561894","0.0-90.0","A25AYMSZNDW1VJ","img_art/14.jpg","4","","","","","","","","","","","","","","","","","","","","","","","","",""
"3163","","image-button-response","92","565061","0.0-91.0-0.0","A25AYMSZNDW1VJ","img_art/14.jpg","3","","","","","","","","","","","","","","","","","","","","","","","","",""
"2769","","image-button-response","93","567837","0.0-92.0-0.0","A25AYMSZNDW1VJ","img_art/14.jpg","1","","","","","","","","","","","","","","","","","","","","","","","","",""
"null","","html-keyboard-response","94","569354","0.0-93.0","A25AYMSZNDW1VJ","<p style=""font-size: 48px;"">+</p>","","","","","null","allTrialResponses","1500","1","7","img_art/14.jpg","8","This one reminds me of nature for some reason.","Steven,Jonathan,Thomas,Travis,Matthew,Jordan","this one isn't bad, reminds me a tree that gives life, and people are waiting for someone new to be born,27,160,20","This reminds me of the Lion King somehow! Feels inspiring,30,140,20","I like the colors in the background, but not the bottom/center. It almost looks sloppy.,-20,220,20","I kind of like it...I like the white back ground,11,260,20","I like the color tone, it's kind of disturbing.,35,120,20","Reminds me of art class,22,160,20","Matthew","I like the color tone, it's kind of disturbing.,35,120,20","Travis","I kind of like it...I like the white back ground,11,260,20","Jonathan","This reminds me of the Lion King somehow! Feels inspiring,30,140,20","2"
"14774","","survey-text","95","584140","0.0-94.0-0.0","A25AYMSZNDW1VJ","","","","{""Q0"":""This one looks like a clash of two different worlds. I like it.""}","","","","","","","","","","","","","","","","","","","","","","",""
"3035.7000000029802","","image-slider-response","96","587180","0.0-95.0","A25AYMSZNDW1VJ","","","","","35","","","","","","","","","","","","","","","","","","","","","",""
"null","","image-button-response","97","592190","0.0-96.0","A25AYMSZNDW1VJ","img_art/21.jpg","null","","","","","","","","","","","","","","","","","","","","","","","","",""
"1594","","image-button-response","98","593789","0.0-97.0","A25AYMSZNDW1VJ","img_art/21.jpg","4","","","","","","","","","","","","","","","","","","","","","","","","",""
"953","","image-button-response","99","594749","0.0-98.0-0.0","A25AYMSZNDW1VJ","img_art/21.jpg","3","","","","","","","","","","","","","","","","","","","","","","","","",""
"1794","","image-button-response","100","596550","0.0-99.0-0.0","A25AYMSZNDW1VJ","img_art/21.jpg","1","","","","","","","","","","","","","","","","","","","","","","","","",""
"null","","html-keyboard-response","101","597057","0.0-100.0","A25AYMSZNDW1VJ","<p style=""font-size: 48px;"">+</p>","","","","","null","allTrialResponses","500","1","8","img_art/21.jpg","35","This one looks like a clash of two different worlds. I like it.","Evan,Jonathan,Christian,Travis,Matthew,Carlos","I feel confused,-18,140,20","Makes me think of a natural disaster but I love how it looks. Makes you think,30,140,20","stormy with gold lining,0,140,20","I liked it...it looked like a storm raging.,12,260,20","Disturbing, land meets ocean, lvoely really.,43,120,20","Motion, the light marks in the lower right corner are very appealing.,15,80,20","Matthew","Disturbing, land meets ocean, lvoely really.,43,120,20","Travis","I liked it...it looked like a storm raging.,12,260,20","Jonathan","Makes me think of a natural disaster but I love how it looks. Makes you think,30,140,20","2"
"19563","","survey-text","102","616630","0.0-101.0-0.0","A25AYMSZNDW1VJ","","","","{""Q0"":""Looks like a mix of various pieces. can't say I love or hate it.""}","","","","","","","","","","","","","","","","","","","","","","",""
"6888.399999991059","","image-slider-response","103","623524","0.0-102.0","A25AYMSZNDW1VJ","","","","","0","","","","","","","","","","","","","","","","","","","","","",""
"null","","image-button-response","104","628556","0.0-103.0","A25AYMSZNDW1VJ","img_art/4.jpg","null","","","","","","","","","","","","","","","","","","","","","","","","",""
"32693","","image-button-response","105","661253","0.0-104.0","A25AYMSZNDW1VJ","img_art/4.jpg","5","","","","","","","","","","","","","","","","","","","","","","","","",""
"1570","","image-button-response","106","662829","0.0-105.0-0.0","A25AYMSZNDW1VJ","img_art/4.jpg","3","","","","","","","","","","","","","","","","","","","","","","","","",""
"811","","image-button-response","107","663645","0.0-106.0-0.0","A25AYMSZNDW1VJ","img_art/4.jpg","0","","","","","","","","","","","","","","","","","","","","","","","","",""
"null","","html-keyboard-response","108","664159","0.0-107.0","A25AYMSZNDW1VJ","<p style=""font-size: 48px;"">+</p>","","","","","null","allTrialResponses","500","1","9","img_art/4.jpg","0","Looks like a mix of various pieces. can't say I love or hate it.","Garrett,Jonathan,Ian,Travis,Matthew,Logan","I think that this picture is too boring in terms of color and it looks ugly.,-41,180,20","Mcdonald's french fries :(,-40,140,20","I just don't understand this one at all, I do not like it,-43,260,20","I don't like this...a mustardy scibble.,-47,260,20","It looks like a hand.,25,120,20","it looks like a preschooler just dragged his fingers around,-36,360,20","Logan","it looks like a preschooler just dragged his fingers around,-36,360,20","Travis","I don't like this...a mustardy scibble.,-47,260,20","Garrett","I think that this picture is too boring in terms of color and it looks ugly.,-41,180,20","2"
"8601","","survey-text","109","672780","0.0-108.0-0.0","A25AYMSZNDW1VJ","","","","{""Q0"":""Colors do not work well together.""}","","","","","","","","","","","","","","","","","","","","","","",""
"2739.0999999940395","","image-slider-response","110","675524","0.0-109.0","A25AYMSZNDW1VJ","","","","","-40","","","","","","","","","","","","","","","","","","","","","",""
"null","","image-button-response","111","680546","0.0-110.0","A25AYMSZNDW1VJ","img_art/2.jpg","null","","","","","","","","","","","","","","","","","","","","","","","","",""
"1173","","image-button-response","112","681726","0.0-111.0","A25AYMSZNDW1VJ","img_art/2.jpg","3","","","","","","","","","","","","","","","","","","","","","","","","",""
"1640","","image-button-response","113","683374","0.0-112.0-0.0","A25AYMSZNDW1VJ","img_art/2.jpg","2","","","","","","","","","","","","","","","","","","","","","","","","",""
"2128","","image-button-response","114","685512","0.0-113.0-0.0","A25AYMSZNDW1VJ","img_art/2.jpg","0","","","","","","","","","","","","","","","","","","","","","","","","",""
"null","","html-keyboard-response","115","686530","0.0-114.0","A25AYMSZNDW1VJ","<p style=""font-size: 48px;"">+</p>","","","","","null","allTrialResponses","1000","1","10","img_art/2.jpg","-40","Colors do not work well together.","Garrett,Charles,Justin,Travis,Benjamin,Logan","I like this picture a little because the colors make it look a little vibrant.,10,180,20","I like the green,13,100,20","This one feels rather flat and not engaging.,-15,280,20","I didn't like this it looked like a kindergardner painted it and the green was out of place.,-46,260,20","bright and happy,20,260,20","omg she's so cute look at that little smile those eyelashes ugh love it,30,360,20","Travis","I didn't like this it looked like a kindergardner painted it and the green was out of place.,-46,260,20","Justin","This one feels rather flat and not engaging.,-15,280,20","Garrett","I like this picture a little because the colors make it look a little vibrant.,10,180,20","2"
"3925","","survey-text","116","690500","0.0-115.0-0.0","A25AYMSZNDW1VJ","","","","{""Q0"":""our""}","","","","","","","","","","","","","","","","","","","","","","",""
"14336","","survey-text","117","704845","0.0-116.0-0.0","A25AYMSZNDW1VJ","","","","{""Q0"":""Looks like someone just threw something on a canvas.""}","","","","","","","","","","","","","","","","","","","","","","",""
"2074.5","","image-slider-response","118","706924","0.0-117.0","A25AYMSZNDW1VJ","","","","","-35","","","","","","","","","","","","","","","","","","","","","",""
"3044","","image-button-response","119","711935","0.0-118.0","A25AYMSZNDW1VJ","img_art/3.jpg","3","","","","","","","","","","","","","","","","","","","","","","","","",""
"1010","","image-button-response","120","712949","0.0-119.0","A25AYMSZNDW1VJ","img_art/3.jpg","3","","","","","","","","","","","","","","","","","","","","","","","","",""
"1698","","image-button-response","121","714653","0.0-120.0-0.0","A25AYMSZNDW1VJ","img_art/3.jpg","1","","","","","","","","","","","","","","","","","","","","","","","","",""
"682","","image-button-response","122","715340","0.0-121.0-0.0","A25AYMSZNDW1VJ","img_art/3.jpg","0","","","","","","","","","","","","","","","","","","","","","","","","",""
"null","","html-keyboard-response","123","716344","0.0-122.0","A25AYMSZNDW1VJ","<p style=""font-size: 48px;"">+</p>","","","","","null","allTrialResponses","1000","1","11","img_art/3.jpg","-35","Looks like someone just threw something on a canvas.","Garrett,Bryce,Justin,Travis,Alexis,Jesus","I can't tell what this image is supposed to be it looks extremely ugly and color variety is boring.,-50,180,20","Scary. Looks like blood.,-45,20,20","I don't care for art that looks like it was just scribbled.,-19,280,20","I hate this...just a scribble of red.,-50,260,20","It looks like a child drawing,-29,140,20","I like the simplicity of it.,20,100,20","Travis","I hate this...just a scribble of red.,-50,260,20","Bryce","Scary. Looks like blood.,-45,20,20","Garrett","I can't tell what this image is supposed to be it looks extremely ugly and color variety is boring.,-50,180,20","2"
"20090","","survey-text","124","736445","0.0-123.0-0.0","A25AYMSZNDW1VJ","","","","{""Q0"":""Looks like something that would be used for halloween.""}","","","","","","","","","","","","","","","","","","","","","","",""
"4545.5","","image-slider-response","125","740997","0.0-124.0","A25AYMSZNDW1VJ","","","","","-16","","","","","","","","","","","","","","","","","","","","","",""
"null","","image-button-response","126","746007","0.0-125.0","A25AYMSZNDW1VJ","img_art/25.jpg","null","","","","","","","","","","","","","","","","","","","","","","","","",""
"945","","image-button-response","127","746958","0.0-126.0","A25AYMSZNDW1VJ","img_art/25.jpg","5","","","","","","","","","","","","","","","","","","","","","","","","",""
"1651","","image-button-response","128","748615","0.0-127.0-0.0","A25AYMSZNDW1VJ","img_art/25.jpg","2","","","","","","","","","","","","","","","","","","","","","","","","",""
"933","","image-button-response","129","749559","0.0-128.0-0.0","A25AYMSZNDW1VJ","img_art/25.jpg","3","","","","","","","","","","","","","","","","","","","","","","","","",""
"null","","html-keyboard-response","130","750064","0.0-129.0","A25AYMSZNDW1VJ","<p style=""font-size: 48px;"">+</p>","","","","","null","allTrialResponses","500","1","12","img_art/25.jpg","-16","Looks like something that would be used for halloween.","Garrett,Bryce,Devon,Travis,Colton,Adam","I like the way the persons clothes look, there could be more color though.,10,180,20","I LOVE fhe scary skeleton.,28,20,20","i feel a bit dull, a bit scared,-20,400,20","I hate the colors and the scene,-46,260,20","the colors are pretty,11,220,20","high contrast draws attention to the image, but I'm not sure what I'm seeing,-5,40,20","Adam","high contrast draws attention to the image, but I'm not sure what I'm seeing,-5,40,20","Devon","i feel a bit dull, a bit scared,-20,400,20","Travis","I hate the colors and the scene,-46,260,20","2"
"11138","","survey-text","131","761222","0.0-130.0-0.0","A25AYMSZNDW1VJ","","","","{""Q0"":""Looks like an ancient drawing of some sort.""}","","","","","","","","","","","","","","","","","","","","","","",""
"8705.39999999106","","image-slider-response","132","769933","0.0-131.0","A25AYMSZNDW1VJ","","","","","7","","","","","","","","","","","","","","","","","","","","","",""
"null","","image-button-response","133","774952","0.0-132.0","A25AYMSZNDW1VJ","img_art/28.jpg","null","","","","","","","","","","","","","","","","","","","","","","","","",""
"617","","image-button-response","134","775576","0.0-133.0","A25AYMSZNDW1VJ","img_art/28.jpg","1","","","","","","","","","","","","","","","","","","","","","","","","",""
"1375","","image-button-response","135","776958","0.0-134.0-0.0","A25AYMSZNDW1VJ","img_art/28.jpg","4","","","","","","","","","","","","","","","","","","","","","","","","",""
"1115","","image-button-response","136","778079","0.0-135.0-0.0","A25AYMSZNDW1VJ","img_art/28.jpg","3","","","","","","","","","","","","","","","","","","","","","","","","",""
"null","","html-keyboard-response","137","778584","0.0-136.0","A25AYMSZNDW1VJ","<p style=""font-size: 48px;"">+</p>","","","","","null","allTrialResponses","500","1","13","img_art/28.jpg","7","Looks like an ancient drawing of some sort.","Lucas,Isaiah,Devon,Travis,Dalton,Adam","This painting is mysterious, it makes me curious.,5,380,20","It makes me feel happy, and a little anxious.,50,300,20","i'm not too impressed with this one.,-10,400,20","Hate it...brown and drab,-37,260,20","not sure what i feel but it makes me feel uncomfortable,1,300,20","Dislike the colors.,-20,40,20","Isaiah","It makes me feel happy, and a little anxious.,50,300,20","Dalton","not sure what i feel but it makes me feel uncomfortable,1,300,20","Travis","Hate it...brown and drab,-37,260,20","2"
"42422","","survey-text","138","821021","0.0-137.0-0.0","A25AYMSZNDW1VJ","","","","{""Q0"":""Looks like a musical vibe. I like it.""}","","","","","","","","","","","","","","","","","","","","","","",""
"2921.699999988079","","image-slider-response","139","823949","0.0-138.0","A25AYMSZNDW1VJ","","","","","26","","","","","","","","","","","","","","","","","","","","","",""
"4706","","image-button-response","140","828958","0.0-139.0","A25AYMSZNDW1VJ","img_art/11.jpg","0","","","","","","","","","","","","","","","","","","","","","","","","",""
"1430","","image-button-response","141","830399","0.0-140.0","A25AYMSZNDW1VJ","img_art/11.jpg","3","","","","","","","","","","","","","","","","","","","","","","","","",""
"712","","image-button-response","142","831120","0.0-141.0-0.0","A25AYMSZNDW1VJ","img_art/11.jpg","4","","","","","","","","","","","","","","","","","","","","","","","","",""
"1271","","image-button-response","143","832400","0.0-142.0-0.0","A25AYMSZNDW1VJ","img_art/11.jpg","5","","","","","","","","","","","","","","","","","","","","","","","","",""
"null","","html-keyboard-response","144","833905","0.0-143.0","A25AYMSZNDW1VJ","<p style=""font-size: 48px;"">+</p>","","","","","null","allTrialResponses","1500","1","14","img_art/11.jpg","26","Looks like a musical vibe. I like it.","Edward,Isaiah,Jack,Travis,Dalton,Jose","Reminds me of a city and how chaotic it can be,22,60,20","I feel excited, like I'm in the middle of a bustling city.,26,300,20","makes me think of city highways & bridges on a rainy, foggy day. I like the melancholy it evokes.,43,320,20","I liked it it looked like an roller coasters at an amusment park.,16,260,20","looks like highways and homes and lives intertwining.,27,300,20","Makes me feel like my vision is breaking,19,200,20","Travis","I liked it it looked like an roller coasters at an amusment park.,16,260,20","Dalton","looks like highways and homes and lives intertwining.,27,300,20","Jose","Makes me feel like my vision is breaking,19,200,20","2"
"35602","","survey-text","145","869525","0.0-144.0-0.0","A25AYMSZNDW1VJ","","","","{""Q0"":""I like the green surrounding area but not the middle section.""}","","","","","","","","","","","","","","","","","","","","","","",""
"2866.7000000029802","","image-slider-response","146","872396","0.0-145.0","A25AYMSZNDW1VJ","","","","","5","","","","","","","","","","","","","","","","","","","","","",""
"4795","","image-button-response","147","877411","0.0-146.0","A25AYMSZNDW1VJ","img_art/9.jpg","1","","","","","","","","","","","","","","","","","","","","","","","","",""
"1421","","image-button-response","148","878838","0.0-147.0","A25AYMSZNDW1VJ","img_art/9.jpg","1","","","","","","","","","","","","","","","","","","","","","","","","",""
"2251","","image-button-response","149","881095","0.0-148.0-0.0","A25AYMSZNDW1VJ","img_art/9.jpg","5","","","","","","","","","","","","","","","","","","","","","","","","",""
"4223","","image-button-response","150","885325","0.0-149.0-0.0","A25AYMSZNDW1VJ","img_art/9.jpg","2","","","","","","","","","","","","","","","","","","","","","","","","",""
"null","","html-keyboard-response","151","886334","0.0-150.0","A25AYMSZNDW1VJ","<p style=""font-size: 48px;"">+</p>","","","","","null","allTrialResponses","1000","1","15","img_art/9.jpg","5","I like the green surrounding area but not the middle section.","Sean,Jacob,Samuel,Travis,Dalton,Jose","Gives me anxiety,-23,40,20","So I don't really like this style but it looks somewhat okay,3,340,20","what a wild ride,11,400,20","Stuipid looking...dumb,-48,260,20","a mother in bed surrounded by emotions,1,300,20","Idk what is in the middle but the blurry image makes it seem like the subject is of the painters interest,22,200,20","Jacob","So I don't really like this style but it looks somewhat okay,3,340,20","Jose","Idk what is in the middle but the blurry image makes it seem like the subject is of the painters interest,22,200,20","Samuel","what a wild ride,11,400,20","2"
"3876","","survey-text","152","890236","0.0-151.0-0.0","A25AYMSZNDW1VJ","","","","{""Q0"":""course""}","","","","","","","","","","","","","","","","","","","","","","",""
"31381","","survey-text","153","921620","0.0-152.0-0.0","A25AYMSZNDW1VJ","","","","{""Q0"":""An interesting concept of art.""}","","","","","","","","","","","","","","","","","","","","","","",""
"2827","","image-slider-response","154","924452","0.0-153.0","A25AYMSZNDW1VJ","","","","","6","","","","","","","","","","","","","","","","","","","","","",""
"null","","image-button-response","155","929459","0.0-154.0","A25AYMSZNDW1VJ","img_art/12.jpg","null","","","","","","","","","","","","","","","","","","","","","","","","",""
"4013","","image-button-response","156","933478","0.0-155.0","A25AYMSZNDW1VJ","img_art/12.jpg","5","","","","","","","","","","","","","","","","","","","","","","","","",""
"1849","","image-button-response","157","935333","0.0-156.0-0.0","A25AYMSZNDW1VJ","img_art/12.jpg","2","","","","","","","","","","","","","","","","","","","","","","","","",""
"714","","image-button-response","158","936053","0.0-157.0-0.0","A25AYMSZNDW1VJ","img_art/12.jpg","1","","","","","","","","","","","","","","","","","","","","","","","","",""
"null","","html-keyboard-response","159","937060","0.0-158.0","A25AYMSZNDW1VJ","<p style=""font-size: 48px;"">+</p>","","","","","null","allTrialResponses","1000","1","16","img_art/12.jpg","6","An interesting concept of art.","Stephen,Jacob,Samuel,Chase,Grant,Jose","Comes off as a bit boring.,-11,140,20","I like this concept.,11,340,20","feels cluttered,-11,400,20","It's not particularly interesting or ugly.,-7,120,20","This elicits no reaction in me.,0,200,20","Not sure why but this is my favorite. I'd put it on my wall,50,200,20","Jose","Not sure why but this is my favorite. I'd put it on my wall,50,200,20","Samuel","feels cluttered,-11,400,20","Jacob","I like this concept.,11,340,20","2"
"17610","","survey-text","160","954684","0.0-159.0-0.0","A25AYMSZNDW1VJ","","","","{""Q0"":""This painting has an excellent mix of colors.""}","","","","","","","","","","","","","","","","","","","","","","",""
"4692.4000000059605","","image-slider-response","161","959381","0.0-160.0","A25AYMSZNDW1VJ","","","","","34","","","","","","","","","","","","","","","","","","","","","",""
"null","","image-button-response","162","964386","0.0-161.0","A25AYMSZNDW1VJ","img_art/27.jpg","null","","","","","","","","","","","","","","","","","","","","","","","","",""
"1798","","image-button-response","163","966190","0.0-162.0","A25AYMSZNDW1VJ","img_art/27.jpg","4","","","","","","","","","","","","","","","","","","","","","","","","",""
"1139","","image-button-response","164","967335","0.0-163.0-0.0","A25AYMSZNDW1VJ","img_art/27.jpg","5","","","","","","","","","","","","","","","","","","","","","","","","",""
"2279","","image-button-response","165","969622","0.0-164.0-0.0","A25AYMSZNDW1VJ","img_art/27.jpg","0","","","","","","","","","","","","","","","","","","","","","","","","",""
"null","","html-keyboard-response","166","970128","0.0-165.0","A25AYMSZNDW1VJ","<p style=""font-size: 48px;"">+</p>","","","","","null","allTrialResponses","500","1","17","img_art/27.jpg","34","This painting has an excellent mix of colors.","Antonio,Jacob,Samuel,Victor,Angel,Jose","Didnt actually make me feel anything, sort of bland,3,220,20","Don't get the point of this piece that much, but it doesn't bug me,1,340,20","city at sunset brings happyness,10,400,20","doesn't look like any effort was put into this piece.,-19,340,20","Makes me think of Japanese food. I perceive it as comfortable and healthy.,20,180,20","it's like a weird version of heaven,16,200,20","Angel","Makes me think of Japanese food. I perceive it as comfortable and healthy.,20,180,20","Jose","it's like a weird version of heaven,16,200,20","Antonio","Didnt actually make me feel anything, sort of bland,3,220,20","2"
"37519","","survey-text","167","1007661","0.0-166.0-0.0","A25AYMSZNDW1VJ","","","","{""Q0"":""This looks like a small town with traders.""}","","","","","","","","","","","","","","","","","","","","","","",""
"2243.2999999970198","","image-slider-response","168","1009909","0.0-167.0","A25AYMSZNDW1VJ","","","","","18","","","","","","","","","","","","","","","","","","","","","",""
"null","","image-button-response","169","1015557","0.0-168.0","A25AYMSZNDW1VJ","img_art/19.jpg","null","","","","","","","","","","","","","","","","","","","","","","","","",""
"12653","","image-button-response","170","1028217","0.0-169.0","A25AYMSZNDW1VJ","img_art/19.jpg","5","","","","","","","","","","","","","","","","","","","","","","","","",""
"2581","","image-button-response","171","1030808","0.0-170.0-0.0","A25AYMSZNDW1VJ","img_art/19.jpg","1","","","","","","","","","","","","","","","","","","","","","","","","",""
"986","","image-button-response","172","1031807","0.0-171.0-0.0","A25AYMSZNDW1VJ","img_art/19.jpg","0","","","","","","","","","","","","","","","","","","","","","","","","",""
"null","","html-keyboard-response","173","1033312","0.0-172.0","A25AYMSZNDW1VJ","<p style=""font-size: 48px;"">+</p>","","","","","null","allTrialResponses","1500","1","18","img_art/19.jpg","18","This looks like a small town with traders.","Antonio,Nicholas,Corey,Bryan,Angel,Jose","Chaotic. Too much going on in the picture,14,220,20","Intersting but not for me,21,240,20","i think it is ugly and hate the colors,-35,260,20","Looks like a child's rendering of a city street but not too sure.,0,400,20","This one feels pretty neutral. Like a window into someone's life, one person in a bustling metropolis.,0,180,20","I dig the not being able to tell what anything is but knowing everything is supposed to be something,46,200,20","Jose","I dig the not being able to tell what anything is but knowing everything is supposed to be something,46,200,20","Nicholas","Intersting but not for me,21,240,20","Antonio","Chaotic. Too much going on in the picture,14,220,20","2"
"8155","","survey-text","174","1041493","0.0-173.0-0.0","A25AYMSZNDW1VJ","","","","{""Q0"":""Not a fan of this at all.""}","","","","","","","","","","","","","","","","","","","","","","",""
"2737.5","","image-slider-response","175","1044237","0.0-174.0","A25AYMSZNDW1VJ","","","","","-28","","","","","","","","","","","","","","","","","","","","","",""
"null","","image-button-response","176","1049247","0.0-175.0","A25AYMSZNDW1VJ","img_art/5.jpg","null","","","","","","","","","","","","","","","","","","","","","","","","",""
"2530","","image-button-response","177","1051782","0.0-176.0","A25AYMSZNDW1VJ","img_art/5.jpg","0","","","","","","","","","","","","","","","","","","","","","","","","",""
"1723","","image-button-response","178","1053510","0.0-177.0-0.0","A25AYMSZNDW1VJ","img_art/5.jpg","1","","","","","","","","","","","","","","","","","","","","","","","","",""
"2818","","image-button-response","179","1056333","0.0-178.0-0.0","A25AYMSZNDW1VJ","img_art/5.jpg","4","","","","","","","","","","","","","","","","","","","","","","","","",""
"null","","html-keyboard-response","180","1056836","0.0-179.0","A25AYMSZNDW1VJ","<p style=""font-size: 48px;"">+</p>","","","","","null","allTrialResponses","500","1","19","img_art/5.jpg","-28","Not a fan of this at all.","Antonio,Nicholas,Joshua,Marcus,Jake,Jose","Too much angular things happening, makes me think of stabbing something which makes me uncomfortable,-50,220,20","I cant explain why i like this so much but it really calls out to me,50,240,20","Very basic, but at least has some color to it.,-9,240,20","I really dislike this. It's ugly and looks dirty.,-44,60,20","This is interesting and nice.,16,360,20","Don't love don't hate,8,200,20","Antonio","Too much angular things happening, makes me think of stabbing something which makes me uncomfortable,-50,220,20","Nicholas","I cant explain why i like this so much but it really calls out to me,50,240,20","Jake","This is interesting and nice.,16,360,20","2"
"19180","","survey-text","181","1076029","0.0-180.0-0.0","A25AYMSZNDW1VJ","","","","{""Q0"":""The clashing of colors is fantastic. I feel the white section is unneeded though.""}","","","","","","","","","","","","","","","","","","","","","","",""
"2795.5999999940395","","image-slider-response","182","1078829","0.0-181.0","A25AYMSZNDW1VJ","","","","","24","","","","","","","","","","","","","","","","","","","","","",""
"null","","image-button-response","183","1083834","0.0-182.0","A25AYMSZNDW1VJ","img_art/23.jpg","null","","","","","","","","","","","","","","","","","","","","","","","","",""
"511","","image-button-response","184","1084350","0.0-183.0","A25AYMSZNDW1VJ","img_art/23.jpg","1","","","","","","","","","","","","","","","","","","","","","","","","",""
"899","","image-button-response","185","1085254","0.0-184.0-0.0","A25AYMSZNDW1VJ","img_art/23.jpg","0","","","","","","","","","","","","","","","","","","","","","","","","",""
"1411","","image-button-response","186","1086670","0.0-185.0-0.0","A25AYMSZNDW1VJ","img_art/23.jpg","2","","","","","","","","","","","","","","","","","","","","","","","","",""
"null","","html-keyboard-response","187","1088177","0.0-186.0","A25AYMSZNDW1VJ","<p style=""font-size: 48px;"">+</p>","","","","","null","allTrialResponses","1500","1","20","img_art/23.jpg","24","The clashing of colors is fantastic. I feel the white section is unneeded though.","Antonio,Nicholas,Patrick,Tanner,Jake,Derek","Like the colors and made me feel happy,23,220,20","The more i look at it the more i like it  the dots of color and very interesting,50,240,20","Beautiful color scheme,21,280,20","fsiries, happy, spiritual,16,180,20","This looks like hotel room art, it's ugly and odd.,-2,360,20","Very colorful and wild. It's cool and I like it,32,360,20","Nicholas","The more i look at it the more i like it  the dots of color and very interesting,50,240,20","Antonio","Like the colors and made me feel happy,23,220,20","Patrick","Beautiful color scheme,21,280,20","2"
"2848","","survey-text","188","1091053","0.0-187.0-0.0","A25AYMSZNDW1VJ","","","","{""Q0"":""we""}","","","","","","","","","","","","","","","","","","","","","","",""
"14166","","survey-text","189","1105221","0.0-188.0-0.0","A25AYMSZNDW1VJ","","","","{""Q0"":""This is an amazing piece. As if light is illuminating the whole area.""}","","","","","","","","","","","","","","","","","","","","","","",""
"2707.5999999940395","","image-slider-response","190","1107933","0.0-189.0","A25AYMSZNDW1VJ","","","","","38","","","","","","","","","","","","","","","","","","","","","",""
"3315","","image-button-response","191","1112941","0.0-190.0","A25AYMSZNDW1VJ","img_art/17.jpg","0","","","","","","","","","","","","","","","","","","","","","","","","",""
"2692","","image-button-response","192","1115638","0.0-191.0","A25AYMSZNDW1VJ","img_art/17.jpg","0","","","","","","","","","","","","","","","","","","","","","","","","",""
"4276","","image-button-response","193","1119922","0.0-192.0-0.0","A25AYMSZNDW1VJ","img_art/17.jpg","2","","","","","","","","","","","","","","","","","","","","","","","","",""
"952","","image-button-response","194","1120888","0.0-193.0-0.0","A25AYMSZNDW1VJ","img_art/17.jpg","5","","","","","","","","","","","","","","","","","","","","","","","","",""
"null","","html-keyboard-response","195","1122397","0.0-194.0","A25AYMSZNDW1VJ","<p style=""font-size: 48px;"">+</p>","","","","","null","allTrialResponses","1500","1","21","img_art/17.jpg","38","This is an amazing piece. As if light is illuminating the whole area.","Antonio,Nicholas,Patrick,Peter,Gregory,Aaron","Beautiful colors. Made me feel soft and feminine,50,220,20","Nice colors, shapes, flow,31,240,20","Beautiful patterns but evokes sad emotions in me due to the color shades,31,280,20","I feel okay , it's like a tree,28,320,20","Looks like some fantasy tree. Nice,30,220,20","it brings a clear picture to my minds eye:,45,20,20","Antonio","Beautiful colors. Made me feel soft and feminine,50,220,20","Patrick","Beautiful patterns but evokes sad emotions in me due to the color shades,31,280,20","Aaron","it brings a clear picture to my minds eye:,45,20,20","2"
"28394","","survey-text","196","1150813","0.0-195.0-0.0","A25AYMSZNDW1VJ","","","","{""Q0"":""Colors are nice but not a fan of the shapes.""}","","","","","","","","","","","","","","","","","","","","","","",""
"2346.8999999910593","","image-slider-response","197","1153165","0.0-196.0","A25AYMSZNDW1VJ","","","","","-13","","","","","","","","","","","","","","","","","","","","","",""
"null","","image-button-response","198","1158171","0.0-197.0","A25AYMSZNDW1VJ","img_art/22.jpg","null","","","","","","","","","","","","","","","","","","","","","","","","",""
"415","","image-button-response","199","1158591","0.0-198.0","A25AYMSZNDW1VJ","img_art/22.jpg","4","","","","","","","","","","","","","","","","","","","","","","","","",""
"1377","","image-button-response","200","1159974","0.0-199.0-0.0","A25AYMSZNDW1VJ","img_art/22.jpg","2","","","","","","","","","","","","","","","","","","","","","","","","",""
"786","","image-button-response","201","1160766","0.0-200.0-0.0","A25AYMSZNDW1VJ","img_art/22.jpg","0","","","","","","","","","","","","","","","","","","","","","","","","",""
"null","","html-keyboard-response","202","1161269","0.0-201.0","A25AYMSZNDW1VJ","<p style=""font-size: 48px;"">+</p>","","","","","null","allTrialResponses","500","1","22","img_art/22.jpg","-13","Colors are nice but not a fan of the shapes.","Antonio,Spencer,Patrick,Jesse,Cody,Aaron","Felt blah. Bunch of nothingness,-42,220,20","Pretty colors but too blocky for me,-19,120,20","Looks like a warm sunset to me i like it,42,280,20","I usually dont like blurry pieces but the colors are amazing in this,14,80,20","Love the use of color,50,180,20","Boring, typical abstract art,-30,20,20","Cody","Love the use of color,50,180,20","Patrick","Looks like a warm sunset to me i like it,42,280,20","Antonio","Felt blah. Bunch of nothingness,-42,220,20","2"
"20742","","survey-text","203","1182028","0.0-202.0-0.0","A25AYMSZNDW1VJ","","","","{""Q0"":""Interesting concept. The dark against the white background gives it a glow of sorts.""}","","","","","","","","","","","","","","","","","","","","","","",""
"6323.70000000298","","image-slider-response","204","1188356","0.0-203.0","A25AYMSZNDW1VJ","","","","","0","","","","","","","","","","","","","","","","","","","","","",""
"4947","","image-button-response","205","1193365","0.0-204.0","A25AYMSZNDW1VJ","img_art/15.jpg","5","","","","","","","","","","","","","","","","","","","","","","","","",""
"1194","","image-button-response","206","1194567","0.0-205.0","A25AYMSZNDW1VJ","img_art/15.jpg","5","","","","","","","","","","","","","","","","","","","","","","","","",""
"1641","","image-button-response","207","1196215","0.0-206.0-0.0","A25AYMSZNDW1VJ","img_art/15.jpg","3","","","","","","","","","","","","","","","","","","","","","","","","",""
"873","","image-button-response","208","1197093","0.0-207.0-0.0","A25AYMSZNDW1VJ","img_art/15.jpg","0","","","","","","","","","","","","","","","","","","","","","","","","",""
"null","","html-keyboard-response","209","1197597","0.0-208.0","A25AYMSZNDW1VJ","<p style=""font-size: 48px;"">+</p>","","","","","null","allTrialResponses","500","1","23","img_art/15.jpg","0","Interesting concept. The dark against the white background gives it a glow of sorts.","Antonio,Brian,Patrick,Cole,Cody,Dustin","Makes me think of a bush and flowers and spring and happy warm times,25,220,20","This is simply too ""old-school"",-27,380,20","I don't like the black dots,-19,280,20","It reminds me of when you look up into a tree,21,200,20","Don't love it but it's cute,16,180,20","Too much black. I see weeds or dead/dying flowers.,-40,20,20","Dustin","Too much black. I see weeds or dead/dying flowers.,-40,20,20","Cole","It reminds me of when you look up into a tree,21,200,20","Antonio","Makes me think of a bush and flowers and spring and happy warm times,25,220,20","2"
"48303","","survey-text","210","1245918","0.0-209.0-0.0","A25AYMSZNDW1VJ","","","","{""Q0"":""This looks like a brush painting of nice area of town.""}","","","","","","","","","","","","","","","","","","","","","","",""
"3311.6000000089407","","image-slider-response","211","1249237","0.0-210.0","A25AYMSZNDW1VJ","","","","","28","","","","","","","","","","","","","","","","","","","","","",""
"3643","","image-button-response","212","1254244","0.0-211.0","A25AYMSZNDW1VJ","img_art/26.jpg","4","","","","","","","","","","","","","","","","","","","","","","","","",""
"517","","image-button-response","213","1254766","0.0-212.0","A25AYMSZNDW1VJ","img_art/26.jpg","4","","","","","","","","","","","","","","","","","","","","","","","","",""
"874","","image-button-response","214","1255646","0.0-213.0-0.0","A25AYMSZNDW1VJ","img_art/26.jpg","0","","","","","","","","","","","","","","","","","","","","","","","","",""
"979","","image-button-response","215","1256633","0.0-214.0-0.0","A25AYMSZNDW1VJ","img_art/26.jpg","2","","","","","","","","","","","","","","","","","","","","","","","","",""
"null","","html-keyboard-response","216","1258149","0.0-215.0","A25AYMSZNDW1VJ","<p style=""font-size: 48px;"">+</p>","","","","","null","allTrialResponses","1500","1","24","img_art/26.jpg","28","This looks like a brush painting of nice area of town.","Antonio,Jorge,Kenneth,Cole,Jeremy,Dustin","Calming and relaxing,28,220,20","dull and boring,-6,180,20","Very subdued, but wouldn't give it a 2nd notice.,4,300,20","Another blob on a landscape. A city street?,9,200,20","somewhat happy, like being outside on a nice day,30,60,20","Reminds me of watercolor. Muted tones and blurry soft brush strokes. Calm to me.,1,20,20","Jeremy","somewhat happy, like being outside on a nice day,30,60,20","Antonio","Calming and relaxing,28,220,20","Kenneth","Very subdued, but wouldn't give it a 2nd notice.,4,300,20","2"
"12393","","survey-text","217","1270557","0.0-216.0-0.0","A25AYMSZNDW1VJ","","","","{""Q0"":""A town by the sea shore perhaps?""}","","","","","","","","","","","","","","","","","","","","","","",""
"2248.3999999910593","","image-slider-response","218","1272814","0.0-217.0","A25AYMSZNDW1VJ","","","","","22","","","","","","","","","","","","","","","","","","","","","",""
"null","","image-button-response","219","1277829","0.0-218.0","A25AYMSZNDW1VJ","img_art/20.jpg","null","","","","","","","","","","","","","","","","","","","","","","","","",""
"4364","","image-button-response","220","1282198","0.0-219.0","A25AYMSZNDW1VJ","img_art/20.jpg","0","","","","","","","","","","","","","","","","","","","","","","","","",""
"1650","","image-button-response","221","1283856","0.0-220.0-0.0","A25AYMSZNDW1VJ","img_art/20.jpg","3","","","","","","","","","","","","","","","","","","","","","","","","",""
"1441","","image-button-response","222","1285302","0.0-221.0-0.0","A25AYMSZNDW1VJ","img_art/20.jpg","2","","","","","","","","","","","","","","","","","","","","","","","","",""
"null","","html-keyboard-response","223","1286806","0.0-222.0","A25AYMSZNDW1VJ","<p style=""font-size: 48px;"">+</p>","","","","","null","allTrialResponses","1500","1","25","img_art/20.jpg","22","A town by the sea shore perhaps?","Antonio,Shane,Kenneth,John,Jeremy,Alex","Makes me feel weary,21,220,20","Feels like a town destroyed,-19,80,20","I want to like this more, but i wish it was more detailed. It's hard for me to see what it is.,5,300,20","Its interesting.It almost seems like a painting of a landscape,14,120,20","scared. makes me feel alone or abandoned,-11,60,20","Reminds me of Dali for some reason, whom I don't like,-7,100,20","Antonio","Makes me feel weary,21,220,20","John","Its interesting.It almost seems like a painting of a landscape,14,120,20","Kenneth","I want to like this more, but i wish it was more detailed. It's hard for me to see what it is.,5,300,20","2"
"3300","","survey-text","224","1290141","0.0-223.0-0.0","A25AYMSZNDW1VJ","","","","{""Q0"":""table""}","","","","","","","","","","","","","","","","","","","","","","",""
"16204","","survey-text","225","1306348","0.0-224.0-0.0","A25AYMSZNDW1VJ","","","","{""Q0"":""A beautiful river/waterfall flowing in nature. It's gorgeous.""}","","","","","","","","","","","","","","","","","","","","","","",""
"2132.199999988079","","image-slider-response","226","1308485","0.0-225.0","A25AYMSZNDW1VJ","","","","","42","","","","","","","","","","","","","","","","","","","","","",""
"null","","image-button-response","227","1313497","0.0-226.0","A25AYMSZNDW1VJ","img_art/24.jpg","null","","","","","","","","","","","","","","","","","","","","","","","","",""
"568","","image-button-response","228","1314070","0.0-227.0","A25AYMSZNDW1VJ","img_art/24.jpg","0","","","","","","","","","","","","","","","","","","","","","","","","",""
"1836","","image-button-response","229","1315910","0.0-228.0-0.0","A25AYMSZNDW1VJ","img_art/24.jpg","3","","","","","","","","","","","","","","","","","","","","","","","","",""
"842","","image-button-response","230","1316759","0.0-229.0-0.0","A25AYMSZNDW1VJ","img_art/24.jpg","4","","","","","","","","","","","","","","","","","","","","","","","","",""
"null","","html-keyboard-response","231","1317762","0.0-230.0","A25AYMSZNDW1VJ","<p style=""font-size: 48px;"">+</p>","","","","","null","allTrialResponses","1000","1","26","img_art/24.jpg","42","A beautiful river/waterfall flowing in nature. It's gorgeous.","Antonio,Alexander,Kenneth,John,Jared,Jeffrey","Waterfalls and spring and gives me a sense of renewal,34,220,20","Water through the fruit.,15,120,20","Cute; I like what the image itself & the colors.,25,300,20","Beautiful.Nice use of colors and invokes feelings of serene and peace,40,120,20","i like that the water seems in motion,6,400,20","Very refreshing and vigorous,19,40,20","Antonio","Waterfalls and spring and gives me a sense of renewal,34,220,20","John","Beautiful.Nice use of colors and invokes feelings of serene and peace,40,120,20","Jared","i like that the water seems in motion,6,400,20","2"
"14945","","survey-text","232","1332725","0.0-231.0-0.0","A25AYMSZNDW1VJ","","","","{""Q0"":""Looks otherworldly. Yet the colors are great.""}","","","","","","","","","","","","","","","","","","","","","","",""
"1930.8999999910593","","image-slider-response","233","1334661","0.0-232.0","A25AYMSZNDW1VJ","","","","","22","","","","","","","","","","","","","","","","","","","","","",""
"null","","image-button-response","234","1339680","0.0-233.0","A25AYMSZNDW1VJ","img_art/30.jpg","null","","","","","","","","","","","","","","","","","","","","","","","","",""
"1705","","image-button-response","235","1341391","0.0-234.0","A25AYMSZNDW1VJ","img_art/30.jpg","1","","","","","","","","","","","","","","","","","","","","","","","","",""
"1081","","image-button-response","236","1342478","0.0-235.0-0.0","A25AYMSZNDW1VJ","img_art/30.jpg","0","","","","","","","","","","","","","","","","","","","","","","","","",""
"2929","","image-button-response","237","1345415","0.0-236.0-0.0","A25AYMSZNDW1VJ","img_art/30.jpg","4","","","","","","","","","","","","","","","","","","","","","","","","",""
"null","","html-keyboard-response","238","1346436","0.0-237.0","A25AYMSZNDW1VJ","<p style=""font-size: 48px;"">+</p>","","","","","null","allTrialResponses","1000","1","27","img_art/30.jpg","22","Looks otherworldly. Yet the colors are great.","Antonio,Shawn,Mason,John,Jared,Elijah","Fear. It looks like snakes in the picture,13,220,20","Muddy, sloppy, unprofessional,-44,100,20","Neat, but simple, I could make this. not skilled.,9,100,20","ugly nasty colors,-10,120,20","i dont like how the colors are mixed,-6,400,20","Paint scribbled on canvas,-25,80,20","Shawn","Muddy, sloppy, unprofessional,-44,100,20","Antonio","Fear. It looks like snakes in the picture,13,220,20","Jared","i dont like how the colors are mixed,-6,400,20","2"
"18909","","survey-text","239","1365373","0.0-238.0-0.0","A25AYMSZNDW1VJ","","","","{""Q0"":""Looks as if there's water in the back. Not a fan of the front.""}","","","","","","","","","","","","","","","","","","","","","","",""
"2420.7000000029802","","image-slider-response","240","1367798","0.0-239.0","A25AYMSZNDW1VJ","","","","","-31","","","","","","","","","","","","","","","","","","","","","",""
"null","","image-button-response","241","1372816","0.0-240.0","A25AYMSZNDW1VJ","img_art/13.jpg","null","","","","","","","","","","","","","","","","","","","","","","","","",""
"995","","image-button-response","242","1373814","0.0-241.0","A25AYMSZNDW1VJ","img_art/13.jpg","0","","","","","","","","","","","","","","","","","","","","","","","","",""
"1331","","image-button-response","243","1375151","0.0-242.0-0.0","A25AYMSZNDW1VJ","img_art/13.jpg","4","","","","","","","","","","","","","","","","","","","","","","","","",""
"810","","image-button-response","244","1375966","0.0-243.0-0.0","A25AYMSZNDW1VJ","img_art/13.jpg","0","","","","","","","","","","","","","","","","","","","","","","","","",""
"605","","image-button-response","245","1380007","0.0-243.1-0.1","A25AYMSZNDW1VJ","img_art/13.jpg","2","","","","","","","","","","","","","","","","","","","","","","","","",""
"null","","html-keyboard-response","246","1380525","0.0-244.0","A25AYMSZNDW1VJ","<p style=""font-size: 48px;"">+</p>","","","","","null","allTrialResponses","500","1","28","img_art/13.jpg","-31","Looks as if there's water in the back. Not a fan of the front.","Antonio,Shawn,Mitchell,Noah,Jared,Daniel","Pretty but didnt cause a reaction,33,220,20","Industrial Jackson Pollock knock-off,-20,100,20","Magnified rain around trees. Beautiful happy colors. The little person on the right feels nature is huge.,45,180,20","evokes a dampening feeling,-9,260,20","the blues are soothing but the splatters are too much,-3,400,20","Average overly symmetrical safe,-26,320,20","Antonio","Pretty but didnt cause a reaction,33,220,20","Jared","the blues are soothing but the splatters are too much,-3,400,20","Mitchell","Magnified rain around trees. Beautiful happy colors. The little person on the right feels nature is huge.,45,180,20","4"
"12709","","survey-text","247","1393254","0.0-245.0-0.0","A25AYMSZNDW1VJ","","","","{""Q0"":""Not sure what this is. The colors are dull as well.""}","","","","","","","","","","","","","","","","","","","","","","",""
"2187.0999999940395","","image-slider-response","248","1395446","0.0-246.0","A25AYMSZNDW1VJ","","","","","-18","","","","","","","","","","","","","","","","","","","","","",""
"null","","image-button-response","249","1400457","0.0-247.0","A25AYMSZNDW1VJ","img_art/10.jpg","null","","","","","","","","","","","","","","","","","","","","","","","","",""
"2721","","image-button-response","250","1403182","0.0-248.0","A25AYMSZNDW1VJ","img_art/10.jpg","2","","","","","","","","","","","","","","","","","","","","","","","","",""
"1045","","image-button-response","251","1404232","0.0-249.0-0.0","A25AYMSZNDW1VJ","img_art/10.jpg","1","","","","","","","","","","","","","","","","","","","","","","","","",""
"401","","image-button-response","252","1404638","0.0-250.0-0.0","A25AYMSZNDW1VJ","img_art/10.jpg","0","","","","","","","","","","","","","","","","","","","","","","","","",""
"null","","html-keyboard-response","253","1406144","0.0-251.0","A25AYMSZNDW1VJ","<p style=""font-size: 48px;"">+</p>","","","","","null","allTrialResponses","1500","1","29","img_art/10.jpg","-18","Not sure what this is. The colors are dull as well.","Antonio,Andrew,Mitchell,Taylor,Jared,Paul","This painting made me think of a guitar which made me think of music which envoked happy feelings.,28,220,20","Makes me think of the exhilaration of a roller coaster,31,160,20","Circle of life, with highs and lows, good and bad. You always weather the storm and come out on top.,40,180,20","The roller coaster from hell !!!,-10,200,20","it just doesnt appeal to me.,-10,400,20","It doesn't look pleasing to the eye, it kind of looks like an animal but a dirty one,-38,300,20","Mitchell","Circle of life, with highs and lows, good and bad. You always weather the storm and come out on top.,40,180,20","Andrew","Makes me think of the exhilaration of a roller coaster,31,160,20","Antonio","This painting made me think of a guitar which made me think of music which envoked happy feelings.,28,220,20","4"
"20372","","survey-text","254","1426533","0.0-252.0-0.0","A25AYMSZNDW1VJ","","","","{""Q0"":""The gate at the bottom as well as the trees on the side. Looks interesting.""}","","","","","","","","","","","","","","","","","","","","","","",""
"2059","","image-slider-response","255","1428597","0.0-253.0","A25AYMSZNDW1VJ","","","","","18","","","","","","","","","","","","","","","","","","","","","",""
"null","","image-button-response","256","1433616","0.0-254.0","A25AYMSZNDW1VJ","img_art/8.jpg","null","","","","","","","","","","","","","","","","","","","","","","","","",""
"601","","image-button-response","257","1434222","0.0-255.0","A25AYMSZNDW1VJ","img_art/8.jpg","0","","","","","","","","","","","","","","","","","","","","","","","","",""
"908","","image-button-response","258","1435134","0.0-256.0-0.0","A25AYMSZNDW1VJ","img_art/8.jpg","2","","","","","","","","","","","","","","","","","","","","","","","","",""
"1290","","image-button-response","259","1436431","0.0-257.0-0.0","A25AYMSZNDW1VJ","img_art/8.jpg","4","","","","","","","","","","","","","","","","","","","","","","","","",""
"null","","html-keyboard-response","260","1437946","0.0-258.0","A25AYMSZNDW1VJ","<p style=""font-size: 48px;"">+</p>","","","","","null","allTrialResponses","1500","1","30","img_art/8.jpg","18","The gate at the bottom as well as the trees on the side. Looks interesting.","Antonio,Andrew,Mitchell,Ryan,Trevor,Connor","I love the colors in it and also the faces and door ways. Made me feel hopeful,35,220,20","Looks like it would be an interesting place to live,35,160,20","Lost in a big city confuse as to where to go to next. No matter if you live in a mansion or homeless. Being bigger than what is going on around you,30,180,20","I love architectural paintings,46,380,20","it looks very 80's and kind of scary,-11,280,20","Lots of depth, faces, city, arch,3,240,20","Antonio","I love the colors in it and also the faces and door ways. Made me feel hopeful,35,220,20","Mitchell","Lost in a big city confuse as to where to go to next. No matter if you live in a mansion or homeless. Being bigger than what is going on around you,30,180,20","Trevor","it looks very 80's and kind of scary,-11,280,20","4"
"8792","","image-button-response_instructions","261","1446758","0.0-259.0","A25AYMSZNDW1VJ","","0","instructions","","","","","","","","","","","","","","","","","","","","","","","",""
"1309","","image-button-response","262","1448085","0.0-260.0","A25AYMSZNDW1VJ","","0","","","","","","","","","","","","","","","","","","","","","","","","",""
