"rt","url","trial_type","trial_index","time_elapsed","internal_node_id","participant_id","stimulus","button_pressed","Name","responses","response","key_press","variableName","fixationTime","condition","trial","photo","subjectRating","subjectResponse","agentsNames","agent_1_Response","agent_2_Response","agent_3_Response","agent_4_Response","agent_5_Response","agent_6_Response","kept_1_name","kept_1_response","kept_2_name","kept_2_response","kept_3_name","kept_3_response","errorCounter"
"12380","external_page_harvard.html","external-html","0","13435","0.0-0.0","A25FH7PXC446RG","","","","","","","","","","","","","","","","","","","","","","","","","","",""
"9044","","image-button-response","1","22482","0.0-1.0","A25FH7PXC446RG","","1","","","","","","","","","","","","","","","","","","","","","","","","",""
"2915","","image-button-response","2","25404","0.0-2.0-0.0","A25FH7PXC446RG","","1","phone","","","","","","","","","","","","","","","","","","","","","","","",""
"9328","","survey-text","3","34734","0.0-3.0-0.0","A25FH7PXC446RG","","","","{""Q0"":""A25FH7PXC446RG""}","","","","","","","","","","","","","","","","","","","","","","",""
"163467","","image-button-response_instructions","4","198204","0.0-4.0","A25FH7PXC446RG","","0","instructions","","","","","","","","","","","","","","","","","","","","","","","",""
"33464","","image-button-response_instructions","5","231670","0.0-5.0","A25FH7PXC446RG","img_art/ins/popularity/ins1.png","0","instructions","","","","","","","","","","","","","","","","","","","","","","","",""
"6801","","image-button-response_instructions","6","238473","0.0-6.0","A25FH7PXC446RG","img_art/ins/popularity/ins2.png","0","instructions","","","","","","","","","","","","","","","","","","","","","","","",""
"6140","","image-button-response_instructions","7","244615","0.0-7.0","A25FH7PXC446RG","img_art/ins/popularity/ins2Extreme.png","0","instructions","","","","","","","","","","","","","","","","","","","","","","","",""
"83037","","image-button-response_instructions","8","327652","0.0-8.0","A25FH7PXC446RG","img_art/ins/popularity/ins3KEEPpop.PNG","0","instructions","","","","","","","","","","","","","","","","","","","","","","","",""
"9295","","image-button-response_instructions","9","336950","0.0-9.0","A25FH7PXC446RG","img_art/ins/popularity/ins3ANamepop.PNG","0","instructions","","","","","","","","","","","","","","","","","","","","","","","",""
"6273","","image-button-response_instructions","10","343224","0.0-10.0","A25FH7PXC446RG","img_art/ins/popularity/ins3ARatingpop.png","0","instructions","","","","","","","","","","","","","","","","","","","","","","","",""
"10044","","image-button-response_instructions","11","353270","0.0-11.0","A25FH7PXC446RG","img_art/ins/popularity/ins3ATextpop.png","0","instructions","","","","","","","","","","","","","","","","","","","","","","","",""
"12090","","image-button-response_instructions","12","365362","0.0-12.0","A25FH7PXC446RG","img_art/ins/popularity/ins3ALikespop.png","0","instructions","","","","","","","","","","","","","","","","","","","","","","","",""
"27288","","image-button-response_instructions","13","392652","0.0-13.0","A25FH7PXC446RG","img_art/ins/popularity/ins3KEEPpop.PNG","0","instructions","","","","","","","","","","","","","","","","","","","","","","","",""
"20967","","image-button-response_instructions","14","413621","0.0-14.0","A25FH7PXC446RG","img_art/ins/popularity/ins3_5RED.png","0","instructions","","","","","","","","","","","","","","","","","","","","","","","",""
"281944","","image-button-response_instructions","15","695568","0.0-15.0","A25FH7PXC446RG","img_art/ins/popularity/ins3KEEPpop.PNG","0","instructions","","","","","","","","","","","","","","","","","","","","","","","",""
"18300","","image-button-response_instructions","16","713869","0.0-16.0","A25FH7PXC446RG","img_art/ins/popularity/ins4KEEPpop.PNG","0","instructions","","","","","","","","","","","","","","","","","","","","","","","",""
"10594","","image-button-response_instructions","17","724465","0.0-17.0","A25FH7PXC446RG","img_art/ins/popularity/ins5KEEPpop.PNG","0","instructions","","","","","","","","","","","","","","","","","","","","","","","",""
"2759","","image-button-response_instructions","18","727226","0.0-18.0","A25FH7PXC446RG","","0","instructions","","","","","","","","","","","","","","","","","","","","","","","",""
"6648","","survey-text","19","733896","0.0-19.0-0.0","A25FH7PXC446RG","","","","{""Q0"":""but""}","","","","","","","","","","","","","","","","","","","","","","",""
"19565","","survey-text","20","753464","0.0-20.0-0.0","A25FH7PXC446RG","","","","{""Q0"":""looks like a young child painted it""}","","","","","","","","","","","","","","","","","","","","","","",""
"7463.800000071526","","image-slider-response","21","760933","0.0-21.0","A25FH7PXC446RG","","","","","-47","","","","","","","","","","","","","","","","","","","","","",""
"null","","image-button-response","22","765936","0.0-22.0","A25FH7PXC446RG","img_art/ins/1.jpg","null","","","","","","","","","","","","","","","","","","","","","","","","",""
"4758","","image-button-response","23","770696","0.0-23.0","A25FH7PXC446RG","img_art/ins/1.jpg","3","","","","","","","","","","","","","","","","","","","","","","","","",""
"6091","","image-button-response","24","776791","0.0-24.0-0.0","A25FH7PXC446RG","img_art/ins/1.jpg","1","","","","","","","","","","","","","","","","","","","","","","","","",""
"1860","","image-button-response","25","778654","0.0-25.0-0.0","A25FH7PXC446RG","img_art/ins/1.jpg","2","","","","","","","","","","","","","","","","","","","","","","","","",""
"null","","html-keyboard-response","26","779159","0.0-26.0","A25FH7PXC446RG","<p style=""font-size: 48px;"">+</p>","","","","","null","allTrialResponses","500","1","-2","img_art/ins/1.jpg","-47","looks like a young child painted it","Allison,Ashley,Beth,Dora,Erika,Jen","looks like a lot of things going on in the mist,20,20,20","I just don't get why these type of art would be popular,-32,40,20","This color reminds me of poo,-46,60,20","looks like what my niece in 3rd grade did this afternoon,-50,80,20","I like the sophisticated brushwork,40,100,20","It reminds me of a candy land dream I had,36,120,20","Dora","looks like what my niece in 3rd grade did this afternoon,-50,80,20","Ashley","I just don't get why these type of art would be popular,-32,40,20","Beth","This color reminds me of poo,-46,60,20","0"
"26958","","survey-text","27","806128","0.0-27.0-0.0","A25FH7PXC446RG","","","","{""Q0"":""looks like a young child painted it""}","","","","","","","","","","","","","","","","","","","","","","",""
"5274.599999904633","","image-slider-response","28","811406","0.0-28.0","A25FH7PXC446RG","","","","","-50","","","","","","","","","","","","","","","","","","","","","",""
"null","","image-button-response","29","816424","0.0-29.0","A25FH7PXC446RG","img_art/ins/2.jpg","null","","","","","","","","","","","","","","","","","","","","","","","","",""
"568","","image-button-response","30","816994","0.0-30.0","A25FH7PXC446RG","img_art/ins/2.jpg","1","","","","","","","","","","","","","","","","","","","","","","","","",""
"6217","","image-button-response","31","823214","0.0-31.0-0.0","A25FH7PXC446RG","img_art/ins/2.jpg","2","","","","","","","","","","","","","","","","","","","","","","","","",""
"2265","","image-button-response","32","825483","0.0-32.0-0.0","A25FH7PXC446RG","img_art/ins/2.jpg","3","","","","","","","","","","","","","","","","","","","","","","","","",""
"null","","html-keyboard-response","33","825985","0.0-33.0","A25FH7PXC446RG","<p style=""font-size: 48px;"">+</p>","","","","","null","allTrialResponses","500","1","-1","img_art/ins/2.jpg","-50","looks like a young child painted it","Jenna,Ashley,Beth,Dora,Kara,Katie","One of my pet peevs,-48,140,20","Idk, it is just annoying,-32,40,20","meaningless painting,-45,60,20","looks too angry,-50,80,20","I like the blocks of color arrangements,30,160,20","too much color!,-28,180,20","Ashley","Idk, it is just annoying,-32,40,20","Beth","meaningless painting,-45,60,20","Dora","looks too angry,-50,80,20","0"
"11452","","survey-text","34","837444","0.0-34.0-0.0","A25FH7PXC446RG","","","","{""Q0"":""too much blue""}","","","","","","","","","","","","","","","","","","","","","","",""
"5407.400000095367","","image-slider-response","35","842853","0.0-35.0","A25FH7PXC446RG","","","","","-50","","","","","","","","","","","","","","","","","","","","","",""
"null","","image-button-response","36","847859","0.0-36.0","A25FH7PXC446RG","img_art/ins/3.jpg","null","","","","","","","","","","","","","","","","","","","","","","","","",""
"1770","","image-button-response","37","849631","0.0-37.0","A25FH7PXC446RG","img_art/ins/3.jpg","2","","","","","","","","","","","","","","","","","","","","","","","","",""
"2066","","image-button-response","38","851699","0.0-38.0-0.0","A25FH7PXC446RG","img_art/ins/3.jpg","3","","","","","","","","","","","","","","","","","","","","","","","","",""
"1627","","image-button-response","39","853329","0.0-39.0-0.0","A25FH7PXC446RG","img_art/ins/3.jpg","1","","","","","","","","","","","","","","","","","","","","","","","","",""
"null","","html-keyboard-response","40","854331","0.0-40.0","A25FH7PXC446RG","<p style=""font-size: 48px;"">+</p>","","","","","null","allTrialResponses","1000","1","0","img_art/ins/3.jpg","-50","too much blue","Leslie,Ashley,Beth,Dora,Mary,Rose","It's an alright work,15,200,20","It looks like a playground for bats,-36,40,20","This thing gives me anxiety,-41,60,20","My worst nightmare,-42,80,20","I like the overlapping of brushes,41,220,20","My daily routine, it's depressing,-20,240,20","Beth","This thing gives me anxiety,-41,60,20","Dora","My worst nightmare,-42,80,20","Ashley","It looks like a playground for bats,-36,40,20","0"
"4296","","image-button-response_instructions","41","858632","0.0-41.0","A25FH7PXC446RG","","0","instructions","","","","","","","","","","","","","","","","","","","","","","","",""
"30839","","survey-likert","42","889474","0.0-42.0-0.0","A25FH7PXC446RG","","","","{""Q0"":"""",""Q1"":0,""Q2"":1}","","","","","","","","","","","","","","","","","","","","","","",""
"7058","","survey-text","43","896540","0.0-43.0-0.0","A25FH7PXC446RG","","","","{""Q0"":""rock""}","","","","","","","","","","","","","","","","","","","","","","",""
"16430","","survey-text","44","912973","0.0-44.0-0.0","A25FH7PXC446RG","","","","{""Q0"":""looks like finger painting""}","","","","","","","","","","","","","","","","","","","","","","",""
"4595.399999976158","","image-slider-response","45","917572","0.0-45.0","A25FH7PXC446RG","","","","","-50","","","","","","","","","","","","","","","","","","","","","",""
"null","","image-button-response","46","922590","0.0-46.0","A25FH7PXC446RG","img_art/30.jpg","null","","","","","","","","","","","","","","","","","","","","","","","","",""
"7727","","image-button-response","47","930321","0.0-47.0","A25FH7PXC446RG","img_art/30.jpg","4","","","","","","","","","","","","","","","","","","","","","","","","",""
"4410","","image-button-response","48","934737","0.0-48.0-0.0","A25FH7PXC446RG","img_art/30.jpg","5","","","","","","","","","","","","","","","","","","","","","","","","",""
"12826","","image-button-response","49","947566","0.0-49.0-0.0","A25FH7PXC446RG","img_art/30.jpg","3","","","","","","","","","","","","","","","","","","","","","","","","",""
"null","","html-keyboard-response","50","948567","0.0-50.0","A25FH7PXC446RG","<p style=""font-size: 48px;"">+</p>","","","","","null","allTrialResponses","1000","1","1","img_art/30.jpg","-50","looks like finger painting","Haley,Abigail,Anna,Isabella,Jasmine,Christina","I like the colors,18,220,20","Combination of colors arent good,-6,20,20","It looks like a pretty but unremarkable painting in a doctors office,15,300,20","I like the back but the red lines in the front distress me,-7,280,20","Pretty neutral about this one,0,340,20","it looks like some thing I could make it my garage,-18,240,20","Jasmine","Pretty neutral about this one,0,340,20","Christina","it looks like some thing I could make it my garage,-18,240,20","Isabella","I like the back but the red lines in the front distress me,-7,280,20","0"
"22663","","survey-text","51","971235","0.0-51.0-0.0","A25FH7PXC446RG","","","","{""Q0"":""interesting and not sure what to think""}","","","","","","","","","","","","","","","","","","","","","","",""
"4068.100000023842","","image-slider-response","52","975307","0.0-52.0","A25FH7PXC446RG","","","","","-33","","","","","","","","","","","","","","","","","","","","","",""
"null","","image-button-response","53","980313","0.0-53.0","A25FH7PXC446RG","img_art/28.jpg","null","","","","","","","","","","","","","","","","","","","","","","","","",""
"3278","","image-button-response","54","983594","0.0-54.0","A25FH7PXC446RG","img_art/28.jpg","1","","","","","","","","","","","","","","","","","","","","","","","","",""
"4662","","image-button-response","55","988258","0.0-55.0-0.0","A25FH7PXC446RG","img_art/28.jpg","2","","","","","","","","","","","","","","","","","","","","","","","","",""
"5406","","image-button-response","56","993668","0.0-56.0-0.0","A25FH7PXC446RG","img_art/28.jpg","0","","","","","","","","","","","","","","","","","","","","","","","","",""
"null","","html-keyboard-response","57","994171","0.0-57.0","A25FH7PXC446RG","<p style=""font-size: 48px;"">+</p>","","","","","null","allTrialResponses","500","1","2","img_art/28.jpg","-33","interesting and not sure what to think","Brooke,Bailey,Kristen,Isabella,Jasmine,Christina","dislike the colors. it looks like a bike, but misshapen wheels like it was wrecked.,-10,60,20","Has an air of darkness to it, but no real substance besides the mouse-like thing.,-38,360,20","almost reminds me of thomas becket getting his head cut off,21,280,20","This is also something I would see in a serious but safe environment,14,280,20","Colors too dull for me,-10,340,20","very blah colors and it's not fun,-27,240,20","Bailey","Has an air of darkness to it, but no real substance besides the mouse-like thing.,-38,360,20","Kristen","almost reminds me of thomas becket getting his head cut off,21,280,20","Brooke","dislike the colors. it looks like a bike, but misshapen wheels like it was wrecked.,-10,60,20","0"
"11676","","survey-text","58","1005854","0.0-58.0-0.0","A25FH7PXC446RG","","","","{""Q0"":""child art to me""}","","","","","","","","","","","","","","","","","","","","","","",""
"4309.399999976158","","image-slider-response","59","1010166","0.0-59.0","A25FH7PXC446RG","","","","","-24","","","","","","","","","","","","","","","","","","","","","",""
"null","","image-button-response","60","1015179","0.0-60.0","A25FH7PXC446RG","img_art/14.jpg","null","","","","","","","","","","","","","","","","","","","","","","","","",""
"8655","","image-button-response","61","1023836","0.0-61.0","A25FH7PXC446RG","img_art/14.jpg","3","","","","","","","","","","","","","","","","","","","","","","","","",""
"4816","","image-button-response","62","1028655","0.0-62.0-0.0","A25FH7PXC446RG","img_art/14.jpg","5","","","","","","","","","","","","","","","","","","","","","","","","",""
"3106","","image-button-response","63","1031764","0.0-63.0-0.0","A25FH7PXC446RG","img_art/14.jpg","1","","","","","","","","","","","","","","","","","","","","","","","","",""
"null","","html-keyboard-response","64","1033266","0.0-64.0","A25FH7PXC446RG","<p style=""font-size: 48px;"">+</p>","","","","","null","allTrialResponses","1500","1","3","img_art/14.jpg","-24","child art to me","Brooke,Bailey,Kristen,Caitlin,Alexa,Crystal","cotton candy skies. pretty.,35,60,20","Not quite the style I'd like, but it does have a certain air of emptiness.,12,360,20","somewhat stressful, crazy,-3,280,20","Are they blowing up a tree?,-5,80,20","Very abstract and colorful,40,40,20","It looks like a tree but the bleeding water colors lack borders and makes it hard to appreciate the message.,-41,300,20","Caitlin","Are they blowing up a tree?,-5,80,20","Crystal","It looks like a tree but the bleeding water colors lack borders and makes it hard to appreciate the message.,-41,300,20","Bailey","Not quite the style I'd like, but it does have a certain air of emptiness.,12,360,20","0"
"21801","","survey-text","65","1055071","0.0-65.0-0.0","A25FH7PXC446RG","","","","{""Q0"":""It is too dark looking for me""}","","","","","","","","","","","","","","","","","","","","","","",""
"5266.399999976158","","image-slider-response","66","1060340","0.0-66.0","A25FH7PXC446RG","","","","","-49","","","","","","","","","","","","","","","","","","","","","",""
"null","","image-button-response","67","1065351","0.0-67.0","A25FH7PXC446RG","img_art/20.jpg","null","","","","","","","","","","","","","","","","","","","","","","","","",""
"11334","","image-button-response","68","1076687","0.0-68.0","A25FH7PXC446RG","img_art/20.jpg","5","","","","","","","","","","","","","","","","","","","","","","","","",""
"4187","","image-button-response","69","1080881","0.0-69.0-0.0","A25FH7PXC446RG","img_art/20.jpg","1","","","","","","","","","","","","","","","","","","","","","","","","",""
"4731","","image-button-response","70","1085615","0.0-70.0-0.0","A25FH7PXC446RG","img_art/20.jpg","0","","","","","","","","","","","","","","","","","","","","","","","","",""
"null","","html-keyboard-response","71","1087118","0.0-71.0","A25FH7PXC446RG","<p style=""font-size: 48px;"">+</p>","","","","","null","allTrialResponses","1500","1","4","img_art/20.jpg","-49","It is too dark looking for me","Diana,Bailey,Jenna,Caitlin,Amy,Crystal","I'm not sure why this reminds me of surrealism. It might be the colors used.,16,380,20","A bit hectic, but it does have a bit of coolness to it,6,360,20","could look for hours. love the brush work. color choices look like a desert.,50,360,20","Not bad for all the southwestern people.,15,80,20","Elements that are more defined are incongruous to the soft and melting nature of this painting,5,220,20","The pulling and sagging nature is very beautiful.,30,300,20","Crystal","The pulling and sagging nature is very beautiful.,30,300,20","Bailey","A bit hectic, but it does have a bit of coolness to it,6,360,20","Diana","I'm not sure why this reminds me of surrealism. It might be the colors used.,16,380,20","0"
"17295","","survey-text","72","1104417","0.0-72.0-0.0","A25FH7PXC446RG","","","","{""Q0"":""Interesting use of colors""}","","","","","","","","","","","","","","","","","","","","","","",""
"4915.400000095367","","image-slider-response","73","1109337","0.0-73.0","A25FH7PXC446RG","","","","","4","","","","","","","","","","","","","","","","","","","","","",""
"4055","","image-button-response","74","1114340","0.0-74.0","A25FH7PXC446RG","img_art/13.jpg","0","","","","","","","","","","","","","","","","","","","","","","","","",""
"15728","","image-button-response","75","1130069","0.0-75.0","A25FH7PXC446RG","img_art/13.jpg","1","","","","","","","","","","","","","","","","","","","","","","","","",""
"3486","","image-button-response","76","1133559","0.0-76.0-0.0","A25FH7PXC446RG","img_art/13.jpg","2","","","","","","","","","","","","","","","","","","","","","","","","",""
"2430","","image-button-response","77","1135992","0.0-77.0-0.0","A25FH7PXC446RG","img_art/13.jpg","3","","","","","","","","","","","","","","","","","","","","","","","","",""
"null","","html-keyboard-response","78","1136494","0.0-78.0","A25FH7PXC446RG","<p style=""font-size: 48px;"">+</p>","","","","","null","allTrialResponses","500","1","5","img_art/13.jpg","4","Interesting use of colors","Diana,Bailey,Gabrielle,Kathryn,Megan,Crystal","I really loved the color contrast. Having the white stripe in the center makes the it appear 3D.,11,380,20","Looks like an upclose dried set of water droplets. Boring.,-25,360,20","kind of like the pattern and colors but don't love it,13,160,20","Reminds me of depression anxiety, but negativity is dampened by motion. It's trying to release itself through expression.,-10,140,20","Average overly symmetrical safe,-26,200,20","Reminiscent of Jackson Pollock and gives me a feeling of chaotic satisfaction,50,300,20","Bailey","Looks like an upclose dried set of water droplets. Boring.,-25,360,20","Gabrielle","kind of like the pattern and colors but don't love it,13,160,20","Kathryn","Reminds me of depression anxiety, but negativity is dampened by motion. It's trying to release itself through expression.,-10,140,20","0"
"5653","","survey-text","79","1142156","0.0-79.0-0.0","A25FH7PXC446RG","","","","{""Q0"":""sky""}","","","","","","","","","","","","","","","","","","","","","","",""
"17079","","survey-text","80","1159238","0.0-80.0-0.0","A25FH7PXC446RG","","","","{""Q0"":""looks like a big mouth shouting""}","","","","","","","","","","","","","","","","","","","","","","",""
"4255.5","","image-slider-response","81","1163495","0.0-81.0","A25FH7PXC446RG","","","","","-46","","","","","","","","","","","","","","","","","","","","","",""
"null","","image-button-response","82","1168505","0.0-82.0","A25FH7PXC446RG","img_art/9.jpg","null","","","","","","","","","","","","","","","","","","","","","","","","",""
"8831","","image-button-response","83","1177337","0.0-83.0","A25FH7PXC446RG","img_art/9.jpg","1","","","","","","","","","","","","","","","","","","","","","","","","",""
"6868","","image-button-response","84","1184207","0.0-84.0-0.0","A25FH7PXC446RG","img_art/9.jpg","2","","","","","","","","","","","","","","","","","","","","","","","","",""
"7484","","image-button-response","85","1191694","0.0-85.0-0.0","A25FH7PXC446RG","img_art/9.jpg","3","","","","","","","","","","","","","","","","","","","","","","","","",""
"null","","html-keyboard-response","86","1192696","0.0-86.0","A25FH7PXC446RG","<p style=""font-size: 48px;"">+</p>","","","","","null","allTrialResponses","1000","1","6","img_art/9.jpg","-46","looks like a big mouth shouting","Sierra,Bailey,Gabrielle,Kathryn,Elizabeth,Kylie","it looks like a lady resting. it is soothing.,4,260,20","Not very enticing. No real substance other than a lady laying down,-35,360,20","looks like an imitation of a real piece of art, reclining lady,-1,160,20","This feels dreamy. Like I'm seeing inside someone's head while they're sleeping.,20,140,20","Love the uniqueness,21,20,20","Peaceful dreaming,40,300,20","Bailey","Not very enticing. No real substance other than a lady laying down,-35,360,20","Gabrielle","looks like an imitation of a real piece of art, reclining lady,-1,160,20","Kathryn","This feels dreamy. Like I'm seeing inside someone's head while they're sleeping.,20,140,20","0"
"19476","","survey-text","87","1212175","0.0-87.0-0.0","A25FH7PXC446RG","","","","{""Q0"":""interesting colors and soothing""}","","","","","","","","","","","","","","","","","","","","","","",""
"3576.2999999523163","","image-slider-response","88","1215758","0.0-88.0","A25FH7PXC446RG","","","","","11","","","","","","","","","","","","","","","","","","","","","",""
"null","","image-button-response","89","1220767","0.0-89.0","A25FH7PXC446RG","img_art/17.jpg","null","","","","","","","","","","","","","","","","","","","","","","","","",""
"1967","","image-button-response","90","1222736","0.0-90.0","A25FH7PXC446RG","img_art/17.jpg","2","","","","","","","","","","","","","","","","","","","","","","","","",""
"7015","","image-button-response","91","1229753","0.0-91.0-0.0","A25FH7PXC446RG","img_art/17.jpg","5","","","","","","","","","","","","","","","","","","","","","","","","",""
"4895","","image-button-response","92","1234651","0.0-92.0-0.0","A25FH7PXC446RG","img_art/17.jpg","0","","","","","","","","","","","","","","","","","","","","","","","","",""
"null","","html-keyboard-response","93","1235660","0.0-93.0","A25FH7PXC446RG","<p style=""font-size: 48px;"">+</p>","","","","","null","allTrialResponses","1000","1","7","img_art/17.jpg","11","interesting colors and soothing","Katelyn,Bailey,Gabrielle,Kathryn,Jennifer,Alexandria","Doesnt completely turn me off but wouldnt look twice,-3,100,20","I like the artistic sketching pattern.,24,360,20","nice composition and colors, fairy land,28,160,20","Reminds me of the modern art museum in Rome. I didn't ""get"" many pieces, but had a positive cultural experience overall.,20,140,20","Very elegant, this design reminds me of trees,31,380,20","it looks very intricate and colorful,50,80,20","Gabrielle","nice composition and colors, fairy land,28,160,20","Alexandria","it looks very intricate and colorful,50,80,20","Katelyn","Doesnt completely turn me off but wouldnt look twice,-3,100,20","0"
"15068","","survey-text","94","1250738","0.0-94.0-0.0","A25FH7PXC446RG","","","","{""Q0"":""A nice southwestern piece""}","","","","","","","","","","","","","","","","","","","","","","",""
"4269.199999928474","","image-slider-response","95","1255009","0.0-95.0","A25FH7PXC446RG","","","","","10","","","","","","","","","","","","","","","","","","","","","",""
"null","","image-button-response","96","1260012","0.0-96.0","A25FH7PXC446RG","img_art/19.jpg","null","","","","","","","","","","","","","","","","","","","","","","","","",""
"7880","","image-button-response","97","1267894","0.0-97.0","A25FH7PXC446RG","img_art/19.jpg","5","","","","","","","","","","","","","","","","","","","","","","","","",""
"3439","","image-button-response","98","1271336","0.0-98.0-0.0","A25FH7PXC446RG","img_art/19.jpg","2","","","","","","","","","","","","","","","","","","","","","","","","",""
"3679","","image-button-response","99","1275018","0.0-99.0-0.0","A25FH7PXC446RG","img_art/19.jpg","3","","","","","","","","","","","","","","","","","","","","","","","","",""
"null","","html-keyboard-response","100","1276533","0.0-100.0","A25FH7PXC446RG","<p style=""font-size: 48px;"">+</p>","","","","","null","allTrialResponses","1500","1","8","img_art/19.jpg","10","A nice southwestern piece","Katelyn,Paige,Gabrielle,Molly,Kelly,Alexandria","I dont like the smudge effect,-7,100,20","it's too busy for me. Makes me feel stressed.,1,60,20","not professional looking but not bad either,13,160,20","I can see kind of beach and sea full of people and buildings.,25,340,20","TOo much brown.,-24,220,20","it draws my eye and my mind fills in the spaces,14,80,20","Alexandria","it draws my eye and my mind fills in the spaces,14,80,20","Gabrielle","not professional looking but not bad either,13,160,20","Molly","I can see kind of beach and sea full of people and buildings.,25,340,20","0"
"13864","","survey-text","101","1290403","0.0-101.0-0.0","A25FH7PXC446RG","","","","{""Q0"":""not impress""}","","","","","","","","","","","","","","","","","","","","","","",""
"4838.600000023842","","image-slider-response","102","1295244","0.0-102.0","A25FH7PXC446RG","","","","","-50","","","","","","","","","","","","","","","","","","","","","",""
"2664","","image-button-response","103","1300240","0.0-103.0","A25FH7PXC446RG","img_art/5.jpg","0","","","","","","","","","","","","","","","","","","","","","","","","",""
"884","","image-button-response","104","1301128","0.0-104.0","A25FH7PXC446RG","img_art/5.jpg","0","","","","","","","","","","","","","","","","","","","","","","","","",""
"1179","","image-button-response","105","1302308","0.0-105.0-0.0","A25FH7PXC446RG","img_art/5.jpg","2","","","","","","","","","","","","","","","","","","","","","","","","",""
"2227","","image-button-response","106","1304536","0.0-106.0-0.0","A25FH7PXC446RG","img_art/5.jpg","0","","","","","","","","","","","","","","","","","","","","","","","","",""
"3796","","image-button-response","107","1312439","0.0-106.1-0.1","A25FH7PXC446RG","img_art/5.jpg","3","","","","","","","","","","","","","","","","","","","","","","","","",""
"null","","html-keyboard-response","108","1312942","0.0-107.0","A25FH7PXC446RG","<p style=""font-size: 48px;"">+</p>","","","","","null","allTrialResponses","500","1","9","img_art/5.jpg","-50","not impress","Erika,Melissa,Gabrielle,Molly,Caroline,Alexandria","Not sure what I'm looking at,-16,100,20","strong appeal in contrast,27,240,20","looks like a 2nd grader did it,-50,160,20","Very non-dynamic painting, dislike it.,-10,340,20","Too much angular things happening, makes me think of stabbing something which makes me uncomfortable,-50,100,20","no clear emotion,-16,80,20","Erika","Not sure what I'm looking at,-16,100,20","Gabrielle","looks like a 2nd grader did it,-50,160,20","Molly","Very non-dynamic painting, dislike it.,-10,340,20","2"
"18127","","survey-text","109","1331076","0.0-108.0-0.0","A25FH7PXC446RG","","","","{""Q0"":""i like the cute teddy bear""}","","","","","","","","","","","","","","","","","","","","","","",""
"4628.700000047684","","image-slider-response","110","1335706","0.0-109.0","A25FH7PXC446RG","","","","","30","","","","","","","","","","","","","","","","","","","","","",""
"2874","","image-button-response","111","1340709","0.0-110.0","A25FH7PXC446RG","img_art/16.jpg","0","","","","","","","","","","","","","","","","","","","","","","","","",""
"5904","","image-button-response","112","1346616","0.0-111.0","A25FH7PXC446RG","img_art/16.jpg","1","","","","","","","","","","","","","","","","","","","","","","","","",""
"1939","","image-button-response","113","1348557","0.0-112.0-0.0","A25FH7PXC446RG","img_art/16.jpg","5","","","","","","","","","","","","","","","","","","","","","","","","",""
"1721","","image-button-response","114","1350281","0.0-113.0-0.0","A25FH7PXC446RG","img_art/16.jpg","0","","","","","","","","","","","","","","","","","","","","","","","","",""
"null","","html-keyboard-response","115","1351790","0.0-114.0","A25FH7PXC446RG","<p style=""font-size: 48px;"">+</p>","","","","","null","allTrialResponses","1500","1","10","img_art/16.jpg","30","i like the cute teddy bear","Erika,Heather,Gabrielle,Molly,Kayla,Jamie","Very emotional,23,100,20","lol i dont know how i feel about this.,1,260,20","nonsense art, not really art,-44,160,20","It's frightening.,30,340,20","Looks upsetting. Like it's actually graphic violence but you can't tell.,-24,180,20","Weird and funny,40,320,20","Heather","lol i dont know how i feel about this.,1,260,20","Jamie","Weird and funny,40,320,20","Erika","Very emotional,23,100,20","2"
"5852","","survey-text","116","1357655","0.0-115.0-0.0","A25FH7PXC446RG","","","","{""Q0"":""our""}","","","","","","","","","","","","","","","","","","","","","","",""
"26441","","survey-text","117","1384099","0.0-116.0-0.0","A25FH7PXC446RG","","","","{""Q0"":""relaxing and I like the colors""}","","","","","","","","","","","","","","","","","","","","","","",""
"3690","","image-slider-response","118","1387792","0.0-117.0","A25FH7PXC446RG","","","","","33","","","","","","","","","","","","","","","","","","","","","",""
"4455","","image-button-response","119","1392795","0.0-118.0","A25FH7PXC446RG","img_art/21.jpg","1","","","","","","","","","","","","","","","","","","","","","","","","",""
"347","","image-button-response","120","1393143","0.0-119.0","A25FH7PXC446RG","img_art/21.jpg","0","","","","","","","","","","","","","","","","","","","","","","","","",""
"767","","image-button-response","121","1393912","0.0-120.0-0.0","A25FH7PXC446RG","img_art/21.jpg","1","","","","","","","","","","","","","","","","","","","","","","","","",""
"8435","","image-button-response","122","1402350","0.0-121.0-0.0","A25FH7PXC446RG","img_art/21.jpg","5","","","","","","","","","","","","","","","","","","","","","","","","",""
"null","","html-keyboard-response","123","1402852","0.0-122.0","A25FH7PXC446RG","<p style=""font-size: 48px;"">+</p>","","","","","null","allTrialResponses","500","1","11","img_art/21.jpg","33","relaxing and I like the colors","Erika,Heather,Savannah,Mikayla,Breanna,Jamie","Indistinct, but beautiful hues,10,100,20","The color spectrum is just beautiful.,32,260,20","Almost appears like the background of an old renaissance painting.,40,200,20","Nothing exciting in this one.,-36,300,20","Can't understand what it is,-27,380,20","Contrast of fire and water looks cool,20,320,20","Erika","Indistinct, but beautiful hues,10,100,20","Heather","The color spectrum is just beautiful.,32,260,20","Jamie","Contrast of fire and water looks cool,20,320,20","2"
"17096","","survey-text","124","1419952","0.0-123.0-0.0","A25FH7PXC446RG","","","","{""Q0"":""this is boring and not sure what it is""}","","","","","","","","","","","","","","","","","","","","","","",""
"5310.200000047684","","image-slider-response","125","1425264","0.0-124.0","A25FH7PXC446RG","","","","","-50","","","","","","","","","","","","","","","","","","","","","",""
"null","","image-button-response","126","1430267","0.0-125.0","A25FH7PXC446RG","img_art/10.jpg","null","","","","","","","","","","","","","","","","","","","","","","","","",""
"6057","","image-button-response","127","1436325","0.0-126.0","A25FH7PXC446RG","img_art/10.jpg","5","","","","","","","","","","","","","","","","","","","","","","","","",""
"2904","","image-button-response","128","1439232","0.0-127.0-0.0","A25FH7PXC446RG","img_art/10.jpg","1","","","","","","","","","","","","","","","","","","","","","","","","",""
"1654","","image-button-response","129","1440887","0.0-128.0-0.0","A25FH7PXC446RG","img_art/10.jpg","0","","","","","","","","","","","","","","","","","","","","","","","","",""
"null","","html-keyboard-response","130","1442392","0.0-129.0","A25FH7PXC446RG","<p style=""font-size: 48px;"">+</p>","","","","","null","allTrialResponses","1500","1","12","img_art/10.jpg","-50","this is boring and not sure what it is","Erika,Heather,Hailey,Hannah,Mackenzie,Jamie","Good texture, expressive,18,100,20","for some reason reminds me of music,2,260,20","a fast racetrack. go, go, go,5,200,20","This one is interesting. I like it.,11,240,20","The design is very fluid and fun to interpret,35,20,20","Well done designs for being considered abstract,45,320,20","Jamie","Well done designs for being considered abstract,45,320,20","Heather","for some reason reminds me of music,2,260,20","Erika","Good texture, expressive,18,100,20","2"
"20096","","survey-text","131","1462494","0.0-130.0-0.0","A25FH7PXC446RG","","","","{""Q0"":""Good texture but gives me a headache""}","","","","","","","","","","","","","","","","","","","","","","",""
"3723.5","","image-slider-response","132","1466222","0.0-131.0","A25FH7PXC446RG","","","","","-50","","","","","","","","","","","","","","","","","","","","","",""
"null","","image-button-response","133","1471226","0.0-132.0","A25FH7PXC446RG","img_art/12.jpg","null","","","","","","","","","","","","","","","","","","","","","","","","",""
"2605","","image-button-response","134","1473835","0.0-133.0","A25FH7PXC446RG","img_art/12.jpg","2","","","","","","","","","","","","","","","","","","","","","","","","",""
"2885","","image-button-response","135","1476723","0.0-134.0-0.0","A25FH7PXC446RG","img_art/12.jpg","4","","","","","","","","","","","","","","","","","","","","","","","","",""
"3422","","image-button-response","136","1480148","0.0-135.0-0.0","A25FH7PXC446RG","img_art/12.jpg","3","","","","","","","","","","","","","","","","","","","","","","","","",""
"null","","html-keyboard-response","137","1481157","0.0-136.0","A25FH7PXC446RG","<p style=""font-size: 48px;"">+</p>","","","","","null","allTrialResponses","1000","1","13","img_art/12.jpg","-50","Good texture but gives me a headache","Erika,Heather,Maria,Gabriela,Angelica,Jamie","I don't like it, but I appreciate the effort and technique,11,100,20","beautiful also reminds me of a quilt,1,260,20","evokes the 80s, and not in a necessarily good way,-10,120,20","In my opinion, this photo has an old school vibe,22,140,20","It's strange looking and unappealing.,-4,280,20","Black and white contrast with color looks nice,15,320,20","Maria","evokes the 80s, and not in a necessarily good way,-10,120,20","Angelica","It's strange looking and unappealing.,-4,280,20","Gabriela","In my opinion, this photo has an old school vibe,22,140,20","2"
"15848","","survey-text","138","1497011","0.0-137.0-0.0","A25FH7PXC446RG","","","","{""Q0"":""reminds me of pirate ghosts""}","","","","","","","","","","","","","","","","","","","","","","",""
"4527.399999976158","","image-slider-response","139","1501541","0.0-138.0","A25FH7PXC446RG","","","","","-44","","","","","","","","","","","","","","","","","","","","","",""
"4084","","image-button-response","140","1506544","0.0-139.0","A25FH7PXC446RG","img_art/18.jpg","0","","","","","","","","","","","","","","","","","","","","","","","","",""
"5461","","image-button-response","141","1512007","0.0-140.0","A25FH7PXC446RG","img_art/18.jpg","4","","","","","","","","","","","","","","","","","","","","","","","","",""
"3158","","image-button-response","142","1515169","0.0-141.0-0.0","A25FH7PXC446RG","img_art/18.jpg","5","","","","","","","","","","","","","","","","","","","","","","","","",""
"3538","","image-button-response","143","1518710","0.0-142.0-0.0","A25FH7PXC446RG","img_art/18.jpg","0","","","","","","","","","","","","","","","","","","","","","","","","",""
"null","","html-keyboard-response","144","1519712","0.0-143.0","A25FH7PXC446RG","<p style=""font-size: 48px;"">+</p>","","","","","null","allTrialResponses","1000","1","14","img_art/18.jpg","-44","reminds me of pirate ghosts","Alexis,Emily,Maria,Gabriela,Angelica,Ashley","Crusade-feel, but a little too abstract for my taste,23,100,20","Not my style but I can see some serious skill went int it.,21,40,20","enjoy the juxtaposition of abstract with tangible elements & the use of color,10,120,20","It's possibly of a mermaid luring in a ship,15,140,20","It looks grotesque and violent.,-50,280,20","Resembles a ship at sea, storm of activity.,28,320,20","Angelica","It looks grotesque and violent.,-50,280,20","Ashley","Resembles a ship at sea, storm of activity.,28,320,20","Alexis","Crusade-feel, but a little too abstract for my taste,23,100,20","2"
"15014","","survey-text","145","1534730","0.0-144.0-0.0","A25FH7PXC446RG","","","","{""Q0"":""reminds me of witchcraft""}","","","","","","","","","","","","","","","","","","","","","","",""
"4540.5","","image-slider-response","146","1539273","0.0-145.0","A25FH7PXC446RG","","","","","-50","","","","","","","","","","","","","","","","","","","","","",""
"null","","image-button-response","147","1544282","0.0-146.0","A25FH7PXC446RG","img_art/25.jpg","null","","","","","","","","","","","","","","","","","","","","","","","","",""
"1966","","image-button-response","148","1546251","0.0-147.0","A25FH7PXC446RG","img_art/25.jpg","2","","","","","","","","","","","","","","","","","","","","","","","","",""
"2351","","image-button-response","149","1548604","0.0-148.0-0.0","A25FH7PXC446RG","img_art/25.jpg","4","","","","","","","","","","","","","","","","","","","","","","","","",""
"1468","","image-button-response","150","1550074","0.0-149.0-0.0","A25FH7PXC446RG","img_art/25.jpg","3","","","","","","","","","","","","","","","","","","","","","","","","",""
"null","","html-keyboard-response","151","1551082","0.0-150.0","A25FH7PXC446RG","<p style=""font-size: 48px;"">+</p>","","","","","null","allTrialResponses","1000","1","15","img_art/25.jpg","-50","reminds me of witchcraft","Alexis,Stephanie,Alyssa,Cassandra,Angelica,Ashley","Reminds me of cave drawings,21,100,20","It made me think of healing.,22,300,20","Dark silhouette against the murky background Illicites an ominous feeling. Don't really like it.,-20,160,20","I hate the colors and the scene,-46,120,20","This is strange and poorly done.,-2,280,20","haunting, a lovely impression.,50,320,20","Alyssa","Dark silhouette against the murky background Illicites an ominous feeling. Don't really like it.,-20,160,20","Angelica","This is strange and poorly done.,-2,280,20","Cassandra","I hate the colors and the scene,-46,120,20","2"
"6137","","survey-text","152","1557228","0.0-151.0-0.0","A25FH7PXC446RG","","","","{""Q0"":""course""}","","","","","","","","","","","","","","","","","","","","","","",""
"16474","","survey-text","153","1573705","0.0-152.0-0.0","A25FH7PXC446RG","","","","{""Q0"":""not impress with this one""}","","","","","","","","","","","","","","","","","","","","","","",""
"3733.899999976158","","image-slider-response","154","1577441","0.0-153.0","A25FH7PXC446RG","","","","","-50","","","","","","","","","","","","","","","","","","","","","",""
"4171","","image-button-response","155","1582443","0.0-154.0","A25FH7PXC446RG","img_art/29.jpg","0","","","","","","","","","","","","","","","","","","","","","","","","",""
"5468","","image-button-response","156","1587915","0.0-155.0","A25FH7PXC446RG","img_art/29.jpg","3","","","","","","","","","","","","","","","","","","","","","","","","",""
"2941","","image-button-response","157","1590858","0.0-156.0-0.0","A25FH7PXC446RG","img_art/29.jpg","5","","","","","","","","","","","","","","","","","","","","","","","","",""
"2561","","image-button-response","158","1593422","0.0-157.0-0.0","A25FH7PXC446RG","img_art/29.jpg","0","","","","","","","","","","","","","","","","","","","","","","","","",""
"null","","html-keyboard-response","159","1593924","0.0-158.0","A25FH7PXC446RG","<p style=""font-size: 48px;"">+</p>","","","","","null","allTrialResponses","500","1","16","img_art/29.jpg","-50","not impress with this one","Cynthia,Mary,Alyssa,Cassandra,Angelica,Erin","makes me feel busy and unorganized,4,320,20","I love the angry emotion to this art. I feel very drawn to it.,18,180,20","Its interesting although doesnt illicit any strong emotions from me,10,160,20","Neural...just a blackboard jungle.,3,120,20","This is very gross and odd looking.,-8,280,20","Red X is scary, like the bricks,7,120,20","Cassandra","Neural...just a blackboard jungle.,3,120,20","Erin","Red X is scary, like the bricks,7,120,20","Cynthia","makes me feel busy and unorganized,4,320,20","2"
"16608","","survey-text","160","1610538","0.0-159.0-0.0","A25FH7PXC446RG","","","","{""Q0"":""reminds me of rocks in clay""}","","","","","","","","","","","","","","","","","","","","","","",""
"4376.5","","image-slider-response","161","1614917","0.0-160.0","A25FH7PXC446RG","","","","","-40","","","","","","","","","","","","","","","","","","","","","",""
"null","","image-button-response","162","1619932","0.0-161.0","A25FH7PXC446RG","img_art/7.jpg","null","","","","","","","","","","","","","","","","","","","","","","","","",""
"912","","image-button-response","163","1620846","0.0-162.0","A25FH7PXC446RG","img_art/7.jpg","3","","","","","","","","","","","","","","","","","","","","","","","","",""
"1676","","image-button-response","164","1622523","0.0-163.0-0.0","A25FH7PXC446RG","img_art/7.jpg","4","","","","","","","","","","","","","","","","","","","","","","","","",""
"2422","","image-button-response","165","1624947","0.0-164.0-0.0","A25FH7PXC446RG","img_art/7.jpg","5","","","","","","","","","","","","","","","","","","","","","","","","",""
"null","","html-keyboard-response","166","1625449","0.0-165.0","A25FH7PXC446RG","<p style=""font-size: 48px;"">+</p>","","","","","null","allTrialResponses","500","1","17","img_art/7.jpg","-40","reminds me of rocks in clay","Cynthia,Chelsea,Sarah,Cassandra,Leslie,Erin","time and change,1,320,20","It looks more like wallpaper rather than a painting.,-27,180,20","i kind of like this, it looks like a photo of a planet's surface,16,180,20","Just neutral...looks like sand at the beach.,3,120,20","This elicits no reaction in me.,0,380,20","Color is bland and looks damaged,-37,120,20","Cassandra","Just neutral...looks like sand at the beach.,3,120,20","Leslie","This elicits no reaction in me.,0,380,20","Erin","Color is bland and looks damaged,-37,120,20","2"
"17886","","survey-text","167","1643343","0.0-166.0-0.0","A25FH7PXC446RG","","","","{""Q0"":""looks like a child painted it""}","","","","","","","","","","","","","","","","","","","","","","",""
"3912.7000000476837","","image-slider-response","168","1647261","0.0-167.0","A25FH7PXC446RG","","","","","-45","","","","","","","","","","","","","","","","","","","","","",""
"2786","","image-button-response","169","1652264","0.0-168.0","A25FH7PXC446RG","img_art/2.jpg","1","","","","","","","","","","","","","","","","","","","","","","","","",""
"2868","","image-button-response","170","1655135","0.0-169.0","A25FH7PXC446RG","img_art/2.jpg","5","","","","","","","","","","","","","","","","","","","","","","","","",""
"5617","","image-button-response","171","1660755","0.0-170.0-0.0","A25FH7PXC446RG","img_art/2.jpg","4","","","","","","","","","","","","","","","","","","","","","","","","",""
"3260","","image-button-response","172","1664017","0.0-171.0-0.0","A25FH7PXC446RG","img_art/2.jpg","1","","","","","","","","","","","","","","","","","","","","","","","","",""
"null","","html-keyboard-response","173","1665019","0.0-172.0","A25FH7PXC446RG","<p style=""font-size: 48px;"">+</p>","","","","","null","allTrialResponses","1000","1","18","img_art/2.jpg","-45","looks like a child painted it","Kimberly,Alexandra,Cheyenne,Cassandra,Leslie,Erin","I like the green,13,260,20","This is ugly- too plain and busy at the same time,-9,60,20","Colors mix nicely.,5,200,20","I didn't like this it looked like a kindergardner painted it and the green was out of place.,-46,120,20","The colors are entirely unappealing and very unpleasant to look at.,-20,380,20","There is an odd face here that is creepy,-4,120,20","Erin","There is an odd face here that is creepy,-4,120,20","Leslie","The colors are entirely unappealing and very unpleasant to look at.,-20,380,20","Alexandra","This is ugly- too plain and busy at the same time,-9,60,20","2"
"24376","","survey-text","174","1689402","0.0-173.0-0.0","A25FH7PXC446RG","","","","{""Q0"":""this looks busy to me""}","","","","","","","","","","","","","","","","","","","","","","",""
"3851.399999976158","","image-slider-response","175","1693255","0.0-174.0","A25FH7PXC446RG","","","","","-31","","","","","","","","","","","","","","","","","","","","","",""
"null","","image-button-response","176","1698261","0.0-175.0","A25FH7PXC446RG","img_art/11.jpg","null","","","","","","","","","","","","","","","","","","","","","","","","",""
"2009","","image-button-response","177","1700273","0.0-176.0","A25FH7PXC446RG","img_art/11.jpg","2","","","","","","","","","","","","","","","","","","","","","","","","",""
"4456","","image-button-response","178","1704732","0.0-177.0-0.0","A25FH7PXC446RG","img_art/11.jpg","4","","","","","","","","","","","","","","","","","","","","","","","","",""
"1720","","image-button-response","179","1706456","0.0-178.0-0.0","A25FH7PXC446RG","img_art/11.jpg","3","","","","","","","","","","","","","","","","","","","","","","","","",""
"null","","html-keyboard-response","180","1706957","0.0-179.0","A25FH7PXC446RG","<p style=""font-size: 48px;"">+</p>","","","","","null","allTrialResponses","500","1","19","img_art/11.jpg","-31","this looks busy to me","Lauren,Alexandra,Victoria,Sara,Leslie,Erin","I like how this piece can be interpreted in different ways, such as a village on hilly terrain.,10,340,20","I normally would not like this photo, but the design is nice.,21,60,20","reminds me of a rainy day in the city,32,400,20","Looks sad but clean,31,160,20","This elicits no reaction in me.,0,380,20","Frank Lloyd Wright, music,24,120,20","Victoria","reminds me of a rainy day in the city,32,400,20","Leslie","This elicits no reaction in me.,0,380,20","Sara","Looks sad but clean,31,160,20","2"
"11503","","survey-text","181","1718465","0.0-180.0-0.0","A25FH7PXC446RG","","","","{""Q0"":""a day in paris""}","","","","","","","","","","","","","","","","","","","","","","",""
"3106.1999999284744","","image-slider-response","182","1721573","0.0-181.0","A25FH7PXC446RG","","","","","-10","","","","","","","","","","","","","","","","","","","","","",""
"1793","","image-button-response","183","1726589","0.0-182.0","A25FH7PXC446RG","img_art/26.jpg","0","","","","","","","","","","","","","","","","","","","","","","","","",""
"1444","","image-button-response","184","1728036","0.0-183.0","A25FH7PXC446RG","img_art/26.jpg","3","","","","","","","","","","","","","","","","","","","","","","","","",""
"4086","","image-button-response","185","1732124","0.0-184.0-0.0","A25FH7PXC446RG","img_art/26.jpg","5","","","","","","","","","","","","","","","","","","","","","","","","",""
"3305","","image-button-response","186","1735431","0.0-185.0-0.0","A25FH7PXC446RG","img_art/26.jpg","0","","","","","","","","","","","","","","","","","","","","","","","","",""
"null","","html-keyboard-response","187","1735934","0.0-186.0","A25FH7PXC446RG","<p style=""font-size: 48px;"">+</p>","","","","","null","allTrialResponses","500","1","20","img_art/26.jpg","-10","a day in paris","Marissa,Rebecca,Victoria,Sara,Leslie,Miranda","It feels simple and pretty,12,160,20","love the ""lowkey"" vibrant colors that are colorful but at the same time greyscale,12,100,20","feels a tad old,30,400,20","I can somewhat city a city in this drawing,11,160,20","It's a cute city scene. I like the trees.,10,380,20","This seems pretty and sweet, it's something I would like to actually see.,31,320,20","Sara","I can somewhat city a city in this drawing,11,160,20","Miranda","This seems pretty and sweet, it's something I would like to actually see.,31,320,20","Marissa","It feels simple and pretty,12,160,20","2"
"3536","","survey-text","188","1739479","0.0-187.0-0.0","A25FH7PXC446RG","","","","{""Q0"":""we""}","","","","","","","","","","","","","","","","","","","","","","",""
"11825","","survey-text","189","1751305","0.0-188.0-0.0","A25FH7PXC446RG","","","","{""Q0"":""too black""}","","","","","","","","","","","","","","","","","","","","","","",""
"4730.299999952316","","image-slider-response","190","1756037","0.0-189.0","A25FH7PXC446RG","","","","","-50","","","","","","","","","","","","","","","","","","","","","",""
"null","","image-button-response","191","1761055","0.0-190.0","A25FH7PXC446RG","img_art/15.jpg","null","","","","","","","","","","","","","","","","","","","","","","","","",""
"2651","","image-button-response","192","1763708","0.0-191.0","A25FH7PXC446RG","img_art/15.jpg","3","","","","","","","","","","","","","","","","","","","","","","","","",""
"3586","","image-button-response","193","1767295","0.0-192.0-0.0","A25FH7PXC446RG","img_art/15.jpg","4","","","","","","","","","","","","","","","","","","","","","","","","",""
"847","","image-button-response","194","1768145","0.0-193.0-0.0","A25FH7PXC446RG","img_art/15.jpg","5","","","","","","","","","","","","","","","","","","","","","","","","",""
"null","","html-keyboard-response","195","1768647","0.0-194.0","A25FH7PXC446RG","<p style=""font-size: 48px;"">+</p>","","","","","null","allTrialResponses","500","1","21","img_art/15.jpg","-50","too black","Marissa,Natalie,Tiffany,Sara,Madeline,Miranda","I am reminded of spring flowers swaying in the dark night's breeze,9,160,20","my response to the picture is that I dont know what I am looking at,-25,400,20","The painting is very relaxing, I'm reminded of sitting in a garden in the evening.,8,360,20","I don't like the black dots,-19,160,20","Simple but needs some more detail somehow,-3,40,20","This gives a skin crawling feeling. Like something that you could see under a mircoscope,10,320,20","Sara","I don't like the black dots,-19,160,20","Madeline","Simple but needs some more detail somehow,-3,40,20","Miranda","This gives a skin crawling feeling. Like something that you could see under a mircoscope,10,320,20","2"
"21485","","survey-text","196","1790141","0.0-195.0-0.0","A25FH7PXC446RG","","","","{""Q0"":""It reminds of bird pearch on a fence""}","","","","","","","","","","","","","","","","","","","","","","",""
"4938.5","","image-slider-response","197","1795083","0.0-196.0","A25FH7PXC446RG","","","","","-35","","","","","","","","","","","","","","","","","","","","","",""
"null","","image-button-response","198","1800097","0.0-197.0","A25FH7PXC446RG","img_art/6.jpg","null","","","","","","","","","","","","","","","","","","","","","","","","",""
"3178","","image-button-response","199","1803278","0.0-198.0","A25FH7PXC446RG","img_art/6.jpg","3","","","","","","","","","","","","","","","","","","","","","","","","",""
"3019","","image-button-response","200","1806300","0.0-199.0-0.0","A25FH7PXC446RG","img_art/6.jpg","5","","","","","","","","","","","","","","","","","","","","","","","","",""
"1582","","image-button-response","201","1807884","0.0-200.0-0.0","A25FH7PXC446RG","img_art/6.jpg","2","","","","","","","","","","","","","","","","","","","","","","","","",""
"null","","html-keyboard-response","202","1808386","0.0-201.0","A25FH7PXC446RG","<p style=""font-size: 48px;"">+</p>","","","","","null","allTrialResponses","500","1","22","img_art/6.jpg","-35","It reminds of bird pearch on a fence","Grace,Brianna,Briana,Sara,Madeline,Miranda","Growth in the desert?  Don't care for it very much.,-26,180,20","Nice desert scene,10,20,20","Close up peach? Hate it,-16,400,20","It looks sad and scary at the same time,11,160,20","Looks a bit like a pickle or something?,-16,40,20","It's slightly unnerving to look at, it looks a little creepy/eerie,-16,320,20","Sara","It looks sad and scary at the same time,11,160,20","Miranda","It's slightly unnerving to look at, it looks a little creepy/eerie,-16,320,20","Briana","Close up peach? Hate it,-16,400,20","2"
"15926","","survey-text","203","1824317","0.0-202.0-0.0","A25FH7PXC446RG","","","","{""Q0"":""creepy legs dangling in the air""}","","","","","","","","","","","","","","","","","","","","","","",""
"3788.899999976158","","image-slider-response","204","1828108","0.0-203.0","A25FH7PXC446RG","","","","","-50","","","","","","","","","","","","","","","","","","","","","",""
"null","","image-button-response","205","1833111","0.0-204.0","A25FH7PXC446RG","img_art/22.jpg","null","","","","","","","","","","","","","","","","","","","","","","","","",""
"2653","","image-button-response","206","1835767","0.0-205.0","A25FH7PXC446RG","img_art/22.jpg","4","","","","","","","","","","","","","","","","","","","","","","","","",""
"6103","","image-button-response","207","1841873","0.0-206.0-0.0","A25FH7PXC446RG","img_art/22.jpg","5","","","","","","","","","","","","","","","","","","","","","","","","",""
"2803","","image-button-response","208","1844678","0.0-207.0-0.0","A25FH7PXC446RG","img_art/22.jpg","0","","","","","","","","","","","","","","","","","","","","","","","","",""
"null","","html-keyboard-response","209","1845180","0.0-208.0","A25FH7PXC446RG","<p style=""font-size: 48px;"">+</p>","","","","","null","allTrialResponses","500","1","23","img_art/22.jpg","-50","creepy legs dangling in the air","Courtney,Morgan,Briana,Sara,Katie,Miranda","Looks hot where ever that is.,-8,280,20","Glowing city of many emotions.,10,380,20","Bright colors feel warm,22,400,20","Looks like a warm sunset to me i like it,42,160,20","Too much red. The red/yellow/orange make me think of heat/fire, which makes me anxious.,-10,160,20","Its very warm, it reminds of someone not liking their painting so they destoryed it,26,320,20","Katie","Too much red. The red/yellow/orange make me think of heat/fire, which makes me anxious.,-10,160,20","Miranda","Its very warm, it reminds of someone not liking their painting so they destoryed it,26,320,20","Courtney","Looks hot where ever that is.,-8,280,20","2"
"20337","","survey-text","210","1865528","0.0-209.0-0.0","A25FH7PXC446RG","","","","{""Q0"":""this is a creepy hand smearing paint""}","","","","","","","","","","","","","","","","","","","","","","",""
"4469.899999976158","","image-slider-response","211","1870002","0.0-210.0","A25FH7PXC446RG","","","","","-50","","","","","","","","","","","","","","","","","","","","","",""
"null","","image-button-response","212","1875005","0.0-211.0","A25FH7PXC446RG","img_art/4.jpg","null","","","","","","","","","","","","","","","","","","","","","","","","",""
"1542","","image-button-response","213","1876549","0.0-212.0","A25FH7PXC446RG","img_art/4.jpg","1","","","","","","","","","","","","","","","","","","","","","","","","",""
"3844","","image-button-response","214","1880395","0.0-213.0-0.0","A25FH7PXC446RG","img_art/4.jpg","2","","","","","","","","","","","","","","","","","","","","","","","","",""
"2288","","image-button-response","215","1882686","0.0-214.0-0.0","A25FH7PXC446RG","img_art/4.jpg","5","","","","","","","","","","","","","","","","","","","","","","","","",""
"null","","html-keyboard-response","216","1883187","0.0-215.0","A25FH7PXC446RG","<p style=""font-size: 48px;"">+</p>","","","","","null","allTrialResponses","500","1","24","img_art/4.jpg","-50","this is a creepy hand smearing paint","Courtney,Mariah,Sophia,Alicia,Katie,Miranda","A leaning trophy,-9,280,20","Movement. Snakes. Hair. The uncertainty makes my eye return.,21,140,20","This looks like what happens when someone steps on a mustard packet.,-7,280,20","ordinary, bland. unmoving.,-6,120,20","Warm colors, but too random. I feel like I'm seeing something mangled. It is unpleasant.,-30,160,20","I just don't understand this one at all, I do not like it,-43,320,20","Mariah","Movement. Snakes. Hair. The uncertainty makes my eye return.,21,140,20","Sophia","This looks like what happens when someone steps on a mustard packet.,-7,280,20","Miranda","I just don't understand this one at all, I do not like it,-43,320,20","2"
"17335","","survey-text","217","1900528","0.0-216.0-0.0","A25FH7PXC446RG","","","","{""Q0"":""too many colors gives me a headache""}","","","","","","","","","","","","","","","","","","","","","","",""
"4734.200000047684","","image-slider-response","218","1905265","0.0-217.0","A25FH7PXC446RG","","","","","-50","","","","","","","","","","","","","","","","","","","","","",""
"null","","image-button-response","219","1910268","0.0-218.0","A25FH7PXC446RG","img_art/1.jpg","null","","","","","","","","","","","","","","","","","","","","","","","","",""
"595","","image-button-response","220","1910865","0.0-219.0","A25FH7PXC446RG","img_art/1.jpg","0","","","","","","","","","","","","","","","","","","","","","","","","",""
"4098","","image-button-response","221","1914965","0.0-220.0-0.0","A25FH7PXC446RG","img_art/1.jpg","4","","","","","","","","","","","","","","","","","","","","","","","","",""
"1689","","image-button-response","222","1916657","0.0-221.0-0.0","A25FH7PXC446RG","img_art/1.jpg","5","","","","","","","","","","","","","","","","","","","","","","","","",""
"null","","html-keyboard-response","223","1918173","0.0-222.0","A25FH7PXC446RG","<p style=""font-size: 48px;"">+</p>","","","","","null","allTrialResponses","1500","1","25","img_art/1.jpg","-50","too many colors gives me a headache","Margaret,Mariah,Sophia,Michaela,Andrea,Miranda","basic reminds me of something a school would have on the wall,-7,100,20","Colors are pleasant, but feels incredibly generic.,9,140,20","This is a great piece that has a lot more going on the longer you look at it. I like it!,30,280,20","That one piece in the middle gives it depth and it's really neat,21,260,20","It just doesn't speak to me.,0,240,20","Someone painted a landscape and decided they didn't like it so they covered it up.,13,320,20","Margaret","basic reminds me of something a school would have on the wall,-7,100,20","Andrea","It just doesn't speak to me.,0,240,20","Miranda","Someone painted a landscape and decided they didn't like it so they covered it up.,13,320,20","2"
"5054","","survey-text","224","1923236","0.0-223.0-0.0","A25FH7PXC446RG","","","","{""Q0"":""table""}","","","","","","","","","","","","","","","","","","","","","","",""
"14843","","survey-text","225","1938080","0.0-224.0-0.0","A25FH7PXC446RG","","","","{""Q0"":""pretty waterfall""}","","","","","","","","","","","","","","","","","","","","","","",""
"3516.3000000715256","","image-slider-response","226","1941599","0.0-225.0","A25FH7PXC446RG","","","","","12","","","","","","","","","","","","","","","","","","","","","",""
"4387","","image-button-response","227","1946603","0.0-226.0","A25FH7PXC446RG","img_art/24.jpg","2","","","","","","","","","","","","","","","","","","","","","","","","",""
"1341","","image-button-response","228","1947947","0.0-227.0","A25FH7PXC446RG","img_art/24.jpg","2","","","","","","","","","","","","","","","","","","","","","","","","",""
"1217","","image-button-response","229","1949166","0.0-228.0-0.0","A25FH7PXC446RG","img_art/24.jpg","1","","","","","","","","","","","","","","","","","","","","","","","","",""
"2418","","image-button-response","230","1951590","0.0-229.0-0.0","A25FH7PXC446RG","img_art/24.jpg","3","","","","","","","","","","","","","","","","","","","","","","","","",""
"null","","html-keyboard-response","231","1953091","0.0-230.0","A25FH7PXC446RG","<p style=""font-size: 48px;"">+</p>","","","","","null","allTrialResponses","1500","1","26","img_art/24.jpg","12","pretty waterfall","Margaret,Amanda,Sydney,Julia,Andrea,Miranda","peaceful and serene but Im not the biggest landscape fan,4,100,20","Beautiful,  peaceful,50,180,20","I'm reminded of a waterfall, but I feel like it could've been better portrayed.,5,320,20","it's a nice stream, but I don't care for plain nature,-15,40,20","Waterfall, and I love the coloring.,48,240,20","I find the colors work really well. It's very pretty but I have no idea as what it is.,34,320,20","Sydney","I'm reminded of a waterfall, but I feel like it could've been better portrayed.,5,320,20","Amanda","Beautiful,  peaceful,50,180,20","Julia","it's a nice stream, but I don't care for plain nature,-15,40,20","2"
"23731","","survey-text","232","1976831","0.0-231.0-0.0","A25FH7PXC446RG","","","","{""Q0"":""a scary person creeping""}","","","","","","","","","","","","","","","","","","","","","","",""
"5022.900000095367","","image-slider-response","233","1981856","0.0-232.0","A25FH7PXC446RG","","","","","-50","","","","","","","","","","","","","","","","","","","","","",""
"1774","","image-button-response","234","1986866","0.0-233.0","A25FH7PXC446RG","img_art/8.jpg","0","","","","","","","","","","","","","","","","","","","","","","","","",""
"1410","","image-button-response","235","1988278","0.0-234.0","A25FH7PXC446RG","img_art/8.jpg","0","","","","","","","","","","","","","","","","","","","","","","","","",""
"1528","","image-button-response","236","1989808","0.0-235.0-0.0","A25FH7PXC446RG","img_art/8.jpg","3","","","","","","","","","","","","","","","","","","","","","","","","",""
"3524","","image-button-response","237","1993334","0.0-236.0-0.0","A25FH7PXC446RG","img_art/8.jpg","5","","","","","","","","","","","","","","","","","","","","","","","","",""
"null","","html-keyboard-response","238","1993835","0.0-237.0","A25FH7PXC446RG","<p style=""font-size: 48px;"">+</p>","","","","","null","allTrialResponses","500","1","27","img_art/8.jpg","-50","a scary person creeping","Samantha,Amanda,Sydney,Julia,Jessica,Vanessa","The face bothers me,-25,140,20","I love architectural paintings,46,180,20","I love the colors in this piece.,25,320,20","it's a little too classical for my tastes,-25,40,20","Very cool! I like this piece,9,400,20","I don't like the negative emotion this picture makes me feel. It's also too abstract.,-30,380,20","Samantha","The face bothers me,-25,140,20","Julia","it's a little too classical for my tastes,-25,40,20","Vanessa","I don't like the negative emotion this picture makes me feel. It's also too abstract.,-30,380,20","2"
"15862","","survey-text","239","2009701","0.0-238.0-0.0","A25FH7PXC446RG","","","","{""Q0"":""too many colors I don't like""}","","","","","","","","","","","","","","","","","","","","","","",""
"3028.9000000953674","","image-slider-response","240","2012731","0.0-239.0","A25FH7PXC446RG","","","","","-48","","","","","","","","","","","","","","","","","","","","","",""
"4930","","image-button-response","241","2017741","0.0-240.0","A25FH7PXC446RG","img_art/23.jpg","3","","","","","","","","","","","","","","","","","","","","","","","","",""
"1783","","image-button-response","242","2019528","0.0-241.0","A25FH7PXC446RG","img_art/23.jpg","3","","","","","","","","","","","","","","","","","","","","","","","","",""
"963","","image-button-response","243","2020493","0.0-242.0-0.0","A25FH7PXC446RG","img_art/23.jpg","5","","","","","","","","","","","","","","","","","","","","","","","","",""
"8995","","image-button-response","244","2029490","0.0-243.0-0.0","A25FH7PXC446RG","img_art/23.jpg","2","","","","","","","","","","","","","","","","","","","","","","","","",""
"null","","html-keyboard-response","245","2030494","0.0-244.0","A25FH7PXC446RG","<p style=""font-size: 48px;"">+</p>","","","","","null","allTrialResponses","1000","1","28","img_art/23.jpg","-48","too many colors I don't like","Samantha,Shelby,Rachel,Julia,Kaitlyn,Vanessa","The more i look at it the more i like it  the dots of color and very interesting,50,140,20","This feels so energized, i love it,50,240,20","Vivid colors and the white in the middle looks like people dancing.,31,80,20","this looks like a pop rock album cover,-10,40,20","Interesting contrast,9,80,20","This is ugly and weird.,-50,380,20","Julia","this looks like a pop rock album cover,-10,40,20","Vanessa","This is ugly and weird.,-50,380,20","Rachel","Vivid colors and the white in the middle looks like people dancing.,31,80,20","2"
"24672","","survey-text","246","2055171","0.0-245.0-0.0","A25FH7PXC446RG","","","","{""Q0"":""I don't like the creepy face""}","","","","","","","","","","","","","","","","","","","","","","",""
"4558.200000047684","","image-slider-response","247","2059731","0.0-246.0","A25FH7PXC446RG","","","","","-50","","","","","","","","","","","","","","","","","","","","","",""
"null","","image-button-response","248","2064744","0.0-247.0","A25FH7PXC446RG","img_art/27.jpg","null","","","","","","","","","","","","","","","","","","","","","","","","",""
"1308","","image-button-response","249","2066054","0.0-248.0","A25FH7PXC446RG","img_art/27.jpg","2","","","","","","","","","","","","","","","","","","","","","","","","",""
"2491","","image-button-response","250","2068549","0.0-249.0-0.0","A25FH7PXC446RG","img_art/27.jpg","5","","","","","","","","","","","","","","","","","","","","","","","","",""
"2380","","image-button-response","251","2070931","0.0-250.0-0.0","A25FH7PXC446RG","img_art/27.jpg","3","","","","","","","","","","","","","","","","","","","","","","","","",""
"null","","html-keyboard-response","252","2071933","0.0-251.0","A25FH7PXC446RG","<p style=""font-size: 48px;"">+</p>","","","","","null","allTrialResponses","1000","1","29","img_art/27.jpg","-50","I don't like the creepy face","Meghan,Katherine,Rachel,Julia,Amber,Vanessa","again looks like childrens artwork,-40,220,20","it's like a weird version of heaven,16,120,20","Color story is boring in nature, and I feel nothing but boredom from this piece.,-20,80,20","Colors could be more pleasing, but I really like the thinner lines superimposed over the background,25,40,20","I like the colors.,6,200,20","Colors make me think of fall, but I don't like how the picture was done or the weird lines across the background,6,380,20","Rachel","Color story is boring in nature, and I feel nothing but boredom from this piece.,-20,80,20","Vanessa","Colors make me think of fall, but I don't like how the picture was done or the weird lines across the background,6,380,20","Julia","Colors could be more pleasing, but I really like the thinner lines superimposed over the background,25,40,20","2"
"9494","","survey-text","253","2081433","0.0-252.0-0.0","A25FH7PXC446RG","","","","{""Q0"":""too much scribble""}","","","","","","","","","","","","","","","","","","","","","","",""
"4168.5","","image-slider-response","254","2085604","0.0-253.0","A25FH7PXC446RG","","","","","-49","","","","","","","","","","","","","","","","","","","","","",""
"4309","","image-button-response","255","2090613","0.0-254.0","A25FH7PXC446RG","img_art/3.jpg","0","","","","","","","","","","","","","","","","","","","","","","","","",""
"845","","image-button-response","256","2091461","0.0-255.0","A25FH7PXC446RG","img_art/3.jpg","1","","","","","","","","","","","","","","","","","","","","","","","","",""
"1038","","image-button-response","257","2092501","0.0-256.0-0.0","A25FH7PXC446RG","img_art/3.jpg","0","","","","","","","","","","","","","","","","","","","","","","","","",""
"2228","","image-button-response","258","2094731","0.0-257.0-0.0","A25FH7PXC446RG","img_art/3.jpg","2","","","","","","","","","","","","","","","","","","","","","","","","",""
"null","","html-keyboard-response","259","2096232","0.0-258.0","A25FH7PXC446RG","<p style=""font-size: 48px;"">+</p>","","","","","null","allTrialResponses","1500","1","30","img_art/3.jpg","-49","too much scribble","Kaylee,Olivia,Rachel,Julia,Claire,Vanessa","i really cant get it,-44,200,20","confusing taking over,-15,40,20","Too red and chaotic. Not calming.,-41,80,20","this is a very nice emotion,27,40,20","looks like a kid scribbled with crayon,-35,260,20","It makes me think of just an angry scribble. There's no beauty to it for me.,-50,380,20","Olivia","confusing taking over,-15,40,20","Kaylee","i really cant get it,-44,200,20","Rachel","Too red and chaotic. Not calming.,-41,80,20","2"
"3035","","image-button-response_instructions","260","2099274","0.0-259.0","A25FH7PXC446RG","","0","instructions","","","","","","","","","","","","","","","","","","","","","","","",""
"1361","","image-button-response","261","2100640","0.0-260.0","A25FH7PXC446RG","","0","","","","","","","","","","","","","","","","","","","","","","","","",""
