"rt","url","trial_type","trial_index","time_elapsed","internal_node_id","participant_id","stimulus","button_pressed","Name","responses","response","key_press","variableName","fixationTime","condition","trial","photo","subjectRating","subjectResponse","agentsNames","agent_1_Response","agent_2_Response","agent_3_Response","agent_4_Response","agent_5_Response","agent_6_Response","kept_1_name","kept_1_response","kept_2_name","kept_2_response","kept_3_name","kept_3_response","errorCounter"
"17027","external_page_harvard.html","external-html","0","17411","0.0-0.0","A26RO8GGTQAXGG","","","","","","","","","","","","","","","","","","","","","","","","","","",""
"1806","","image-button-response","1","19223","0.0-1.0","A26RO8GGTQAXGG","","1","","","","","","","","","","","","","","","","","","","","","","","","",""
"1570","","image-button-response","2","20808","0.0-2.0-0.0","A26RO8GGTQAXGG","","1","phone","","","","","","","","","","","","","","","","","","","","","","","",""
"7082","","survey-text","3","27895","0.0-3.0-0.0","A26RO8GGTQAXGG","","","","{""Q0"":""A26RO8GGTQAXGG""}","","","","","","","","","","","","","","","","","","","","","","",""
"3554","","image-button-response_instructions","4","31455","0.0-4.0","A26RO8GGTQAXGG","","0","instructions","","","","","","","","","","","","","","","","","","","","","","","",""
"16590","","image-button-response_instructions","5","48052","0.0-5.0","A26RO8GGTQAXGG","img_art/ins/popularity/ins1.png","0","instructions","","","","","","","","","","","","","","","","","","","","","","","",""
"6791","","image-button-response_instructions","6","54855","0.0-6.0","A26RO8GGTQAXGG","img_art/ins/popularity/ins2.png","0","instructions","","","","","","","","","","","","","","","","","","","","","","","",""
"5948","","image-button-response_instructions","7","60807","0.0-7.0","A26RO8GGTQAXGG","img_art/ins/popularity/ins2Extreme.png","0","instructions","","","","","","","","","","","","","","","","","","","","","","","",""
"10631","","image-button-response_instructions","8","71446","0.0-8.0","A26RO8GGTQAXGG","img_art/ins/popularity/ins3KEEPpop.PNG","0","instructions","","","","","","","","","","","","","","","","","","","","","","","",""
"3741","","image-button-response_instructions","9","75197","0.0-9.0","A26RO8GGTQAXGG","img_art/ins/popularity/ins3ANamepop.PNG","0","instructions","","","","","","","","","","","","","","","","","","","","","","","",""
"3748","","image-button-response_instructions","10","78950","0.0-10.0","A26RO8GGTQAXGG","img_art/ins/popularity/ins3ARatingpop.png","0","instructions","","","","","","","","","","","","","","","","","","","","","","","",""
"4586","","image-button-response_instructions","11","83540","0.0-11.0","A26RO8GGTQAXGG","img_art/ins/popularity/ins3ATextpop.png","0","instructions","","","","","","","","","","","","","","","","","","","","","","","",""
"7062","","image-button-response_instructions","12","90610","0.0-12.0","A26RO8GGTQAXGG","img_art/ins/popularity/ins3ALikespop.png","0","instructions","","","","","","","","","","","","","","","","","","","","","","","",""
"8117","","image-button-response_instructions","13","98733","0.0-13.0","A26RO8GGTQAXGG","img_art/ins/popularity/ins3KEEPpop.PNG","0","instructions","","","","","","","","","","","","","","","","","","","","","","","",""
"10085","","image-button-response_instructions","14","108822","0.0-14.0","A26RO8GGTQAXGG","img_art/ins/popularity/ins3_5RED.png","0","instructions","","","","","","","","","","","","","","","","","","","","","","","",""
"5478","","image-button-response_instructions","15","114303","0.0-15.0","A26RO8GGTQAXGG","img_art/ins/popularity/ins3KEEPpop.PNG","0","instructions","","","","","","","","","","","","","","","","","","","","","","","",""
"9387","","image-button-response_instructions","16","123693","0.0-16.0","A26RO8GGTQAXGG","img_art/ins/popularity/ins4KEEPpop.PNG","0","instructions","","","","","","","","","","","","","","","","","","","","","","","",""
"3400","","image-button-response_instructions","17","127097","0.0-17.0","A26RO8GGTQAXGG","img_art/ins/popularity/ins5KEEPpop.PNG","0","instructions","","","","","","","","","","","","","","","","","","","","","","","",""
"1843","","image-button-response_instructions","18","128942","0.0-18.0","A26RO8GGTQAXGG","","0","instructions","","","","","","","","","","","","","","","","","","","","","","","",""
"11760","","survey-text","19","140767","0.0-19.0-0.0","A26RO8GGTQAXGG","","","","{""Q0"":""but""}","","","","","","","","","","","","","","","","","","","","","","",""
"15123","","survey-text","20","155896","0.0-20.0-0.0","A26RO8GGTQAXGG","","","","{""Q0"":""this is computer generated and thus not art""}","","","","","","","","","","","","","","","","","","","","","","",""
"4829.4000000059605","","image-slider-response","21","160736","0.0-21.0","A26RO8GGTQAXGG","","","","","-41","","","","","","","","","","","","","","","","","","","","","",""
"null","","image-button-response","22","165767","0.0-22.0","A26RO8GGTQAXGG","img_art/ins/1.jpg","null","","","","","","","","","","","","","","","","","","","","","","","","",""
"9523","","image-button-response","23","175295","0.0-23.0","A26RO8GGTQAXGG","img_art/ins/1.jpg","2","","","","","","","","","","","","","","","","","","","","","","","","",""
"926","","image-button-response","24","176231","0.0-24.0-0.0","A26RO8GGTQAXGG","img_art/ins/1.jpg","1","","","","","","","","","","","","","","","","","","","","","","","","",""
"839","","image-button-response","25","177079","0.0-25.0-0.0","A26RO8GGTQAXGG","img_art/ins/1.jpg","3","","","","","","","","","","","","","","","","","","","","","","","","",""
"null","","html-keyboard-response","26","178102","0.0-26.0","A26RO8GGTQAXGG","<p style=""font-size: 48px;"">+</p>","","","","","null","allTrialResponses","1000","1","-2","img_art/ins/1.jpg","-41","this is computer generated and thus not art","Allison,Ashley,Beth,Dora,Erika,Jen","looks like a lot of things going on in the mist,20,20,20","I just don't get why these type of art would be popular,-32,40,20","This color reminds me of poo,-46,60,20","looks like what my niece in 3rd grade did this afternoon,-50,80,20","I like the sophisticated brushwork,40,100,20","It reminds me of a candy land dream I had,36,120,20","Beth","This color reminds me of poo,-46,60,20","Ashley","I just don't get why these type of art would be popular,-32,40,20","Dora","looks like what my niece in 3rd grade did this afternoon,-50,80,20","0"
"34124","","survey-text","27","212249","0.0-27.0-0.0","A26RO8GGTQAXGG","","","","{""Q0"":""interesting layering but gestures -brush strokes -are too visible""}","","","","","","","","","","","","","","","","","","","","","","",""
"8449.29999999702","","image-slider-response","28","220748","0.0-28.0","A26RO8GGTQAXGG","","","","","-4","","","","","","","","","","","","","","","","","","","","","",""
"null","","image-button-response","29","225782","0.0-29.0","A26RO8GGTQAXGG","img_art/ins/2.jpg","null","","","","","","","","","","","","","","","","","","","","","","","","",""
"3360","","image-button-response","30","229173","0.0-30.0","A26RO8GGTQAXGG","img_art/ins/2.jpg","1","","","","","","","","","","","","","","","","","","","","","","","","",""
"1507","","image-button-response","31","230687","0.0-31.0-0.0","A26RO8GGTQAXGG","img_art/ins/2.jpg","2","","","","","","","","","","","","","","","","","","","","","","","","",""
"4609","","image-button-response","32","235302","0.0-32.0-0.0","A26RO8GGTQAXGG","img_art/ins/2.jpg","4","","","","","","","","","","","","","","","","","","","","","","","","",""
"null","","html-keyboard-response","33","235826","0.0-33.0","A26RO8GGTQAXGG","<p style=""font-size: 48px;"">+</p>","","","","","null","allTrialResponses","500","1","-1","img_art/ins/2.jpg","-4","interesting layering but gestures -brush strokes -are too visible","Jenna,Ashley,Beth,Dora,Kara,Katie","One of my pet peevs,-48,140,20","Idk, it is just annoying,-32,40,20","meaningless painting,-45,60,20","looks too angry,-50,80,20","I like the blocks of color arrangements,30,160,20","too much color!,-28,180,20","Ashley","Idk, it is just annoying,-32,40,20","Beth","meaningless painting,-45,60,20","Kara","I like the blocks of color arrangements,30,160,20","0"
"25565","","survey-text","34","261487","0.0-34.0-0.0","A26RO8GGTQAXGG","","","","{""Q0"":""I like the colors but it is bland and emotionless""}","","","","","","","","","","","","","","","","","","","","","","",""
"4427.79999999702","","image-slider-response","35","265928","0.0-35.0","A26RO8GGTQAXGG","","","","","-4","","","","","","","","","","","","","","","","","","","","","",""
"null","","image-button-response","36","270961","0.0-36.0","A26RO8GGTQAXGG","img_art/ins/3.jpg","null","","","","","","","","","","","","","","","","","","","","","","","","",""
"1198","","image-button-response","37","272163","0.0-37.0","A26RO8GGTQAXGG","img_art/ins/3.jpg","3","","","","","","","","","","","","","","","","","","","","","","","","",""
"1932","","image-button-response","38","274104","0.0-38.0-0.0","A26RO8GGTQAXGG","img_art/ins/3.jpg","5","","","","","","","","","","","","","","","","","","","","","","","","",""
"3253","","image-button-response","39","277369","0.0-39.0-0.0","A26RO8GGTQAXGG","img_art/ins/3.jpg","0","","","","","","","","","","","","","","","","","","","","","","","","",""
"null","","html-keyboard-response","40","278982","0.0-40.0","A26RO8GGTQAXGG","<p style=""font-size: 48px;"">+</p>","","","","","null","allTrialResponses","1500","1","0","img_art/ins/3.jpg","-4","I like the colors but it is bland and emotionless","Mary,Ashley,Beth,Leslie,Kara,Rose","I like the overlapping of brushes,41,220,20","It looks like a playground for bats,-36,40,20","This thing gives me anxiety,-41,60,20","It's an alright work,15,200,20","calming blue is very nice,36,160,20","My daily routine, it's depressing,-20,240,20","Leslie","It's an alright work,15,200,20","Rose","My daily routine, it's depressing,-20,240,20","Mary","I like the overlapping of brushes,41,220,20","0"
"3207","","image-button-response_instructions","41","282341","0.0-41.0","A26RO8GGTQAXGG","","0","instructions","","","","","","","","","","","","","","","","","","","","","","","",""
"10265","","survey-likert","42","292619","0.0-42.0-0.0","A26RO8GGTQAXGG","","","","{""Q0"":"""",""Q1"":0,""Q2"":1}","","","","","","","","","","","","","","","","","","","","","","",""
"6336","","survey-text","43","298984","0.0-43.0-0.0","A26RO8GGTQAXGG","","","","{""Q0"":""rock""}","","","","","","","","","","","","","","","","","","","","","","",""
"25168","","survey-text","44","324159","0.0-44.0-0.0","A26RO8GGTQAXGG","","","","{""Q0"":""horrible colors and looks like kindergarten level""}","","","","","","","","","","","","","","","","","","","","","","",""
"3351.6000000089407","","image-slider-response","45","327517","0.0-45.0","A26RO8GGTQAXGG","","","","","-35","","","","","","","","","","","","","","","","","","","","","",""
"null","","image-button-response","46","332598","0.0-46.0","A26RO8GGTQAXGG","img_art/4.jpg","null","","","","","","","","","","","","","","","","","","","","","","","","",""
"2565","","image-button-response","47","335177","0.0-47.0","A26RO8GGTQAXGG","img_art/4.jpg","2","","","","","","","","","","","","","","","","","","","","","","","","",""
"1260","","image-button-response","48","336447","0.0-48.0-0.0","A26RO8GGTQAXGG","img_art/4.jpg","4","","","","","","","","","","","","","","","","","","","","","","","","",""
"705","","image-button-response","49","337160","0.0-49.0-0.0","A26RO8GGTQAXGG","img_art/4.jpg","5","","","","","","","","","","","","","","","","","","","","","","","","",""
"null","","html-keyboard-response","50","338675","0.0-50.0","A26RO8GGTQAXGG","<p style=""font-size: 48px;"">+</p>","","","","","null","allTrialResponses","1500","1","1","img_art/4.jpg","-35","horrible colors and looks like kindergarten level","Margaret,Erica,Sierra,Abigail,Cassidy,Hannah","doesn't do anything for me,-4,100,20","Easy and relaxing,23,80,20","it looks like a deformed hand,-9,260,20","A hand reaching for something it cannot obtain,-9,20,20","Hate the color, and just do not get the point.,-13,140,20","looks very rudimentary and too simple.,-14,240,20","Sierra","it looks like a deformed hand,-9,260,20","Cassidy","Hate the color, and just do not get the point.,-13,140,20","Hannah","looks very rudimentary and too simple.,-14,240,20","0"
"27808","","survey-text","51","366501","0.0-51.0-0.0","A26RO8GGTQAXGG","","","","{""Q0"":""nice colors, keeps my eye moving and interested""}","","","","","","","","","","","","","","","","","","","","","","",""
"3225.2000000029802","","image-slider-response","52","369733","0.0-52.0","A26RO8GGTQAXGG","","","","","27","","","","","","","","","","","","","","","","","","","","","",""
"null","","image-button-response","53","374752","0.0-53.0","A26RO8GGTQAXGG","img_art/14.jpg","null","","","","","","","","","","","","","","","","","","","","","","","","",""
"3306","","image-button-response","54","378063","0.0-54.0","A26RO8GGTQAXGG","img_art/14.jpg","1","","","","","","","","","","","","","","","","","","","","","","","","",""
"2975","","image-button-response","55","381047","0.0-55.0-0.0","A26RO8GGTQAXGG","img_art/14.jpg","3","","","","","","","","","","","","","","","","","","","","","","","","",""
"705","","image-button-response","56","381781","0.0-56.0-0.0","A26RO8GGTQAXGG","img_art/14.jpg","4","","","","","","","","","","","","","","","","","","","","","","","","",""
"null","","html-keyboard-response","57","383296","0.0-57.0","A26RO8GGTQAXGG","<p style=""font-size: 48px;"">+</p>","","","","","null","allTrialResponses","1500","1","2","img_art/14.jpg","27","nice colors, keeps my eye moving and interested","Katie,Angela,Sierra,Brittany,Cassidy,Hannah","It represents growth. I see a plant/tree growing out of the ground. I like the rainbow of color in the painting.,31,160,20","I like the colors and the shapes are interesting,11,260,20","it put me on edge.,-11,260,20","The colors are good and the design is intriguing.,15,40,20","Meh. Pleasant to look at. Colors are nice,6,140,20","This doesn't speak to me on an emotional level,-6,240,20","Angela","I like the colors and the shapes are interesting,11,260,20","Brittany","The colors are good and the design is intriguing.,15,40,20","Cassidy","Meh. Pleasant to look at. Colors are nice,6,140,20","0"
"25500","","survey-text","58","408809","0.0-58.0-0.0","A26RO8GGTQAXGG","","","","{""Q0"":""the white places mean as much as the colored zones""}","","","","","","","","","","","","","","","","","","","","","","",""
"3285.8999999910593","","image-slider-response","59","412118","0.0-59.0","A26RO8GGTQAXGG","","","","","44","","","","","","","","","","","","","","","","","","","","","",""
"null","","image-button-response","60","417146","0.0-60.0","A26RO8GGTQAXGG","img_art/17.jpg","null","","","","","","","","","","","","","","","","","","","","","","","","",""
"5601","","image-button-response","61","422759","0.0-61.0","A26RO8GGTQAXGG","img_art/17.jpg","3","","","","","","","","","","","","","","","","","","","","","","","","",""
"1528","","image-button-response","62","424297","0.0-62.0-0.0","A26RO8GGTQAXGG","img_art/17.jpg","2","","","","","","","","","","","","","","","","","","","","","","","","",""
"5943","","image-button-response","63","430248","0.0-63.0-0.0","A26RO8GGTQAXGG","img_art/17.jpg","4","","","","","","","","","","","","","","","","","","","","","","","","",""
"null","","html-keyboard-response","64","430760","0.0-64.0","A26RO8GGTQAXGG","<p style=""font-size: 48px;"">+</p>","","","","","null","allTrialResponses","500","1","3","img_art/17.jpg","44","the white places mean as much as the colored zones","Caitlin,Angela,Katherine,Brittany,Cassidy,Taylor","Somewhat should trim the tree branches at the shopping mall.,10,80,20","I like this, but it's a bit bland.,10,260,20","Looks like a weird blurry heaven again! I dig,32,120,20","I like the colors and the design.,20,40,20","cool. Sharp and blocky below, light and flowing on top. Overall pleasing to look at,32,140,20","A very inspiring piece,41,340,20","Brittany","I like the colors and the design.,20,40,20","Katherine","Looks like a weird blurry heaven again! I dig,32,120,20","Cassidy","cool. Sharp and blocky below, light and flowing on top. Overall pleasing to look at,32,140,20","0"
"21593","","survey-text","65","452365","0.0-65.0-0.0","A26RO8GGTQAXGG","","","","{""Q0"":""meh, too measured and industrial""}","","","","","","","","","","","","","","","","","","","","","","",""
"3861.4000000059605","","image-slider-response","66","456233","0.0-66.0","A26RO8GGTQAXGG","","","","","-21","","","","","","","","","","","","","","","","","","","","","",""
"null","","image-button-response","67","461321","0.0-67.0","A26RO8GGTQAXGG","img_art/12.jpg","null","","","","","","","","","","","","","","","","","","","","","","","","",""
"4764","","image-button-response","68","466091","0.0-68.0","A26RO8GGTQAXGG","img_art/12.jpg","3","","","","","","","","","","","","","","","","","","","","","","","","",""
"7689","","image-button-response","69","473805","0.0-69.0-0.0","A26RO8GGTQAXGG","img_art/12.jpg","1","","","","","","","","","","","","","","","","","","","","","","","","",""
"2107","","image-button-response","70","475920","0.0-70.0-0.0","A26RO8GGTQAXGG","img_art/12.jpg","5","","","","","","","","","","","","","","","","","","","","","","","","",""
"null","","html-keyboard-response","71","477438","0.0-71.0","A26RO8GGTQAXGG","<p style=""font-size: 48px;"">+</p>","","","","","null","allTrialResponses","1500","1","4","img_art/12.jpg","-21","meh, too measured and industrial","Kylie,Emily,Katherine,Brittany,Cassidy,Miranda","Night and day, light and dark,35,300,20","Not quite my style but there more of a pattern and it is interesting to look at.,15,40,20","Not sure why but this is my favorite. I'd put it on my wall,50,120,20","Too blocky and not interesting enough.,-15,40,20","I like the colors and pattern,21,140,20","This is like going to a really old mcdoanlds in a tiny town and it's never been renovated so it's breaking down,-31,320,20","Brittany","Too blocky and not interesting enough.,-15,40,20","Emily","Not quite my style but there more of a pattern and it is interesting to look at.,15,40,20","Miranda","This is like going to a really old mcdoanlds in a tiny town and it's never been renovated so it's breaking down,-31,320,20","0"
"30902","","survey-text","72","508358","0.0-72.0-0.0","A26RO8GGTQAXGG","","","","{""Q0"":""love the vibrance but the computer technique strips it to meaningless""}","","","","","","","","","","","","","","","","","","","","","","",""
"3641.5","","image-slider-response","73","512004","0.0-73.0","A26RO8GGTQAXGG","","","","","-3","","","","","","","","","","","","","","","","","","","","","",""
"null","","image-button-response","74","517035","0.0-74.0","A26RO8GGTQAXGG","img_art/23.jpg","null","","","","","","","","","","","","","","","","","","","","","","","","",""
"7038","","image-button-response","75","524078","0.0-75.0","A26RO8GGTQAXGG","img_art/23.jpg","0","","","","","","","","","","","","","","","","","","","","","","","","",""
"1138","","image-button-response","76","525222","0.0-76.0-0.0","A26RO8GGTQAXGG","img_art/23.jpg","2","","","","","","","","","","","","","","","","","","","","","","","","",""
"2230","","image-button-response","77","527467","0.0-77.0-0.0","A26RO8GGTQAXGG","img_art/23.jpg","5","","","","","","","","","","","","","","","","","","","","","","","","",""
"null","","html-keyboard-response","78","528518","0.0-78.0","A26RO8GGTQAXGG","<p style=""font-size: 48px;"">+</p>","","","","","null","allTrialResponses","1000","1","5","img_art/23.jpg","-3","love the vibrance but the computer technique strips it to meaningless","Danielle,Emily,Rebecca,Brittany,Jenna,Miranda","While I don't normally enjoy these color schemes all together, I kind of like this one,10,340,20","I don't get it.,-40,40,20","love the contrast (was this painted by a left-handed artist?),7,100,20","The white paint through the middle really draws the eye.,30,40,20","awesome colors. love the white drawing the eye to the center. oddly comforting.,50,360,20","It's very colorful and different, the white looks like people dancing,26,320,20","Danielle","While I don't normally enjoy these color schemes all together, I kind of like this one,10,340,20","Rebecca","love the contrast (was this painted by a left-handed artist?),7,100,20","Miranda","It's very colorful and different, the white looks like people dancing,26,320,20","0"
"6032","","survey-text","79","534585","0.0-79.0-0.0","A26RO8GGTQAXGG","","","","{""Q0"":""sky""}","","","","","","","","","","","","","","","","","","","","","","",""
"23418","","survey-text","80","558013","0.0-80.0-0.0","A26RO8GGTQAXGG","","","","{""Q0"":""idea is too borrowed from the 50s and pollock""}","","","","","","","","","","","","","","","","","","","","","","",""
"3724.5","","image-slider-response","81","561742","0.0-81.0","A26RO8GGTQAXGG","","","","","-4","","","","","","","","","","","","","","","","","","","","","",""
"null","","image-button-response","82","566769","0.0-82.0","A26RO8GGTQAXGG","img_art/13.jpg","null","","","","","","","","","","","","","","","","","","","","","","","","",""
"5909","","image-button-response","83","572686","0.0-83.0","A26RO8GGTQAXGG","img_art/13.jpg","3","","","","","","","","","","","","","","","","","","","","","","","","",""
"4075","","image-button-response","84","576766","0.0-84.0-0.0","A26RO8GGTQAXGG","img_art/13.jpg","4","","","","","","","","","","","","","","","","","","","","","","","","",""
"1577","","image-button-response","85","578358","0.0-85.0-0.0","A26RO8GGTQAXGG","img_art/13.jpg","2","","","","","","","","","","","","","","","","","","","","","","","","",""
"null","","html-keyboard-response","86","579382","0.0-86.0","A26RO8GGTQAXGG","<p style=""font-size: 48px;"">+</p>","","","","","null","allTrialResponses","1000","1","6","img_art/13.jpg","-4","idea is too borrowed from the 50s and pollock","Danielle,Tiffany,Rebecca,Jasmine,Meghan,Miranda","While it is a bit basic and doesn't speak to me much, I like the feeling it gives,40,340,20","The painting makes me feel awe and like I am very little. Like I am alone at the bottom of the ocean.,41,360,20","love the style but not very novel,9,100,20","I like the colors together,17,340,20","I like the transition to other colors,24,220,20","This looks like something that could be made off of windows paint, not a huge fan.,-30,320,20","Jasmine","I like the colors together,17,340,20","Meghan","I like the transition to other colors,24,220,20","Rebecca","love the style but not very novel,9,100,20","0"
"28415","","survey-text","87","607829","0.0-87.0-0.0","A26RO8GGTQAXGG","","","","{""Q0"":""reminds me of Basquiat, very depressing and tortured""}","","","","","","","","","","","","","","","","","","","","","","",""
"4072.2999999970198","","image-slider-response","88","611908","0.0-88.0","A26RO8GGTQAXGG","","","","","-17","","","","","","","","","","","","","","","","","","","","","",""
"null","","image-button-response","89","616960","0.0-89.0","A26RO8GGTQAXGG","img_art/28.jpg","null","","","","","","","","","","","","","","","","","","","","","","","","",""
"2898","","image-button-response","90","619862","0.0-90.0","A26RO8GGTQAXGG","img_art/28.jpg","1","","","","","","","","","","","","","","","","","","","","","","","","",""
"1578","","image-button-response","91","621446","0.0-91.0-0.0","A26RO8GGTQAXGG","img_art/28.jpg","3","","","","","","","","","","","","","","","","","","","","","","","","",""
"673","","image-button-response","92","622128","0.0-92.0-0.0","A26RO8GGTQAXGG","img_art/28.jpg","4","","","","","","","","","","","","","","","","","","","","","","","","",""
"null","","html-keyboard-response","93","623653","0.0-93.0","A26RO8GGTQAXGG","<p style=""font-size: 48px;"">+</p>","","","","","null","allTrialResponses","1500","1","7","img_art/28.jpg","-17","reminds me of Basquiat, very depressing and tortured","Kathryn,Lindsey,Rebecca,Jasmine,Meghan,Cassandra","My immediate reaction was to think of smog. It recalls choking on dirty air.,-20,140,20","Not a fan of the drab colors but it looks a little bit interesting.,-7,400,20","the color scheme is very well matched but i just didn't like it,-6,100,20","Colors too dull for me,-10,340,20","I don't like the color choice,-30,220,20","Hate it...brown and drab,-37,120,20","Lindsey","Not a fan of the drab colors but it looks a little bit interesting.,-7,400,20","Jasmine","Colors too dull for me,-10,340,20","Meghan","I don't like the color choice,-30,220,20","0"
"41805","","survey-text","94","665593","0.0-94.0-0.0","A26RO8GGTQAXGG","","","","{""Q0"":""I like the life in this even if not very representational or concrete""}","","","","","","","","","","","","","","","","","","","","","","",""
"3705.5999999940395","","image-slider-response","95","669316","0.0-95.0","A26RO8GGTQAXGG","","","","","18","","","","","","","","","","","","","","","","","","","","","",""
"null","","image-button-response","96","674329","0.0-96.0","A26RO8GGTQAXGG","img_art/24.jpg","null","","","","","","","","","","","","","","","","","","","","","","","","",""
"2675","","image-button-response","97","677020","0.0-97.0","A26RO8GGTQAXGG","img_art/24.jpg","4","","","","","","","","","","","","","","","","","","","","","","","","",""
"801","","image-button-response","98","677828","0.0-98.0-0.0","A26RO8GGTQAXGG","img_art/24.jpg","3","","","","","","","","","","","","","","","","","","","","","","","","",""
"2818","","image-button-response","99","680653","0.0-99.0-0.0","A26RO8GGTQAXGG","img_art/24.jpg","2","","","","","","","","","","","","","","","","","","","","","","","","",""
"null","","html-keyboard-response","100","681670","0.0-100.0","A26RO8GGTQAXGG","<p style=""font-size: 48px;"">+</p>","","","","","null","allTrialResponses","1000","1","8","img_art/24.jpg","18","I like the life in this even if not very representational or concrete","Lauren,Lindsey,Makayla,Jasmine,Meghan,Leah","Invokes a strong sense of nature, since the piece can interpreted as a stream or an abstracted bird.,40,340,20","I like the colors and see a stream in a wooded setting. Makes me feel calm and cheerful.,27,400,20","Looks like a serene waterfall and woods,29,80,20","This one is nice because it reminds me of nature,18,340,20","pretty like a waterfall,22,220,20","Happy, the forest as I would love to see it,50,360,20","Meghan","pretty like a waterfall,22,220,20","Jasmine","This one is nice because it reminds me of nature,18,340,20","Makayla","Looks like a serene waterfall and woods,29,80,20","0"
"28109","","survey-text","101","709795","0.0-101.0-0.0","A26RO8GGTQAXGG","","","","{""Q0"":""I could do without the face but I like the rest, very Klimt""}","","","","","","","","","","","","","","","","","","","","","","",""
"3471","","image-slider-response","102","713274","0.0-102.0","A26RO8GGTQAXGG","","","","","22","","","","","","","","","","","","","","","","","","","","","",""
"null","","image-button-response","103","718297","0.0-103.0","A26RO8GGTQAXGG","img_art/8.jpg","null","","","","","","","","","","","","","","","","","","","","","","","","",""
"6789","","image-button-response","104","725091","0.0-104.0","A26RO8GGTQAXGG","img_art/8.jpg","2","","","","","","","","","","","","","","","","","","","","","","","","",""
"2141","","image-button-response","105","727238","0.0-105.0-0.0","A26RO8GGTQAXGG","img_art/8.jpg","3","","","","","","","","","","","","","","","","","","","","","","","","",""
"4646","","image-button-response","106","731891","0.0-106.0-0.0","A26RO8GGTQAXGG","img_art/8.jpg","5","","","","","","","","","","","","","","","","","","","","","","","","",""
"null","","html-keyboard-response","107","732403","0.0-107.0","A26RO8GGTQAXGG","<p style=""font-size: 48px;"">+</p>","","","","","null","allTrialResponses","500","1","9","img_art/8.jpg","22","I could do without the face but I like the rest, very Klimt","Kelsey,Erin,Makayla,Jasmine,Meghan,Alicia","i like all the different faces,19,240,20","Lots of depth, faces, city, arch,3,120,20","I see water and structures that resemble Ancient Rome,15,80,20","Not too bad despite the chaos.,16,340,20","the face is creepy,-49,220,20","wow. blocky, angled, neat colors. The faces are what makes it. love it.,45,120,20","Makayla","I see water and structures that resemble Ancient Rome,15,80,20","Jasmine","Not too bad despite the chaos.,16,340,20","Alicia","wow. blocky, angled, neat colors. The faces are what makes it. love it.,45,120,20","0"
"25388","","survey-text","108","757807","0.0-108.0-0.0","A26RO8GGTQAXGG","","","","{""Q0"":""bland and boring, not enough going on to interest me""}","","","","","","","","","","","","","","","","","","","","","","",""
"6677.0999999940395","","image-slider-response","109","764490","0.0-109.0","A26RO8GGTQAXGG","","","","","-35","","","","","","","","","","","","","","","","","","","","","",""
"null","","image-button-response","110","769561","0.0-110.0","A26RO8GGTQAXGG","img_art/6.jpg","null","","","","","","","","","","","","","","","","","","","","","","","","",""
"2164","","image-button-response","111","771730","0.0-111.0","A26RO8GGTQAXGG","img_art/6.jpg","1","","","","","","","","","","","","","","","","","","","","","","","","",""
"2095","","image-button-response","112","773838","0.0-112.0-0.0","A26RO8GGTQAXGG","img_art/6.jpg","0","","","","","","","","","","","","","","","","","","","","","","","","",""
"1495","","image-button-response","113","775339","0.0-113.0-0.0","A26RO8GGTQAXGG","img_art/6.jpg","5","","","","","","","","","","","","","","","","","","","","","","","","",""
"null","","html-keyboard-response","114","776354","0.0-114.0","A26RO8GGTQAXGG","<p style=""font-size: 48px;"">+</p>","","","","","null","allTrialResponses","1000","1","10","img_art/6.jpg","-35","bland and boring, not enough going on to interest me","Paige,Katelyn,Makayla,Jasmine,Sara,Alicia","Kind of boring. I don't care for many abstracts,1,60,20","Nothing grabs at me here,-11,100,20","Don't like the black space,2,80,20","Simple and clean,11,340,20","It looks sad and scary at the same time,11,160,20","kids book cover, uninteresting.,-10,120,20","Katelyn","Nothing grabs at me here,-11,100,20","Paige","Kind of boring. I don't care for many abstracts,1,60,20","Alicia","kids book cover, uninteresting.,-10,120,20","0"
"4922","","survey-text","115","781301","0.0-115.0-0.0","A26RO8GGTQAXGG","","","","{""Q0"":""our""}","","","","","","","","","","","","","","","","","","","","","","",""
"32017","","survey-text","116","813325","0.0-116.0-0.0","A26RO8GGTQAXGG","","","","{""Q0"":""yuck, I just see anger and it alienates me""}","","","","","","","","","","","","","","","","","","","","","","",""
"3691.7999999970198","","image-slider-response","117","817027","0.0-117.0","A26RO8GGTQAXGG","","","","","-44","","","","","","","","","","","","","","","","","","","","","",""
"4873","","image-button-response","118","822063","0.0-118.0","A26RO8GGTQAXGG","img_art/3.jpg","0","","","","","","","","","","","","","","","","","","","","","","","","",""
"1702","","image-button-response","119","823772","0.0-119.0","A26RO8GGTQAXGG","img_art/3.jpg","4","","","","","","","","","","","","","","","","","","","","","","","","",""
"955","","image-button-response","120","824734","0.0-120.0-0.0","A26RO8GGTQAXGG","img_art/3.jpg","5","","","","","","","","","","","","","","","","","","","","","","","","",""
"3284","","image-button-response","121","828025","0.0-121.0-0.0","A26RO8GGTQAXGG","img_art/3.jpg","0","","","","","","","","","","","","","","","","","","","","","","","","",""
"null","","html-keyboard-response","122","829037","0.0-122.0","A26RO8GGTQAXGG","<p style=""font-size: 48px;"">+</p>","","","","","null","allTrialResponses","1000","1","11","img_art/3.jpg","-44","yuck, I just see anger and it alienates me","Paige,Katelyn,Kristen,Brianna,Alexandria,Alicia","seems too angry,-50,60,20","No substance or feeling to it,-20,100,20","anger, blood, death,-24,280,20","It's very plain,-20,20,20","it makes me feel really angry,-20,80,20","scribbles in red. 2 minute piece.,-30,120,20","Alexandria","it makes me feel really angry,-20,80,20","Alicia","scribbles in red. 2 minute piece.,-30,120,20","Paige","seems too angry,-50,60,20","0"
"33812","","survey-text","123","862860","0.0-123.0-0.0","A26RO8GGTQAXGG","","","","{""Q0"":""I like the textured background with the bright musical staffs flowing through""}","","","","","","","","","","","","","","","","","","","","","","",""
"2968.5","","image-slider-response","124","865838","0.0-124.0","A26RO8GGTQAXGG","","","","","36","","","","","","","","","","","","","","","","","","","","","",""
"4773","","image-button-response","125","870853","0.0-125.0","A26RO8GGTQAXGG","img_art/11.jpg","3","","","","","","","","","","","","","","","","","","","","","","","","",""
"1466","","image-button-response","126","872334","0.0-126.0","A26RO8GGTQAXGG","img_art/11.jpg","3","","","","","","","","","","","","","","","","","","","","","","","","",""
"1272","","image-button-response","127","873614","0.0-127.0-0.0","A26RO8GGTQAXGG","img_art/11.jpg","4","","","","","","","","","","","","","","","","","","","","","","","","",""
"1164","","image-button-response","128","874785","0.0-128.0-0.0","A26RO8GGTQAXGG","img_art/11.jpg","5","","","","","","","","","","","","","","","","","","","","","","","","",""
"null","","html-keyboard-response","129","875794","0.0-129.0","A26RO8GGTQAXGG","<p style=""font-size: 48px;"">+</p>","","","","","null","allTrialResponses","1000","1","12","img_art/11.jpg","36","I like the textured background with the bright musical staffs flowing through","Paige,Madeline,Kaylee,Samantha,Alexandria,Alicia","gave me a sense of gloom,-21,60,20","I like the vibe of the painting,-3,40,20","i dont understand this painting,-1,200,20","Love the colors and flow,50,140,20","it reminds me of music,43,80,20","dna, odd but nice.,25,120,20","Samantha","Love the colors and flow,50,140,20","Alexandria","it reminds me of music,43,80,20","Alicia","dna, odd but nice.,25,120,20","0"
"16668","","survey-text","130","892477","0.0-130.0-0.0","A26RO8GGTQAXGG","","","","{""Q0"":""interesting repetition bad colors""}","","","","","","","","","","","","","","","","","","","","","","",""
"3926.7999999970198","","image-slider-response","131","896411","0.0-131.0","A26RO8GGTQAXGG","","","","","-10","","","","","","","","","","","","","","","","","","","","","",""
"null","","image-button-response","132","901421","0.0-132.0","A26RO8GGTQAXGG","img_art/15.jpg","null","","","","","","","","","","","","","","","","","","","","","","","","",""
"2128","","image-button-response","133","903553","0.0-133.0","A26RO8GGTQAXGG","img_art/15.jpg","3","","","","","","","","","","","","","","","","","","","","","","","","",""
"4064","","image-button-response","134","907631","0.0-134.0-0.0","A26RO8GGTQAXGG","img_art/15.jpg","5","","","","","","","","","","","","","","","","","","","","","","","","",""
"1149","","image-button-response","135","908788","0.0-135.0-0.0","A26RO8GGTQAXGG","img_art/15.jpg","4","","","","","","","","","","","","","","","","","","","","","","","","",""
"null","","html-keyboard-response","136","910347","0.0-136.0","A26RO8GGTQAXGG","<p style=""font-size: 48px;"">+</p>","","","","","null","allTrialResponses","1500","1","13","img_art/15.jpg","-10","interesting repetition bad colors","Natalie,Victoria,Mackenzie,Samantha,Alexandria,Alicia","my response to the picture is that I dont know what I am looking at,-25,400,20","makes me feel calm,40,400,20","I like the colors and textures.,32,20,20","Not interesting enough. Boring,-37,140,20","it looks like trees but they are up to interpretation,16,80,20","It's ok, it makes me think. That's something I guess.,8,120,20","Samantha","Not interesting enough. Boring,-37,140,20","Alicia","It's ok, it makes me think. That's something I guess.,8,120,20","Alexandria","it looks like trees but they are up to interpretation,16,80,20","0"
"16535","","survey-text","137","926899","0.0-137.0-0.0","A26RO8GGTQAXGG","","","","{""Q0"":""nope, nothing here for me""}","","","","","","","","","","","","","","","","","","","","","","",""
"3275.6000000089407","","image-slider-response","138","930179","0.0-138.0","A26RO8GGTQAXGG","","","","","-45","","","","","","","","","","","","","","","","","","","","","",""
"null","","image-button-response","139","935192","0.0-139.0","A26RO8GGTQAXGG","img_art/5.jpg","null","","","","","","","","","","","","","","","","","","","","","","","","",""
"1683","","image-button-response","140","936883","0.0-140.0","A26RO8GGTQAXGG","img_art/5.jpg","5","","","","","","","","","","","","","","","","","","","","","","","","",""
"1747","","image-button-response","141","938640","0.0-141.0-0.0","A26RO8GGTQAXGG","img_art/5.jpg","4","","","","","","","","","","","","","","","","","","","","","","","","",""
"899","","image-button-response","142","939549","0.0-142.0-0.0","A26RO8GGTQAXGG","img_art/5.jpg","1","","","","","","","","","","","","","","","","","","","","","","","","",""
"null","","html-keyboard-response","143","940066","0.0-143.0","A26RO8GGTQAXGG","<p style=""font-size: 48px;"">+</p>","","","","","null","allTrialResponses","500","1","14","img_art/5.jpg","-45","nope, nothing here for me","Amanda,Sophia,Courtney,Samantha,Alexandria,Alicia","Very good color coordination,41,180,20","Looks like a tied up trash bag.,-10,280,20","A rabbits head.,4,280,20","I cant explain why i like this so much but it really calls out to me,50,140,20","no clear emotion,-16,80,20","pointless, ugly, not creative.,-50,120,20","Alicia","pointless, ugly, not creative.,-50,120,20","Alexandria","no clear emotion,-16,80,20","Sophia","Looks like a tied up trash bag.,-10,280,20","0"
"29540","","survey-text","144","969690","0.0-144.0-0.0","A26RO8GGTQAXGG","","","","{""Q0"":""Love this, so much swirl and motion even if drab""}","","","","","","","","","","","","","","","","","","","","","","",""
"4208.0999999940395","","image-slider-response","145","973904","0.0-145.0","A26RO8GGTQAXGG","","","","","39","","","","","","","","","","","","","","","","","","","","","",""
"null","","image-button-response","146","978925","0.0-146.0","A26RO8GGTQAXGG","img_art/18.jpg","null","","","","","","","","","","","","","","","","","","","","","","","","",""
"3809","","image-button-response","147","982752","0.0-147.0","A26RO8GGTQAXGG","img_art/18.jpg","4","","","","","","","","","","","","","","","","","","","","","","","","",""
"1170","","image-button-response","148","983946","0.0-148.0-0.0","A26RO8GGTQAXGG","img_art/18.jpg","3","","","","","","","","","","","","","","","","","","","","","","","","",""
"1099","","image-button-response","149","985051","0.0-149.0-0.0","A26RO8GGTQAXGG","img_art/18.jpg","0","","","","","","","","","","","","","","","","","","","","","","","","",""
"null","","html-keyboard-response","150","986056","0.0-150.0","A26RO8GGTQAXGG","<p style=""font-size: 48px;"">+</p>","","","","","null","allTrialResponses","1000","1","15","img_art/18.jpg","39","Love this, so much swirl and motion even if drab","Gabrielle,Sophia,Alexa,Isabella,Alexandria,Alicia","interesting piece, I like the horse and people inserted in spots,22,160,20","This one is very dark and apocalyptic indeed!,-30,280,20","Very wild and abstract. I love it and would definitely hang this up in my home,50,40,20","Feels like a story of ancient war of the gods,26,280,20","the harsh lines with the smooth lines makes me think of wild animals,20,80,20","Skeletons, death, bleak colors, still kinda like it.,16,120,20","Alexandria","the harsh lines with the smooth lines makes me think of wild animals,20,80,20","Isabella","Feels like a story of ancient war of the gods,26,280,20","Gabrielle","interesting piece, I like the horse and people inserted in spots,22,160,20","0"
"5546","","survey-text","151","991650","0.0-151.0-0.0","A26RO8GGTQAXGG","","","","{""Q0"":""course""}","","","","","","","","","","","","","","","","","","","","","","",""
"26876","","survey-text","152","1018531","0.0-152.0-0.0","A26RO8GGTQAXGG","","","","{""Q0"":""more primitive in dull colors, I'll pass""}","","","","","","","","","","","","","","","","","","","","","","",""
"3913","","image-slider-response","153","1022458","0.0-153.0","A26RO8GGTQAXGG","","","","","-39","","","","","","","","","","","","","","","","","","","","","",""
"null","","image-button-response","154","1027501","0.0-154.0","A26RO8GGTQAXGG","img_art/2.jpg","null","","","","","","","","","","","","","","","","","","","","","","","","",""
"10584","","image-button-response","155","1038092","0.0-155.0","A26RO8GGTQAXGG","img_art/2.jpg","1","","","","","","","","","","","","","","","","","","","","","","","","",""
"849","","image-button-response","156","1038947","0.0-156.0-0.0","A26RO8GGTQAXGG","img_art/2.jpg","2","","","","","","","","","","","","","","","","","","","","","","","","",""
"905","","image-button-response","157","1039860","0.0-157.0-0.0","A26RO8GGTQAXGG","img_art/2.jpg","5","","","","","","","","","","","","","","","","","","","","","","","","",""
"null","","html-keyboard-response","158","1041367","0.0-158.0","A26RO8GGTQAXGG","<p style=""font-size: 48px;"">+</p>","","","","","null","allTrialResponses","1500","1","16","img_art/2.jpg","-39","more primitive in dull colors, I'll pass","Gabrielle,Rachel,Jennifer,Isabella,Alexandria,Hailey","doctor's office art work, nice colors and not offensive,23,160,20","I am not a fan of the color story. I am confused by the piece and therefore do not like it.,-21,80,20","Ugly color scheme,-50,380,20","Feels like a playground or park vibe,27,280,20","too abstract and confusing,-19,80,20","ugly green color and makes me sick,-29,200,20","Rachel","I am not a fan of the color story. I am confused by the piece and therefore do not like it.,-21,80,20","Jennifer","Ugly color scheme,-50,380,20","Hailey","ugly green color and makes me sick,-29,200,20","0"
"17621","","survey-text","159","1059006","0.0-159.0-0.0","A26RO8GGTQAXGG","","","","{""Q0"":""love the guitar, hate the color""}","","","","","","","","","","","","","","","","","","","","","","",""
"4158.5999999940395","","image-slider-response","160","1063172","0.0-160.0","A26RO8GGTQAXGG","","","","","-3","","","","","","","","","","","","","","","","","","","","","",""
"null","","image-button-response","161","1068215","0.0-161.0","A26RO8GGTQAXGG","img_art/10.jpg","null","","","","","","","","","","","","","","","","","","","","","","","","",""
"3258","","image-button-response","162","1071490","0.0-162.0","A26RO8GGTQAXGG","img_art/10.jpg","2","","","","","","","","","","","","","","","","","","","","","","","","",""
"1070","","image-button-response","163","1072575","0.0-163.0-0.0","A26RO8GGTQAXGG","img_art/10.jpg","4","","","","","","","","","","","","","","","","","","","","","","","","",""
"787","","image-button-response","164","1073373","0.0-164.0-0.0","A26RO8GGTQAXGG","img_art/10.jpg","5","","","","","","","","","","","","","","","","","","","","","","","","",""
"null","","html-keyboard-response","165","1073891","0.0-165.0","A26RO8GGTQAXGG","<p style=""font-size: 48px;"">+</p>","","","","","null","allTrialResponses","500","1","17","img_art/10.jpg","-3","love the guitar, hate the color","Jessica,Rachel,Jennifer,Anna,Maria,Hailey","I feel like this has a cool concept behind it.,11,400,20","Reminds me of a terrarium with cacti inside. It reminds me of home.,27,80,20","I am neutral towards the artwork,1,380,20","I like how simple but intricate it is.,30,300,20","not sure what to make of this one,0,120,20","a fast racetrack. go, go, go,5,200,20","Jennifer","I am neutral towards the artwork,1,380,20","Maria","not sure what to make of this one,0,120,20","Hailey","a fast racetrack. go, go, go,5,200,20","0"
"31665","","survey-text","166","1105611","0.0-166.0-0.0","A26RO8GGTQAXGG","","","","{""Q0"":""great color blends, atmospheric and fantastical""}","","","","","","","","","","","","","","","","","","","","","","",""
"3562.1000000089407","","image-slider-response","167","1109178","0.0-167.0","A26RO8GGTQAXGG","","","","","20","","","","","","","","","","","","","","","","","","","","","",""
"null","","image-button-response","168","1114221","0.0-168.0","A26RO8GGTQAXGG","img_art/21.jpg","null","","","","","","","","","","","","","","","","","","","","","","","","",""
"2290","","image-button-response","169","1116514","0.0-169.0","A26RO8GGTQAXGG","img_art/21.jpg","0","","","","","","","","","","","","","","","","","","","","","","","","",""
"1822","","image-button-response","170","1118347","0.0-170.0-0.0","A26RO8GGTQAXGG","img_art/21.jpg","4","","","","","","","","","","","","","","","","","","","","","","","","",""
"3418","","image-button-response","171","1121788","0.0-171.0-0.0","A26RO8GGTQAXGG","img_art/21.jpg","1","","","","","","","","","","","","","","","","","","","","","","","","",""
"null","","html-keyboard-response","172","1123340","0.0-172.0","A26RO8GGTQAXGG","<p style=""font-size: 48px;"">+</p>","","","","","null","allTrialResponses","1500","1","18","img_art/21.jpg","20","great color blends, atmospheric and fantastical","Heather,Elizabeth,Jennifer,Breanna,Maria,Hailey","The color spectrum is just beautiful.,32,260,20","Touches the heart,50,20,20","Bland, this painting is my least favorite,-20,380,20","Can't understand what it is,-27,380,20","brings up imagery of the sea and clashing, though not in a negative way,31,120,20","ocean and rocks at the beach,11,200,20","Heather","The color spectrum is just beautiful.,32,260,20","Maria","brings up imagery of the sea and clashing, though not in a negative way,31,120,20","Elizabeth","Touches the heart,50,20,20","0"
"21044","","survey-text","173","1144405","0.0-173.0-0.0","A26RO8GGTQAXGG","","","","{""Q0"":""very ancient feeling like a wood block print""}","","","","","","","","","","","","","","","","","","","","","","",""
"3374.2000000029802","","image-slider-response","174","1147786","0.0-174.0","A26RO8GGTQAXGG","","","","","47","","","","","","","","","","","","","","","","","","","","","",""
"null","","image-button-response","175","1152834","0.0-175.0","A26RO8GGTQAXGG","img_art/25.jpg","null","","","","","","","","","","","","","","","","","","","","","","","","",""
"3324","","image-button-response","176","1156162","0.0-176.0","A26RO8GGTQAXGG","img_art/25.jpg","1","","","","","","","","","","","","","","","","","","","","","","","","",""
"1137","","image-button-response","177","1157306","0.0-177.0-0.0","A26RO8GGTQAXGG","img_art/25.jpg","2","","","","","","","","","","","","","","","","","","","","","","","","",""
"1206","","image-button-response","178","1158518","0.0-178.0-0.0","A26RO8GGTQAXGG","img_art/25.jpg","4","","","","","","","","","","","","","","","","","","","","","","","","",""
"null","","html-keyboard-response","179","1159532","0.0-179.0","A26RO8GGTQAXGG","<p style=""font-size: 48px;"">+</p>","","","","","null","allTrialResponses","1000","1","19","img_art/25.jpg","47","very ancient feeling like a wood block print","Heather,Elizabeth,Sarah,Haley,Maria,Allison","This reminds me of royalty and servants.,32,260,20","Love the color hues and the texture it creates,50,20,20","green is really cool, and the pieces in black fit together and are interesting,20,180,20","I like the design but the brightness of the color feels almost blinding to me.,-3,220,20","I find it enjoyable - mainly because it is not art I ever expected to see,16,120,20","high contrast draws attention to the image, but I'm not sure what I'm seeing,-5,140,20","Elizabeth","Love the color hues and the texture it creates,50,20,20","Sarah","green is really cool, and the pieces in black fit together and are interesting,20,180,20","Maria","I find it enjoyable - mainly because it is not art I ever expected to see,16,120,20","0"
"32519","","survey-text","180","1192065","0.0-180.0-0.0","A26RO8GGTQAXGG","","","","{""Q0"":""nice, had to get a watercolor sketch that is not juvenile""}","","","","","","","","","","","","","","","","","","","","","","",""
"3028.3999999910593","","image-slider-response","181","1195099","0.0-181.0","A26RO8GGTQAXGG","","","","","18","","","","","","","","","","","","","","","","","","","","","",""
"null","","image-button-response","182","1200105","0.0-182.0","A26RO8GGTQAXGG","img_art/26.jpg","null","","","","","","","","","","","","","","","","","","","","","","","","",""
"4566","","image-button-response","183","1204676","0.0-183.0","A26RO8GGTQAXGG","img_art/26.jpg","1","","","","","","","","","","","","","","","","","","","","","","","","",""
"736","","image-button-response","184","1205421","0.0-184.0-0.0","A26RO8GGTQAXGG","img_art/26.jpg","0","","","","","","","","","","","","","","","","","","","","","","","","",""
"1331","","image-button-response","185","1206771","0.0-185.0-0.0","A26RO8GGTQAXGG","img_art/26.jpg","0","","","","","","","","","","","","","","","","","","","","","","","","",""
"810","","image-button-response","186","1212114","0.0-185.1-0.1","A26RO8GGTQAXGG","img_art/26.jpg","0","","","","","","","","","","","","","","","","","","","","","","","","",""
"1067","","image-button-response","187","1216486","0.0-185.2-0.2","A26RO8GGTQAXGG","img_art/26.jpg","5","","","","","","","","","","","","","","","","","","","","","","","","",""
"null","","html-keyboard-response","188","1217492","0.0-186.0","A26RO8GGTQAXGG","<p style=""font-size: 48px;"">+</p>","","","","","null","allTrialResponses","1000","1","20","img_art/26.jpg","18","nice, had to get a watercolor sketch that is not juvenile","Claire,Elizabeth,Sarah,Catherine,Maria,Kaitlin","very impressionistic,11,260,20","Like the soft blend of colors,26,20,20","too hard to figure out if it's meant to be actual objects or impressions,-36,180,20","Incomplete, The artist painted his impression of somthing he was thinking of,0,160,20","fairly neutral, really,8,120,20","i can feel the warmth,12,60,20","Elizabeth","Like the soft blend of colors,26,20,20","Claire","very impressionistic,11,260,20","Kaitlin","i can feel the warmth,12,60,20","4"
"4084","","survey-text","189","1221601","0.0-187.0-0.0","A26RO8GGTQAXGG","","","","{""Q0"":""we""}","","","","","","","","","","","","","","","","","","","","","","",""
"33733","","survey-text","190","1255338","0.0-188.0-0.0","A26RO8GGTQAXGG","","","","{""Q0"":""weird mixed media piece, its too odd for me""}","","","","","","","","","","","","","","","","","","","","","","",""
"5399.29999999702","","image-slider-response","191","1260744","0.0-189.0","A26RO8GGTQAXGG","","","","","-15","","","","","","","","","","","","","","","","","","","","","",""
"null","","image-button-response","192","1265752","0.0-190.0","A26RO8GGTQAXGG","img_art/16.jpg","null","","","","","","","","","","","","","","","","","","","","","","","","",""
"750","","image-button-response","193","1266506","0.0-191.0","A26RO8GGTQAXGG","img_art/16.jpg","3","","","","","","","","","","","","","","","","","","","","","","","","",""
"1393","","image-button-response","194","1267907","0.0-192.0-0.0","A26RO8GGTQAXGG","img_art/16.jpg","5","","","","","","","","","","","","","","","","","","","","","","","","",""
"1269","","image-button-response","195","1269185","0.0-193.0-0.0","A26RO8GGTQAXGG","img_art/16.jpg","2","","","","","","","","","","","","","","","","","","","","","","","","",""
"null","","html-keyboard-response","196","1270213","0.0-194.0","A26RO8GGTQAXGG","<p style=""font-size: 48px;"">+</p>","","","","","null","allTrialResponses","1000","1","21","img_art/16.jpg","-15","weird mixed media piece, its too odd for me","Claire,Elizabeth,Cynthia,Morgan,Grace,Kaitlin","the materials used are interesting,30,260,20","Picture seems unique,12,20,20","Dreamy and chaotic,-9,320,20","Strange and bleak.,-20,380,20","Something terrible happened. Either the figure on the right is the victim or another shredded toy.,-49,180,20","The teddy bear looks really scared,-30,60,20","Morgan","Strange and bleak.,-20,380,20","Kaitlin","The teddy bear looks really scared,-30,60,20","Cynthia","Dreamy and chaotic,-9,320,20","4"
"35677","","survey-text","197","1305905","0.0-195.0-0.0","A26RO8GGTQAXGG","","","","{""Q0"":""too gestural, not thought out just a scribble""}","","","","","","","","","","","","","","","","","","","","","","",""
"3295.7000000029802","","image-slider-response","198","1309210","0.0-196.0","A26RO8GGTQAXGG","","","","","-15","","","","","","","","","","","","","","","","","","","","","",""
"null","","image-button-response","199","1314222","0.0-197.0","A26RO8GGTQAXGG","img_art/30.jpg","null","","","","","","","","","","","","","","","","","","","","","","","","",""
"3286","","image-button-response","200","1317514","0.0-198.0","A26RO8GGTQAXGG","img_art/30.jpg","4","","","","","","","","","","","","","","","","","","","","","","","","",""
"1198","","image-button-response","201","1318720","0.0-199.0-0.0","A26RO8GGTQAXGG","img_art/30.jpg","0","","","","","","","","","","","","","","","","","","","","","","","","",""
"4876","","image-button-response","202","1323607","0.0-200.0-0.0","A26RO8GGTQAXGG","img_art/30.jpg","5","","","","","","","","","","","","","","","","","","","","","","","","",""
"null","","html-keyboard-response","203","1324116","0.0-201.0","A26RO8GGTQAXGG","<p style=""font-size: 48px;"">+</p>","","","","","null","allTrialResponses","500","1","22","img_art/30.jpg","-15","too gestural, not thought out just a scribble","Alyssa,Mary,Cynthia,Morgan,Kimberly,Kaitlin","ugly nasty colors,-10,160,20","I hate this piece. It looks like a child created it. The colors are awful.,-46,180,20","fun and imaginative,12,320,20","Sleek eel in the abstract ocean.,30,380,20","looks like eels,-20,260,20","the different roads to take in life,10,60,20","Kimberly","looks like eels,-20,260,20","Alyssa","ugly nasty colors,-10,160,20","Kaitlin","the different roads to take in life,10,60,20","4"
"25056","","survey-text","204","1349193","0.0-202.0-0.0","A26RO8GGTQAXGG","","","","{""Q0"":""nice composition but colors don't fit""}","","","","","","","","","","","","","","","","","","","","","","",""
"4064.1000000089407","","image-slider-response","205","1353262","0.0-203.0","A26RO8GGTQAXGG","","","","","-9","","","","","","","","","","","","","","","","","","","","","",""
"null","","image-button-response","206","1358276","0.0-204.0","A26RO8GGTQAXGG","img_art/27.jpg","null","","","","","","","","","","","","","","","","","","","","","","","","",""
"1753","","image-button-response","207","1360035","0.0-205.0","A26RO8GGTQAXGG","img_art/27.jpg","4","","","","","","","","","","","","","","","","","","","","","","","","",""
"1243","","image-button-response","208","1361286","0.0-206.0-0.0","A26RO8GGTQAXGG","img_art/27.jpg","5","","","","","","","","","","","","","","","","","","","","","","","","",""
"4101","","image-button-response","209","1365395","0.0-207.0-0.0","A26RO8GGTQAXGG","img_art/27.jpg","1","","","","","","","","","","","","","","","","","","","","","","","","",""
"null","","html-keyboard-response","210","1366918","0.0-208.0","A26RO8GGTQAXGG","<p style=""font-size: 48px;"">+</p>","","","","","null","allTrialResponses","1500","1","23","img_art/27.jpg","-9","nice composition but colors don't fit","Alyssa,Crystal,Alexandra,Nicole,Kimberly,Kaitlin","Looks as if a toddler painted it,-20,160,20","Muddied and directionless. Like someone dragged a brush across the paper for the sake of doing something.,-50,300,20","This is ugly and looks like a child did this,-36,60,20","Very cool colors and I like the contrast of lights and darks,30,20,20","Nothing stands out,-23,260,20","this reminds me of simpler time,31,60,20","Kimberly","Nothing stands out,-23,260,20","Kaitlin","this reminds me of simpler time,31,60,20","Crystal","Muddied and directionless. Like someone dragged a brush across the paper for the sake of doing something.,-50,300,20","4"
"22261","","survey-text","211","1389225","0.0-209.0-0.0","A26RO8GGTQAXGG","","","","{""Q0"":""looks like a plan for a larger piece""}","","","","","","","","","","","","","","","","","","","","","","",""
"2898.800000011921","","image-slider-response","212","1392128","0.0-210.0","A26RO8GGTQAXGG","","","","","-29","","","","","","","","","","","","","","","","","","","","","",""
"null","","image-button-response","213","1397231","0.0-211.0","A26RO8GGTQAXGG","img_art/19.jpg","null","","","","","","","","","","","","","","","","","","","","","","","","",""
"4087","","image-button-response","214","1401324","0.0-212.0","A26RO8GGTQAXGG","img_art/19.jpg","0","","","","","","","","","","","","","","","","","","","","","","","","",""
"1814","","image-button-response","215","1403167","0.0-213.0-0.0","A26RO8GGTQAXGG","img_art/19.jpg","2","","","","","","","","","","","","","","","","","","","","","","","","",""
"929","","image-button-response","216","1404109","0.0-214.0-0.0","A26RO8GGTQAXGG","img_art/19.jpg","4","","","","","","","","","","","","","","","","","","","","","","","","",""
"null","","html-keyboard-response","217","1405676","0.0-215.0","A26RO8GGTQAXGG","<p style=""font-size: 48px;"">+</p>","","","","","null","allTrialResponses","1500","1","24","img_art/19.jpg","-29","looks like a plan for a larger piece","Kaitlyn,Crystal,Jamie,Mikayla,Kimberly,Kaitlin","The picture contains a lot of brown and weird drips,-4,80,20","It is an interesting piece but there are too many muted tones,22,300,20","Looks like a busy port,10,320,20","Very pretty and colorful.,23,300,20","The blue makes it look like it has depth,11,260,20","this looks like a busy city lifestyle,24,60,20","Kaitlyn","The picture contains a lot of brown and weird drips,-4,80,20","Jamie","Looks like a busy port,10,320,20","Kimberly","The blue makes it look like it has depth,11,260,20","4"
"35820","","survey-text","218","1441514","0.0-216.0-0.0","A26RO8GGTQAXGG","","","","{""Q0"":""too dark and lifeless like hard drug users avoiding feeling""}","","","","","","","","","","","","","","","","","","","","","","",""
"3689","","image-slider-response","219","1445216","0.0-217.0","A26RO8GGTQAXGG","","","","","-35","","","","","","","","","","","","","","","","","","","","","",""
"null","","image-button-response","220","1450224","0.0-218.0","A26RO8GGTQAXGG","img_art/29.jpg","null","","","","","","","","","","","","","","","","","","","","","","","","",""
"1638","","image-button-response","221","1451865","0.0-219.0","A26RO8GGTQAXGG","img_art/29.jpg","1","","","","","","","","","","","","","","","","","","","","","","","","",""
"1126","","image-button-response","222","1452997","0.0-220.0-0.0","A26RO8GGTQAXGG","img_art/29.jpg","3","","","","","","","","","","","","","","","","","","","","","","","","",""
"1978","","image-button-response","223","1454990","0.0-221.0-0.0","A26RO8GGTQAXGG","img_art/29.jpg","0","","","","","","","","","","","","","","","","","","","","","","","","",""
"null","","html-keyboard-response","224","1455509","0.0-222.0","A26RO8GGTQAXGG","<p style=""font-size: 48px;"">+</p>","","","","","null","allTrialResponses","500","1","25","img_art/29.jpg","-35","too dark and lifeless like hard drug users avoiding feeling","Kaitlyn,Shannon,Jamie,Savannah,Kimberly,Amy","I do not like the red x present in the picture,-6,80,20","I think this image looks ugly and needs more colors so it looks nicer.,-30,220,20","3D looks is really cool,30,320,20","Looks wrong. Like a real painting was vandalized.,-50,200,20","I like the usage of a physical object,33,260,20","The textures bring this painting alive. A window to another existence with infinite possibility.,25,220,20","Shannon","I think this image looks ugly and needs more colors so it looks nicer.,-30,220,20","Savannah","Looks wrong. Like a real painting was vandalized.,-50,200,20","Kaitlyn","I do not like the red x present in the picture,-6,80,20","4"
"5369","","survey-text","225","1460924","0.0-223.0-0.0","A26RO8GGTQAXGG","","","","{""Q0"":""table""}","","","","","","","","","","","","","","","","","","","","","","",""
"19256","","survey-text","226","1480186","0.0-224.0-0.0","A26RO8GGTQAXGG","","","","{""Q0"":""nice layering to create depth""}","","","","","","","","","","","","","","","","","","","","","","",""
"3530.6000000089407","","image-slider-response","227","1483737","0.0-225.0","A26RO8GGTQAXGG","","","","","46","","","","","","","","","","","","","","","","","","","","","",""
"null","","image-button-response","228","1488751","0.0-226.0","A26RO8GGTQAXGG","img_art/1.jpg","null","","","","","","","","","","","","","","","","","","","","","","","","",""
"1390","","image-button-response","229","1490146","0.0-227.0","A26RO8GGTQAXGG","img_art/1.jpg","5","","","","","","","","","","","","","","","","","","","","","","","","",""
"1569","","image-button-response","230","1491721","0.0-228.0-0.0","A26RO8GGTQAXGG","img_art/1.jpg","1","","","","","","","","","","","","","","","","","","","","","","","","",""
"1522","","image-button-response","231","1493251","0.0-229.0-0.0","A26RO8GGTQAXGG","img_art/1.jpg","0","","","","","","","","","","","","","","","","","","","","","","","","",""
"null","","html-keyboard-response","232","1494766","0.0-230.0","A26RO8GGTQAXGG","<p style=""font-size: 48px;"">+</p>","","","","","null","allTrialResponses","1500","1","26","img_art/1.jpg","46","nice layering to create depth","Kaitlyn,Shannon,Andrea,Savannah,Chelsea,Laura","Interesting blend of colors,9,80,20","I think that this picture has nice colors and its pleasing to the eyes.,20,220,20","It just doesn't speak to me.,0,240,20","Its simply okay.,3,200,20","The colors are a little too intense.,1,180,20","soft and touchable, muddled,15,320,20","Laura","soft and touchable, muddled,15,320,20","Shannon","I think that this picture has nice colors and its pleasing to the eyes.,20,220,20","Kaitlyn","Interesting blend of colors,9,80,20","4"
"22113","","survey-text","233","1516904","0.0-231.0-0.0","A26RO8GGTQAXGG","","","","{""Q0"":""an abstract city, too smoky""}","","","","","","","","","","","","","","","","","","","","","","",""
"5667.70000000298","","image-slider-response","234","1522577","0.0-232.0","A26RO8GGTQAXGG","","","","","7","","","","","","","","","","","","","","","","","","","","","",""
"null","","image-button-response","235","1527588","0.0-233.0","A26RO8GGTQAXGG","img_art/22.jpg","null","","","","","","","","","","","","","","","","","","","","","","","","",""
"2325","","image-button-response","236","1529934","0.0-234.0","A26RO8GGTQAXGG","img_art/22.jpg","0","","","","","","","","","","","","","","","","","","","","","","","","",""
"3721","","image-button-response","237","1533662","0.0-235.0-0.0","A26RO8GGTQAXGG","img_art/22.jpg","1","","","","","","","","","","","","","","","","","","","","","","","","",""
"804","","image-button-response","238","1534475","0.0-236.0-0.0","A26RO8GGTQAXGG","img_art/22.jpg","5","","","","","","","","","","","","","","","","","","","","","","","","",""
"null","","html-keyboard-response","239","1535493","0.0-237.0","A26RO8GGTQAXGG","<p style=""font-size: 48px;"">+</p>","","","","","null","allTrialResponses","1000","1","27","img_art/22.jpg","7","an abstract city, too smoky","Kaitlyn,Shannon,Monica,Mariah,Kayla,Laura","Would be better if random black object was not present,11,80,20","I think this picture looks interesting because of the way the colors work together.,20,220,20","I really like the bright colors and sunset feel,31,360,20","The colors are pleasant, the shapes are inviting.,21,140,20","I don't like that it looks like a person is there upside down.,-16,180,20","muddy and rough,14,320,20","Kaitlyn","Would be better if random black object was not present,11,80,20","Shannon","I think this picture looks interesting because of the way the colors work together.,20,220,20","Laura","muddy and rough,14,320,20","4"
"16997","","survey-text","240","1552514","0.0-238.0-0.0","A26RO8GGTQAXGG","","","","{""Q0"":""nice colors but looks like a bad dream""}","","","","","","","","","","","","","","","","","","","","","","",""
"3831.2000000029802","","image-slider-response","241","1556353","0.0-239.0","A26RO8GGTQAXGG","","","","","-7","","","","","","","","","","","","","","","","","","","","","",""
"null","","image-button-response","242","1561366","0.0-240.0","A26RO8GGTQAXGG","img_art/9.jpg","null","","","","","","","","","","","","","","","","","","","","","","","","",""
"2510","","image-button-response","243","1563882","0.0-241.0","A26RO8GGTQAXGG","img_art/9.jpg","2","","","","","","","","","","","","","","","","","","","","","","","","",""
"2001","","image-button-response","244","1565889","0.0-242.0-0.0","A26RO8GGTQAXGG","img_art/9.jpg","3","","","","","","","","","","","","","","","","","","","","","","","","",""
"2935","","image-button-response","245","1568838","0.0-243.0-0.0","A26RO8GGTQAXGG","img_art/9.jpg","5","","","","","","","","","","","","","","","","","","","","","","","","",""
"null","","html-keyboard-response","246","1569351","0.0-244.0","A26RO8GGTQAXGG","<p style=""font-size: 48px;"">+</p>","","","","","null","allTrialResponses","500","1","28","img_art/9.jpg","-7","nice colors but looks like a bad dream","Kaitlyn,Shannon,Olivia,Marissa,Gabriela,Laura","Focal point is interesting,2,80,20","This looks like someone sleeping in a bed, and I think the colors make it look interesting.,20,220,20","what a wild ride,11,40,20","It makes me think of Snow White sleeping,11,160,20","This photo make me feel peaceful. It looks like a woman sleeping in a garden,42,140,20","autopsy, morgue, dead corpses - don't like the flesh tones,-43,320,20","Olivia","what a wild ride,11,40,20","Marissa","It makes me think of Snow White sleeping,11,160,20","Laura","autopsy, morgue, dead corpses - don't like the flesh tones,-43,320,20","4"
"16995","","survey-text","247","1586367","0.0-245.0-0.0","A26RO8GGTQAXGG","","","","{""Q0"":""industrial georgia o'keefe""}","","","","","","","","","","","","","","","","","","","","","","",""
"3213.9000000059605","","image-slider-response","248","1589587","0.0-246.0","A26RO8GGTQAXGG","","","","","-6","","","","","","","","","","","","","","","","","","","","","",""
"4809","","image-button-response","249","1594594","0.0-247.0","A26RO8GGTQAXGG","img_art/20.jpg","1","","","","","","","","","","","","","","","","","","","","","","","","",""
"1559","","image-button-response","250","1596166","0.0-248.0","A26RO8GGTQAXGG","img_art/20.jpg","0","","","","","","","","","","","","","","","","","","","","","","","","",""
"891","","image-button-response","251","1597067","0.0-249.0-0.0","A26RO8GGTQAXGG","img_art/20.jpg","2","","","","","","","","","","","","","","","","","","","","","","","","",""
"1934","","image-button-response","252","1599009","0.0-250.0-0.0","A26RO8GGTQAXGG","img_art/20.jpg","1","","","","","","","","","","","","","","","","","","","","","","","","",""
"null","","html-keyboard-response","253","1600527","0.0-251.0","A26RO8GGTQAXGG","<p style=""font-size: 48px;"">+</p>","","","","","null","allTrialResponses","1500","1","29","img_art/20.jpg","-6","industrial georgia o'keefe","Stephanie,Megan,Olivia,Marissa,Sabrina,Laura","Looks like an old gold mining down now deserted.,11,300,20","Fails to capture what similar styles do,-12,200,20","crash after traffic causing grief,-11,40,20","I feel intrigued and impressed,34,160,20","I love the way it expresses dark nature and uncontrolled situations.,44,120,20","very fluid and mysterious,37,320,20","Stephanie","Looks like an old gold mining down now deserted.,11,300,20","Olivia","crash after traffic causing grief,-11,40,20","Megan","Fails to capture what similar styles do,-12,200,20","4"
"16211","","survey-text","254","1616752","0.0-252.0-0.0","A26RO8GGTQAXGG","","","","{""Q0"":""looks like sand under a microscope""}","","","","","","","","","","","","","","","","","","","","","","",""
"3056.7999999970198","","image-slider-response","255","1619814","0.0-253.0","A26RO8GGTQAXGG","","","","","17","","","","","","","","","","","","","","","","","","","","","",""
"4119","","image-button-response","256","1624821","0.0-254.0","A26RO8GGTQAXGG","img_art/7.jpg","1","","","","","","","","","","","","","","","","","","","","","","","","",""
"2253","","image-button-response","257","1627083","0.0-255.0","A26RO8GGTQAXGG","img_art/7.jpg","2","","","","","","","","","","","","","","","","","","","","","","","","",""
"1262","","image-button-response","258","1628350","0.0-256.0-0.0","A26RO8GGTQAXGG","img_art/7.jpg","1","","","","","","","","","","","","","","","","","","","","","","","","",""
"1133","","image-button-response","259","1629490","0.0-257.0-0.0","A26RO8GGTQAXGG","img_art/7.jpg","3","","","","","","","","","","","","","","","","","","","","","","","","",""
"null","","html-keyboard-response","260","1631010","0.0-258.0","A26RO8GGTQAXGG","<p style=""font-size: 48px;"">+</p>","","","","","null","allTrialResponses","1500","1","30","img_art/7.jpg","17","looks like sand under a microscope","Stephanie,Megan,Olivia,Melissa,Briana,Ashley","This looks muddy and stomped on. I think of destruction.,-50,300,20","Great portrayal of solid surface,19,200,20","looking down on earth,19,40,20","textures are engaging,8,240,20","Are these ancient cave paintings?,-7,400,20","landscape of amrs, yawn.,-25,320,20","Olivia","looking down on earth,19,40,20","Megan","Great portrayal of solid surface,19,200,20","Melissa","textures are engaging,8,240,20","4"
"3048","","image-button-response_instructions","261","1634073","0.0-259.0","A26RO8GGTQAXGG","","0","instructions","","","","","","","","","","","","","","","","","","","","","","","",""
"1499","","image-button-response","262","1635600","0.0-260.0","A26RO8GGTQAXGG","","0","","","","","","","","","","","","","","","","","","","","","","","","",""
