"rt","url","trial_type","trial_index","time_elapsed","internal_node_id","participant_id","stimulus","button_pressed","Name","responses","response","key_press","variableName","fixationTime","condition","trial","photo","subjectRating","subjectResponse","agentsNames","agent_1_Response","agent_2_Response","agent_3_Response","agent_4_Response","agent_5_Response","agent_6_Response","kept_1_name","kept_1_response","kept_2_name","kept_2_response","kept_3_name","kept_3_response","errorCounter"
"16731","external_page_harvard.html","external-html","0","16870","0.0-0.0","A26ZGP2V4T81HL","","","","","","","","","","","","","","","","","","","","","","","","","","",""
"1412","","image-button-response","1","18284","0.0-1.0","A26ZGP2V4T81HL","","0","","","","","","","","","","","","","","","","","","","","","","","","",""
"2507","","image-button-response","2","20797","0.0-2.0-0.0","A26ZGP2V4T81HL","","1","phone","","","","","","","","","","","","","","","","","","","","","","","",""
"6844","","survey-text","3","27644","0.0-3.0-0.0","A26ZGP2V4T81HL","","","","{""Q0"":""A26ZGP2V4T81HL""}","","","","","","","","","","","","","","","","","","","","","","",""
"4791","","image-button-response_instructions","4","32438","0.0-4.0","A26ZGP2V4T81HL","","0","instructions","","","","","","","","","","","","","","","","","","","","","","","",""
"19874","","image-button-response_instructions","5","52313","0.0-5.0","A26ZGP2V4T81HL","img_art/ins/popularity/ins1.png","0","instructions","","","","","","","","","","","","","","","","","","","","","","","",""
"8112","","image-button-response_instructions","6","60427","0.0-6.0","A26ZGP2V4T81HL","img_art/ins/popularity/ins2.png","0","instructions","","","","","","","","","","","","","","","","","","","","","","","",""
"8457","","image-button-response_instructions","7","68885","0.0-7.0","A26ZGP2V4T81HL","img_art/ins/popularity/ins2Extreme.png","0","instructions","","","","","","","","","","","","","","","","","","","","","","","",""
"5430","","image-button-response_instructions","8","74317","0.0-8.0","A26ZGP2V4T81HL","img_art/ins/popularity/ins3KEEPpop.PNG","0","instructions","","","","","","","","","","","","","","","","","","","","","","","",""
"9865","","image-button-response_instructions","9","84183","0.0-9.0","A26ZGP2V4T81HL","img_art/ins/popularity/ins3ANamepop.PNG","0","instructions","","","","","","","","","","","","","","","","","","","","","","","",""
"3636","","image-button-response_instructions","10","87821","0.0-10.0","A26ZGP2V4T81HL","img_art/ins/popularity/ins3ARatingpop.png","0","instructions","","","","","","","","","","","","","","","","","","","","","","","",""
"4982","","image-button-response_instructions","11","92805","0.0-11.0","A26ZGP2V4T81HL","img_art/ins/popularity/ins3ATextpop.png","0","instructions","","","","","","","","","","","","","","","","","","","","","","","",""
"5715","","image-button-response_instructions","12","98522","0.0-12.0","A26ZGP2V4T81HL","img_art/ins/popularity/ins3ALikespop.png","0","instructions","","","","","","","","","","","","","","","","","","","","","","","",""
"18273","","image-button-response_instructions","13","116797","0.0-13.0","A26ZGP2V4T81HL","img_art/ins/popularity/ins3KEEPpop.PNG","0","instructions","","","","","","","","","","","","","","","","","","","","","","","",""
"8865","","image-button-response_instructions","14","125663","0.0-14.0","A26ZGP2V4T81HL","img_art/ins/popularity/ins3_5RED.png","0","instructions","","","","","","","","","","","","","","","","","","","","","","","",""
"6028","","image-button-response_instructions","15","131693","0.0-15.0","A26ZGP2V4T81HL","img_art/ins/popularity/ins3KEEPpop.PNG","0","instructions","","","","","","","","","","","","","","","","","","","","","","","",""
"8330","","image-button-response_instructions","16","140025","0.0-16.0","A26ZGP2V4T81HL","img_art/ins/popularity/ins4KEEPpop.PNG","0","instructions","","","","","","","","","","","","","","","","","","","","","","","",""
"4078","","image-button-response_instructions","17","144105","0.0-17.0","A26ZGP2V4T81HL","img_art/ins/popularity/ins5KEEPpop.PNG","0","instructions","","","","","","","","","","","","","","","","","","","","","","","",""
"2129","","image-button-response_instructions","18","146235","0.0-18.0","A26ZGP2V4T81HL","","0","instructions","","","","","","","","","","","","","","","","","","","","","","","",""
"11355","","survey-text","19","157617","0.0-19.0-0.0","A26ZGP2V4T81HL","","","","{""Q0"":""but""}","","","","","","","","","","","","","","","","","","","","","","",""
"18103","","survey-text","20","175724","0.0-20.0-0.0","A26ZGP2V4T81HL","","","","{""Q0"":""It just seems a mashing of colors""}","","","","","","","","","","","","","","","","","","","","","","",""
"6725.299999952316","","image-slider-response","21","182452","0.0-21.0","A26ZGP2V4T81HL","","","","","-13","","","","","","","","","","","","","","","","","","","","","",""
"null","","image-button-response","22","187462","0.0-22.0","A26ZGP2V4T81HL","img_art/ins/1.jpg","null","","","","","","","","","","","","","","","","","","","","","","","","",""
"8945","","image-button-response","23","196410","0.0-23.0","A26ZGP2V4T81HL","img_art/ins/1.jpg","0","","","","","","","","","","","","","","","","","","","","","","","","",""
"15907","","image-button-response","24","212320","0.0-24.0-0.0","A26ZGP2V4T81HL","img_art/ins/1.jpg","1","","","","","","","","","","","","","","","","","","","","","","","","",""
"16086","","image-button-response","25","228410","0.0-25.0-0.0","A26ZGP2V4T81HL","img_art/ins/1.jpg","5","","","","","","","","","","","","","","","","","","","","","","","","",""
"null","","html-keyboard-response","26","229424","0.0-26.0","A26ZGP2V4T81HL","<p style=""font-size: 48px;"">+</p>","","","","","null","allTrialResponses","1000","1","-2","img_art/ins/1.jpg","-13","It just seems a mashing of colors","Adam,Alex,Ben,Carl,Daniel,Jack","Seems like doodles,-20,20,20","very creative work.,36,40,20","This color reminds me of poo,-46,60,20","very calming artwork,42,80,20","It looks like a murder scene.,-48,100,20","I like the sophisticated brushwork,40,120,20","Adam","Seems like doodles,-20,20,20","Alex","very creative work.,36,40,20","Jack","I like the sophisticated brushwork,40,120,20","0"
"28343","","survey-text","27","257772","0.0-27.0-0.0","A26ZGP2V4T81HL","","","","{""Q0"":""I just don't get this type of art, no structure for me""}","","","","","","","","","","","","","","","","","","","","","","",""
"3463.2999999523163","","image-slider-response","28","261238","0.0-28.0","A26ZGP2V4T81HL","","","","","-15","","","","","","","","","","","","","","","","","","","","","",""
"2522","","image-button-response","29","266248","0.0-29.0","A26ZGP2V4T81HL","img_art/ins/2.jpg","0","","","","","","","","","","","","","","","","","","","","","","","","",""
"1473","","image-button-response","30","267724","0.0-30.0","A26ZGP2V4T81HL","img_art/ins/2.jpg","2","","","","","","","","","","","","","","","","","","","","","","","","",""
"4046","","image-button-response","31","271772","0.0-31.0-0.0","A26ZGP2V4T81HL","img_art/ins/2.jpg","1","","","","","","","","","","","","","","","","","","","","","","","","",""
"4209","","image-button-response","32","275984","0.0-32.0-0.0","A26ZGP2V4T81HL","img_art/ins/2.jpg","0","","","","","","","","","","","","","","","","","","","","","","","","",""
"null","","html-keyboard-response","33","276495","0.0-33.0","A26ZGP2V4T81HL","<p style=""font-size: 48px;"">+</p>","","","","","null","allTrialResponses","500","1","-1","img_art/ins/2.jpg","-15","I just don't get this type of art, no structure for me","Adam,Alex,Kyle,James,John,Jack","too much color,-18,20,20","I like the blocks of color arrangements,30,40,20","Idk, it is just annoying,-32,180,20","looks too angry,-50,140,20","love the texture of paint,48,160,20","I would never be able to compose a sophisticated pallete like this,48,120,20","Kyle","Idk, it is just annoying,-32,180,20","Alex","I like the blocks of color arrangements,30,40,20","Adam","too much color,-18,20,20","0"
"33857","","survey-text","34","310356","0.0-34.0-0.0","A26ZGP2V4T81HL","","","","{""Q0"":""If this is art I should be an artist""}","","","","","","","","","","","","","","","","","","","","","","",""
"3447.5","","image-slider-response","35","313806","0.0-35.0","A26ZGP2V4T81HL","","","","","-19","","","","","","","","","","","","","","","","","","","","","",""
"1790","","image-button-response","36","318815","0.0-36.0","A26ZGP2V4T81HL","img_art/ins/3.jpg","0","","","","","","","","","","","","","","","","","","","","","","","","",""
"3266","","image-button-response","37","322083","0.0-37.0","A26ZGP2V4T81HL","img_art/ins/3.jpg","0","","","","","","","","","","","","","","","","","","","","","","","","",""
"4204","","image-button-response","38","326289","0.0-38.0-0.0","A26ZGP2V4T81HL","img_art/ins/3.jpg","4","","","","","","","","","","","","","","","","","","","","","","","","",""
"3857","","image-button-response","39","330149","0.0-39.0-0.0","A26ZGP2V4T81HL","img_art/ins/3.jpg","2","","","","","","","","","","","","","","","","","","","","","","","","",""
"null","","html-keyboard-response","40","331155","0.0-40.0","A26ZGP2V4T81HL","<p style=""font-size: 48px;"">+</p>","","","","","null","allTrialResponses","1000","1","0","img_art/ins/3.jpg","-19","If this is art I should be an artist","Adam,Alex,Kyle,Mike,Ron,Sam","My daily routine, it's depressing,-20,20,20","calming blue is very nice,36,40,20","It looks like a playground for bats,-36,180,20","enjoy the different shades of blue,22,200,20","It looks depressing,-26,220,20","I can feel a rainy day from this painting,18,240,20","Adam","My daily routine, it's depressing,-20,20,20","Ron","It looks depressing,-26,220,20","Kyle","It looks like a playground for bats,-36,180,20","0"
"4553","","image-button-response_instructions","41","335714","0.0-41.0","A26ZGP2V4T81HL","","0","instructions","","","","","","","","","","","","","","","","","","","","","","","",""
"13519","","survey-likert","42","349235","0.0-42.0-0.0","A26ZGP2V4T81HL","","","","{""Q0"":"""",""Q1"":0,""Q2"":1}","","","","","","","","","","","","","","","","","","","","","","",""
"5543","","survey-text","43","354783","0.0-43.0-0.0","A26ZGP2V4T81HL","","","","{""Q0"":""rock""}","","","","","","","","","","","","","","","","","","","","","","",""
"16380","","survey-text","44","371167","0.0-44.0-0.0","A26ZGP2V4T81HL","","","","{""Q0"":""just odd""}","","","","","","","","","","","","","","","","","","","","","","",""
"3024.100000143051","","image-slider-response","45","374193","0.0-45.0","A26ZGP2V4T81HL","","","","","-18","","","","","","","","","","","","","","","","","","","","","",""
"null","","image-button-response","46","379226","0.0-46.0","A26ZGP2V4T81HL","img_art/15.jpg","null","","","","","","","","","","","","","","","","","","","","","","","","",""
"992","","image-button-response","47","380221","0.0-47.0","A26ZGP2V4T81HL","img_art/15.jpg","3","","","","","","","","","","","","","","","","","","","","","","","","",""
"1931","","image-button-response","48","382155","0.0-48.0-0.0","A26ZGP2V4T81HL","img_art/15.jpg","0","","","","","","","","","","","","","","","","","","","","","","","","",""
"4840","","image-button-response","49","386998","0.0-49.0-0.0","A26ZGP2V4T81HL","img_art/15.jpg","1","","","","","","","","","","","","","","","","","","","","","","","","",""
"null","","html-keyboard-response","50","387503","0.0-50.0","A26ZGP2V4T81HL","<p style=""font-size: 48px;"">+</p>","","","","","null","allTrialResponses","500","1","1","img_art/15.jpg","-18","just odd","Jason,Kevin,Jesus,Kenneth,Gregory,Austin","Simplicity of colors is nice,11,20,20","Weird fuzzball bush.,22,320,20","I like the colors and textures.,32,100,20","I can't really make out what this is supposed to be.,-8,300,20","Black and blue is my favorite color combination,35,220,20","Perfect Abstract painting,50,240,20","Kenneth","I can't really make out what this is supposed to be.,-8,300,20","Jason","Simplicity of colors is nice,11,20,20","Kevin","Weird fuzzball bush.,22,320,20","0"
"20493","","survey-text","51","407999","0.0-51.0-0.0","A26ZGP2V4T81HL","","","","{""Q0"":""has good match of colors""}","","","","","","","","","","","","","","","","","","","","","","",""
"5413.299999952316","","image-slider-response","52","413415","0.0-52.0","A26ZGP2V4T81HL","","","","","2","","","","","","","","","","","","","","","","","","","","","",""
"null","","image-button-response","53","418426","0.0-53.0","A26ZGP2V4T81HL","img_art/13.jpg","null","","","","","","","","","","","","","","","","","","","","","","","","",""
"3752","","image-button-response","54","422181","0.0-54.0","A26ZGP2V4T81HL","img_art/13.jpg","0","","","","","","","","","","","","","","","","","","","","","","","","",""
"1036","","image-button-response","55","423220","0.0-55.0-0.0","A26ZGP2V4T81HL","img_art/13.jpg","5","","","","","","","","","","","","","","","","","","","","","","","","",""
"2701","","image-button-response","56","425923","0.0-56.0-0.0","A26ZGP2V4T81HL","img_art/13.jpg","1","","","","","","","","","","","","","","","","","","","","","","","","",""
"null","","html-keyboard-response","57","426928","0.0-57.0","A26ZGP2V4T81HL","<p style=""font-size: 48px;"">+</p>","","","","","null","allTrialResponses","1000","1","2","img_art/13.jpg","2","has good match of colors","Jason,Kevin,Aaron,Kenneth,Tanner,Seth","Like the color choices,7,20,20","Debree on top of a calm pond.,18,320,20","It reminds me of a window on a rainy day.,40,20,20","I would hang this photo in my room.,21,300,20","happy, serenity,30,180,20","I really loved the color contrast. Having the white stripe in the center makes the it appear 3D.,11,60,20","Jason","Like the color choices,7,20,20","Seth","I really loved the color contrast. Having the white stripe in the center makes the it appear 3D.,11,60,20","Kevin","Debree on top of a calm pond.,18,320,20","0"
"20543","","survey-text","58","447475","0.0-58.0-0.0","A26ZGP2V4T81HL","","","","{""Q0"":""looks like from a 7 year old""}","","","","","","","","","","","","","","","","","","","","","","",""
"2975.4000000953674","","image-slider-response","59","450453","0.0-59.0","A26ZGP2V4T81HL","","","","","-10","","","","","","","","","","","","","","","","","","","","","",""
"null","","image-button-response","60","455462","0.0-60.0","A26ZGP2V4T81HL","img_art/27.jpg","null","","","","","","","","","","","","","","","","","","","","","","","","",""
"1309","","image-button-response","61","456774","0.0-61.0","A26ZGP2V4T81HL","img_art/27.jpg","4","","","","","","","","","","","","","","","","","","","","","","","","",""
"1414","","image-button-response","62","458190","0.0-62.0-0.0","A26ZGP2V4T81HL","img_art/27.jpg","1","","","","","","","","","","","","","","","","","","","","","","","","",""
"405","","image-button-response","63","458598","0.0-63.0-0.0","A26ZGP2V4T81HL","img_art/27.jpg","0","","","","","","","","","","","","","","","","","","","","","","","","",""
"null","","html-keyboard-response","64","460111","0.0-64.0","A26ZGP2V4T81HL","<p style=""font-size: 48px;"">+</p>","","","","","null","allTrialResponses","1500","1","3","img_art/27.jpg","-10","looks like from a 7 year old","Jason,Kevin,Richard,Shane,Tyler,Seth","The variation of orange is nice,9,20,20","A fall mess going on here,2,320,20","like the patterns and colors all but the orange blob on the right,32,340,20","Makes me feel warm inside,21,80,20","The photographing is horribly distracting. I would feel more favorable toward the original colors/ brightness,1,320,20","I don't care for the green scribbles; not sure what they are. But I adore the colors in the background.,24,60,20","Tyler","The photographing is horribly distracting. I would feel more favorable toward the original colors/ brightness,1,320,20","Kevin","A fall mess going on here,2,320,20","Jason","The variation of orange is nice,9,20,20","0"
"21137","","survey-text","65","481254","0.0-65.0-0.0","A26ZGP2V4T81HL","","","","{""Q0"":""odd, are objects hidden in here""}","","","","","","","","","","","","","","","","","","","","","","",""
"3385.300000190735","","image-slider-response","66","484642","0.0-66.0","A26ZGP2V4T81HL","","","","","-9","","","","","","","","","","","","","","","","","","","","","",""
"null","","image-button-response","67","489651","0.0-67.0","A26ZGP2V4T81HL","img_art/22.jpg","null","","","","","","","","","","","","","","","","","","","","","","","","",""
"1394","","image-button-response","68","491048","0.0-68.0","A26ZGP2V4T81HL","img_art/22.jpg","5","","","","","","","","","","","","","","","","","","","","","","","","",""
"2040","","image-button-response","69","493092","0.0-69.0-0.0","A26ZGP2V4T81HL","img_art/22.jpg","1","","","","","","","","","","","","","","","","","","","","","","","","",""
"3438","","image-button-response","70","496534","0.0-70.0-0.0","A26ZGP2V4T81HL","img_art/22.jpg","3","","","","","","","","","","","","","","","","","","","","","","","","",""
"null","","html-keyboard-response","71","497540","0.0-71.0","A26ZGP2V4T81HL","<p style=""font-size: 48px;"">+</p>","","","","","null","allTrialResponses","1000","1","4","img_art/22.jpg","-9","odd, are objects hidden in here","Jason,Kevin,Vincent,Dalton,Tyler,Chase","Would be better if random black object was not present,11,20,20","Looks hot where ever that is.,-8,320,20","Can fit with anyone. And in any home a great piece of art,35,360,20","i think its pretty but im not sure what i see,1,300,20","Like the colors, and the even blur. The more I look, the more a story forms. A very narrative image.,18,320,20","I feel like I've seen this one already.,-9,120,20","Chase","I feel like I've seen this one already.,-9,120,20","Kevin","Looks hot where ever that is.,-8,320,20","Dalton","i think its pretty but im not sure what i see,1,300,20","0"
"21502","","survey-text","72","519048","0.0-72.0-0.0","A26ZGP2V4T81HL","","","","{""Q0"":""very simplistic""}","","","","","","","","","","","","","","","","","","","","","","",""
"3549.5999999046326","","image-slider-response","73","522599","0.0-73.0","A26ZGP2V4T81HL","","","","","-8","","","","","","","","","","","","","","","","","","","","","",""
"null","","image-button-response","74","527610","0.0-74.0","A26ZGP2V4T81HL","img_art/6.jpg","null","","","","","","","","","","","","","","","","","","","","","","","","",""
"3688","","image-button-response","75","531300","0.0-75.0","A26ZGP2V4T81HL","img_art/6.jpg","2","","","","","","","","","","","","","","","","","","","","","","","","",""
"839","","image-button-response","76","532142","0.0-76.0-0.0","A26ZGP2V4T81HL","img_art/6.jpg","5","","","","","","","","","","","","","","","","","","","","","","","","",""
"5797","","image-button-response","77","537942","0.0-77.0-0.0","A26ZGP2V4T81HL","img_art/6.jpg","0","","","","","","","","","","","","","","","","","","","","","","","","",""
"null","","html-keyboard-response","78","539439","0.0-78.0","A26ZGP2V4T81HL","<p style=""font-size: 48px;"">+</p>","","","","","null","allTrialResponses","1500","1","5","img_art/6.jpg","-8","very simplistic","Colton,Kevin,Tristan,Dalton,Grant,Chase","very minimalistic,22,220,20","Its the headless bird. But why?,21,320,20","Lack of context makes this painting 1-d for me. The headless bird is mysterious and indecipherable.,-10,300,20","it looks like a stick holding a wig on a cliff,21,300,20","The limited colors make me feel lonely.,36,200,20","It's a bit bland, but looks like a bird standing.,11,120,20","Tristan","Lack of context makes this painting 1-d for me. The headless bird is mysterious and indecipherable.,-10,300,20","Chase","It's a bit bland, but looks like a bird standing.,11,120,20","Colton","very minimalistic,22,220,20","0"
"5202","","survey-text","79","544650","0.0-79.0-0.0","A26ZGP2V4T81HL","","","","{""Q0"":""sky""}","","","","","","","","","","","","","","","","","","","","","","",""
"14106","","survey-text","80","558758","0.0-80.0-0.0","A26ZGP2V4T81HL","","","","{""Q0"":""a lot of work if nothing else""}","","","","","","","","","","","","","","","","","","","","","","",""
"3857.5","","image-slider-response","81","562619","0.0-81.0","A26ZGP2V4T81HL","","","","","8","","","","","","","","","","","","","","","","","","","","","",""
"null","","image-button-response","82","567629","0.0-82.0","A26ZGP2V4T81HL","img_art/12.jpg","null","","","","","","","","","","","","","","","","","","","","","","","","",""
"3515","","image-button-response","83","571147","0.0-83.0","A26ZGP2V4T81HL","img_art/12.jpg","4","","","","","","","","","","","","","","","","","","","","","","","","",""
"2150","","image-button-response","84","573301","0.0-84.0-0.0","A26ZGP2V4T81HL","img_art/12.jpg","5","","","","","","","","","","","","","","","","","","","","","","","","",""
"7063","","image-button-response","85","580367","0.0-85.0-0.0","A26ZGP2V4T81HL","img_art/12.jpg","3","","","","","","","","","","","","","","","","","","","","","","","","",""
"null","","html-keyboard-response","86","580870","0.0-86.0","A26ZGP2V4T81HL","<p style=""font-size: 48px;"">+</p>","","","","","null","allTrialResponses","500","1","6","img_art/12.jpg","8","a lot of work if nothing else","Colton,Devon,Tristan,Kyle,Mark,Chase","i like the repetition,30,220,20","too much - just overcrowded,-20,400,20","Quite lovely with depth and possibility.,21,300,20","It's just not my style,-18,340,20","It just feels like a jigsaw puzzle,-4,80,20","It's not particularly interesting or ugly.,-7,120,20","Mark","It just feels like a jigsaw puzzle,-4,80,20","Chase","It's not particularly interesting or ugly.,-7,120,20","Kyle","It's just not my style,-18,340,20","0"
"31439","","survey-text","87","612315","0.0-87.0-0.0","A26ZGP2V4T81HL","","","","{""Q0"":""it looks like a mashing of various items""}","","","","","","","","","","","","","","","","","","","","","","",""
"3847.5","","image-slider-response","88","616165","0.0-88.0","A26ZGP2V4T81HL","","","","","-5","","","","","","","","","","","","","","","","","","","","","",""
"null","","image-button-response","89","621174","0.0-89.0","A26ZGP2V4T81HL","img_art/9.jpg","null","","","","","","","","","","","","","","","","","","","","","","","","",""
"711","","image-button-response","90","621888","0.0-90.0","A26ZGP2V4T81HL","img_art/9.jpg","5","","","","","","","","","","","","","","","","","","","","","","","","",""
"1138","","image-button-response","91","623028","0.0-91.0-0.0","A26ZGP2V4T81HL","img_art/9.jpg","3","","","","","","","","","","","","","","","","","","","","","","","","",""
"3196","","image-button-response","92","626228","0.0-92.0-0.0","A26ZGP2V4T81HL","img_art/9.jpg","1","","","","","","","","","","","","","","","","","","","","","","","","",""
"null","","html-keyboard-response","93","626737","0.0-93.0","A26ZGP2V4T81HL","<p style=""font-size: 48px;"">+</p>","","","","","null","allTrialResponses","500","1","7","img_art/9.jpg","-5","it looks like a mashing of various items","James,Justin,William,Kyle,Mark,Chase","This has some of my favorite colors, and I like it,21,380,20","It reminds me of an illustration for a fairy tale.,19,280,20","reminds me of a story book,18,380,20","I like abstract art that looks that there is more than random brush strokes. This one looks the former,10,340,20","Sleeping woman in a cave. Makes me feel safe.,20,80,20","Looks like a sloppy iguana.,-11,120,20","Chase","Looks like a sloppy iguana.,-11,120,20","Kyle","I like abstract art that looks that there is more than random brush strokes. This one looks the former,10,340,20","Justin","It reminds me of an illustration for a fairy tale.,19,280,20","0"
"16163","","survey-text","94","642905","0.0-94.0-0.0","A26ZGP2V4T81HL","","","","{""Q0"":""interesting blend of colors""}","","","","","","","","","","","","","","","","","","","","","","",""
"2057.600000143051","","image-slider-response","95","644965","0.0-95.0","A26ZGP2V4T81HL","","","","","-8","","","","","","","","","","","","","","","","","","","","","",""
"null","","image-button-response","96","649977","0.0-96.0","A26ZGP2V4T81HL","img_art/1.jpg","null","","","","","","","","","","","","","","","","","","","","","","","","",""
"4088","","image-button-response","97","654068","0.0-97.0","A26ZGP2V4T81HL","img_art/1.jpg","5","","","","","","","","","","","","","","","","","","","","","","","","",""
"3471","","image-button-response","98","657542","0.0-98.0-0.0","A26ZGP2V4T81HL","img_art/1.jpg","2","","","","","","","","","","","","","","","","","","","","","","","","",""
"1623","","image-button-response","99","659168","0.0-99.0-0.0","A26ZGP2V4T81HL","img_art/1.jpg","4","","","","","","","","","","","","","","","","","","","","","","","","",""
"null","","html-keyboard-response","100","660182","0.0-100.0","A26ZGP2V4T81HL","<p style=""font-size: 48px;"">+</p>","","","","","null","allTrialResponses","1000","1","8","img_art/1.jpg","-8","interesting blend of colors","Ian,Justin,Alexis,Kyle,Sean,Chase","Someone painted a landscape and decided they didn't like it so they covered it up.,13,260,20","It reminds me of a sunset I once saw.,16,280,20","This photo reminds me of a fall afternoon, serene,11,140,20","Too similar to some of the other pieces,-18,340,20","my reaction is that the picture is that Ive seen it before,-14,40,20","It's alright but lacks any depth.,-5,120,20","Chase","It's alright but lacks any depth.,-5,120,20","Alexis","This photo reminds me of a fall afternoon, serene,11,140,20","Sean","my reaction is that the picture is that Ive seen it before,-14,40,20","0"
"15341","","survey-text","101","675527","0.0-101.0-0.0","A26ZGP2V4T81HL","","","","{""Q0"":""colorful yet bizarre""}","","","","","","","","","","","","","","","","","","","","","","",""
"3794","","image-slider-response","102","679324","0.0-102.0","A26ZGP2V4T81HL","","","","","5","","","","","","","","","","","","","","","","","","","","","",""
"null","","image-button-response","103","684332","0.0-103.0","A26ZGP2V4T81HL","img_art/23.jpg","null","","","","","","","","","","","","","","","","","","","","","","","","",""
"948","","image-button-response","104","685282","0.0-104.0","A26ZGP2V4T81HL","img_art/23.jpg","1","","","","","","","","","","","","","","","","","","","","","","","","",""
"831","","image-button-response","105","686116","0.0-105.0-0.0","A26ZGP2V4T81HL","img_art/23.jpg","3","","","","","","","","","","","","","","","","","","","","","","","","",""
"799","","image-button-response","106","686918","0.0-106.0-0.0","A26ZGP2V4T81HL","img_art/23.jpg","5","","","","","","","","","","","","","","","","","","","","","","","","",""
"null","","html-keyboard-response","107","687435","0.0-107.0","A26ZGP2V4T81HL","<p style=""font-size: 48px;"">+</p>","","","","","null","allTrialResponses","500","1","9","img_art/23.jpg","5","colorful yet bizarre","Brett,Bradley,Alexis,Malik,Sean,Chase","Universal celebration,40,360,20","I like the contrast and the bright colors in this one.,6,300,20","It looks like a parade of musicians full of excitement. Makes me feel upbeat,33,140,20","Very intense and unique,3,40,20","so much detail .,31,40,20","It's kind of neat with the white slash marks.,13,120,20","Bradley","I like the contrast and the bright colors in this one.,6,300,20","Malik","Very intense and unique,3,40,20","Chase","It's kind of neat with the white slash marks.,13,120,20","0"
"19235","","survey-text","108","706676","0.0-108.0-0.0","A26ZGP2V4T81HL","","","","{""Q0"":""weird for the sake of being weird""}","","","","","","","","","","","","","","","","","","","","","","",""
"4609.599999904633","","image-slider-response","109","711288","0.0-109.0","A26ZGP2V4T81HL","","","","","4","","","","","","","","","","","","","","","","","","","","","",""
"null","","image-button-response","110","716306","0.0-110.0","A26ZGP2V4T81HL","img_art/8.jpg","null","","","","","","","","","","","","","","","","","","","","","","","","",""
"1627","","image-button-response","111","717936","0.0-111.0","A26ZGP2V4T81HL","img_art/8.jpg","1","","","","","","","","","","","","","","","","","","","","","","","","",""
"2276","","image-button-response","112","720216","0.0-112.0-0.0","A26ZGP2V4T81HL","img_art/8.jpg","5","","","","","","","","","","","","","","","","","","","","","","","","",""
"4995","","image-button-response","113","725214","0.0-113.0-0.0","A26ZGP2V4T81HL","img_art/8.jpg","3","","","","","","","","","","","","","","","","","","","","","","","","",""
"null","","html-keyboard-response","114","726729","0.0-114.0","A26ZGP2V4T81HL","<p style=""font-size: 48px;"">+</p>","","","","","null","allTrialResponses","1500","1","10","img_art/8.jpg","4","weird for the sake of being weird","Cameron,Bradley,Adrian,Malik,Logan,Chase","what's going on here. looks like scary town.,-25,60,20","Interesting but it has a bit of a dark feel to it.,6,300,20","Pleasant colors, lots of interest. Not sure what's going on but I like it.,20,60,20","Striking, but not my taste,20,40,20","a cute little cute with some protectors,25,360,20","This is kind of neat. I really like how things are oriented and the shapes used.,18,120,20","Bradley","Interesting but it has a bit of a dark feel to it.,6,300,20","Chase","This is kind of neat. I really like how things are oriented and the shapes used.,18,120,20","Malik","Striking, but not my taste,20,40,20","0"
"4361","","survey-text","115","731100","0.0-115.0-0.0","A26ZGP2V4T81HL","","","","{""Q0"":""our""}","","","","","","","","","","","","","","","","","","","","","","",""
"14154","","survey-text","116","745256","0.0-116.0-0.0","A26ZGP2V4T81HL","","","","{""Q0"":""truly bizarre""}","","","","","","","","","","","","","","","","","","","","","","",""
"2739.2999999523163","","image-slider-response","117","747997","0.0-117.0","A26ZGP2V4T81HL","","","","","2","","","","","","","","","","","","","","","","","","","","","",""
"null","","image-button-response","118","753003","0.0-118.0","A26ZGP2V4T81HL","img_art/10.jpg","null","","","","","","","","","","","","","","","","","","","","","","","","",""
"644","","image-button-response","119","753650","0.0-119.0","A26ZGP2V4T81HL","img_art/10.jpg","1","","","","","","","","","","","","","","","","","","","","","","","","",""
"840","","image-button-response","120","754492","0.0-120.0-0.0","A26ZGP2V4T81HL","img_art/10.jpg","0","","","","","","","","","","","","","","","","","","","","","","","","",""
"1812","","image-button-response","121","756306","0.0-121.0-0.0","A26ZGP2V4T81HL","img_art/10.jpg","0","","","","","","","","","","","","","","","","","","","","","","","","",""
"3159","","image-button-response","122","764906","0.0-121.1-0.1","A26ZGP2V4T81HL","img_art/10.jpg","2","","","","","","","","","","","","","","","","","","","","","","","","",""
"null","","html-keyboard-response","123","766420","0.0-122.0","A26ZGP2V4T81HL","<p style=""font-size: 48px;"">+</p>","","","","","null","allTrialResponses","1500","1","11","img_art/10.jpg","2","truly bizarre","Eric,Bradley,Anthony,Malik,Michael,Chase","This piece is unusual in a way that makes me uncomfortable.,-5,100,20","This piece is very intriguing to me.,3,300,20","I am neutral towards the artwork,1,200,20","Good texture, expressive,18,40,20","Ugly and low skill. I wouldn't want it.,-50,140,20","Seems more harmonic with the strokes and colors.,31,120,20","Bradley","This piece is very intriguing to me.,3,300,20","Eric","This piece is unusual in a way that makes me uncomfortable.,-5,100,20","Anthony","I am neutral towards the artwork,1,200,20","2"
"16561","","survey-text","124","782987","0.0-123.0-0.0","A26ZGP2V4T81HL","","","","{""Q0"":""probably a first grader""}","","","","","","","","","","","","","","","","","","","","","","",""
"4257.599999904633","","image-slider-response","125","787247","0.0-124.0","A26ZGP2V4T81HL","","","","","-22","","","","","","","","","","","","","","","","","","","","","",""
"null","","image-button-response","126","792254","0.0-125.0","A26ZGP2V4T81HL","img_art/3.jpg","null","","","","","","","","","","","","","","","","","","","","","","","","",""
"1600","","image-button-response","127","793857","0.0-126.0","A26ZGP2V4T81HL","img_art/3.jpg","1","","","","","","","","","","","","","","","","","","","","","","","","",""
"2715","","image-button-response","128","796575","0.0-127.0-0.0","A26ZGP2V4T81HL","img_art/3.jpg","3","","","","","","","","","","","","","","","","","","","","","","","","",""
"1011","","image-button-response","129","797589","0.0-128.0-0.0","A26ZGP2V4T81HL","img_art/3.jpg","5","","","","","","","","","","","","","","","","","","","","","","","","",""
"null","","html-keyboard-response","130","798092","0.0-129.0","A26ZGP2V4T81HL","<p style=""font-size: 48px;"">+</p>","","","","","null","allTrialResponses","500","1","12","img_art/3.jpg","-22","probably a first grader","Eric,Bradley,Anthony,Noah,Patrick,Jesse","This piece makes me think it has a backstory or a reason which I like.,5,100,20","Marker gone wild?  Not sure what's going on here.,-21,300,20","This looks like something a child created in 5 minutes.,-50,200,20","I struggle to see the art,-20,260,20","Random use of red and looks scary,-50,280,20","No substance or feeling to it,-20,80,20","Bradley","Marker gone wild?  Not sure what's going on here.,-21,300,20","Noah","I struggle to see the art,-20,260,20","Jesse","No substance or feeling to it,-20,80,20","2"
"22866","","survey-text","131","820963","0.0-130.0-0.0","A26ZGP2V4T81HL","","","","{""Q0"":""odd without question""}","","","","","","","","","","","","","","","","","","","","","","",""
"3533.100000143051","","image-slider-response","132","824498","0.0-131.0","A26ZGP2V4T81HL","","","","","-13","","","","","","","","","","","","","","","","","","","","","",""
"null","","image-button-response","133","829513","0.0-132.0","A26ZGP2V4T81HL","img_art/30.jpg","null","","","","","","","","","","","","","","","","","","","","","","","","",""
"1617","","image-button-response","134","831133","0.0-133.0","A26ZGP2V4T81HL","img_art/30.jpg","1","","","","","","","","","","","","","","","","","","","","","","","","",""
"909","","image-button-response","135","832045","0.0-134.0-0.0","A26ZGP2V4T81HL","img_art/30.jpg","0","","","","","","","","","","","","","","","","","","","","","","","","",""
"4168","","image-button-response","136","836217","0.0-135.0-0.0","A26ZGP2V4T81HL","img_art/30.jpg","5","","","","","","","","","","","","","","","","","","","","","","","","",""
"null","","html-keyboard-response","137","837227","0.0-136.0","A26ZGP2V4T81HL","<p style=""font-size: 48px;"">+</p>","","","","","null","allTrialResponses","1000","1","13","img_art/30.jpg","-13","odd without question","Adam,Bradley,Robert,Noah,Nicholas,Jesse","Dislike the contrast here.,-5,40,20","Hmmm. I think the artist is trying to direct me to a spreadsheet?  (s/s),-10,300,20","My kindergarten class could do this,-50,360,20","uplifted and yet calmed,15,260,20","Too much like childrens finger paint. I dont like the smear of blended colors,-50,240,20","I do like the multi-dimensional aspect of this piece,10,80,20","Bradley","Hmmm. I think the artist is trying to direct me to a spreadsheet?  (s/s),-10,300,20","Adam","Dislike the contrast here.,-5,40,20","Jesse","I do like the multi-dimensional aspect of this piece,10,80,20","2"
"18783","","survey-text","138","856015","0.0-137.0-0.0","A26ZGP2V4T81HL","","","","{""Q0"":""colorful but weird""}","","","","","","","","","","","","","","","","","","","","","","",""
"3983.7000000476837","","image-slider-response","139","860001","0.0-138.0","A26ZGP2V4T81HL","","","","","-15","","","","","","","","","","","","","","","","","","","","","",""
"null","","image-button-response","140","865004","0.0-139.0","A26ZGP2V4T81HL","img_art/24.jpg","null","","","","","","","","","","","","","","","","","","","","","","","","",""
"874","","image-button-response","141","865880","0.0-140.0","A26ZGP2V4T81HL","img_art/24.jpg","0","","","","","","","","","","","","","","","","","","","","","","","","",""
"2999","","image-button-response","142","868882","0.0-141.0-0.0","A26ZGP2V4T81HL","img_art/24.jpg","4","","","","","","","","","","","","","","","","","","","","","","","","",""
"4877","","image-button-response","143","873762","0.0-142.0-0.0","A26ZGP2V4T81HL","img_art/24.jpg","1","","","","","","","","","","","","","","","","","","","","","","","","",""
"null","","html-keyboard-response","144","874274","0.0-143.0","A26ZGP2V4T81HL","<p style=""font-size: 48px;"">+</p>","","","","","null","allTrialResponses","500","1","14","img_art/24.jpg","-15","colorful but weird","Adam,Bradley,John,Ryan,Alexander,Jesse","I appreciate the earth tones. Soothing.,5,40,20","Hmm. Don't know what to make of this one.,1,300,20","Beautiful.Nice use of colors and invokes feelings of serene and peace,40,120,20","Beautiful,  peaceful,50,380,20","Water through the fruit.,15,120,20","Love the colors and contrast. Feels peaceful.,33,80,20","Adam","I appreciate the earth tones. Soothing.,5,40,20","Alexander","Water through the fruit.,15,120,20","Bradley","Hmm. Don't know what to make of this one.,1,300,20","2"
"20233","","survey-text","145","894513","0.0-144.0-0.0","A26ZGP2V4T81HL","","","","{""Q0"":""looks like fall with color""}","","","","","","","","","","","","","","","","","","","","","","",""
"4893.700000047684","","image-slider-response","146","899409","0.0-145.0","A26ZGP2V4T81HL","","","","","10","","","","","","","","","","","","","","","","","","","","","",""
"null","","image-button-response","147","904415","0.0-146.0","A26ZGP2V4T81HL","img_art/17.jpg","null","","","","","","","","","","","","","","","","","","","","","","","","",""
"4226","","image-button-response","148","908644","0.0-147.0","A26ZGP2V4T81HL","img_art/17.jpg","1","","","","","","","","","","","","","","","","","","","","","","","","",""
"1308","","image-button-response","149","909956","0.0-148.0-0.0","A26ZGP2V4T81HL","img_art/17.jpg","4","","","","","","","","","","","","","","","","","","","","","","","","",""
"11965","","image-button-response","150","921924","0.0-149.0-0.0","A26ZGP2V4T81HL","img_art/17.jpg","2","","","","","","","","","","","","","","","","","","","","","","","","",""
"null","","html-keyboard-response","151","922428","0.0-150.0","A26ZGP2V4T81HL","<p style=""font-size: 48px;"">+</p>","","","","","null","allTrialResponses","500","1","15","img_art/17.jpg","10","looks like fall with color","Adam,Bradley,Juan,Matthew,Alexander,Dakota","Very washed out.,-10,40,20","It kind of pulls you in to float away with it.,9,300,20","I want to know more about this picture and where it leads if you could get inside it.,27,260,20","taste the rainbow, feel the flavor.,23,120,20","Tree of knowledge in a quiet school.,17,120,20","home - reminds me of fond memories of the Barnes Museum courtyard (looks just like it),30,280,20","Bradley","It kind of pulls you in to float away with it.,9,300,20","Alexander","Tree of knowledge in a quiet school.,17,120,20","Juan","I want to know more about this picture and where it leads if you could get inside it.,27,260,20","2"
"6224","","survey-text","152","928665","0.0-151.0-0.0","A26ZGP2V4T81HL","","","","{""Q0"":""course""}","","","","","","","","","","","","","","","","","","","","","","",""
"17462","","survey-text","153","946129","0.0-152.0-0.0","A26ZGP2V4T81HL","","","","{""Q0"":""another weird one""}","","","","","","","","","","","","","","","","","","","","","","",""
"2780.100000143051","","image-slider-response","154","948911","0.0-153.0","A26ZGP2V4T81HL","","","","","-15","","","","","","","","","","","","","","","","","","","","","",""
"null","","image-button-response","155","953931","0.0-154.0","A26ZGP2V4T81HL","img_art/28.jpg","null","","","","","","","","","","","","","","","","","","","","","","","","",""
"2843","","image-button-response","156","956778","0.0-155.0","A26ZGP2V4T81HL","img_art/28.jpg","0","","","","","","","","","","","","","","","","","","","","","","","","",""
"3787","","image-button-response","157","960567","0.0-156.0-0.0","A26ZGP2V4T81HL","img_art/28.jpg","1","","","","","","","","","","","","","","","","","","","","","","","","",""
"13127","","image-button-response","158","973698","0.0-157.0-0.0","A26ZGP2V4T81HL","img_art/28.jpg","4","","","","","","","","","","","","","","","","","","","","","","","","",""
"null","","html-keyboard-response","159","975200","0.0-158.0","A26ZGP2V4T81HL","<p style=""font-size: 48px;"">+</p>","","","","","null","allTrialResponses","1500","1","16","img_art/28.jpg","-15","another weird one","Jose,Bradley,Juan,Dustin,Alexander,Mitchell","Eh it's just kinda brown and muddy and not very nice looking,-18,200,20","I think this may have to do with humpty dumpty?,-7,300,20","It's such a blah piece and way too abstract.,-50,260,20","Like the muted pink colors. However, the mood is sad because of the blurriness,22,20,20","Apartment throw up.,-5,120,20","A mom protecting her child because something scary, (perhaps imaginary) wants to take the child.,-10,180,20","Jose","Eh it's just kinda brown and muddy and not very nice looking,-18,200,20","Bradley","I think this may have to do with humpty dumpty?,-7,300,20","Alexander","Apartment throw up.,-5,120,20","2"
"24719","","survey-text","160","999925","0.0-159.0-0.0","A26ZGP2V4T81HL","","","","{""Q0"":""weird, just weird""}","","","","","","","","","","","","","","","","","","","","","","",""
"2449.600000143051","","image-slider-response","161","1002377","0.0-160.0","A26ZGP2V4T81HL","","","","","-7","","","","","","","","","","","","","","","","","","","","","",""
"null","","image-button-response","162","1007399","0.0-161.0","A26ZGP2V4T81HL","img_art/11.jpg","null","","","","","","","","","","","","","","","","","","","","","","","","",""
"3039","","image-button-response","163","1010441","0.0-162.0","A26ZGP2V4T81HL","img_art/11.jpg","3","","","","","","","","","","","","","","","","","","","","","","","","",""
"7463","","image-button-response","164","1017907","0.0-163.0-0.0","A26ZGP2V4T81HL","img_art/11.jpg","2","","","","","","","","","","","","","","","","","","","","","","","","",""
"1199","","image-button-response","165","1019109","0.0-164.0-0.0","A26ZGP2V4T81HL","img_art/11.jpg","5","","","","","","","","","","","","","","","","","","","","","","","","",""
"null","","html-keyboard-response","166","1020114","0.0-165.0","A26ZGP2V4T81HL","<p style=""font-size: 48px;"">+</p>","","","","","null","allTrialResponses","1000","1","17","img_art/11.jpg","-7","weird, just weird","Jose,Bradley,Andrew,Peter,Alexander,Angel","Makes me feel like my vision is breaking,19,200,20","WOW!  I love how the ships and the seas become one in this piece.,50,300,20","It's a really cool painting, but it reminds me of bad traffic,-20,160,20","Smoggy, oily, industrial. Don't like,1,320,20","Waves of signs.,15,120,20","This is disorienting, like motion sickness.,-20,180,20","Peter","Smoggy, oily, industrial. Don't like,1,320,20","Andrew","It's a really cool painting, but it reminds me of bad traffic,-20,160,20","Angel","This is disorienting, like motion sickness.,-20,180,20","2"
"15746","","survey-text","167","1035867","0.0-166.0-0.0","A26ZGP2V4T81HL","","","","{""Q0"":""pretty odd""}","","","","","","","","","","","","","","","","","","","","","","",""
"3195.5999999046326","","image-slider-response","168","1039065","0.0-167.0","A26ZGP2V4T81HL","","","","","-7","","","","","","","","","","","","","","","","","","","","","",""
"null","","image-button-response","169","1044075","0.0-168.0","A26ZGP2V4T81HL","img_art/7.jpg","null","","","","","","","","","","","","","","","","","","","","","","","","",""
"3741","","image-button-response","170","1047819","0.0-169.0","A26ZGP2V4T81HL","img_art/7.jpg","4","","","","","","","","","","","","","","","","","","","","","","","","",""
"11621","","image-button-response","171","1059443","0.0-170.0-0.0","A26ZGP2V4T81HL","img_art/7.jpg","0","","","","","","","","","","","","","","","","","","","","","","","","",""
"711","","image-button-response","172","1060157","0.0-171.0-0.0","A26ZGP2V4T81HL","img_art/7.jpg","2","","","","","","","","","","","","","","","","","","","","","","","","",""
"null","","html-keyboard-response","173","1061165","0.0-172.0","A26ZGP2V4T81HL","<p style=""font-size: 48px;"">+</p>","","","","","null","allTrialResponses","1000","1","18","img_art/7.jpg","-7","pretty odd","Isaiah,Shawn,Andrew,Peter,Devin,Angel","I feel relaxed and a little nostalgic, like I'm exploring the wall of a very old building.,18,300,20","Like the tactile quality,30,100,20","It makes me think of new archaeology discoveries,15,160,20","It's just like sand from the beach,2,320,20","Not very big on the sameness here,-20,380,20","It's off-putting because it reminds me of walking over rough sand/rocks or having scabs on my skin.,-10,180,20","Devin","Not very big on the sameness here,-20,380,20","Isaiah","I feel relaxed and a little nostalgic, like I'm exploring the wall of a very old building.,18,300,20","Andrew","It makes me think of new archaeology discoveries,15,160,20","2"
"27060","","survey-text","174","1088230","0.0-173.0-0.0","A26ZGP2V4T81HL","","","","{""Q0"":""weird but good color""}","","","","","","","","","","","","","","","","","","","","","","",""
"4665.199999809265","","image-slider-response","175","1092898","0.0-174.0","A26ZGP2V4T81HL","","","","","-8","","","","","","","","","","","","","","","","","","","","","",""
"null","","image-button-response","176","1097916","0.0-175.0","A26ZGP2V4T81HL","img_art/25.jpg","null","","","","","","","","","","","","","","","","","","","","","","","","",""
"1441","","image-button-response","177","1099359","0.0-176.0","A26ZGP2V4T81HL","img_art/25.jpg","1","","","","","","","","","","","","","","","","","","","","","","","","",""
"9010","","image-button-response","178","1108371","0.0-177.0-0.0","A26ZGP2V4T81HL","img_art/25.jpg","4","","","","","","","","","","","","","","","","","","","","","","","","",""
"6597","","image-button-response","179","1114971","0.0-178.0-0.0","A26ZGP2V4T81HL","img_art/25.jpg","2","","","","","","","","","","","","","","","","","","","","","","","","",""
"null","","html-keyboard-response","180","1115979","0.0-179.0","A26ZGP2V4T81HL","<p style=""font-size: 48px;"">+</p>","","","","","null","allTrialResponses","1000","1","19","img_art/25.jpg","-8","weird but good color","Isaiah,Joseph,Andrew,Thomas,Devin,Miguel","I feel little to no emotion looking at this painting.,0,300,20","Ghosts are NOT my thing.,-13,220,20","It makes me feel a little uneasy, but I like the painting,11,160,20","I like the design but the brightness of the color feels almost blinding to me.,-3,220,20","It looks a bit strange to me, neck too long,-19,380,20","This is too simple,-22,160,20","Joseph","Ghosts are NOT my thing.,-13,220,20","Devin","It looks a bit strange to me, neck too long,-19,380,20","Andrew","It makes me feel a little uneasy, but I like the painting,11,160,20","2"
"19407","","survey-text","181","1135392","0.0-180.0-0.0","A26ZGP2V4T81HL","","","","{""Q0"":""a car wreck maybe""}","","","","","","","","","","","","","","","","","","","","","","",""
"4909.599999904633","","image-slider-response","182","1140304","0.0-181.0","A26ZGP2V4T81HL","","","","","-15","","","","","","","","","","","","","","","","","","","","","",""
"null","","image-button-response","183","1145320","0.0-182.0","A26ZGP2V4T81HL","img_art/20.jpg","null","","","","","","","","","","","","","","","","","","","","","","","","",""
"1325","","image-button-response","184","1146647","0.0-183.0","A26ZGP2V4T81HL","img_art/20.jpg","1","","","","","","","","","","","","","","","","","","","","","","","","",""
"9450","","image-button-response","185","1156099","0.0-184.0-0.0","A26ZGP2V4T81HL","img_art/20.jpg","4","","","","","","","","","","","","","","","","","","","","","","","","",""
"3965","","image-button-response","186","1160067","0.0-185.0-0.0","A26ZGP2V4T81HL","img_art/20.jpg","3","","","","","","","","","","","","","","","","","","","","","","","","",""
"null","","html-keyboard-response","187","1161082","0.0-186.0","A26ZGP2V4T81HL","<p style=""font-size: 48px;"">+</p>","","","","","null","allTrialResponses","1000","1","20","img_art/20.jpg","-15","a car wreck maybe","Corey,Joseph,Andrew,Antonio,Devin,Jake","It seems to be a neutral cool toned art piece. Gives me alamo/desert vibes,2,260,20","Something fell over and is burning, but it's kinda dope, you know?,14,220,20","I just love this painting,47,160,20","Makes me feel weary,21,220,20","Looks somewhat dark and emotional,-10,380,20","It's too brash and loud and ugly.,-21,360,20","Joseph","Something fell over and is burning, but it's kinda dope, you know?,14,220,20","Devin","Looks somewhat dark and emotional,-10,380,20","Antonio","Makes me feel weary,21,220,20","2"
"2973","","survey-text","188","1164066","0.0-187.0-0.0","A26ZGP2V4T81HL","","","","{""Q0"":""we""}","","","","","","","","","","","","","","","","","","","","","","",""
"13764","","survey-text","189","1177833","0.0-188.0-0.0","A26ZGP2V4T81HL","","","","{""Q0"":""very simplistic""}","","","","","","","","","","","","","","","","","","","","","","",""
"4657.5","","image-slider-response","190","1182493","0.0-189.0","A26ZGP2V4T81HL","","","","","-26","","","","","","","","","","","","","","","","","","","","","",""
"null","","image-button-response","191","1187512","0.0-190.0","A26ZGP2V4T81HL","img_art/5.jpg","null","","","","","","","","","","","","","","","","","","","","","","","","",""
"2451","","image-button-response","192","1189965","0.0-191.0","A26ZGP2V4T81HL","img_art/5.jpg","0","","","","","","","","","","","","","","","","","","","","","","","","",""
"4564","","image-button-response","193","1194533","0.0-192.0-0.0","A26ZGP2V4T81HL","img_art/5.jpg","2","","","","","","","","","","","","","","","","","","","","","","","","",""
"973","","image-button-response","194","1195510","0.0-193.0-0.0","A26ZGP2V4T81HL","img_art/5.jpg","4","","","","","","","","","","","","","","","","","","","","","","","","",""
"null","","html-keyboard-response","195","1196014","0.0-194.0","A26ZGP2V4T81HL","<p style=""font-size: 48px;"">+</p>","","","","","null","allTrialResponses","500","1","21","img_art/5.jpg","-26","very simplistic","Jorge,Joseph,David,Antonio,Devin,Caleb","boring and unsure,-25,180,20","I like that the pyramid is putting off a beacon of light.,11,220,20","I like the simplicity of the design, but I can't tell what the image is trying to depict.,10,340,20","Too much angular things happening, makes me think of stabbing something which makes me uncomfortable,-50,220,20","A bit too messy in my eyes,-4,380,20","Boring and appears low effort,-41,40,20","Jorge","boring and unsure,-25,180,20","David","I like the simplicity of the design, but I can't tell what the image is trying to depict.,10,340,20","Devin","A bit too messy in my eyes,-4,380,20","2"
"17414","","survey-text","196","1213434","0.0-195.0-0.0","A26ZGP2V4T81HL","","","","{""Q0"":""another bizarre one""}","","","","","","","","","","","","","","","","","","","","","","",""
"3839.899999856949","","image-slider-response","197","1217276","0.0-196.0","A26ZGP2V4T81HL","","","","","-21","","","","","","","","","","","","","","","","","","","","","",""
"null","","image-button-response","198","1222292","0.0-197.0","A26ZGP2V4T81HL","img_art/2.jpg","null","","","","","","","","","","","","","","","","","","","","","","","","",""
"954","","image-button-response","199","1223248","0.0-198.0","A26ZGP2V4T81HL","img_art/2.jpg","0","","","","","","","","","","","","","","","","","","","","","","","","",""
"3920","","image-button-response","200","1227170","0.0-199.0-0.0","A26ZGP2V4T81HL","img_art/2.jpg","2","","","","","","","","","","","","","","","","","","","","","","","","",""
"3648","","image-button-response","201","1230821","0.0-200.0-0.0","A26ZGP2V4T81HL","img_art/2.jpg","4","","","","","","","","","","","","","","","","","","","","","","","","",""
"null","","html-keyboard-response","202","1232325","0.0-201.0","A26ZGP2V4T81HL","<p style=""font-size: 48px;"">+</p>","","","","","null","allTrialResponses","1500","1","22","img_art/2.jpg","-21","another bizarre one","Jorge,Stephen,David,Mason,Devin,Carlos","Confused and disoriented,-33,180,20","Colors mix nicely.,5,140,20","I feel that its too abstract for me to understand what I'm looking at.,-15,340,20","retro, amateurish, not a fan of the colors together.,-10,100,20","I don't really like this style,-5,380,20","The colors are soothing, but the composition feels thoughtless.,-11,80,20","Jorge","Confused and disoriented,-33,180,20","David","I feel that its too abstract for me to understand what I'm looking at.,-15,340,20","Devin","I don't really like this style,-5,380,20","2"
"11598","","survey-text","203","1243930","0.0-202.0-0.0","A26ZGP2V4T81HL","","","","{""Q0"":""interesting color blend""}","","","","","","","","","","","","","","","","","","","","","","",""
"3565.5999999046326","","image-slider-response","204","1247498","0.0-203.0","A26ZGP2V4T81HL","","","","","6","","","","","","","","","","","","","","","","","","","","","",""
"null","","image-button-response","205","1252503","0.0-204.0","A26ZGP2V4T81HL","img_art/19.jpg","null","","","","","","","","","","","","","","","","","","","","","","","","",""
"3620","","image-button-response","206","1256126","0.0-205.0","A26ZGP2V4T81HL","img_art/19.jpg","5","","","","","","","","","","","","","","","","","","","","","","","","",""
"2621","","image-button-response","207","1258750","0.0-206.0-0.0","A26ZGP2V4T81HL","img_art/19.jpg","1","","","","","","","","","","","","","","","","","","","","","","","","",""
"3259","","image-button-response","208","1262012","0.0-207.0-0.0","A26ZGP2V4T81HL","img_art/19.jpg","2","","","","","","","","","","","","","","","","","","","","","","","","",""
"null","","html-keyboard-response","209","1262521","0.0-208.0","A26ZGP2V4T81HL","<p style=""font-size: 48px;"">+</p>","","","","","null","allTrialResponses","500","1","23","img_art/19.jpg","6","interesting color blend","Jorge,Jeremy,David,Nathaniel,Devin,Jeffrey","confused and emotional,-4,180,20","it's too busy for me. Makes me feel stressed.,1,60,20","The image doesn't really invoke any emotions strongly.,0,340,20","Horrible. Squiggly lines everywhere.,-50,220,20","Looks a bit too loose,-2,380,20","very lively and colourful,21,40,20","Jeffrey","very lively and colourful,21,40,20","Jeremy","it's too busy for me. Makes me feel stressed.,1,60,20","David","The image doesn't really invoke any emotions strongly.,0,340,20","2"
"24796","","survey-text","210","1287324","0.0-209.0-0.0","A26ZGP2V4T81HL","","","","{""Q0"":""kinda weird but vivid colors""}","","","","","","","","","","","","","","","","","","","","","","",""
"2897.4000000953674","","image-slider-response","211","1290224","0.0-210.0","A26ZGP2V4T81HL","","","","","4","","","","","","","","","","","","","","","","","","","","","",""
"null","","image-button-response","212","1295233","0.0-211.0","A26ZGP2V4T81HL","img_art/21.jpg","null","","","","","","","","","","","","","","","","","","","","","","","","",""
"1189","","image-button-response","213","1296424","0.0-212.0","A26ZGP2V4T81HL","img_art/21.jpg","0","","","","","","","","","","","","","","","","","","","","","","","","",""
"6758","","image-button-response","214","1303184","0.0-213.0-0.0","A26ZGP2V4T81HL","img_art/21.jpg","1","","","","","","","","","","","","","","","","","","","","","","","","",""
"1623","","image-button-response","215","1304810","0.0-214.0-0.0","A26ZGP2V4T81HL","img_art/21.jpg","4","","","","","","","","","","","","","","","","","","","","","","","","",""
"null","","html-keyboard-response","216","1305320","0.0-215.0","A26ZGP2V4T81HL","<p style=""font-size: 48px;"">+</p>","","","","","null","allTrialResponses","500","1","24","img_art/21.jpg","4","kinda weird but vivid colors","Cole,Jeremy,David,Luis,Christopher,Jeffrey","Unfinished. Confusing to look at,-12,200,20","the picture is boring,1,60,20","I like how the piece has the possibility of depicting some type of story.,30,340,20","I like the representation of love and hate in this,43,400,20","I love the section of blues, the colors overall are really lovely,31,160,20","Relaxing and easy to look at,27,40,20","Cole","Unfinished. Confusing to look at,-12,200,20","Jeremy","the picture is boring,1,60,20","Christopher","I love the section of blues, the colors overall are really lovely,31,160,20","2"
"12951","","survey-text","217","1318280","0.0-216.0-0.0","A26ZGP2V4T81HL","","","","{""Q0"":""fairly eat but odd""}","","","","","","","","","","","","","","","","","","","","","","",""
"3997.5999999046326","","image-slider-response","218","1322280","0.0-217.0","A26ZGP2V4T81HL","","","","","-6","","","","","","","","","","","","","","","","","","","","","",""
"null","","image-button-response","219","1327289","0.0-218.0","A26ZGP2V4T81HL","img_art/14.jpg","null","","","","","","","","","","","","","","","","","","","","","","","","",""
"4965","","image-button-response","220","1332256","0.0-219.0","A26ZGP2V4T81HL","img_art/14.jpg","2","","","","","","","","","","","","","","","","","","","","","","","","",""
"2527","","image-button-response","221","1334786","0.0-220.0-0.0","A26ZGP2V4T81HL","img_art/14.jpg","0","","","","","","","","","","","","","","","","","","","","","","","","",""
"3619","","image-button-response","222","1338409","0.0-221.0-0.0","A26ZGP2V4T81HL","img_art/14.jpg","4","","","","","","","","","","","","","","","","","","","","","","","","",""
"null","","html-keyboard-response","223","1338911","0.0-222.0","A26ZGP2V4T81HL","<p style=""font-size: 48px;"">+</p>","","","","","null","allTrialResponses","500","1","25","img_art/14.jpg","-6","fairly eat but odd","Cole,Jeremy,Victor,Elijah,Christopher,Isaac","Simplistic. Looks like a child did it,14,200,20","It didn't really do anything to excite me.,21,60,20","Meh. Pleasant to look at. Colors are nice,6,340,20","Makes me feel good,30,80,20","this looks pretty childish,-15,160,20","The colors are pleasing.,29,280,20","Victor","Meh. Pleasant to look at. Colors are nice,6,340,20","Cole","Simplistic. Looks like a child did it,14,200,20","Christopher","this looks pretty childish,-15,160,20","2"
"5032","","survey-text","224","1343955","0.0-223.0-0.0","A26ZGP2V4T81HL","","","","{""Q0"":""table""}","","","","","","","","","","","","","","","","","","","","","","",""
"8973","","survey-text","225","1352930","0.0-224.0-0.0","A26ZGP2V4T81HL","","","","{""Q0"":""collage of color""}","","","","","","","","","","","","","","","","","","","","","","",""
"2825.899999856949","","image-slider-response","226","1355758","0.0-225.0","A26ZGP2V4T81HL","","","","","3","","","","","","","","","","","","","","","","","","","","","",""
"null","","image-button-response","227","1360762","0.0-226.0","A26ZGP2V4T81HL","img_art/18.jpg","null","","","","","","","","","","","","","","","","","","","","","","","","",""
"3449","","image-button-response","228","1364214","0.0-227.0","A26ZGP2V4T81HL","img_art/18.jpg","3","","","","","","","","","","","","","","","","","","","","","","","","",""
"853","","image-button-response","229","1365070","0.0-228.0-0.0","A26ZGP2V4T81HL","img_art/18.jpg","5","","","","","","","","","","","","","","","","","","","","","","","","",""
"4389","","image-button-response","230","1369462","0.0-229.0-0.0","A26ZGP2V4T81HL","img_art/18.jpg","4","","","","","","","","","","","","","","","","","","","","","","","","",""
"null","","html-keyboard-response","231","1369965","0.0-230.0","A26ZGP2V4T81HL","<p style=""font-size: 48px;"">+</p>","","","","","null","allTrialResponses","500","1","26","img_art/18.jpg","3","collage of color","Cole,Jordan,Victor,Paul,Christopher,Cody","Two people fighting with one watching,17,200,20","Interesting and capitvating to look at,19,160,20","nice balance of color. The different sizes and types of strokes give a lot to look at,18,340,20","It doesn't look like much, the colors are dark and it doesn't really make me feel anything.,-2,300,20","this is kind of cool. I like the color scheme and the figure in the upper left is interesting,15,160,20","Vaguely creepy ........,-20,180,20","Paul","It doesn't look like much, the colors are dark and it doesn't really make me feel anything.,-2,300,20","Cody","Vaguely creepy ........,-20,180,20","Christopher","this is kind of cool. I like the color scheme and the figure in the upper left is interesting,15,160,20","2"
"16622","","survey-text","232","1386594","0.0-231.0-0.0","A26ZGP2V4T81HL","","","","{""Q0"":""a bit interesting""}","","","","","","","","","","","","","","","","","","","","","","",""
"2433.4000000953674","","image-slider-response","233","1389022","0.0-232.0","A26ZGP2V4T81HL","","","","","3","","","","","","","","","","","","","","","","","","","","","",""
"null","","image-button-response","234","1394035","0.0-233.0","A26ZGP2V4T81HL","img_art/26.jpg","null","","","","","","","","","","","","","","","","","","","","","","","","",""
"1051","","image-button-response","235","1395089","0.0-234.0","A26ZGP2V4T81HL","img_art/26.jpg","1","","","","","","","","","","","","","","","","","","","","","","","","",""
"2418","","image-button-response","236","1397509","0.0-235.0-0.0","A26ZGP2V4T81HL","img_art/26.jpg","2","","","","","","","","","","","","","","","","","","","","","","","","",""
"8389","","image-button-response","237","1405901","0.0-236.0-0.0","A26ZGP2V4T81HL","img_art/26.jpg","3","","","","","","","","","","","","","","","","","","","","","","","","",""
"null","","html-keyboard-response","238","1406404","0.0-237.0","A26ZGP2V4T81HL","<p style=""font-size: 48px;"">+</p>","","","","","null","allTrialResponses","500","1","27","img_art/26.jpg","3","a bit interesting","Spencer,Evan,Benjamin,Paul,Christopher,Cody","Really like it, a very nice neighborhood scene to me,42,120,20","It feels simple and pretty,12,140,20","The colors are muted.,1,260,20","It looks empty and unfinished,-28,300,20","too hard to figure out if it's meant to be actual objects or impressions,-36,160,20","Looks unfinished,-31,180,20","Evan","It feels simple and pretty,12,140,20","Benjamin","The colors are muted.,1,260,20","Paul","It looks empty and unfinished,-28,300,20","2"
"18704","","survey-text","239","1425116","0.0-238.0-0.0","A26ZGP2V4T81HL","","","","{""Q0"":""i don't like the brush""}","","","","","","","","","","","","","","","","","","","","","","",""
"2590","","image-slider-response","240","1427708","0.0-239.0","A26ZGP2V4T81HL","","","","","-18","","","","","","","","","","","","","","","","","","","","","",""
"null","","image-button-response","241","1432712","0.0-240.0","A26ZGP2V4T81HL","img_art/29.jpg","null","","","","","","","","","","","","","","","","","","","","","","","","",""
"1494","","image-button-response","242","1434208","0.0-241.0","A26ZGP2V4T81HL","img_art/29.jpg","1","","","","","","","","","","","","","","","","","","","","","","","","",""
"1851","","image-button-response","243","1436062","0.0-242.0-0.0","A26ZGP2V4T81HL","img_art/29.jpg","2","","","","","","","","","","","","","","","","","","","","","","","","",""
"5742","","image-button-response","244","1441807","0.0-243.0-0.0","A26ZGP2V4T81HL","img_art/29.jpg","3","","","","","","","","","","","","","","","","","","","","","","","","",""
"null","","html-keyboard-response","245","1442310","0.0-244.0","A26ZGP2V4T81HL","<p style=""font-size: 48px;"">+</p>","","","","","null","allTrialResponses","500","1","28","img_art/29.jpg","-18","i don't like the brush","Scott,Evan,Benjamin,Paul,Jonathan,Christian","feels random and not thoughtout,-37,20,20","It makes me feel as though the artist put in a lot of time and effort and then gave up,10,140,20","Don't like the red X across the painting.,-15,260,20","There's too much black and it looks sloppy,-35,300,20","This one feels scary in a good way,30,140,20","love the texture, i don't know, i just really like it (and the paintbrush adds a nice touch),44,140,20","Evan","It makes me feel as though the artist put in a lot of time and effort and then gave up,10,140,20","Benjamin","Don't like the red X across the painting.,-15,260,20","Paul","There's too much black and it looks sloppy,-35,300,20","2"
"13059","","survey-text","246","1455378","0.0-245.0-0.0","A26ZGP2V4T81HL","","","","{""Q0"":""odd""}","","","","","","","","","","","","","","","","","","","","","","",""
"9192","","survey-text","247","1466546","0.0-245.1-0.1","A26ZGP2V4T81HL","","","","{""Q0"":""just weird""}","","","","","","","","","","","","","","","","","","","","","","",""
"3133.5","","image-slider-response","248","1469682","0.0-246.0","A26ZGP2V4T81HL","","","","","-16","","","","","","","","","","","","","","","","","","","","","",""
"null","","image-button-response","249","1474702","0.0-247.0","A26ZGP2V4T81HL","img_art/4.jpg","null","","","","","","","","","","","","","","","","","","","","","","","","",""
"872","","image-button-response","250","1475576","0.0-248.0","A26ZGP2V4T81HL","img_art/4.jpg","5","","","","","","","","","","","","","","","","","","","","","","","","",""
"2205","","image-button-response","251","1477784","0.0-249.0-0.0","A26ZGP2V4T81HL","img_art/4.jpg","3","","","","","","","","","","","","","","","","","","","","","","","","",""
"2621","","image-button-response","252","1480408","0.0-250.0-0.0","A26ZGP2V4T81HL","img_art/4.jpg","1","","","","","","","","","","","","","","","","","","","","","","","","",""
"null","","html-keyboard-response","253","1481912","0.0-251.0","A26ZGP2V4T81HL","<p style=""font-size: 48px;"">+</p>","","","","","null","allTrialResponses","1500","1","29","img_art/4.jpg","-16","just weird","Bryce,Evan,Benjamin,Paul,Gabriel,Trevor","Not very interesting to look at.,-34,20,20","I'm disappointed that such a simple piece, with very little effort spent, could be grouped with other detailed pieces,-31,140,20","I like the bold style.,10,260,20","The dark yellow color makes me think of mustard, which I dislike,-27,300,20","this is terrible,-49,160,20","not enough color and too yellow for me. Not my favorite colors,-10,280,20","Trevor","not enough color and too yellow for me. Not my favorite colors,-10,280,20","Paul","The dark yellow color makes me think of mustard, which I dislike,-27,300,20","Evan","I'm disappointed that such a simple piece, with very little effort spent, could be grouped with other detailed pieces,-31,140,20","2"
"11078","","survey-text","254","1492998","0.0-252.0-0.0","A26ZGP2V4T81HL","","","","{""Q0"":""not too creative""}","","","","","","","","","","","","","","","","","","","","","","",""
"3319.5","","image-slider-response","255","1496320","0.0-253.0","A26ZGP2V4T81HL","","","","","-26","","","","","","","","","","","","","","","","","","","","","",""
"null","","image-button-response","256","1501323","0.0-254.0","A26ZGP2V4T81HL","img_art/16.jpg","null","","","","","","","","","","","","","","","","","","","","","","","","",""
"2828","","image-button-response","257","1504154","0.0-255.0","A26ZGP2V4T81HL","img_art/16.jpg","1","","","","","","","","","","","","","","","","","","","","","","","","",""
"886","","image-button-response","258","1505042","0.0-256.0-0.0","A26ZGP2V4T81HL","img_art/16.jpg","4","","","","","","","","","","","","","","","","","","","","","","","","",""
"4083","","image-button-response","259","1509128","0.0-257.0-0.0","A26ZGP2V4T81HL","img_art/16.jpg","3","","","","","","","","","","","","","","","","","","","","","","","","",""
"null","","html-keyboard-response","260","1510135","0.0-258.0","A26ZGP2V4T81HL","<p style=""font-size: 48px;"">+</p>","","","","","null","allTrialResponses","1000","1","30","img_art/16.jpg","-26","not too creative","Derek,Evan,Garrett,Paul,Zachary,Trevor","I can't figure out the meaning of this painting but it is pleasant to look at,40,360,20","I do not like this dark and twisted portrayal of childhood,-42,140,20","I think this picture is weird and the colors are very boring.,-50,180,20","Don't know if there's a meaning but I like how seemingly random objects were stuck together and called art,20,300,20","Not pleasing to the eyes. I do like that the gun is broken though.,-28,400,20","very creepy with a bear and a gun,-50,280,20","Evan","I do not like this dark and twisted portrayal of childhood,-42,140,20","Zachary","Not pleasing to the eyes. I do like that the gun is broken though.,-28,400,20","Paul","Don't know if there's a meaning but I like how seemingly random objects were stuck together and called art,20,300,20","2"
"6255","","image-button-response_instructions","261","1516398","0.0-259.0","A26ZGP2V4T81HL","","0","instructions","","","","","","","","","","","","","","","","","","","","","","","",""
"1391","","image-button-response","262","1517796","0.0-260.0","A26ZGP2V4T81HL","","0","","","","","","","","","","","","","","","","","","","","","","","","",""
