"rt","url","trial_type","trial_index","time_elapsed","internal_node_id","participant_id","stimulus","button_pressed","Name","responses","response","key_press","variableName","fixationTime","condition","trial","photo","subjectRating","subjectResponse","agentsNames","agent_1_Response","agent_2_Response","agent_3_Response","agent_4_Response","agent_5_Response","agent_6_Response","kept_1_name","kept_1_response","kept_2_name","kept_2_response","kept_3_name","kept_3_response","errorCounter"
"17730","external_page_harvard.html","external-html","0","17876","0.0-0.0","A271830PNYAI2G","","","","","","","","","","","","","","","","","","","","","","","","","","",""
"1178","","image-button-response","1","19055","0.0-1.0","A271830PNYAI2G","","0","","","","","","","","","","","","","","","","","","","","","","","","",""
"1771","","image-button-response","2","20834","0.0-2.0-0.0","A271830PNYAI2G","","1","phone","","","","","","","","","","","","","","","","","","","","","","","",""
"5899","","survey-text","3","26737","0.0-3.0-0.0","A271830PNYAI2G","","","","{""Q0"":""A271830PNYAI2G""}","","","","","","","","","","","","","","","","","","","","","","",""
"1947","","image-button-response_instructions","4","28687","0.0-4.0","A271830PNYAI2G","","0","instructions","","","","","","","","","","","","","","","","","","","","","","","",""
"16302","","image-button-response_instructions","5","44993","0.0-5.0","A271830PNYAI2G","img_art/ins/popularity/ins1.png","0","instructions","","","","","","","","","","","","","","","","","","","","","","","",""
"3991","","image-button-response_instructions","6","48986","0.0-6.0","A271830PNYAI2G","img_art/ins/popularity/ins2.png","0","instructions","","","","","","","","","","","","","","","","","","","","","","","",""
"10641","","image-button-response_instructions","7","59628","0.0-7.0","A271830PNYAI2G","img_art/ins/popularity/ins2Extreme.png","0","instructions","","","","","","","","","","","","","","","","","","","","","","","",""
"5260","","image-button-response_instructions","8","64890","0.0-8.0","A271830PNYAI2G","img_art/ins/popularity/ins3KEEPpop.PNG","0","instructions","","","","","","","","","","","","","","","","","","","","","","","",""
"4374","","image-button-response_instructions","9","69267","0.0-9.0","A271830PNYAI2G","img_art/ins/popularity/ins3ANamepop.PNG","0","instructions","","","","","","","","","","","","","","","","","","","","","","","",""
"1943","","image-button-response_instructions","10","71211","0.0-10.0","A271830PNYAI2G","img_art/ins/popularity/ins3ARatingpop.png","0","instructions","","","","","","","","","","","","","","","","","","","","","","","",""
"6099","","image-button-response_instructions","11","77312","0.0-11.0","A271830PNYAI2G","img_art/ins/popularity/ins3ATextpop.png","0","instructions","","","","","","","","","","","","","","","","","","","","","","","",""
"2840","","image-button-response_instructions","12","80153","0.0-12.0","A271830PNYAI2G","img_art/ins/popularity/ins3ALikespop.png","0","instructions","","","","","","","","","","","","","","","","","","","","","","","",""
"3926","","image-button-response_instructions","13","84081","0.0-13.0","A271830PNYAI2G","img_art/ins/popularity/ins3KEEPpop.PNG","0","instructions","","","","","","","","","","","","","","","","","","","","","","","",""
"8842","","image-button-response_instructions","14","92925","0.0-14.0","A271830PNYAI2G","img_art/ins/popularity/ins3_5RED.png","0","instructions","","","","","","","","","","","","","","","","","","","","","","","",""
"1827","","image-button-response_instructions","15","94753","0.0-15.0","A271830PNYAI2G","img_art/ins/popularity/ins3KEEPpop.PNG","0","instructions","","","","","","","","","","","","","","","","","","","","","","","",""
"5005","","image-button-response_instructions","16","99759","0.0-16.0","A271830PNYAI2G","img_art/ins/popularity/ins4KEEPpop.PNG","0","instructions","","","","","","","","","","","","","","","","","","","","","","","",""
"5209","","image-button-response_instructions","17","104969","0.0-17.0","A271830PNYAI2G","img_art/ins/popularity/ins5KEEPpop.PNG","0","instructions","","","","","","","","","","","","","","","","","","","","","","","",""
"1116","","image-button-response_instructions","18","106089","0.0-18.0","A271830PNYAI2G","","0","instructions","","","","","","","","","","","","","","","","","","","","","","","",""
"6176","","survey-text","19","112298","0.0-19.0-0.0","A271830PNYAI2G","","","","{""Q0"":""but""}","","","","","","","","","","","","","","","","","","","","","","",""
"4823","","survey-text","20","117124","0.0-20.0-0.0","A271830PNYAI2G","","","","{""Q0"":""intense""}","","","","","","","","","","","","","","","","","","","","","","",""
"3588.900000035763","","image-slider-response","21","120716","0.0-21.0","A271830PNYAI2G","","","","","50","","","","","","","","","","","","","","","","","","","","","",""
"2641","","image-button-response","22","125721","0.0-22.0","A271830PNYAI2G","img_art/ins/1.jpg","1","","","","","","","","","","","","","","","","","","","","","","","","",""
"2010","","image-button-response","23","127734","0.0-23.0","A271830PNYAI2G","img_art/ins/1.jpg","1","","","","","","","","","","","","","","","","","","","","","","","","",""
"1305","","image-button-response","24","129042","0.0-24.0-0.0","A271830PNYAI2G","img_art/ins/1.jpg","5","","","","","","","","","","","","","","","","","","","","","","","","",""
"3331","","image-button-response","25","132382","0.0-25.0-0.0","A271830PNYAI2G","img_art/ins/1.jpg","3","","","","","","","","","","","","","","","","","","","","","","","","",""
"null","","html-keyboard-response","26","133392","0.0-26.0","A271830PNYAI2G","<p style=""font-size: 48px;"">+</p>","","","","","null","allTrialResponses","1000","1","-2","img_art/ins/1.jpg","50","intense","Adam,Alex,Ben,Carl,Daniel,Jack","Seems like doodles,-20,20,20","very creative work.,36,40,20","This color reminds me of poo,-46,60,20","very calming artwork,42,80,20","It looks like a murder scene.,-48,100,20","I like the sophisticated brushwork,40,120,20","Alex","very creative work.,36,40,20","Jack","I like the sophisticated brushwork,40,120,20","Carl","very calming artwork,42,80,20","0"
"4181","","survey-text","27","137585","0.0-27.0-0.0","A271830PNYAI2G","","","","{""Q0"":""depressing""}","","","","","","","","","","","","","","","","","","","","","","",""
"3001.899999976158","","image-slider-response","28","140590","0.0-28.0","A271830PNYAI2G","","","","","-33","","","","","","","","","","","","","","","","","","","","","",""
"2941","","image-button-response","29","145593","0.0-29.0","A271830PNYAI2G","img_art/ins/2.jpg","2","","","","","","","","","","","","","","","","","","","","","","","","",""
"871","","image-button-response","30","146466","0.0-30.0","A271830PNYAI2G","img_art/ins/2.jpg","2","","","","","","","","","","","","","","","","","","","","","","","","",""
"1894","","image-button-response","31","148361","0.0-31.0-0.0","A271830PNYAI2G","img_art/ins/2.jpg","0","","","","","","","","","","","","","","","","","","","","","","","","",""
"5254","","image-button-response","32","153617","0.0-32.0-0.0","A271830PNYAI2G","img_art/ins/2.jpg","1","","","","","","","","","","","","","","","","","","","","","","","","",""
"null","","html-keyboard-response","33","154622","0.0-33.0","A271830PNYAI2G","<p style=""font-size: 48px;"">+</p>","","","","","null","allTrialResponses","1000","1","-1","img_art/ins/2.jpg","-33","depressing","James,Alex,Kyle,Carl,John,Jack","looks too angry,-50,140,20","I like the blocks of color arrangements,30,40,20","Idk, it is just annoying,-32,180,20","I can feel the artist's passion in it,45,80,20","love the texture of paint,48,160,20","I would never be able to compose a sophisticated pallete like this,48,120,20","Kyle","Idk, it is just annoying,-32,180,20","James","looks too angry,-50,140,20","Alex","I like the blocks of color arrangements,30,40,20","0"
"5990","","survey-text","34","160619","0.0-34.0-0.0","A271830PNYAI2G","","","","{""Q0"":""electrifying""}","","","","","","","","","","","","","","","","","","","","","","",""
"3348.100000023842","","image-slider-response","35","163969","0.0-35.0","A271830PNYAI2G","","","","","50","","","","","","","","","","","","","","","","","","","","","",""
"null","","image-button-response","36","168973","0.0-36.0","A271830PNYAI2G","img_art/ins/3.jpg","null","","","","","","","","","","","","","","","","","","","","","","","","",""
"470","","image-button-response","37","169445","0.0-37.0","A271830PNYAI2G","img_art/ins/3.jpg","1","","","","","","","","","","","","","","","","","","","","","","","","",""
"697","","image-button-response","38","170145","0.0-38.0-0.0","A271830PNYAI2G","img_art/ins/3.jpg","3","","","","","","","","","","","","","","","","","","","","","","","","",""
"542","","image-button-response","39","170689","0.0-39.0-0.0","A271830PNYAI2G","img_art/ins/3.jpg","5","","","","","","","","","","","","","","","","","","","","","","","","",""
"null","","html-keyboard-response","40","171193","0.0-40.0","A271830PNYAI2G","<p style=""font-size: 48px;"">+</p>","","","","","null","allTrialResponses","500","1","0","img_art/ins/3.jpg","50","electrifying","James,Alex,Kyle,Mike,Ron,Sam","My worst nightmare,-42,140,20","calming blue is very nice,36,40,20","It looks like a playground for bats,-36,180,20","enjoy the different shades of blue,22,200,20","It looks depressing,-26,220,20","I can feel a rainy day from this painting,18,240,20","Alex","calming blue is very nice,36,40,20","Mike","enjoy the different shades of blue,22,200,20","Sam","I can feel a rainy day from this painting,18,240,20","0"
"9899","","image-button-response_instructions","41","181097","0.0-41.0","A271830PNYAI2G","","0","instructions","","","","","","","","","","","","","","","","","","","","","","","",""
"14331","","survey-likert","42","195430","0.0-42.0-0.0","A271830PNYAI2G","","","","{""Q0"":"""",""Q1"":0,""Q2"":0}","","","","","","","","","","","","","","","","","","","","","","",""
"3090","","survey-likert","43","200937","0.0-42.1-0.1","A271830PNYAI2G","","","","{""Q0"":"""",""Q1"":0,""Q2"":1}","","","","","","","","","","","","","","","","","","","","","","",""
"5376","","survey-text","44","206320","0.0-43.0-0.0","A271830PNYAI2G","","","","{""Q0"":""rock""}","","","","","","","","","","","","","","","","","","","","","","",""
"5831","","survey-text","45","212153","0.0-44.0-0.0","A271830PNYAI2G","","","","{""Q0"":""warm""}","","","","","","","","","","","","","","","","","","","","","","",""
"4141","","survey-text","46","217926","0.0-44.1-0.1","A271830PNYAI2G","","","","{""Q0"":""calming""}","","","","","","","","","","","","","","","","","","","","","","",""
"3021.199999988079","","image-slider-response","47","220950","0.0-45.0","A271830PNYAI2G","","","","","50","","","","","","","","","","","","","","","","","","","","","",""
"3669","","image-button-response","48","226004","0.0-46.0","A271830PNYAI2G","img_art/22.jpg","0","","","","","","","","","","","","","","","","","","","","","","","","",""
"124","","image-button-response","49","226131","0.0-47.0","A271830PNYAI2G","img_art/22.jpg","0","","","","","","","","","","","","","","","","","","","","","","","","",""
"2868","","image-button-response","50","229001","0.0-48.0-0.0","A271830PNYAI2G","img_art/22.jpg","2","","","","","","","","","","","","","","","","","","","","","","","","",""
"470","","image-button-response","51","229475","0.0-49.0-0.0","A271830PNYAI2G","img_art/22.jpg","4","","","","","","","","","","","","","","","","","","","","","","","","",""
"null","","html-keyboard-response","52","230477","0.0-50.0","A271830PNYAI2G","<p style=""font-size: 48px;"">+</p>","","","","","null","allTrialResponses","1000","1","1","img_art/22.jpg","50","calming","Cody,John,Jeffrey,Gabriel,Daniel,Mark","Love the use of color,50,180,20","Its okay,it doesnt make me feel any sort of strong emotion,1,120,20","Picture is very relaxing,32,40,20","its messy, like a child painted it,-14,160,20","Organic sun spot on a flexible grid,18,320,20","I don't feel much of anything.,0,80,20","Cody","Love the use of color,50,180,20","Jeffrey","Picture is very relaxing,32,40,20","Daniel","Organic sun spot on a flexible grid,18,320,20","1"
"4119","","survey-text","53","234601","0.0-51.0-0.0","A271830PNYAI2G","","","","{""Q0"":""relaxing""}","","","","","","","","","","","","","","","","","","","","","","",""
"3011.900000035763","","image-slider-response","54","237615","0.0-52.0","A271830PNYAI2G","","","","","50","","","","","","","","","","","","","","","","","","","","","",""
"null","","image-button-response","55","242617","0.0-53.0","A271830PNYAI2G","img_art/20.jpg","null","","","","","","","","","","","","","","","","","","","","","","","","",""
"1267","","image-button-response","56","243887","0.0-54.0","A271830PNYAI2G","img_art/20.jpg","0","","","","","","","","","","","","","","","","","","","","","","","","",""
"594","","image-button-response","57","244483","0.0-55.0-0.0","A271830PNYAI2G","img_art/20.jpg","3","","","","","","","","","","","","","","","","","","","","","","","","",""
"650","","image-button-response","58","245138","0.0-56.0-0.0","A271830PNYAI2G","img_art/20.jpg","5","","","","","","","","","","","","","","","","","","","","","","","","",""
"null","","html-keyboard-response","59","245642","0.0-57.0","A271830PNYAI2G","<p style=""font-size: 48px;"">+</p>","","","","","null","allTrialResponses","500","1","2","img_art/20.jpg","50","relaxing","Cody,Connor,Jeffrey,Kenneth,Daniel,Tyler","I like the distortion of the objects, good colors,20,180,20","Dark frame overpowers the image,-6,240,20","looks like an auto accident,-30,40,20","I want to like this more, but i wish it was more detailed. It's hard for me to see what it is.,5,300,20","Fails to capture what similar styles do,-12,320,20","This is not abstract art, it is representative.,0,320,20","Cody","I like the distortion of the objects, good colors,20,180,20","Kenneth","I want to like this more, but i wish it was more detailed. It's hard for me to see what it is.,5,300,20","Tyler","This is not abstract art, it is representative.,0,320,20","1"
"5359","","survey-text","60","251007","0.0-58.0-0.0","A271830PNYAI2G","","","","{""Q0"":""refreshing""}","","","","","","","","","","","","","","","","","","","","","","",""
"2851.599999964237","","image-slider-response","61","253861","0.0-59.0","A271830PNYAI2G","","","","","50","","","","","","","","","","","","","","","","","","","","","",""
"null","","image-button-response","62","258875","0.0-60.0","A271830PNYAI2G","img_art/24.jpg","null","","","","","","","","","","","","","","","","","","","","","","","","",""
"1442","","image-button-response","63","260321","0.0-61.0","A271830PNYAI2G","img_art/24.jpg","0","","","","","","","","","","","","","","","","","","","","","","","","",""
"404","","image-button-response","64","260727","0.0-62.0-0.0","A271830PNYAI2G","img_art/24.jpg","1","","","","","","","","","","","","","","","","","","","","","","","","",""
"372","","image-button-response","65","261101","0.0-63.0-0.0","A271830PNYAI2G","img_art/24.jpg","2","","","","","","","","","","","","","","","","","","","","","","","","",""
"null","","html-keyboard-response","66","262619","0.0-64.0","A271830PNYAI2G","<p style=""font-size: 48px;"">+</p>","","","","","null","allTrialResponses","1500","1","3","img_art/24.jpg","50","refreshing","Cody,Dylan,Malik,Kenneth,Devin,Tyler","Beautiful, good colors, love water,50,180,20","This reminds me of a creek or a river. It puts me a peace,42,40,20","Very nice textures and subject,38,40,20","Cute; I like what the image itself & the colors.,25,300,20","colors are good but the style is iffy,12,380,20","Exceedingly garish,-19,320,20","Cody","Beautiful, good colors, love water,50,180,20","Dylan","This reminds me of a creek or a river. It puts me a peace,42,40,20","Malik","Very nice textures and subject,38,40,20","1"
"5572","","survey-text","67","268196","0.0-65.0-0.0","A271830PNYAI2G","","","","{""Q0"":""depressing""}","","","","","","","","","","","","","","","","","","","","","","",""
"2196","","image-slider-response","68","270394","0.0-66.0","A271830PNYAI2G","","","","","-50","","","","","","","","","","","","","","","","","","","","","",""
"4718","","image-button-response","69","275407","0.0-67.0","A271830PNYAI2G","img_art/14.jpg","0","","","","","","","","","","","","","","","","","","","","","","","","",""
"1326","","image-button-response","70","276737","0.0-68.0","A271830PNYAI2G","img_art/14.jpg","0","","","","","","","","","","","","","","","","","","","","","","","","",""
"702","","image-button-response","71","277442","0.0-69.0-0.0","A271830PNYAI2G","img_art/14.jpg","4","","","","","","","","","","","","","","","","","","","","","","","","",""
"2234","","image-button-response","72","279679","0.0-70.0-0.0","A271830PNYAI2G","img_art/14.jpg","3","","","","","","","","","","","","","","","","","","","","","","","","",""
"null","","html-keyboard-response","73","280689","0.0-71.0","A271830PNYAI2G","<p style=""font-size: 48px;"">+</p>","","","","","null","allTrialResponses","1000","1","4","img_art/14.jpg","-50","depressing","Cody,Dylan,Malik,Joseph,Thomas,Colton","Don't love it.,-10,180,20","Pretty, dainty, unique,22,40,20","It's alright, something I'd see in a guest bedroom,10,40,20","I like that it looks like plants on a table, which reminds me of life.,4,220,20","I like the colors in the background, but not the bottom/center. It almost looks sloppy.,-20,220,20","mythical and nature like,37,220,20","Cody","Don't love it.,-10,180,20","Thomas","I like the colors in the background, but not the bottom/center. It almost looks sloppy.,-20,220,20","Joseph","I like that it looks like plants on a table, which reminds me of life.,4,220,20","1"
"12429","","survey-text","74","293126","0.0-72.0-0.0","A271830PNYAI2G","","","","{""Q0"":""creative""}","","","","","","","","","","","","","","","","","","","","","","",""
"2702.699999988079","","image-slider-response","75","295831","0.0-73.0","A271830PNYAI2G","","","","","50","","","","","","","","","","","","","","","","","","","","","",""
"null","","image-button-response","76","300837","0.0-74.0","A271830PNYAI2G","img_art/18.jpg","null","","","","","","","","","","","","","","","","","","","","","","","","",""
"693","","image-button-response","77","301534","0.0-75.0","A271830PNYAI2G","img_art/18.jpg","4","","","","","","","","","","","","","","","","","","","","","","","","",""
"546","","image-button-response","78","302084","0.0-76.0-0.0","A271830PNYAI2G","img_art/18.jpg","5","","","","","","","","","","","","","","","","","","","","","","","","",""
"593","","image-button-response","79","302679","0.0-77.0-0.0","A271830PNYAI2G","img_art/18.jpg","1","","","","","","","","","","","","","","","","","","","","","","","","",""
"null","","html-keyboard-response","80","303197","0.0-78.0","A271830PNYAI2G","<p style=""font-size: 48px;"">+</p>","","","","","null","allTrialResponses","500","1","5","img_art/18.jpg","50","creative","Cody,Cole,Shawn,Joseph,Thomas,Ian","Vaguely creepy ........,-20,180,20","Two people fighting with one watching,17,200,20","Evocative but cheesy.,-20,100,20","It's like a ship, but a freaky ship.,-11,220,20","I could stare at this for long stretches of time and still find new details. I love it.,40,220,20","This one raises some questions, there could be some sort of fight or battle going on.,11,260,20","Thomas","I could stare at this for long stretches of time and still find new details. I love it.,40,220,20","Ian","This one raises some questions, there could be some sort of fight or battle going on.,11,260,20","Cole","Two people fighting with one watching,17,200,20","1"
"3934","","survey-text","81","307148","0.0-79.0-0.0","A271830PNYAI2G","","","","{""Q0"":""sky""}","","","","","","","","","","","","","","","","","","","","","","",""
"27365","","survey-text","82","334516","0.0-80.0-0.0","A271830PNYAI2G","","","","{""Q0"":""lively""}","","","","","","","","","","","","","","","","","","","","","","",""
"2740","","image-slider-response","83","337259","0.0-81.0","A271830PNYAI2G","","","","","50","","","","","","","","","","","","","","","","","","","","","",""
"3389","","image-button-response","84","342267","0.0-82.0","A271830PNYAI2G","img_art/16.jpg","0","","","","","","","","","","","","","","","","","","","","","","","","",""
"457","","image-button-response","85","342727","0.0-83.0","A271830PNYAI2G","img_art/16.jpg","0","","","","","","","","","","","","","","","","","","","","","","","","",""
"694","","image-button-response","86","343423","0.0-84.0-0.0","A271830PNYAI2G","img_art/16.jpg","2","","","","","","","","","","","","","","","","","","","","","","","","",""
"1008","","image-button-response","87","344435","0.0-85.0-0.0","A271830PNYAI2G","img_art/16.jpg","4","","","","","","","","","","","","","","","","","","","","","","","","",""
"null","","html-keyboard-response","88","344938","0.0-86.0","A271830PNYAI2G","<p style=""font-size: 48px;"">+</p>","","","","","null","allTrialResponses","500","1","6","img_art/16.jpg","50","lively","Matthew,Cole,Dalton,Michael,Thomas,Ian","A lot fo these could abstract or childrens work.,23,120,20","Weird mixed media piece,-50,200,20","lol i dont know how i feel about this.,1,300,20","Looks like a kid did itt and ti looks disturbing.,-45,140,20","Makes me want to know more,5,220,20","This looks like it was made by an art student filled with angst,-30,260,20","Matthew","A lot fo these could abstract or childrens work.,23,120,20","Dalton","lol i dont know how i feel about this.,1,300,20","Thomas","Makes me want to know more,5,220,20","1"
"6306","","survey-text","89","351250","0.0-87.0-0.0","A271830PNYAI2G","","","","{""Q0"":""clashing""}","","","","","","","","","","","","","","","","","","","","","","",""
"2774.399999976158","","image-slider-response","90","354026","0.0-88.0","A271830PNYAI2G","","","","","-50","","","","","","","","","","","","","","","","","","","","","",""
"null","","image-button-response","91","359043","0.0-89.0","A271830PNYAI2G","img_art/1.jpg","null","","","","","","","","","","","","","","","","","","","","","","","","",""
"1866","","image-button-response","92","360911","0.0-90.0","A271830PNYAI2G","img_art/1.jpg","2","","","","","","","","","","","","","","","","","","","","","","","","",""
"407","","image-button-response","93","361321","0.0-91.0-0.0","A271830PNYAI2G","img_art/1.jpg","1","","","","","","","","","","","","","","","","","","","","","","","","",""
"751","","image-button-response","94","362075","0.0-92.0-0.0","A271830PNYAI2G","img_art/1.jpg","4","","","","","","","","","","","","","","","","","","","","","","","","",""
"null","","html-keyboard-response","95","362577","0.0-93.0","A271830PNYAI2G","<p style=""font-size: 48px;"">+</p>","","","","","null","allTrialResponses","500","1","7","img_art/1.jpg","-50","clashing","Matthew,Peter,Dalton,Derek,Thomas,Jacob","More passable, colorful, abstract.,13,120,20","Nothing whatsoever,2,320,20","the colors are vibrant and beautiful,1,300,20","The blend of colors are gorgeous and reminds me of fall,32,360,20","Pleasant, but a tad too monochromatic in some areas for my taste,7,220,20","Looks like the same thing as the last piece shown to me,10,340,20","Dalton","the colors are vibrant and beautiful,1,300,20","Peter","Nothing whatsoever,2,320,20","Thomas","Pleasant, but a tad too monochromatic in some areas for my taste,7,220,20","1"
"6133","","survey-text","96","368718","0.0-94.0-0.0","A271830PNYAI2G","","","","{""Q0"":""jarring""}","","","","","","","","","","","","","","","","","","","","","","",""
"2575.400000035763","","image-slider-response","97","371296","0.0-95.0","A271830PNYAI2G","","","","","-50","","","","","","","","","","","","","","","","","","","","","",""
"1165","","image-button-response","98","376300","0.0-96.0","A271830PNYAI2G","img_art/23.jpg","1","","","","","","","","","","","","","","","","","","","","","","","","",""
"414","","image-button-response","99","376717","0.0-97.0","A271830PNYAI2G","img_art/23.jpg","1","","","","","","","","","","","","","","","","","","","","","","","","",""
"350","","image-button-response","100","377070","0.0-98.0-0.0","A271830PNYAI2G","img_art/23.jpg","2","","","","","","","","","","","","","","","","","","","","","","","","",""
"542","","image-button-response","101","377615","0.0-99.0-0.0","A271830PNYAI2G","img_art/23.jpg","5","","","","","","","","","","","","","","","","","","","","","","","","",""
"null","","html-keyboard-response","102","378618","0.0-100.0","A271830PNYAI2G","<p style=""font-size: 48px;"">+</p>","","","","","null","allTrialResponses","1000","1","8","img_art/23.jpg","-50","jarring","Jack,Peter,Dalton,Carlos,Thomas,Brendan","awesome colors. love the white drawing the eye to the center. oddly comforting.,50,320,20","Reminds me of disco/70's, not my favorite design,-12,320,20","illegible wording with a graffiti background,1,300,20","It feels active and vibrant.,20,80,20","Beautiful. Very detailed and colorful. I enjoy looking at it.,50,220,20","i completely dont get it,-47,340,20","Peter","Reminds me of disco/70's, not my favorite design,-12,320,20","Dalton","illegible wording with a graffiti background,1,300,20","Brendan","i completely dont get it,-47,340,20","1"
"5775","","survey-text","103","384400","0.0-101.0-0.0","A271830PNYAI2G","","","","{""Q0"":""depressing""}","","","","","","","","","","","","","","","","","","","","","","",""
"2552.5","","image-slider-response","104","386954","0.0-102.0","A271830PNYAI2G","","","","","-50","","","","","","","","","","","","","","","","","","","","","",""
"4513","","image-button-response","105","391958","0.0-103.0","A271830PNYAI2G","img_art/3.jpg","0","","","","","","","","","","","","","","","","","","","","","","","","",""
"294","","image-button-response","106","392253","0.0-104.0","A271830PNYAI2G","img_art/3.jpg","1","","","","","","","","","","","","","","","","","","","","","","","","",""
"595","","image-button-response","107","392851","0.0-105.0-0.0","A271830PNYAI2G","img_art/3.jpg","0","","","","","","","","","","","","","","","","","","","","","","","","",""
"1402","","image-button-response","108","394255","0.0-106.0-0.0","A271830PNYAI2G","img_art/3.jpg","5","","","","","","","","","","","","","","","","","","","","","","","","",""
"null","","html-keyboard-response","109","395270","0.0-107.0","A271830PNYAI2G","<p style=""font-size: 48px;"">+</p>","","","","","null","allTrialResponses","1000","1","9","img_art/3.jpg","-50","depressing","Elijah,Peter,Dalton,James,Jonathan,Brendan","Somebody scribbled on a piece of paper,-35,80,20","Looks like blood scribbled on walls,-20,320,20","Blood splatter and one black spot.,1,300,20","It's very plain,-20,380,20","Something I'd paint when I'm mad. I feel that,20,140,20","i really cant get it,-44,340,20","Peter","Looks like blood scribbled on walls,-20,320,20","Elijah","Somebody scribbled on a piece of paper,-35,80,20","Brendan","i really cant get it,-44,340,20","1"
"7283","","survey-text","110","402559","0.0-108.0-0.0","A271830PNYAI2G","","","","{""Q0"":""brilliant""}","","","","","","","","","","","","","","","","","","","","","","",""
"2518.7999999523163","","image-slider-response","111","405080","0.0-109.0","A271830PNYAI2G","","","","","50","","","","","","","","","","","","","","","","","","","","","",""
"null","","image-button-response","112","410091","0.0-110.0","A271830PNYAI2G","img_art/9.jpg","null","","","","","","","","","","","","","","","","","","","","","","","","",""
"862","","image-button-response","113","410955","0.0-111.0","A271830PNYAI2G","img_art/9.jpg","2","","","","","","","","","","","","","","","","","","","","","","","","",""
"655","","image-button-response","114","411613","0.0-112.0-0.0","A271830PNYAI2G","img_art/9.jpg","4","","","","","","","","","","","","","","","","","","","","","","","","",""
"2047","","image-button-response","115","413664","0.0-113.0-0.0","A271830PNYAI2G","img_art/9.jpg","1","","","","","","","","","","","","","","","","","","","","","","","","",""
"null","","html-keyboard-response","116","414681","0.0-114.0","A271830PNYAI2G","<p style=""font-size: 48px;"">+</p>","","","","","null","allTrialResponses","1000","1","10","img_art/9.jpg","50","brilliant","Elijah,Peter,Luis,Alexander,Luke,Brendan","It's a mix of paint splash and scribbling,-33,80,20","Looks like a monster's teeth , unsettling,-18,320,20","Calming and relaxing,42,400,20","The mouth of an ugly beast.,-25,120,20","it makes me feel excited and draws my eye around,24,20,20","not my type of art,-33,340,20","Luis","Calming and relaxing,42,400,20","Luke","it makes me feel excited and draws my eye around,24,20,20","Peter","Looks like a monster's teeth , unsettling,-18,320,20","1"
"2764","","survey-text","117","417463","0.0-115.0-0.0","A271830PNYAI2G","","","","{""Q0"":""our""}","","","","","","","","","","","","","","","","","","","","","","",""
"7964","","survey-text","118","425429","0.0-116.0-0.0","A271830PNYAI2G","","","","{""Q0"":""discordant""}","","","","","","","","","","","","","","","","","","","","","","",""
"4225.899999976158","","image-slider-response","119","429657","0.0-117.0","A271830PNYAI2G","","","","","-50","","","","","","","","","","","","","","","","","","","","","",""
"null","","image-button-response","120","434666","0.0-118.0","A271830PNYAI2G","img_art/2.jpg","null","","","","","","","","","","","","","","","","","","","","","","","","",""
"959","","image-button-response","121","435627","0.0-119.0","A271830PNYAI2G","img_art/2.jpg","0","","","","","","","","","","","","","","","","","","","","","","","","",""
"686","","image-button-response","122","436315","0.0-120.0-0.0","A271830PNYAI2G","img_art/2.jpg","4","","","","","","","","","","","","","","","","","","","","","","","","",""
"395","","image-button-response","123","436713","0.0-121.0-0.0","A271830PNYAI2G","img_art/2.jpg","5","","","","","","","","","","","","","","","","","","","","","","","","",""
"null","","html-keyboard-response","124","437216","0.0-122.0","A271830PNYAI2G","<p style=""font-size: 48px;"">+</p>","","","","","null","allTrialResponses","500","1","11","img_art/2.jpg","-50","discordant","Chase,Peter,Luis,Benjamin,Luke,Adrian","A bit ugly with the greens.,-20,120,20","I don't feel indifferent,4,320,20","I dont like the expression of this,-19,400,20","bright and happy,20,260,20","too abstract and confusing,-19,20,20","Not a fan of the colors or the style.,-31,60,20","Chase","A bit ugly with the greens.,-20,120,20","Luke","too abstract and confusing,-19,20,20","Adrian","Not a fan of the colors or the style.,-31,60,20","1"
"6495","","survey-text","125","443719","0.0-123.0-0.0","A271830PNYAI2G","","","","{""Q0"":""sympathetic""}","","","","","","","","","","","","","","","","","","","","","","",""
"3904.2000000476837","","image-slider-response","126","447625","0.0-124.0","A271830PNYAI2G","","","","","50","","","","","","","","","","","","","","","","","","","","","",""
"4264","","image-button-response","127","452651","0.0-125.0","A271830PNYAI2G","img_art/30.jpg","4","","","","","","","","","","","","","","","","","","","","","","","","",""
"573","","image-button-response","128","453229","0.0-126.0","A271830PNYAI2G","img_art/30.jpg","4","","","","","","","","","","","","","","","","","","","","","","","","",""
"281","","image-button-response","129","453513","0.0-127.0-0.0","A271830PNYAI2G","img_art/30.jpg","5","","","","","","","","","","","","","","","","","","","","","","","","",""
"481","","image-button-response","130","453997","0.0-128.0-0.0","A271830PNYAI2G","img_art/30.jpg","1","","","","","","","","","","","","","","","","","","","","","","","","",""
"null","","html-keyboard-response","131","455009","0.0-129.0","A271830PNYAI2G","<p style=""font-size: 48px;"">+</p>","","","","","null","allTrialResponses","1000","1","12","img_art/30.jpg","50","sympathetic","Chase,Stephen,Tristan,Brian,Luke,Adrian","Too dark and ugly with all the black smears,-20,120,20","A bit too dark for my liking,-10,140,20","Too much abstraction for me, leaving my focus mainly on color. I like the texture.,-20,300,20","this is probably part of a neat series, but the abstraction doesn't speak to me,-17,380,20","the lines and colors look purposeful,18,20,20","Interesting. Not sure what I'm seeing but it makes me want to figure it out.,5,60,20","Luke","the lines and colors look purposeful,18,20,20","Adrian","Interesting. Not sure what I'm seeing but it makes me want to figure it out.,5,60,20","Stephen","A bit too dark for my liking,-10,140,20","1"
"33752","","survey-text","132","488767","0.0-130.0-0.0","A271830PNYAI2G","","","","{""Q0"":""distressing""}","","","","","","","","","","","","","","","","","","","","","","",""
"2374.400000035763","","image-slider-response","133","491144","0.0-131.0","A271830PNYAI2G","","","","","-50","","","","","","","","","","","","","","","","","","","","","",""
"3490","","image-button-response","134","496147","0.0-132.0","A271830PNYAI2G","img_art/29.jpg","5","","","","","","","","","","","","","","","","","","","","","","","","",""
"709","","image-button-response","135","496859","0.0-133.0","A271830PNYAI2G","img_art/29.jpg","5","","","","","","","","","","","","","","","","","","","","","","","","",""
"805","","image-button-response","136","497666","0.0-134.0-0.0","A271830PNYAI2G","img_art/29.jpg","3","","","","","","","","","","","","","","","","","","","","","","","","",""
"455","","image-button-response","137","498124","0.0-135.0-0.0","A271830PNYAI2G","img_art/29.jpg","0","","","","","","","","","","","","","","","","","","","","","","","","",""
"null","","html-keyboard-response","138","498631","0.0-136.0","A271830PNYAI2G","<p style=""font-size: 48px;"">+</p>","","","","","null","allTrialResponses","500","1","13","img_art/29.jpg","-50","distressing","Samuel,Stephen,Logan,Steven,Luke,Adrian","too challenging to comprehend,-28,400,20","Really enjoy everything about this one.,50,140,20","is this supposed to be edgy,-21,360,20","Yeah, I don't know. It's clearly a situation where art is the reject of something more,-27,160,20","it is difficult to look at but you can't look away,-25,20,20","Again, ugly colors and I'm not a fan of abstract. This looks like the view into a garbage dump.,-50,60,20","Adrian","Again, ugly colors and I'm not a fan of abstract. This looks like the view into a garbage dump.,-50,60,20","Steven","Yeah, I don't know. It's clearly a situation where art is the reject of something more,-27,160,20","Samuel","too challenging to comprehend,-28,400,20","1"
"7118","","survey-text","139","505760","0.0-137.0-0.0","A271830PNYAI2G","","","","{""Q0"":""peaceful""}","","","","","","","","","","","","","","","","","","","","","","",""
"2386","","image-slider-response","140","508148","0.0-138.0","A271830PNYAI2G","","","","","50","","","","","","","","","","","","","","","","","","","","","",""
"4216","","image-button-response","141","513154","0.0-139.0","A271830PNYAI2G","img_art/21.jpg","4","","","","","","","","","","","","","","","","","","","","","","","","",""
"511","","image-button-response","142","513667","0.0-140.0","A271830PNYAI2G","img_art/21.jpg","4","","","","","","","","","","","","","","","","","","","","","","","","",""
"613","","image-button-response","143","514283","0.0-141.0-0.0","A271830PNYAI2G","img_art/21.jpg","1","","","","","","","","","","","","","","","","","","","","","","","","",""
"364","","image-button-response","144","514649","0.0-142.0-0.0","A271830PNYAI2G","img_art/21.jpg","2","","","","","","","","","","","","","","","","","","","","","","","","",""
"null","","html-keyboard-response","145","516152","0.0-143.0","A271830PNYAI2G","<p style=""font-size: 48px;"">+</p>","","","","","null","allTrialResponses","1500","1","14","img_art/21.jpg","50","peaceful","Samuel,Alejandro,David,Steven,Nathan,Adrian","feels like a wave coming into light,9,400,20","Feels like a clash between land and sea,31,80,20","I like how the piece has the possibility of depicting some type of story.,30,340,20","Okay, I love the color schemes, I can't quite figure it out though,14,160,20","I like it. It's some of war-scene, bloodshed and battle on the left, field of dispair on the right, dark and rich,40,200,20","I like this piece more the more I look at. Still wouldn't want it in my home, though.,8,60,20","Nathan","I like it. It's some of war-scene, bloodshed and battle on the left, field of dispair on the right, dark and rich,40,200,20","Alejandro","Feels like a clash between land and sea,31,80,20","David","I like how the piece has the possibility of depicting some type of story.,30,340,20","1"
"7904","","survey-text","146","524069","0.0-144.0-0.0","A271830PNYAI2G","","","","{""Q0"":""energetic""}","","","","","","","","","","","","","","","","","","","","","","",""
"2980.199999988079","","image-slider-response","147","527054","0.0-145.0","A271830PNYAI2G","","","","","50","","","","","","","","","","","","","","","","","","","","","",""
"3820","","image-button-response","148","532060","0.0-146.0","A271830PNYAI2G","img_art/6.jpg","2","","","","","","","","","","","","","","","","","","","","","","","","",""
"1207","","image-button-response","149","533269","0.0-147.0","A271830PNYAI2G","img_art/6.jpg","1","","","","","","","","","","","","","","","","","","","","","","","","",""
"498","","image-button-response","150","533769","0.0-148.0-0.0","A271830PNYAI2G","img_art/6.jpg","2","","","","","","","","","","","","","","","","","","","","","","","","",""
"489","","image-button-response","151","534261","0.0-149.0-0.0","A271830PNYAI2G","img_art/6.jpg","3","","","","","","","","","","","","","","","","","","","","","","","","",""
"null","","html-keyboard-response","152","534770","0.0-150.0","A271830PNYAI2G","<p style=""font-size: 48px;"">+</p>","","","","","null","allTrialResponses","500","1","15","img_art/6.jpg","50","energetic","Devon,Alejandro,David,Kyle,Nathan,Bryce","This one also confuses me a bit.,-19,400,20","Gives me a feeling of solitude and nothingness,11,80,20","I like the simplicity of the piece.,10,340,20","Simple and clean,11,340,20","Not a fan of anything in this,-43,200,20","Not very exciting.,-34,20,20","Alejandro","Gives me a feeling of solitude and nothingness,11,80,20","David","I like the simplicity of the piece.,10,340,20","Kyle","Simple and clean,11,340,20","1"
"3460","","survey-text","153","538251","0.0-151.0-0.0","A271830PNYAI2G","","","","{""Q0"":""course""}","","","","","","","","","","","","","","","","","","","","","","",""
"9168","","survey-text","154","547421","0.0-152.0-0.0","A271830PNYAI2G","","","","{""Q0"":""exciting""}","","","","","","","","","","","","","","","","","","","","","","",""
"2748.800000011921","","image-slider-response","155","550171","0.0-153.0","A271830PNYAI2G","","","","","50","","","","","","","","","","","","","","","","","","","","","",""
"null","","image-button-response","156","555182","0.0-154.0","A271830PNYAI2G","img_art/11.jpg","null","","","","","","","","","","","","","","","","","","","","","","","","",""
"85","","image-button-response","157","555269","0.0-155.0","A271830PNYAI2G","img_art/11.jpg","1","","","","","","","","","","","","","","","","","","","","","","","","",""
"770","","image-button-response","158","556041","0.0-156.0-0.0","A271830PNYAI2G","img_art/11.jpg","0","","","","","","","","","","","","","","","","","","","","","","","","",""
"480","","image-button-response","159","556524","0.0-157.0-0.0","A271830PNYAI2G","img_art/11.jpg","3","","","","","","","","","","","","","","","","","","","","","","","","",""
"null","","html-keyboard-response","160","557529","0.0-158.0","A271830PNYAI2G","<p style=""font-size: 48px;"">+</p>","","","","","null","allTrialResponses","1000","1","16","img_art/11.jpg","50","exciting","Richard,Alejandro,David,Kyle,Sean,Jared","I like this one mostly a good combination of colors and light and dark,12,340,20","Enjoyed the lines representing different paths that encompass different entities,20,80,20","I like how this piece can be interpreted in different ways, such as a village on hilly terrain.,10,340,20","Reminds me of a city on a grey/rainy winter's day,25,340,20","pic looks alright,8,40,20","i like the colors and patters and waves,5,400,20","Alejandro","Enjoyed the lines representing different paths that encompass different entities,20,80,20","Richard","I like this one mostly a good combination of colors and light and dark,12,340,20","Kyle","Reminds me of a city on a grey/rainy winter's day,25,340,20","1"
"6774","","survey-text","161","564312","0.0-159.0-0.0","A271830PNYAI2G","","","","{""Q0"":""gloomy""}","","","","","","","","","","","","","","","","","","","","","","",""
"2803.599999964237","","image-slider-response","162","567118","0.0-160.0","A271830PNYAI2G","","","","","-50","","","","","","","","","","","","","","","","","","","","","",""
"null","","image-button-response","163","572132","0.0-161.0","A271830PNYAI2G","img_art/5.jpg","null","","","","","","","","","","","","","","","","","","","","","","","","",""
"1593","","image-button-response","164","573727","0.0-162.0","A271830PNYAI2G","img_art/5.jpg","1","","","","","","","","","","","","","","","","","","","","","","","","",""
"550","","image-button-response","165","574278","0.0-163.0-0.0","A271830PNYAI2G","img_art/5.jpg","0","","","","","","","","","","","","","","","","","","","","","","","","",""
"716","","image-button-response","166","574997","0.0-164.0-0.0","A271830PNYAI2G","img_art/5.jpg","5","","","","","","","","","","","","","","","","","","","","","","","","",""
"null","","html-keyboard-response","167","576511","0.0-165.0","A271830PNYAI2G","<p style=""font-size: 48px;"">+</p>","","","","","null","allTrialResponses","1500","1","17","img_art/5.jpg","-50","gloomy","Richard,Alejandro,Jason,Kyle,Corey,Grant","looks like a 2nd grader did it,-50,340,20","Confused as to what the artist is attempting to do.,-50,80,20","Wish the background had been kept clean; distracts from main object,11,20,20","Not sure what to say about this piece honestly. It's okay I guess.,0,340,20","simple. love the color scheme,27,260,20","This elicits no reaction in me.,0,200,20","Alejandro","Confused as to what the artist is attempting to do.,-50,80,20","Richard","looks like a 2nd grader did it,-50,340,20","Grant","This elicits no reaction in me.,0,200,20","1"
"6940","","survey-text","168","583460","0.0-166.0-0.0","A271830PNYAI2G","","","","{""Q0"":""somber""}","","","","","","","","","","","","","","","","","","","","","","",""
"2288.199999988079","","image-slider-response","169","585750","0.0-167.0","A271830PNYAI2G","","","","","-50","","","","","","","","","","","","","","","","","","","","","",""
"null","","image-button-response","170","590760","0.0-168.0","A271830PNYAI2G","img_art/26.jpg","null","","","","","","","","","","","","","","","","","","","","","","","","",""
"1074","","image-button-response","171","591838","0.0-169.0","A271830PNYAI2G","img_art/26.jpg","1","","","","","","","","","","","","","","","","","","","","","","","","",""
"1030","","image-button-response","172","592871","0.0-170.0-0.0","A271830PNYAI2G","img_art/26.jpg","3","","","","","","","","","","","","","","","","","","","","","","","","",""
"1156","","image-button-response","173","594032","0.0-171.0-0.0","A271830PNYAI2G","img_art/26.jpg","4","","","","","","","","","","","","","","","","","","","","","","","","",""
"null","","html-keyboard-response","174","595035","0.0-172.0","A271830PNYAI2G","<p style=""font-size: 48px;"">+</p>","","","","","null","allTrialResponses","1000","1","18","img_art/26.jpg","-50","somber","Richard,Alejandro,Taylor,Mitchell,Victor,Grant","subtle use of colors, city street view?,8,340,20","Do not like water colors at all,-50,80,20","At least it is a bit of scenery.,10,200,20","Incomplete, The artist painted his impression of somthing he was thinking of,0,180,20","the trees are cool,1,340,20","It's a cute city scene. I like the trees.,10,200,20","Alejandro","Do not like water colors at all,-50,80,20","Mitchell","Incomplete, The artist painted his impression of somthing he was thinking of,0,180,20","Victor","the trees are cool,1,340,20","1"
"6437","","survey-text","175","601477","0.0-173.0-0.0","A271830PNYAI2G","","","","{""Q0"":""tranquil""}","","","","","","","","","","","","","","","","","","","","","","",""
"2480.199999988079","","image-slider-response","176","603959","0.0-174.0","A271830PNYAI2G","","","","","50","","","","","","","","","","","","","","","","","","","","","",""
"null","","image-button-response","177","608966","0.0-175.0","A271830PNYAI2G","img_art/8.jpg","null","","","","","","","","","","","","","","","","","","","","","","","","",""
"567","","image-button-response","178","609535","0.0-176.0","A271830PNYAI2G","img_art/8.jpg","3","","","","","","","","","","","","","","","","","","","","","","","","",""
"588","","image-button-response","179","610125","0.0-177.0-0.0","A271830PNYAI2G","img_art/8.jpg","5","","","","","","","","","","","","","","","","","","","","","","","","",""
"980","","image-button-response","180","611107","0.0-178.0-0.0","A271830PNYAI2G","img_art/8.jpg","2","","","","","","","","","","","","","","","","","","","","","","","","",""
"null","","html-keyboard-response","181","611614","0.0-179.0","A271830PNYAI2G","<p style=""font-size: 48px;"">+</p>","","","","","null","allTrialResponses","500","1","19","img_art/8.jpg","50","tranquil","Robert,Alejandro,Justin,Mitchell,Victor,Isaac","I like the colors and geometrical shapes but the face in the sky makes it look scary,-10,360,20","i like the abstract nature of a birds eye view of the city. The hard shapes and squares present with a softness rather than rigidity.,26,80,20","Interesting to look at, there are many things happening in the painting.,32,280,20","Lost in a big city confuse as to where to go to next. No matter if you live in a mansion or homeless. Being bigger than what is going on around you,30,180,20","I like the colors,10,340,20","It looks like it took a lot of time to complete.,34,280,20","Mitchell","Lost in a big city confuse as to where to go to next. No matter if you live in a mansion or homeless. Being bigger than what is going on around you,30,180,20","Isaac","It looks like it took a lot of time to complete.,34,280,20","Justin","Interesting to look at, there are many things happening in the painting.,32,280,20","1"
"5367","","survey-text","182","616994","0.0-180.0-0.0","A271830PNYAI2G","","","","{""Q0"":""miserable""}","","","","","","","","","","","","","","","","","","","","","","",""
"2562.399999976158","","image-slider-response","183","619558","0.0-181.0","A271830PNYAI2G","","","","","-50","","","","","","","","","","","","","","","","","","","","","",""
"null","","image-button-response","184","624573","0.0-182.0","A271830PNYAI2G","img_art/12.jpg","null","","","","","","","","","","","","","","","","","","","","","","","","",""
"527","","image-button-response","185","625104","0.0-183.0","A271830PNYAI2G","img_art/12.jpg","0","","","","","","","","","","","","","","","","","","","","","","","","",""
"793","","image-button-response","186","625899","0.0-184.0-0.0","A271830PNYAI2G","img_art/12.jpg","3","","","","","","","","","","","","","","","","","","","","","","","","",""
"657","","image-button-response","187","626559","0.0-185.0-0.0","A271830PNYAI2G","img_art/12.jpg","2","","","","","","","","","","","","","","","","","","","","","","","","",""
"null","","html-keyboard-response","188","627083","0.0-186.0","A271830PNYAI2G","<p style=""font-size: 48px;"">+</p>","","","","","null","allTrialResponses","500","1","20","img_art/12.jpg","-50","miserable","Nathaniel,Kevin,Justin,Mitchell,Marcus,Isaac","Too many blocks. I can't see a purpose or a focal point,-44,220,20","That is a warn quilt grama made.,11,320,20","Too blocky and not interesting enough.,-15,280,20","confused. stages of a persons life from beginning positive to ending negative.,-10,180,20","I like the colors in the bottom half of the painting,10,60,20","I like the gradient of little color on the top to colorful on the bottom.,24,280,20","Nathaniel","Too many blocks. I can't see a purpose or a focal point,-44,220,20","Mitchell","confused. stages of a persons life from beginning positive to ending negative.,-10,180,20","Justin","Too blocky and not interesting enough.,-15,280,20","1"
"2486","","survey-text","189","629588","0.0-187.0-0.0","A271830PNYAI2G","","","","{""Q0"":""we""}","","","","","","","","","","","","","","","","","","","","","","",""
"5864","","survey-text","190","635454","0.0-188.0-0.0","A271830PNYAI2G","","","","{""Q0"":""lifeless""}","","","","","","","","","","","","","","","","","","","","","","",""
"2599.400000035763","","image-slider-response","191","638055","0.0-189.0","A271830PNYAI2G","","","","","-50","","","","","","","","","","","","","","","","","","","","","",""
"null","","image-button-response","192","643070","0.0-190.0","A271830PNYAI2G","img_art/4.jpg","null","","","","","","","","","","","","","","","","","","","","","","","","",""
"397","","image-button-response","193","643469","0.0-191.0","A271830PNYAI2G","img_art/4.jpg","0","","","","","","","","","","","","","","","","","","","","","","","","",""
"377","","image-button-response","194","643849","0.0-192.0-0.0","A271830PNYAI2G","img_art/4.jpg","1","","","","","","","","","","","","","","","","","","","","","","","","",""
"365","","image-button-response","195","644216","0.0-193.0-0.0","A271830PNYAI2G","img_art/4.jpg","2","","","","","","","","","","","","","","","","","","","","","","","","",""
"null","","html-keyboard-response","196","644720","0.0-194.0","A271830PNYAI2G","<p style=""font-size: 48px;"">+</p>","","","","","null","allTrialResponses","500","1","21","img_art/4.jpg","-50","lifeless","Nathaniel,Jake,Justin,Mitchell,Vincent,Christian","Boring and tasteless. Almost reminds me of when an art gallery called a banana 'art',-42,220,20","This is ugly in color and in terms of the shape on it.,-32,360,20","Rather boring design and colors.,-21,280,20","Hearts, family connected. They are standing on a narrow base and could fall to pieces at anytime.,40,180,20","I like it not sure much of how I feel about it,7,360,20","no sorry i can't really understand,-18,140,20","Nathaniel","Boring and tasteless. Almost reminds me of when an art gallery called a banana 'art',-42,220,20","Jake","This is ugly in color and in terms of the shape on it.,-32,360,20","Justin","Rather boring design and colors.,-21,280,20","1"
"8263","","survey-text","197","652993","0.0-195.0-0.0","A271830PNYAI2G","","","","{""Q0"":""joyful""}","","","","","","","","","","","","","","","","","","","","","","",""
"2850","","image-slider-response","198","655846","0.0-196.0","A271830PNYAI2G","","","","","50","","","","","","","","","","","","","","","","","","","","","",""
"null","","image-button-response","199","660856","0.0-197.0","A271830PNYAI2G","img_art/13.jpg","null","","","","","","","","","","","","","","","","","","","","","","","","",""
"481","","image-button-response","200","661341","0.0-198.0","A271830PNYAI2G","img_art/13.jpg","3","","","","","","","","","","","","","","","","","","","","","","","","",""
"403","","image-button-response","201","661747","0.0-199.0-0.0","A271830PNYAI2G","img_art/13.jpg","4","","","","","","","","","","","","","","","","","","","","","","","","",""
"375","","image-button-response","202","662124","0.0-200.0-0.0","A271830PNYAI2G","img_art/13.jpg","5","","","","","","","","","","","","","","","","","","","","","","","","",""
"null","","html-keyboard-response","203","663625","0.0-201.0","A271830PNYAI2G","<p style=""font-size: 48px;"">+</p>","","","","","null","allTrialResponses","1500","1","22","img_art/13.jpg","50","joyful","Nathaniel,Jake,Justin,William,Juan,Christopher","Looks like an upclose dried set of water droplets. Boring.,-25,220,20","It's too violent looking and there's too much contrast between the white/black.,-21,360,20","Not really a fan of ""splash"" art.,-20,280,20","reminds me of rain,36,380,20","I love the colors and the contrast between the different blues.,21,260,20","this is an appealing mix of textures to me and the color scheme is harmonious,36,160,20","William","reminds me of rain,36,380,20","Juan","I love the colors and the contrast between the different blues.,21,260,20","Christopher","this is an appealing mix of textures to me and the color scheme is harmonious,36,160,20","1"
"63895","","survey-text","204","727531","0.0-202.0-0.0","A271830PNYAI2G","","","","{""Q0"":""mysterious""}","","","","","","","","","","","","","","","","","","","","","","",""
"4975.199999988079","","image-slider-response","205","732508","0.0-203.0","A271830PNYAI2G","","","","","50","","","","","","","","","","","","","","","","","","","","","",""
"2529","","image-button-response","206","737512","0.0-204.0","A271830PNYAI2G","img_art/27.jpg","3","","","","","","","","","","","","","","","","","","","","","","","","",""
"372","","image-button-response","207","737886","0.0-205.0","A271830PNYAI2G","img_art/27.jpg","3","","","","","","","","","","","","","","","","","","","","","","","","",""
"619","","image-button-response","208","738507","0.0-206.0-0.0","A271830PNYAI2G","img_art/27.jpg","2","","","","","","","","","","","","","","","","","","","","","","","","",""
"1199","","image-button-response","209","739709","0.0-207.0-0.0","A271830PNYAI2G","img_art/27.jpg","5","","","","","","","","","","","","","","","","","","","","","","","","",""
"null","","html-keyboard-response","210","740220","0.0-208.0","A271830PNYAI2G","<p style=""font-size: 48px;"">+</p>","","","","","null","allTrialResponses","500","1","23","img_art/27.jpg","50","mysterious","Jorge,Bradley,Jordan,William,Juan,Christopher","dirty and misunderstood,-47,180,20","Yikes. I think I made this in kindergarten.,-20,300,20","Looks like a little kids drawing,20,160,20","reminds me of fall,33,380,20","Colors make me think of fall, but I don't like how the picture was done or the weird lines across the background,6,260,20","i don't think i should like this one because it's a little chaotic and simple but I do,6,160,20","William","reminds me of fall,33,380,20","Jordan","Looks like a little kids drawing,20,160,20","Christopher","i don't think i should like this one because it's a little chaotic and simple but I do,6,160,20","1"
"6360","","survey-text","211","746589","0.0-209.0-0.0","A271830PNYAI2G","","","","{""Q0"":""fascinating""}","","","","","","","","","","","","","","","","","","","","","","",""
"2556.599999964237","","image-slider-response","212","749149","0.0-210.0","A271830PNYAI2G","","","","","50","","","","","","","","","","","","","","","","","","","","","",""
"null","","image-button-response","213","754166","0.0-211.0","A271830PNYAI2G","img_art/7.jpg","null","","","","","","","","","","","","","","","","","","","","","","","","",""
"2403","","image-button-response","214","756573","0.0-212.0","A271830PNYAI2G","img_art/7.jpg","0","","","","","","","","","","","","","","","","","","","","","","","","",""
"622","","image-button-response","215","757200","0.0-213.0-0.0","A271830PNYAI2G","img_art/7.jpg","4","","","","","","","","","","","","","","","","","","","","","","","","",""
"409","","image-button-response","216","757612","0.0-214.0-0.0","A271830PNYAI2G","img_art/7.jpg","5","","","","","","","","","","","","","","","","","","","","","","","","",""
"null","","html-keyboard-response","217","758119","0.0-215.0","A271830PNYAI2G","<p style=""font-size: 48px;"">+</p>","","","","","null","allTrialResponses","500","1","24","img_art/7.jpg","50","fascinating","Bryan,Cameron,Jordan,William,Nicholas,Christopher","Makes me itch - looks like a closeup of an ant colony or something.,-1,400,20","tracks in dirt?,-15,60,20","Looks like a skin disease,-31,160,20","looks like a photograph,-4,380,20","Makes me want to feel it,19,240,20","i kind of like this, it looks like a photo of a planet's surface,16,160,20","Bryan","Makes me itch - looks like a closeup of an ant colony or something.,-1,400,20","Nicholas","Makes me want to feel it,19,240,20","Christopher","i kind of like this, it looks like a photo of a planet's surface,16,160,20","1"
"6511","","survey-text","218","764637","0.0-216.0-0.0","A271830PNYAI2G","","","","{""Q0"":""explosive""}","","","","","","","","","","","","","","","","","","","","","","",""
"2518.199999988079","","image-slider-response","219","767158","0.0-217.0","A271830PNYAI2G","","","","","50","","","","","","","","","","","","","","","","","","","","","",""
"4907","","image-button-response","220","772165","0.0-218.0","A271830PNYAI2G","img_art/17.jpg","0","","","","","","","","","","","","","","","","","","","","","","","","",""
"514","","image-button-response","221","772682","0.0-219.0","A271830PNYAI2G","img_art/17.jpg","0","","","","","","","","","","","","","","","","","","","","","","","","",""
"612","","image-button-response","222","773297","0.0-220.0-0.0","A271830PNYAI2G","img_art/17.jpg","4","","","","","","","","","","","","","","","","","","","","","","","","",""
"633","","image-button-response","223","773932","0.0-221.0-0.0","A271830PNYAI2G","img_art/17.jpg","2","","","","","","","","","","","","","","","","","","","","","","","","",""
"null","","html-keyboard-response","224","775434","0.0-222.0","A271830PNYAI2G","<p style=""font-size: 48px;"">+</p>","","","","","null","allTrialResponses","1500","1","25","img_art/17.jpg","50","explosive","Bryan,Trevor,Jose,Joshua,Nicholas,Christopher","Reminds me of winters in Minnesota.,48,400,20","I like how it looks like a tree. The colors are too muted though,12,280,20","Looks like a weird blurry heaven again! I dig,32,200,20","Looks like an abandoned building that is being overtaken by nature.,-10,240,20","Nice colors, shapes, flow,31,240,20","i like the delicate wispy part, but overall i don't love it,10,160,20","Bryan","Reminds me of winters in Minnesota.,48,400,20","Nicholas","Nice colors, shapes, flow,31,240,20","Jose","Looks like a weird blurry heaven again! I dig,32,200,20","1"
"2463","","survey-text","225","777910","0.0-223.0-0.0","A271830PNYAI2G","","","","{""Q0"":""table""}","","","","","","","","","","","","","","","","","","","","","","",""
"9190","","survey-text","226","787101","0.0-224.0-0.0","A271830PNYAI2G","","","","{""Q0"":""classic""}","","","","","","","","","","","","","","","","","","","","","","",""
"2841.199999988079","","image-slider-response","227","789945","0.0-225.0","A271830PNYAI2G","","","","","50","","","","","","","","","","","","","","","","","","","","","",""
"null","","image-button-response","228","794950","0.0-226.0","A271830PNYAI2G","img_art/10.jpg","null","","","","","","","","","","","","","","","","","","","","","","","","",""
"644","","image-button-response","229","795600","0.0-227.0","A271830PNYAI2G","img_art/10.jpg","5","","","","","","","","","","","","","","","","","","","","","","","","",""
"362","","image-button-response","230","795966","0.0-228.0-0.0","A271830PNYAI2G","img_art/10.jpg","4","","","","","","","","","","","","","","","","","","","","","","","","",""
"1420","","image-button-response","231","797402","0.0-229.0-0.0","A271830PNYAI2G","img_art/10.jpg","2","","","","","","","","","","","","","","","","","","","","","","","","",""
"null","","html-keyboard-response","232","797905","0.0-230.0","A271830PNYAI2G","<p style=""font-size: 48px;"">+</p>","","","","","null","allTrialResponses","500","1","26","img_art/10.jpg","50","classic","Bryan,Ethan,Jose,Evan,Nicholas,Ryan","First impression was musical instrument then, because of the gray colors, death.,5,400,20","The flow of lines is off. There are curvy and straight angry lines. It's not flattering at all.,-27,120,20","This is pretty rad. The outline looks like a music staff,15,200,20","My immediate thought is WTF is this,-20,140,20","I like it but do not love it. It is sort of depressing,13,240,20","Reminds me of a beautiful ship wreck,36,380,20","Ryan","Reminds me of a beautiful ship wreck,36,380,20","Nicholas","I like it but do not love it. It is sort of depressing,13,240,20","Jose","This is pretty rad. The outline looks like a music staff,15,200,20","1"
"10233","","survey-text","233","808144","0.0-231.0-0.0","A271830PNYAI2G","","","","{""Q0"":""unique""}","","","","","","","","","","","","","","","","","","","","","","",""
"2711.899999976158","","image-slider-response","234","810858","0.0-232.0","A271830PNYAI2G","","","","","50","","","","","","","","","","","","","","","","","","","","","",""
"null","","image-button-response","235","815870","0.0-233.0","A271830PNYAI2G","img_art/15.jpg","null","","","","","","","","","","","","","","","","","","","","","","","","",""
"892","","image-button-response","236","816764","0.0-234.0","A271830PNYAI2G","img_art/15.jpg","3","","","","","","","","","","","","","","","","","","","","","","","","",""
"665","","image-button-response","237","817432","0.0-235.0-0.0","A271830PNYAI2G","img_art/15.jpg","1","","","","","","","","","","","","","","","","","","","","","","","","",""
"2756","","image-button-response","238","820192","0.0-236.0-0.0","A271830PNYAI2G","img_art/15.jpg","2","","","","","","","","","","","","","","","","","","","","","","","","",""
"null","","html-keyboard-response","239","820695","0.0-237.0","A271830PNYAI2G","<p style=""font-size: 48px;"">+</p>","","","","","null","allTrialResponses","500","1","27","img_art/15.jpg","50","unique","Miguel,Alexis,Jose,Mason,Nicholas,Ryan","Simple but not good,-34,160,20","it is dark and gloomy,-9,140,20","black dots too ant-like,-25,200,20","It's ok, it makes me think. That's something I guess.,8,100,20","Not interesting enough. Boring,-37,240,20","It triggers my tripophobia,-50,380,20","Mason","It's ok, it makes me think. That's something I guess.,8,100,20","Alexis","it is dark and gloomy,-9,140,20","Jose","black dots too ant-like,-25,200,20","1"
"5828","","survey-text","240","826534","0.0-238.0-0.0","A271830PNYAI2G","","","","{""Q0"":""mystical""}","","","","","","","","","","","","","","","","","","","","","","",""
"2417.900000035763","","image-slider-response","241","828954","0.0-239.0","A271830PNYAI2G","","","","","50","","","","","","","","","","","","","","","","","","","","","",""
"null","","image-button-response","242","833969","0.0-240.0","A271830PNYAI2G","img_art/28.jpg","null","","","","","","","","","","","","","","","","","","","","","","","","",""
"590","","image-button-response","243","834561","0.0-241.0","A271830PNYAI2G","img_art/28.jpg","5","","","","","","","","","","","","","","","","","","","","","","","","",""
"1475","","image-button-response","244","836038","0.0-242.0-0.0","A271830PNYAI2G","img_art/28.jpg","4","","","","","","","","","","","","","","","","","","","","","","","","",""
"1379","","image-button-response","245","837420","0.0-243.0-0.0","A271830PNYAI2G","img_art/28.jpg","2","","","","","","","","","","","","","","","","","","","","","","","","",""
"null","","html-keyboard-response","246","838932","0.0-244.0","A271830PNYAI2G","<p style=""font-size: 48px;"">+</p>","","","","","null","allTrialResponses","1500","1","28","img_art/28.jpg","50","mystical","Angel,Alexis,Jose,Mason,Zachary,Edward","My immediate reaction was to think of smog. It recalls choking on dirty air.,-20,180,20","The brown and green colors used look dull and unappealing,-30,140,20","Eh it's just kinda brown and muddy and not very nice looking,-18,200,20","bland busy ugly,-31,100,20","Too muted and bland. I like my art to be vivid.,-11,400,20","Salvador Dali called and he thinks this looks pretty good,27,60,20","Edward","Salvador Dali called and he thinks this looks pretty good,27,60,20","Zachary","Too muted and bland. I like my art to be vivid.,-11,400,20","Jose","Eh it's just kinda brown and muddy and not very nice looking,-18,200,20","1"
"11489","","survey-text","247","850429","0.0-245.0-0.0","A271830PNYAI2G","","","","{""Q0"":""surreal""}","","","","","","","","","","","","","","","","","","","","","","",""
"2523.900000035763","","image-slider-response","248","852955","0.0-246.0","A271830PNYAI2G","","","","","50","","","","","","","","","","","","","","","","","","","","","",""
"3004","","image-button-response","249","857958","0.0-247.0","A271830PNYAI2G","img_art/19.jpg","2","","","","","","","","","","","","","","","","","","","","","","","","",""
"718","","image-button-response","250","858678","0.0-248.0","A271830PNYAI2G","img_art/19.jpg","2","","","","","","","","","","","","","","","","","","","","","","","","",""
"580","","image-button-response","251","859260","0.0-249.0-0.0","A271830PNYAI2G","img_art/19.jpg","3","","","","","","","","","","","","","","","","","","","","","","","","",""
"1996","","image-button-response","252","861258","0.0-250.0-0.0","A271830PNYAI2G","img_art/19.jpg","5","","","","","","","","","","","","","","","","","","","","","","","","",""
"null","","html-keyboard-response","253","862775","0.0-251.0","A271830PNYAI2G","<p style=""font-size: 48px;"">+</p>","","","","","null","allTrialResponses","1500","1","29","img_art/19.jpg","50","surreal","Brandon,Blake,Jose,Antonio,Zachary,Edward","Not a fan of the blobbiness,-22,320,20","an old cityfrom many years ago. its ok,6,280,20","I dig the not being able to tell what anything is but knowing everything is supposed to be something,46,200,20","Chaotic. Too much going on in the picture,14,220,20","Reminds me of a busy town. Chaotic in nature.,-11,400,20","It's ok but it's nothing I would hang on my wall,11,60,20","Jose","I dig the not being able to tell what anything is but knowing everything is supposed to be something,46,200,20","Antonio","Chaotic. Too much going on in the picture,14,220,20","Edward","It's ok but it's nothing I would hang on my wall,11,60,20","1"
"8582","","survey-text","254","871368","0.0-252.0-0.0","A271830PNYAI2G","","","","{""Q0"":""passionate""}","","","","","","","","","","","","","","","","","","","","","","",""
"2441.199999988079","","image-slider-response","255","873811","0.0-253.0","A271830PNYAI2G","","","","","50","","","","","","","","","","","","","","","","","","","","","",""
"2825","","image-button-response","256","878825","0.0-254.0","A271830PNYAI2G","img_art/25.jpg","1","","","","","","","","","","","","","","","","","","","","","","","","",""
"387","","image-button-response","257","879215","0.0-255.0","A271830PNYAI2G","img_art/25.jpg","1","","","","","","","","","","","","","","","","","","","","","","","","",""
"452","","image-button-response","258","879670","0.0-256.0-0.0","A271830PNYAI2G","img_art/25.jpg","2","","","","","","","","","","","","","","","","","","","","","","","","",""
"972","","image-button-response","259","880645","0.0-257.0-0.0","A271830PNYAI2G","img_art/25.jpg","5","","","","","","","","","","","","","","","","","","","","","","","","",""
"null","","html-keyboard-response","260","881658","0.0-258.0","A271830PNYAI2G","<p style=""font-size: 48px;"">+</p>","","","","","null","allTrialResponses","1000","1","30","img_art/25.jpg","50","passionate","Patrick,Caleb,Jose,Antonio,Jesse,Edward","Green color is not my thing,-29,280,20","Very cool color, very clear message!,50,40,20","That's pretty awesome. I love the green and black combo, reminds me of one of those cartoon creepy movies,47,200,20","Makes me think of Baphomet, As above so below and is scary,-50,220,20","Creates a bit of fear in me for some reason,-26,80,20","It looks like people worshipping a statue,33,60,20","Caleb","Very cool color, very clear message!,50,40,20","Jose","That's pretty awesome. I love the green and black combo, reminds me of one of those cartoon creepy movies,47,200,20","Edward","It looks like people worshipping a statue,33,60,20","1"
"2873","","image-button-response_instructions","261","884541","0.0-259.0","A271830PNYAI2G","","0","instructions","","","","","","","","","","","","","","","","","","","","","","","",""
"1123","","image-button-response","262","885678","0.0-260.0","A271830PNYAI2G","","0","","","","","","","","","","","","","","","","","","","","","","","","",""
