"rt","url","trial_type","trial_index","time_elapsed","internal_node_id","participant_id","stimulus","button_pressed","Name","responses","response","key_press","variableName","fixationTime","condition","trial","photo","subjectRating","subjectResponse","agentsNames","agent_1_Response","agent_2_Response","agent_3_Response","agent_4_Response","agent_5_Response","agent_6_Response","kept_1_name","kept_1_response","kept_2_name","kept_2_response","kept_3_name","kept_3_response","errorCounter"
"6797","external_page_harvard.html","external-html","0","7027","0.0-0.0","A27EV0216FCLJW","","","","","","","","","","","","","","","","","","","","","","","","","","",""
"2766","","image-button-response","1","9805","0.0-1.0","A27EV0216FCLJW","","0","","","","","","","","","","","","","","","","","","","","","","","","",""
"2639","","image-button-response","2","12463","0.0-2.0-0.0","A27EV0216FCLJW","","1","phone","","","","","","","","","","","","","","","","","","","","","","","",""
"2512","","survey-text","3","14991","0.0-3.0-0.0","A27EV0216FCLJW","","","","{""Q0"":""A27EV0216FCLJW""}","","","","","","","","","","","","","","","","","","","","","","",""
"6661","","image-button-response_instructions","4","21664","0.0-4.0","A27EV0216FCLJW","","0","instructions","","","","","","","","","","","","","","","","","","","","","","","",""
"4640","","image-button-response_instructions","5","26310","0.0-5.0","A27EV0216FCLJW","img_art/ins/popularity/ins1.png","0","instructions","","","","","","","","","","","","","","","","","","","","","","","",""
"1995","","image-button-response_instructions","6","28312","0.0-6.0","A27EV0216FCLJW","img_art/ins/popularity/ins2.png","0","instructions","","","","","","","","","","","","","","","","","","","","","","","",""
"1248","","image-button-response_instructions","7","29572","0.0-7.0","A27EV0216FCLJW","img_art/ins/popularity/ins2Extreme.png","0","instructions","","","","","","","","","","","","","","","","","","","","","","","",""
"1185","","image-button-response_instructions","8","30764","0.0-8.0","A27EV0216FCLJW","img_art/ins/popularity/ins3KEEPpop.PNG","0","instructions","","","","","","","","","","","","","","","","","","","","","","","",""
"1631","","image-button-response_instructions","9","32403","0.0-9.0","A27EV0216FCLJW","img_art/ins/popularity/ins3ANamepop.PNG","0","instructions","","","","","","","","","","","","","","","","","","","","","","","",""
"733","","image-button-response_instructions","10","33141","0.0-10.0","A27EV0216FCLJW","img_art/ins/popularity/ins3ARatingpop.png","0","instructions","","","","","","","","","","","","","","","","","","","","","","","",""
"2649","","image-button-response_instructions","11","35796","0.0-11.0","A27EV0216FCLJW","img_art/ins/popularity/ins3ATextpop.png","0","instructions","","","","","","","","","","","","","","","","","","","","","","","",""
"830","","image-button-response_instructions","12","36634","0.0-12.0","A27EV0216FCLJW","img_art/ins/popularity/ins3ALikespop.png","0","instructions","","","","","","","","","","","","","","","","","","","","","","","",""
"1444","","image-button-response_instructions","13","38086","0.0-13.0","A27EV0216FCLJW","img_art/ins/popularity/ins3KEEPpop.PNG","0","instructions","","","","","","","","","","","","","","","","","","","","","","","",""
"2733","","image-button-response_instructions","14","40825","0.0-14.0","A27EV0216FCLJW","img_art/ins/popularity/ins3_5RED.png","0","instructions","","","","","","","","","","","","","","","","","","","","","","","",""
"1027","","image-button-response_instructions","15","41889","0.0-15.0","A27EV0216FCLJW","img_art/ins/popularity/ins3KEEPpop.PNG","0","instructions","","","","","","","","","","","","","","","","","","","","","","","",""
"1977","","image-button-response_instructions","16","43874","0.0-16.0","A27EV0216FCLJW","img_art/ins/popularity/ins4KEEPpop.PNG","0","instructions","","","","","","","","","","","","","","","","","","","","","","","",""
"1766","","image-button-response_instructions","17","45648","0.0-17.0","A27EV0216FCLJW","img_art/ins/popularity/ins5KEEPpop.PNG","0","instructions","","","","","","","","","","","","","","","","","","","","","","","",""
"946","","image-button-response_instructions","18","46604","0.0-18.0","A27EV0216FCLJW","","0","instructions","","","","","","","","","","","","","","","","","","","","","","","",""
"14351","","survey-text","19","61081","0.0-19.0-0.0","A27EV0216FCLJW","","","","{""Q0"":""but""}","","","","","","","","","","","","","","","","","","","","","","",""
"18351","","survey-text","20","79443","0.0-20.0-0.0","A27EV0216FCLJW","","","","{""Q0"":""Mere scribble""}","","","","","","","","","","","","","","","","","","","","","","",""
"5162.299999999814","","image-slider-response","21","84618","0.0-21.0","A27EV0216FCLJW","","","","","-15","","","","","","","","","","","","","","","","","","","","","",""
"null","","image-button-response","22","89644","0.0-22.0","A27EV0216FCLJW","img_art/ins/1.jpg","null","","","","","","","","","","","","","","","","","","","","","","","","",""
"10055","","image-button-response","23","99712","0.0-23.0","A27EV0216FCLJW","img_art/ins/1.jpg","2","","","","","","","","","","","","","","","","","","","","","","","","",""
"8404","","image-button-response","24","108132","0.0-24.0-0.0","A27EV0216FCLJW","img_art/ins/1.jpg","4","","","","","","","","","","","","","","","","","","","","","","","","",""
"6209","","image-button-response","25","114359","0.0-25.0-0.0","A27EV0216FCLJW","img_art/ins/1.jpg","0","","","","","","","","","","","","","","","","","","","","","","","","",""
"null","","html-keyboard-response","26","114865","0.0-26.0","A27EV0216FCLJW","<p style=""font-size: 48px;"">+</p>","","","","","null","allTrialResponses","500","1","-2","img_art/ins/1.jpg","-15","Mere scribble","Adam,Alex,Ben,Carl,Daniel,Jack","Seems like doodles,-20,20,20","very creative work.,36,40,20","This color reminds me of poo,-46,60,20","very calming artwork,42,80,20","It looks like a murder scene.,-48,100,20","I like the sophisticated brushwork,40,120,20","Ben","This color reminds me of poo,-46,60,20","Daniel","It looks like a murder scene.,-48,100,20","Adam","Seems like doodles,-20,20,20","0"
"15157","","survey-text","27","130077","0.0-27.0-0.0","A27EV0216FCLJW","","","","{""Q0"":""Oddly fascinating""}","","","","","","","","","","","","","","","","","","","","","","",""
"5925.9000000003725","","image-slider-response","28","136013","0.0-28.0","A27EV0216FCLJW","","","","","25","","","","","","","","","","","","","","","","","","","","","",""
"2431","","image-button-response","29","141027","0.0-29.0","A27EV0216FCLJW","img_art/ins/2.jpg","1","","","","","","","","","","","","","","","","","","","","","","","","",""
"135","","image-button-response","30","141183","0.0-30.0","A27EV0216FCLJW","img_art/ins/2.jpg","1","","","","","","","","","","","","","","","","","","","","","","","","",""
"13858","","image-button-response","31","155059","0.0-31.0-0.0","A27EV0216FCLJW","img_art/ins/2.jpg","3","","","","","","","","","","","","","","","","","","","","","","","","",""
"993","","image-button-response","32","156071","0.0-32.0-0.0","A27EV0216FCLJW","img_art/ins/2.jpg","0","","","","","","","","","","","","","","","","","","","","","","","","",""
"null","","html-keyboard-response","33","157076","0.0-33.0","A27EV0216FCLJW","<p style=""font-size: 48px;"">+</p>","","","","","null","allTrialResponses","1000","1","-1","img_art/ins/2.jpg","25","Oddly fascinating","Adam,John,Ben,James,Daniel,Kyle","too much color,-18,20,20","love the texture of paint,48,160,20","meaningless painting,-45,60,20","looks too angry,-50,140,20","One of my pet peevs,-48,100,20","Idk, it is just annoying,-32,180,20","John","love the texture of paint,48,160,20","James","looks too angry,-50,140,20","Adam","too much color,-18,20,20","0"
"13920","","survey-text","34","171016","0.0-34.0-0.0","A27EV0216FCLJW","","","","{""Q0"":""Intense and vibrant""}","","","","","","","","","","","","","","","","","","","","","","",""
"4089.5","","image-slider-response","35","175120","0.0-35.0","A27EV0216FCLJW","","","","","10","","","","","","","","","","","","","","","","","","","","","",""
"3987","","image-button-response","36","180128","0.0-36.0","A27EV0216FCLJW","img_art/ins/3.jpg","1","","","","","","","","","","","","","","","","","","","","","","","","",""
"124","","image-button-response","37","180263","0.0-37.0","A27EV0216FCLJW","img_art/ins/3.jpg","1","","","","","","","","","","","","","","","","","","","","","","","","",""
"749","","image-button-response","38","181029","0.0-38.0-0.0","A27EV0216FCLJW","img_art/ins/3.jpg","2","","","","","","","","","","","","","","","","","","","","","","","","",""
"4145","","image-button-response","39","185189","0.0-39.0-0.0","A27EV0216FCLJW","img_art/ins/3.jpg","5","","","","","","","","","","","","","","","","","","","","","","","","",""
"null","","html-keyboard-response","40","186196","0.0-40.0","A27EV0216FCLJW","<p style=""font-size: 48px;"">+</p>","","","","","null","allTrialResponses","1000","1","0","img_art/ins/3.jpg","10","Intense and vibrant","Adam,John,Mike,James,Ron,Sam","My daily routine, it's depressing,-20,20,20","I like the overlapping of brushes,41,160,20","enjoy the different shades of blue,22,200,20","My worst nightmare,-42,140,20","It looks depressing,-26,220,20","I can feel a rainy day from this painting,18,240,20","John","I like the overlapping of brushes,41,160,20","Mike","enjoy the different shades of blue,22,200,20","Sam","I can feel a rainy day from this painting,18,240,20","0"
"2744","","image-button-response_instructions","41","188972","0.0-41.0","A27EV0216FCLJW","","0","instructions","","","","","","","","","","","","","","","","","","","","","","","",""
"6814","","survey-likert","42","195795","0.0-42.0-0.0","A27EV0216FCLJW","","","","{""Q0"":"""",""Q1"":0,""Q2"":1}","","","","","","","","","","","","","","","","","","","","","","",""
"3470","","survey-text","43","199309","0.0-43.0-0.0","A27EV0216FCLJW","","","","{""Q0"":""rock""}","","","","","","","","","","","","","","","","","","","","","","",""
"21810","","survey-text","44","221126","0.0-44.0-0.0","A27EV0216FCLJW","","","","{""Q0"":""Interesting""}","","","","","","","","","","","","","","","","","","","","","","",""
"7419.299999999814","","image-slider-response","45","228557","0.0-45.0","A27EV0216FCLJW","","","","","15","","","","","","","","","","","","","","","","","","","","","",""
"null","","image-button-response","46","233642","0.0-46.0","A27EV0216FCLJW","img_art/3.jpg","null","","","","","","","","","","","","","","","","","","","","","","","","",""
"1460","","image-button-response","47","235114","0.0-47.0","A27EV0216FCLJW","img_art/3.jpg","2","","","","","","","","","","","","","","","","","","","","","","","","",""
"3594","","image-button-response","48","238730","0.0-48.0-0.0","A27EV0216FCLJW","img_art/3.jpg","5","","","","","","","","","","","","","","","","","","","","","","","","",""
"1954","","image-button-response","49","240701","0.0-49.0-0.0","A27EV0216FCLJW","img_art/3.jpg","3","","","","","","","","","","","","","","","","","","","","","","","","",""
"null","","html-keyboard-response","50","241208","0.0-50.0","A27EV0216FCLJW","<p style=""font-size: 48px;"">+</p>","","","","","null","allTrialResponses","500","1","1","img_art/3.jpg","15","Interesting","Alex,Samuel,Eric,Ethan,Luis,Tristan","Ok, just a bunch of red lines and a grey smudge. Would pass this right by in a gallery,-12,100,20","confusing taking over,-15,400,20","This piece makes me think it has a backstory or a reason which I like.,5,100,20","I usually don't like red. Red in this angry piece is very fitting.,19,120,20","I dont really feel anything from this, i cant see or understand any of it,-20,400,20","i like the colors particulairly the contrast of foreground to background. Exciting and thoughtful.,10,300,20","Eric","This piece makes me think it has a backstory or a reason which I like.,5,100,20","Tristan","i like the colors particulairly the contrast of foreground to background. Exciting and thoughtful.,10,300,20","Ethan","I usually don't like red. Red in this angry piece is very fitting.,19,120,20","0"
"38244","","survey-text","51","279475","0.0-51.0-0.0","A27EV0216FCLJW","","","","{""Q0"":""Abstract""}","","","","","","","","","","","","","","","","","","","","","","",""
"5385","","image-slider-response","52","284867","0.0-52.0","A27EV0216FCLJW","","","","","15","","","","","","","","","","","","","","","","","","","","","",""
"null","","image-button-response","53","289893","0.0-53.0","A27EV0216FCLJW","img_art/2.jpg","null","","","","","","","","","","","","","","","","","","","","","","","","",""
"5805","","image-button-response","54","295720","0.0-54.0","A27EV0216FCLJW","img_art/2.jpg","3","","","","","","","","","","","","","","","","","","","","","","","","",""
"4983","","image-button-response","55","300715","0.0-55.0-0.0","A27EV0216FCLJW","img_art/2.jpg","1","","","","","","","","","","","","","","","","","","","","","","","","",""
"7999","","image-button-response","56","308727","0.0-56.0-0.0","A27EV0216FCLJW","img_art/2.jpg","0","","","","","","","","","","","","","","","","","","","","","","","","",""
"null","","html-keyboard-response","57","309739","0.0-57.0","A27EV0216FCLJW","<p style=""font-size: 48px;"">+</p>","","","","","null","allTrialResponses","1000","1","2","img_art/2.jpg","15","Abstract","Jacob,Shawn,Eric,Ethan,Alexis,Tristan","I don't get the meaning of this piece either.,-13,340,20","The color choices and lines seem a bit sloppy?,-10,100,20","I like the color, but I feel like I see a creepy face which I dislike.,-5,100,20","This looks like a professional abstract drawing. I like the shapes.,7,120,20","The people look blurred together,-21,140,20","The color palette of this painting is for me displeasing and immature.,-30,300,20","Ethan","This looks like a professional abstract drawing. I like the shapes.,7,120,20","Shawn","The color choices and lines seem a bit sloppy?,-10,100,20","Jacob","I don't get the meaning of this piece either.,-13,340,20","0"
"55797","","survey-text","58","365559","0.0-58.0-0.0","A27EV0216FCLJW","","","","{""Q0"":""Looks like actual Hell""}","","","","","","","","","","","","","","","","","","","","","","",""
"3775.600000000559","","image-slider-response","59","369349","0.0-59.0","A27EV0216FCLJW","","","","","10","","","","","","","","","","","","","","","","","","","","","",""
"3907","","image-button-response","60","374358","0.0-60.0","A27EV0216FCLJW","img_art/1.jpg","1","","","","","","","","","","","","","","","","","","","","","","","","",""
"853","","image-button-response","61","375223","0.0-61.0","A27EV0216FCLJW","img_art/1.jpg","1","","","","","","","","","","","","","","","","","","","","","","","","",""
"712","","image-button-response","62","375946","0.0-62.0-0.0","A27EV0216FCLJW","img_art/1.jpg","2","","","","","","","","","","","","","","","","","","","","","","","","",""
"7766","","image-button-response","63","383729","0.0-63.0-0.0","A27EV0216FCLJW","img_art/1.jpg","4","","","","","","","","","","","","","","","","","","","","","","","","",""
"null","","html-keyboard-response","64","384241","0.0-64.0","A27EV0216FCLJW","<p style=""font-size: 48px;"">+</p>","","","","","null","allTrialResponses","500","1","3","img_art/1.jpg","10","Looks like actual Hell","Jacob,Shawn,Bryan,Ethan,Paul,Travis","Looks like the same thing as the last piece shown to me,10,340,20","Powerful colors.,31,100,20","Again, like the colors & abstractness.,29,400,20","This piece feels soft and romantic to me. I do not care for so much orange though.,3,120,20","I like the yellow and purple but the large red spot reminds me of blood and isn't great,6,300,20","I didn't like this too much...I didn't like the red and the jaggedness to it.,-29,260,20","Shawn","Powerful colors.,31,100,20","Bryan","Again, like the colors & abstractness.,29,400,20","Paul","I like the yellow and purple but the large red spot reminds me of blood and isn't great,6,300,20","0"
"54646","","survey-text","65","438907","0.0-65.0-0.0","A27EV0216FCLJW","","","","{""Q0"":""I like the style here - frantic yet soothing""}","","","","","","","","","","","","","","","","","","","","","","",""
"4601.5","","image-slider-response","66","443517","0.0-66.0","A27EV0216FCLJW","","","","","15","","","","","","","","","","","","","","","","","","","","","",""
"null","","image-button-response","67","448530","0.0-67.0","A27EV0216FCLJW","img_art/9.jpg","null","","","","","","","","","","","","","","","","","","","","","","","","",""
"833","","image-button-response","68","449387","0.0-68.0","A27EV0216FCLJW","img_art/9.jpg","3","","","","","","","","","","","","","","","","","","","","","","","","",""
"1554","","image-button-response","69","450965","0.0-69.0-0.0","A27EV0216FCLJW","img_art/9.jpg","4","","","","","","","","","","","","","","","","","","","","","","","","",""
"12873","","image-button-response","70","463860","0.0-70.0-0.0","A27EV0216FCLJW","img_art/9.jpg","5","","","","","","","","","","","","","","","","","","","","","","","","",""
"null","","html-keyboard-response","71","464367","0.0-71.0","A27EV0216FCLJW","<p style=""font-size: 48px;"">+</p>","","","","","null","allTrialResponses","500","1","4","img_art/9.jpg","15","I like the style here - frantic yet soothing","Steven,Shawn,Bryan,Justin,Paul,Victor","I just dont like it, no reaction from me at all,-50,160,20","Cheesy. Looks unprofessional,-20,100,20","Huh?  Doesn't invoke much.,-37,400,20","It reminds me of an illustration for a fairy tale.,19,280,20","I like the greens and blues around the sides and the person reclining in the center makes me feel relaxed,24,300,20","The colors are okay, but this looks like someone scribbled with a crayon,1,340,20","Justin","It reminds me of an illustration for a fairy tale.,19,280,20","Paul","I like the greens and blues around the sides and the person reclining in the center makes me feel relaxed,24,300,20","Victor","The colors are okay, but this looks like someone scribbled with a crayon,1,340,20","0"
"81085","","survey-text","72","545481","0.0-72.0-0.0","A27EV0216FCLJW","","","","{""Q0"":""Neat painting - not sure what it's trying to say though""}","","","","","","","","","","","","","","","","","","","","","","",""
"5078.699999999255","","image-slider-response","73","550578","0.0-73.0","A27EV0216FCLJW","","","","","5","","","","","","","","","","","","","","","","","","","","","",""
"4628","","image-button-response","74","555613","0.0-74.0","A27EV0216FCLJW","img_art/14.jpg","1","","","","","","","","","","","","","","","","","","","","","","","","",""
"505","","image-button-response","75","556133","0.0-75.0","A27EV0216FCLJW","img_art/14.jpg","1","","","","","","","","","","","","","","","","","","","","","","","","",""
"355","","image-button-response","76","556502","0.0-76.0-0.0","A27EV0216FCLJW","img_art/14.jpg","0","","","","","","","","","","","","","","","","","","","","","","","","",""
"2657","","image-button-response","77","559173","0.0-77.0-0.0","A27EV0216FCLJW","img_art/14.jpg","3","","","","","","","","","","","","","","","","","","","","","","","","",""
"null","","html-keyboard-response","78","560183","0.0-78.0","A27EV0216FCLJW","<p style=""font-size: 48px;"">+</p>","","","","","null","allTrialResponses","1000","1","5","img_art/14.jpg","5","Neat painting - not sure what it's trying to say though","John,David,Ian,Justin,Paul,Victor","Beautiful tree,the use of water colors makes it soothing to look at,37,120,20","I like how balanced the piece is with its symmetrical design.,20,340,20","This just looks like a kids watercolor painting.,-30,260,20","The colors are good and the design is intriguing.,15,280,20","Just don't like it, maybe it's the bleeding colors on the left of the tree-looking thing in the center or the faded background,-10,300,20","Meh. Pleasant to look at. Colors are nice,6,340,20","David","I like how balanced the piece is with its symmetrical design.,20,340,20","John","Beautiful tree,the use of water colors makes it soothing to look at,37,120,20","Justin","The colors are good and the design is intriguing.,15,280,20","0"
"3241","","survey-text","79","563461","0.0-79.0-0.0","A27EV0216FCLJW","","","","{""Q0"":""sky""}","","","","","","","","","","","","","","","","","","","","","","",""
"22056","","survey-text","80","585532","0.0-80.0-0.0","A27EV0216FCLJW","","","","{""Q0"":""Gives you a sense of melancholy""}","","","","","","","","","","","","","","","","","","","","","","",""
"8736.299999999814","","image-slider-response","81","594280","0.0-81.0","A27EV0216FCLJW","","","","","25","","","","","","","","","","","","","","","","","","","","","",""
"null","","image-button-response","82","599289","0.0-82.0","A27EV0216FCLJW","img_art/6.jpg","null","","","","","","","","","","","","","","","","","","","","","","","","",""
"6181","","image-button-response","83","605479","0.0-83.0","A27EV0216FCLJW","img_art/6.jpg","1","","","","","","","","","","","","","","","","","","","","","","","","",""
"1284","","image-button-response","84","606774","0.0-84.0-0.0","A27EV0216FCLJW","img_art/6.jpg","0","","","","","","","","","","","","","","","","","","","","","","","","",""
"1503","","image-button-response","85","608293","0.0-85.0-0.0","A27EV0216FCLJW","img_art/6.jpg","0","","","","","","","","","","","","","","","","","","","","","","","","",""
"2286","","image-button-response","86","613122","0.0-85.1-0.1","A27EV0216FCLJW","img_art/6.jpg","3","","","","","","","","","","","","","","","","","","","","","","","","",""
"null","","html-keyboard-response","87","613630","0.0-86.0","A27EV0216FCLJW","<p style=""font-size: 48px;"">+</p>","","","","","null","allTrialResponses","500","1","6","img_art/6.jpg","25","Gives you a sense of melancholy","John,David,Cole,Justin,Derek,Spencer","It makes me stop and think about what the artist is trying to say.It creates a feeling of solitude and tranqulity,30,120,20","I like the simplicity of the piece.,10,340,20","Close up peach? Hate it,-16,200,20","It's alright. I imagined the peach from James and the Giant Peach.,1,280,20","Too basic for me,-20,360,20","Boring, looks like a sad tree in wind,-37,120,20","David","I like the simplicity of the piece.,10,340,20","John","It makes me stop and think about what the artist is trying to say.It creates a feeling of solitude and tranqulity,30,120,20","Justin","It's alright. I imagined the peach from James and the Giant Peach.,1,280,20","2"
"21354","","survey-text","88","635025","0.0-87.0-0.0","A27EV0216FCLJW","","","","{""Q0"":""Looks like a distorted war painting - love it""}","","","","","","","","","","","","","","","","","","","","","","",""
"4793.9000000003725","","image-slider-response","89","639828","0.0-88.0","A27EV0216FCLJW","","","","","35","","","","","","","","","","","","","","","","","","","","","",""
"4051","","image-button-response","90","644836","0.0-89.0","A27EV0216FCLJW","img_art/21.jpg","1","","","","","","","","","","","","","","","","","","","","","","","","",""
"722","","image-button-response","91","645576","0.0-90.0","A27EV0216FCLJW","img_art/21.jpg","0","","","","","","","","","","","","","","","","","","","","","","","","",""
"1864","","image-button-response","92","647455","0.0-91.0-0.0","A27EV0216FCLJW","img_art/21.jpg","1","","","","","","","","","","","","","","","","","","","","","","","","",""
"721","","image-button-response","93","648192","0.0-92.0-0.0","A27EV0216FCLJW","img_art/21.jpg","2","","","","","","","","","","","","","","","","","","","","","","","","",""
"null","","html-keyboard-response","94","648697","0.0-93.0","A27EV0216FCLJW","<p style=""font-size: 48px;"">+</p>","","","","","null","allTrialResponses","500","1","7","img_art/21.jpg","35","Looks like a distorted war painting - love it","John,David,Hunter,Justin,Mark,Anthony","I like the colors that were used and the stark contrast between the two sides,25,120,20","I like how the piece has the possibility of depicting some type of story.,30,340,20","feels like a harbor scene,11,240,20","Alright. I like the colors.,5,280,20","It feels like a day at sea but the pink is slightly jarring and holding my eye.,26,80,20","Bland, this painting is my least favorite,-20,200,20","John","I like the colors that were used and the stark contrast between the two sides,25,120,20","David","I like how the piece has the possibility of depicting some type of story.,30,340,20","Hunter","feels like a harbor scene,11,240,20","2"
"20503","","survey-text","95","669219","0.0-94.0-0.0","A27EV0216FCLJW","","","","{""Q0"":""A tad underwhelming""}","","","","","","","","","","","","","","","","","","","","","","",""
"7108.200000000186","","image-slider-response","96","676340","0.0-95.0","A27EV0216FCLJW","","","","","-20","","","","","","","","","","","","","","","","","","","","","",""
"null","","image-button-response","97","681350","0.0-96.0","A27EV0216FCLJW","img_art/4.jpg","null","","","","","","","","","","","","","","","","","","","","","","","","",""
"643","","image-button-response","98","682011","0.0-97.0","A27EV0216FCLJW","img_art/4.jpg","0","","","","","","","","","","","","","","","","","","","","","","","","",""
"7553","","image-button-response","99","689580","0.0-98.0-0.0","A27EV0216FCLJW","img_art/4.jpg","4","","","","","","","","","","","","","","","","","","","","","","","","",""
"1437","","image-button-response","100","691034","0.0-99.0-0.0","A27EV0216FCLJW","img_art/4.jpg","3","","","","","","","","","","","","","","","","","","","","","","","","",""
"null","","html-keyboard-response","101","692542","0.0-100.0","A27EV0216FCLJW","<p style=""font-size: 48px;"">+</p>","","","","","null","allTrialResponses","1500","1","8","img_art/4.jpg","-20","A tad underwhelming","John,David,Hunter,Brett,Christopher,Zachary","Extremely simple and like not alot of time was put into it,-20,120,20","I like the design. It can be interpreted in various ways, such as a hand of horror or still piece.,15,340,20","appealing warm palette,6,240,20","I just have no clue,26,360,20","too many red/yellow shades, its impact without a reason,-27,160,20","Not a huge fan of the color story, but it reminds me of a child finger-painting.,12,400,20","John","Extremely simple and like not alot of time was put into it,-20,120,20","Christopher","too many red/yellow shades, its impact without a reason,-27,160,20","Brett","I just have no clue,26,360,20","2"
"40480","","survey-text","102","733046","0.0-101.0-0.0","A27EV0216FCLJW","","","","{""Q0"":""Don't see much here""}","","","","","","","","","","","","","","","","","","","","","","",""
"5318.5999999996275","","image-slider-response","103","738375","0.0-102.0","A27EV0216FCLJW","","","","","-15","","","","","","","","","","","","","","","","","","","","","",""
"3676","","image-button-response","104","743392","0.0-103.0","A27EV0216FCLJW","img_art/22.jpg","0","","","","","","","","","","","","","","","","","","","","","","","","",""
"170","","image-button-response","105","743569","0.0-104.0","A27EV0216FCLJW","img_art/22.jpg","0","","","","","","","","","","","","","","","","","","","","","","","","",""
"1695","","image-button-response","106","745275","0.0-105.0-0.0","A27EV0216FCLJW","img_art/22.jpg","2","","","","","","","","","","","","","","","","","","","","","","","","",""
"4471","","image-button-response","107","749765","0.0-106.0-0.0","A27EV0216FCLJW","img_art/22.jpg","5","","","","","","","","","","","","","","","","","","","","","","","","",""
"null","","html-keyboard-response","108","750270","0.0-107.0","A27EV0216FCLJW","<p style=""font-size: 48px;"">+</p>","","","","","null","allTrialResponses","500","1","9","img_art/22.jpg","-15","Don't see much here","John,Colton,Richard,Brett,Christopher,Juan","Its okay,it doesnt make me feel any sort of strong emotion,1,120,20","I enjoy the colors used,24,220,20","another OK work, mostly because of the blend of colors,12,340,20","Climate change in a big city,35,360,20","boring, too many red and yellow tones for my taste,-15,160,20","I don't like the colors or the way they've been arranged.,-20,260,20","John","Its okay,it doesnt make me feel any sort of strong emotion,1,120,20","Richard","another OK work, mostly because of the blend of colors,12,340,20","Juan","I don't like the colors or the way they've been arranged.,-20,260,20","2"
"58881","","survey-text","109","809188","0.0-108.0-0.0","A27EV0216FCLJW","","","","{""Q0"":""I like the unique style to this work - an attention to detail and captivating""}","","","","","","","","","","","","","","","","","","","","","","",""
"6946.700000000186","","image-slider-response","110","816144","0.0-109.0","A27EV0216FCLJW","","","","","40","","","","","","","","","","","","","","","","","","","","","",""
"null","","image-button-response","111","821155","0.0-110.0","A27EV0216FCLJW","img_art/10.jpg","null","","","","","","","","","","","","","","","","","","","","","","","","",""
"656","","image-button-response","112","821823","0.0-111.0","A27EV0216FCLJW","img_art/10.jpg","5","","","","","","","","","","","","","","","","","","","","","","","","",""
"1019","","image-button-response","113","822858","0.0-112.0-0.0","A27EV0216FCLJW","img_art/10.jpg","4","","","","","","","","","","","","","","","","","","","","","","","","",""
"1015","","image-button-response","114","823886","0.0-113.0-0.0","A27EV0216FCLJW","img_art/10.jpg","3","","","","","","","","","","","","","","","","","","","","","","","","",""
"null","","html-keyboard-response","115","824895","0.0-114.0","A27EV0216FCLJW","<p style=""font-size: 48px;"">+</p>","","","","","null","allTrialResponses","1000","1","10","img_art/10.jpg","40","I like the unique style to this work - an attention to detail and captivating","John,Marcus,Richard,Joshua,Isaac,Juan","Bleak and uninteresting,-10,120,20","This makes me think of a city, specifically London.,20,60,20","interesting portrayal of a violin?,10,340,20","This one is interesting. I like it.,11,240,20","It looks intricate.,15,280,20","It's interesting and my eyes keep being drawn to different parts of the picture.,11,260,20","Juan","It's interesting and my eyes keep being drawn to different parts of the picture.,11,260,20","Isaac","It looks intricate.,15,280,20","Joshua","This one is interesting. I like it.,11,240,20","2"
"2776","","survey-text","116","827723","0.0-115.0-0.0","A27EV0216FCLJW","","","","{""Q0"":""our""}","","","","","","","","","","","","","","","","","","","","","","",""
"28666","","survey-text","117","856400","0.0-116.0-0.0","A27EV0216FCLJW","","","","{""Q0"":""I can appreciate the absurdity to this work""}","","","","","","","","","","","","","","","","","","","","","","",""
"3897.7000000001863","","image-slider-response","118","860307","0.0-117.0","A27EV0216FCLJW","","","","","20","","","","","","","","","","","","","","","","","","","","","",""
"4892","","image-button-response","119","865320","0.0-118.0","A27EV0216FCLJW","img_art/16.jpg","0","","","","","","","","","","","","","","","","","","","","","","","","",""
"877","","image-button-response","120","866211","0.0-119.0","A27EV0216FCLJW","img_art/16.jpg","0","","","","","","","","","","","","","","","","","","","","","","","","",""
"3843","","image-button-response","121","870071","0.0-120.0-0.0","A27EV0216FCLJW","img_art/16.jpg","4","","","","","","","","","","","","","","","","","","","","","","","","",""
"1035","","image-button-response","122","871131","0.0-121.0-0.0","A27EV0216FCLJW","img_art/16.jpg","3","","","","","","","","","","","","","","","","","","","","","","","","",""
"null","","html-keyboard-response","123","871635","0.0-122.0","A27EV0216FCLJW","<p style=""font-size: 48px;"">+</p>","","","","","null","allTrialResponses","500","1","11","img_art/16.jpg","20","I can appreciate the absurdity to this work","Jonathan,Dakota,Cameron,Joshua,Isaac,Juan","It's a little anxiety inducing in a good way,16,140,20","depressing and confrontational,-9,280,20","Don't like teddy bears in art. I could draw that house.,-20,60,20","This is weird and a little creepy.,6,240,20","I wouldn't hang it up on my wall but I like the colors of the bear.,25,280,20","This is too bizarre.,-39,260,20","Jonathan","It's a little anxiety inducing in a good way,16,140,20","Isaac","I wouldn't hang it up on my wall but I like the colors of the bear.,25,280,20","Joshua","This is weird and a little creepy.,6,240,20","2"
"37198","","survey-text","124","908853","0.0-123.0-0.0","A27EV0216FCLJW","","","","{""Q0"":""This is something I would definitely hang up on my wall - brilliant work""}","","","","","","","","","","","","","","","","","","","","","","",""
"3574","","image-slider-response","125","912436","0.0-124.0","A27EV0216FCLJW","","","","","50","","","","","","","","","","","","","","","","","","","","","",""
"4406","","image-button-response","126","917446","0.0-125.0","A27EV0216FCLJW","img_art/18.jpg","0","","","","","","","","","","","","","","","","","","","","","","","","",""
"763","","image-button-response","127","918220","0.0-126.0","A27EV0216FCLJW","img_art/18.jpg","0","","","","","","","","","","","","","","","","","","","","","","","","",""
"666","","image-button-response","128","918896","0.0-127.0-0.0","A27EV0216FCLJW","img_art/18.jpg","2","","","","","","","","","","","","","","","","","","","","","","","","",""
"5038","","image-button-response","129","923958","0.0-128.0-0.0","A27EV0216FCLJW","img_art/18.jpg","5","","","","","","","","","","","","","","","","","","","","","","","","",""
"null","","html-keyboard-response","130","924465","0.0-129.0","A27EV0216FCLJW","<p style=""font-size: 48px;"">+</p>","","","","","null","allTrialResponses","500","1","12","img_art/18.jpg","50","This is something I would definitely hang up on my wall - brilliant work","Jonathan,Elijah,Jose,Joshua,Isaac,Vincent","There's danger in this painting and it's awesome,40,140,20","Makes me feel confused,16,80,20","Ok this is really badass. Like a warrior come to the last battle,50,200,20","Looks like ghost figures on a boat. It's okay.,7,240,20","I like the detail but I wouldn't hang this up on my wall.,14,280,20","Very conversational and can see many different looks and feels from this .,34,360,20","Jonathan","There's danger in this painting and it's awesome,40,140,20","Jose","Ok this is really badass. Like a warrior come to the last battle,50,200,20","Vincent","Very conversational and can see many different looks and feels from this .,34,360,20","2"
"24802","","survey-text","131","949301","0.0-130.0-0.0","A27EV0216FCLJW","","","","{""Q0"":""Looks like a photo of Mars' surface - interesting""}","","","","","","","","","","","","","","","","","","","","","","",""
"5366.5999999996275","","image-slider-response","132","954688","0.0-131.0","A27EV0216FCLJW","","","","","0","","","","","","","","","","","","","","","","","","","","","",""
"null","","image-button-response","133","959700","0.0-132.0","A27EV0216FCLJW","img_art/7.jpg","null","","","","","","","","","","","","","","","","","","","","","","","","",""
"605","","image-button-response","134","960316","0.0-133.0","A27EV0216FCLJW","img_art/7.jpg","0","","","","","","","","","","","","","","","","","","","","","","","","",""
"6806","","image-button-response","135","967138","0.0-134.0-0.0","A27EV0216FCLJW","img_art/7.jpg","3","","","","","","","","","","","","","","","","","","","","","","","","",""
"605","","image-button-response","136","967761","0.0-135.0-0.0","A27EV0216FCLJW","img_art/7.jpg","4","","","","","","","","","","","","","","","","","","","","","","","","",""
"null","","html-keyboard-response","137","969270","0.0-136.0","A27EV0216FCLJW","<p style=""font-size: 48px;"">+</p>","","","","","null","allTrialResponses","1500","1","13","img_art/7.jpg","0","Looks like a photo of Mars' surface - interesting","Jonathan,Dalton,Jose,Blake,Austin,Vincent","Looks like the surface of mars,29,140,20","i dont like it. it looks like rocks,-40,300,20","Reminds me of bugs, I hate bugs,-7,200,20","hot desert with big rocks.,-19,280,20","The picture is just random,-8,240,20","One I would love to own . Calm relaxing spiritual and full of love,41,360,20","Jonathan","Looks like the surface of mars,29,140,20","Blake","hot desert with big rocks.,-19,280,20","Austin","The picture is just random,-8,240,20","2"
"21811","","survey-text","138","991124","0.0-137.0-0.0","A27EV0216FCLJW","","","","{""Q0"":""I like the serenity to this work - peaceful and soothing""}","","","","","","","","","","","","","","","","","","","","","","",""
"5587.5999999996275","","image-slider-response","139","996722","0.0-138.0","A27EV0216FCLJW","","","","","25","","","","","","","","","","","","","","","","","","","","","",""
"4521","","image-button-response","140","1001729","0.0-139.0","A27EV0216FCLJW","img_art/24.jpg","0","","","","","","","","","","","","","","","","","","","","","","","","",""
"504","","image-button-response","141","1002247","0.0-140.0","A27EV0216FCLJW","img_art/24.jpg","0","","","","","","","","","","","","","","","","","","","","","","","","",""
"574","","image-button-response","142","1002832","0.0-141.0-0.0","A27EV0216FCLJW","img_art/24.jpg","2","","","","","","","","","","","","","","","","","","","","","","","","",""
"5807","","image-button-response","143","1008657","0.0-142.0-0.0","A27EV0216FCLJW","img_art/24.jpg","3","","","","","","","","","","","","","","","","","","","","","","","","",""
"null","","html-keyboard-response","144","1009665","0.0-143.0","A27EV0216FCLJW","<p style=""font-size: 48px;"">+</p>","","","","","null","allTrialResponses","1000","1","14","img_art/24.jpg","25","I like the serenity to this work - peaceful and soothing","Jonathan,Jared,Nathan,Blake,Austin,Kyle","The colors and brush strokes make it feel adventurous,20,140,20","i like that the water seems in motion,6,400,20","Looks like a mystical type of forest/waterfall. Love it,40,200,20","warm spring day after a rain. soft,20,280,20","Evokes pleasant feelings,50,240,20","This one is nice because it reminds me of nature,18,340,20","Jonathan","The colors and brush strokes make it feel adventurous,20,140,20","Nathan","Looks like a mystical type of forest/waterfall. Love it,40,200,20","Blake","warm spring day after a rain. soft,20,280,20","2"
"48526","","survey-text","145","1058230","0.0-144.0-0.0","A27EV0216FCLJW","","","","{""Q0"":""Not sure how I feel about this one... not much to take away from it""}","","","","","","","","","","","","","","","","","","","","","","",""
"3940.5","","image-slider-response","146","1062179","0.0-145.0","A27EV0216FCLJW","","","","","-15","","","","","","","","","","","","","","","","","","","","","",""
"null","","image-button-response","147","1067199","0.0-146.0","A27EV0216FCLJW","img_art/13.jpg","null","","","","","","","","","","","","","","","","","","","","","","","","",""
"5158","","image-button-response","148","1072376","0.0-147.0","A27EV0216FCLJW","img_art/13.jpg","3","","","","","","","","","","","","","","","","","","","","","","","","",""
"3099","","image-button-response","149","1075484","0.0-148.0-0.0","A27EV0216FCLJW","img_art/13.jpg","0","","","","","","","","","","","","","","","","","","","","","","","","",""
"1146","","image-button-response","150","1076641","0.0-149.0-0.0","A27EV0216FCLJW","img_art/13.jpg","2","","","","","","","","","","","","","","","","","","","","","","","","",""
"null","","html-keyboard-response","151","1078152","0.0-150.0","A27EV0216FCLJW","<p style=""font-size: 48px;"">+</p>","","","","","null","allTrialResponses","1500","1","15","img_art/13.jpg","-15","Not sure how I feel about this one... not much to take away from it","Jonathan,Stephen,Nathan,Blake,Jesse,Tanner","It's pretty basic but it makes me feel like I'm looking at the ocean,30,140,20","Like how realistic it looks.,33,140,20","While it is a bit basic and doesn't speak to me much, I like the feeling it gives,40,200,20","warm splash of salt water from ocean,16,280,20","Really like this. Its like looking out a window into a beautiful storm,39,80,20","happy, serenity,30,180,20","Blake","warm splash of salt water from ocean,16,280,20","Jonathan","It's pretty basic but it makes me feel like I'm looking at the ocean,30,140,20","Nathan","While it is a bit basic and doesn't speak to me much, I like the feeling it gives,40,200,20","2"
"3150","","survey-text","152","1081352","0.0-151.0-0.0","A27EV0216FCLJW","","","","{""Q0"":""course""}","","","","","","","","","","","","","","","","","","","","","","",""
"40998","","survey-text","153","1122358","0.0-152.0-0.0","A27EV0216FCLJW","","","","{""Q0"":""Eh, a bit clunky and disorderly - interesting, though""}","","","","","","","","","","","","","","","","","","","","","","",""
"4749.5","","image-slider-response","154","1127120","0.0-153.0","A27EV0216FCLJW","","","","","-5","","","","","","","","","","","","","","","","","","","","","",""
"4636","","image-button-response","155","1132131","0.0-154.0","A27EV0216FCLJW","img_art/26.jpg","5","","","","","","","","","","","","","","","","","","","","","","","","",""
"710","","image-button-response","156","1132867","0.0-155.0","A27EV0216FCLJW","img_art/26.jpg","4","","","","","","","","","","","","","","","","","","","","","","","","",""
"565","","image-button-response","157","1133447","0.0-156.0-0.0","A27EV0216FCLJW","img_art/26.jpg","5","","","","","","","","","","","","","","","","","","","","","","","","",""
"3064","","image-button-response","158","1136527","0.0-157.0-0.0","A27EV0216FCLJW","img_art/26.jpg","0","","","","","","","","","","","","","","","","","","","","","","","","",""
"null","","html-keyboard-response","159","1137036","0.0-158.0","A27EV0216FCLJW","<p style=""font-size: 48px;"">+</p>","","","","","null","allTrialResponses","500","1","16","img_art/26.jpg","-5","Eh, a bit clunky and disorderly - interesting, though","Jonathan,Bradley,Nathan,Blake,Nathaniel,Sean","It's relaxing to look at but I wish it was just a little more defined,20,140,20","I like this. Looks like a city street and I can use my imagination to make it come alive.,15,300,20","It's a little too yellow-y for me, I'm not a huge fan of the color schemes or setting it portrays.,-20,200,20","bedroom in the outdoors. warm,9,280,20","Too blocky and unfocused. It's like the inside of a house, and the outside.,-24,220,20","picture looks alright,1,40,20","Nathaniel","Too blocky and unfocused. It's like the inside of a house, and the outside.,-24,220,20","Sean","picture looks alright,1,40,20","Jonathan","It's relaxing to look at but I wish it was just a little more defined,20,140,20","2"
"58183","","survey-text","160","1195249","0.0-159.0-0.0","A27EV0216FCLJW","","","","{""Q0"":""Don't see much here - kind of meaningless""}","","","","","","","","","","","","","","","","","","","","","","",""
"5932.0999999996275","","image-slider-response","161","1201199","0.0-160.0","A27EV0216FCLJW","","","","","-35","","","","","","","","","","","","","","","","","","","","","",""
"null","","image-button-response","162","1206208","0.0-161.0","A27EV0216FCLJW","img_art/5.jpg","null","","","","","","","","","","","","","","","","","","","","","","","","",""
"425","","image-button-response","163","1206645","0.0-162.0","A27EV0216FCLJW","img_art/5.jpg","4","","","","","","","","","","","","","","","","","","","","","","","","",""
"7864","","image-button-response","164","1214531","0.0-163.0-0.0","A27EV0216FCLJW","img_art/5.jpg","3","","","","","","","","","","","","","","","","","","","","","","","","",""
"1061","","image-button-response","165","1215608","0.0-164.0-0.0","A27EV0216FCLJW","img_art/5.jpg","5","","","","","","","","","","","","","","","","","","","","","","","","",""
"null","","html-keyboard-response","166","1217113","0.0-165.0","A27EV0216FCLJW","<p style=""font-size: 48px;"">+</p>","","","","","null","allTrialResponses","1500","1","17","img_art/5.jpg","-35","Don't see much here - kind of meaningless","Jonathan,James,Mitchell,Jesus,Nathaniel,Sean","I hate the shapes,-30,140,20","Very bright and has colors you wouldn't think would go together,11,380,20","Building remnants in the sand.,1,180,20","Overpowering colors.,-26,100,20","Not sure what that even is. Looks like a 2-year old drawing,-40,220,20","the picture looks ok,8,40,20","Nathaniel","Not sure what that even is. Looks like a 2-year old drawing,-40,220,20","Jesus","Overpowering colors.,-26,100,20","Sean","the picture looks ok,8,40,20","2"
"16063","","survey-text","167","1233200","0.0-166.0-0.0","A27EV0216FCLJW","","","","{""Q0"":""Love it - lots of detail and depth""}","","","","","","","","","","","","","","","","","","","","","","",""
"3448.0999999996275","","image-slider-response","168","1236661","0.0-167.0","A27EV0216FCLJW","","","","","50","","","","","","","","","","","","","","","","","","","","","",""
"null","","image-button-response","169","1241670","0.0-168.0","A27EV0216FCLJW","img_art/17.jpg","null","","","","","","","","","","","","","","","","","","","","","","","","",""
"1639","","image-button-response","170","1243326","0.0-169.0","A27EV0216FCLJW","img_art/17.jpg","1","","","","","","","","","","","","","","","","","","","","","","","","",""
"416","","image-button-response","171","1243761","0.0-170.0-0.0","A27EV0216FCLJW","img_art/17.jpg","0","","","","","","","","","","","","","","","","","","","","","","","","",""
"938","","image-button-response","172","1244713","0.0-171.0-0.0","A27EV0216FCLJW","img_art/17.jpg","4","","","","","","","","","","","","","","","","","","","","","","","","",""
"null","","html-keyboard-response","173","1246221","0.0-172.0","A27EV0216FCLJW","<p style=""font-size: 48px;"">+</p>","","","","","null","allTrialResponses","1500","1","18","img_art/17.jpg","50","Love it - lots of detail and depth","Dylan,Brandon,Ryan,Jesus,Nathaniel,Sean","This is very beautiful and elegant.,42,40,20","Love the color and nature motif,36,320,20","Feels supernatural and scary,-16,380,20","Very fun textures,32,100,20","I like the artistic sketching pattern.,24,220,20","my response to the picture is that it looks beautiful,27,40,20","Brandon","Love the color and nature motif,36,320,20","Dylan","This is very beautiful and elegant.,42,40,20","Nathaniel","I like the artistic sketching pattern.,24,220,20","2"
"38909","","survey-text","174","1285171","0.0-173.0-0.0","A27EV0216FCLJW","","","","{""Q0"":""What the city looks like when you haven't had your morning coffee yet - neat artwork""}","","","","","","","","","","","","","","","","","","","","","","",""
"4511.5999999996275","","image-slider-response","175","1289692","0.0-174.0","A27EV0216FCLJW","","","","","15","","","","","","","","","","","","","","","","","","","","","",""
"null","","image-button-response","176","1294709","0.0-175.0","A27EV0216FCLJW","img_art/19.jpg","null","","","","","","","","","","","","","","","","","","","","","","","","",""
"2242","","image-button-response","177","1296968","0.0-176.0","A27EV0216FCLJW","img_art/19.jpg","5","","","","","","","","","","","","","","","","","","","","","","","","",""
"2311","","image-button-response","178","1299301","0.0-177.0-0.0","A27EV0216FCLJW","img_art/19.jpg","3","","","","","","","","","","","","","","","","","","","","","","","","",""
"7851","","image-button-response","179","1307171","0.0-178.0-0.0","A27EV0216FCLJW","img_art/19.jpg","1","","","","","","","","","","","","","","","","","","","","","","","","",""
"null","","html-keyboard-response","180","1308678","0.0-179.0","A27EV0216FCLJW","<p style=""font-size: 48px;"">+</p>","","","","","null","allTrialResponses","1500","1","19","img_art/19.jpg","15","What the city looks like when you haven't had your morning coffee yet - neat artwork","Dylan,Brandon,Jason,Grant,Nathaniel,Adrian","This photo has too much going on.,-19,40,20","Not a fan of the blobbiness,-22,320,20","The picture contains a lot of brown and weird drips,-4,20,20","It's a cute city scene, but nothing special.,10,200,20","Horrible. Squiggly lines everywhere.,-50,220,20","Pleasant colors with just enough detail to be recognizable. I can see a scene in it that tells a story.,7,60,20","Adrian","Pleasant colors with just enough detail to be recognizable. I can see a scene in it that tells a story.,7,60,20","Grant","It's a cute city scene, but nothing special.,10,200,20","Brandon","Not a fan of the blobbiness,-22,320,20","2"
"37995","","survey-text","181","1346708","0.0-180.0-0.0","A27EV0216FCLJW","","","","{""Q0"":""I like the intensity to this work as well as the color scheme""}","","","","","","","","","","","","","","","","","","","","","","",""
"5737.800000000745","","image-slider-response","182","1352455","0.0-181.0","A27EV0216FCLJW","","","","","25","","","","","","","","","","","","","","","","","","","","","",""
"null","","image-button-response","183","1357469","0.0-182.0","A27EV0216FCLJW","img_art/25.jpg","null","","","","","","","","","","","","","","","","","","","","","","","","",""
"1347","","image-button-response","184","1358836","0.0-183.0","A27EV0216FCLJW","img_art/25.jpg","5","","","","","","","","","","","","","","","","","","","","","","","","",""
"1181","","image-button-response","185","1360028","0.0-184.0-0.0","A27EV0216FCLJW","img_art/25.jpg","3","","","","","","","","","","","","","","","","","","","","","","","","",""
"1521","","image-button-response","186","1361566","0.0-185.0-0.0","A27EV0216FCLJW","img_art/25.jpg","1","","","","","","","","","","","","","","","","","","","","","","","","",""
"null","","html-keyboard-response","187","1362081","0.0-186.0","A27EV0216FCLJW","<p style=""font-size: 48px;"">+</p>","","","","","null","allTrialResponses","500","1","20","img_art/25.jpg","25","I like the intensity to this work as well as the color scheme","Miguel,Brandon,Cody,Grant,Tyler,Adrian","This is too simple,-22,160,20","Reminds me of cave drawings,21,320,20","Like the colors and the figure,30,180,20","I feel like I'm looking at something larger than myself.,30,200,20","Meh. Hardly abstract, though.,-40,320,20","This piece makes me think of oppression and fighting it. Makes me feel calm, sad and strong.,11,60,20","Adrian","This piece makes me think of oppression and fighting it. Makes me feel calm, sad and strong.,11,60,20","Grant","I feel like I'm looking at something larger than myself.,30,200,20","Brandon","Reminds me of cave drawings,21,320,20","2"
"2173","","survey-text","188","1364294","0.0-187.0-0.0","A27EV0216FCLJW","","","","{""Q0"":""we""}","","","","","","","","","","","","","","","","","","","","","","",""
"38609","","survey-text","189","1402910","0.0-188.0-0.0","A27EV0216FCLJW","","","","{""Q0"":""This is amazing - would definitely want to own this artwork""}","","","","","","","","","","","","","","","","","","","","","","",""
"2697.4000000003725","","image-slider-response","190","1405618","0.0-189.0","A27EV0216FCLJW","","","","","50","","","","","","","","","","","","","","","","","","","","","",""
"null","","image-button-response","191","1410629","0.0-190.0","A27EV0216FCLJW","img_art/8.jpg","null","","","","","","","","","","","","","","","","","","","","","","","","",""
"801","","image-button-response","192","1411443","0.0-191.0","A27EV0216FCLJW","img_art/8.jpg","2","","","","","","","","","","","","","","","","","","","","","","","","",""
"3147","","image-button-response","193","1414614","0.0-192.0-0.0","A27EV0216FCLJW","img_art/8.jpg","5","","","","","","","","","","","","","","","","","","","","","","","","",""
"2665","","image-button-response","194","1417299","0.0-193.0-0.0","A27EV0216FCLJW","img_art/8.jpg","3","","","","","","","","","","","","","","","","","","","","","","","","",""
"null","","html-keyboard-response","195","1418804","0.0-194.0","A27EV0216FCLJW","<p style=""font-size: 48px;"">+</p>","","","","","null","allTrialResponses","1500","1","21","img_art/8.jpg","50","This is amazing - would definitely want to own this artwork","Patrick,Brandon,Kenneth,Grant,Benjamin,Adrian","Very interesting use of blocks,21,280,20","Reminds me of old 80s fantasy book covers. Nostalgic,23,320,20","Interesting, i really like the face and the moon. Realy detailed and you see something new with each look.,11,300,20","The stylized faces remind me of German expressionism in a very good way.,40,200,20","Very colorful. Looks like the hustle and bustle of a city.,11,260,20","Pleasant colors, lots of interest. Not sure what's going on but I like it.,20,60,20","Kenneth","Interesting, i really like the face and the moon. Realy detailed and you see something new with each look.,11,300,20","Adrian","Pleasant colors, lots of interest. Not sure what's going on but I like it.,20,60,20","Grant","The stylized faces remind me of German expressionism in a very good way.,40,200,20","2"
"40999","","survey-text","196","1459844","0.0-195.0-0.0","A27EV0216FCLJW","","","","{""Q0"":""Portrays the bleakness of the city in a captivating way""}","","","","","","","","","","","","","","","","","","","","","","",""
"3620.5","","image-slider-response","197","1463473","0.0-196.0","A27EV0216FCLJW","","","","","20","","","","","","","","","","","","","","","","","","","","","",""
"3142","","image-button-response","198","1468484","0.0-197.0","A27EV0216FCLJW","img_art/11.jpg","1","","","","","","","","","","","","","","","","","","","","","","","","",""
"414","","image-button-response","199","1468924","0.0-198.0","A27EV0216FCLJW","img_art/11.jpg","1","","","","","","","","","","","","","","","","","","","","","","","","",""
"1709","","image-button-response","200","1470649","0.0-199.0-0.0","A27EV0216FCLJW","img_art/11.jpg","4","","","","","","","","","","","","","","","","","","","","","","","","",""
"2320","","image-button-response","201","1472987","0.0-200.0-0.0","A27EV0216FCLJW","img_art/11.jpg","2","","","","","","","","","","","","","","","","","","","","","","","","",""
"null","","html-keyboard-response","202","1473994","0.0-201.0","A27EV0216FCLJW","<p style=""font-size: 48px;"">+</p>","","","","","null","allTrialResponses","1000","1","22","img_art/11.jpg","20","Portrays the bleakness of the city in a captivating way","Alexander,Matthew,Kenneth,Grant,Jack,Adrian","Waves of signs.,15,120,20","Dark but bright, city but ocean, musical scales.,50,120,20","Its a little psychedelic.,10,300,20","This elicits no reaction in me.,0,200,20","makes me think of city highways & bridges on a rainy, foggy day. I like the melancholy it evokes.,43,320,20","Not a fan of the colors but it looks interesting.,-31,60,20","Matthew","Dark but bright, city but ocean, musical scales.,50,120,20","Jack","makes me think of city highways & bridges on a rainy, foggy day. I like the melancholy it evokes.,43,320,20","Kenneth","Its a little psychedelic.,10,300,20","2"
"33560","","survey-text","203","1507593","0.0-202.0-0.0","A27EV0216FCLJW","","","","{""Q0"":""Eh, don't have much of an opinion on this""}","","","","","","","","","","","","","","","","","","","","","","",""
"3293.5999999996275","","image-slider-response","204","1510904","0.0-203.0","A27EV0216FCLJW","","","","","-5","","","","","","","","","","","","","","","","","","","","","",""
"4608","","image-button-response","205","1515918","0.0-204.0","A27EV0216FCLJW","img_art/27.jpg","2","","","","","","","","","","","","","","","","","","","","","","","","",""
"722","","image-button-response","206","1516655","0.0-205.0","A27EV0216FCLJW","img_art/27.jpg","2","","","","","","","","","","","","","","","","","","","","","","","","",""
"1392","","image-button-response","207","1518066","0.0-206.0-0.0","A27EV0216FCLJW","img_art/27.jpg","5","","","","","","","","","","","","","","","","","","","","","","","","",""
"1615","","image-button-response","208","1519697","0.0-207.0-0.0","A27EV0216FCLJW","img_art/27.jpg","4","","","","","","","","","","","","","","","","","","","","","","","","",""
"null","","html-keyboard-response","209","1520705","0.0-208.0","A27EV0216FCLJW","<p style=""font-size: 48px;"">+</p>","","","","","null","allTrialResponses","1000","1","23","img_art/27.jpg","-5","Eh, don't have much of an opinion on this","Jeremy,Matthew,Kenneth,Shane,Jack,Scott","Pleased. Reminds me of a child drawing,46,60,20","Lots of activity, layers, imagination at work here.,29,120,20","The green stick drawings or whatever they are ruin it for me.,-23,300,20","Makes me feel warm inside,21,80,20","the green & white scribbles feel childlike. perhaps the quality of the photo, but the colors are gloomy.,-13,320,20","again looks like childrens artwork,-40,20,20","Kenneth","The green stick drawings or whatever they are ruin it for me.,-23,300,20","Scott","again looks like childrens artwork,-40,20,20","Jack","the green & white scribbles feel childlike. perhaps the quality of the photo, but the colors are gloomy.,-13,320,20","2"
"37708","","survey-text","210","1558447","0.0-209.0-0.0","A27EV0216FCLJW","","","","{""Q0"":""I like how hectic this artwork is - fascinating stuff ""}","","","","","","","","","","","","","","","","","","","","","","",""
"3153.10000000149","","image-slider-response","211","1561612","0.0-210.0","A27EV0216FCLJW","","","","","10","","","","","","","","","","","","","","","","","","","","","",""
"null","","image-button-response","212","1566620","0.0-211.0","A27EV0216FCLJW","img_art/28.jpg","null","","","","","","","","","","","","","","","","","","","","","","","","",""
"1040","","image-button-response","213","1567675","0.0-212.0","A27EV0216FCLJW","img_art/28.jpg","4","","","","","","","","","","","","","","","","","","","","","","","","",""
"2441","","image-button-response","214","1570128","0.0-213.0-0.0","A27EV0216FCLJW","img_art/28.jpg","3","","","","","","","","","","","","","","","","","","","","","","","","",""
"1153","","image-button-response","215","1571297","0.0-214.0-0.0","A27EV0216FCLJW","img_art/28.jpg","0","","","","","","","","","","","","","","","","","","","","","","","","",""
"null","","html-keyboard-response","216","1572805","0.0-215.0","A27EV0216FCLJW","<p style=""font-size: 48px;"">+</p>","","","","","null","allTrialResponses","1500","1","24","img_art/28.jpg","10","I like how hectic this artwork is - fascinating stuff ","Kevin,Aaron,Kenneth,Joseph,Jack,Scott","Looks like some guys in s band playing at a busy park.,18,320,20","It's drab and looks like stereotypical abstract art.,-30,20,20","This one is too bleak, not a fan of the image or colors.,-28,300,20","Don't love it, don't hate it. It's just there.,1,220,20","looks like humanoid figures in distress. I like it, but makes me slightly uncomfortable,35,320,20","I don't like the color choice,-30,20,20","Jack","looks like humanoid figures in distress. I like it, but makes me slightly uncomfortable,35,320,20","Joseph","Don't love it, don't hate it. It's just there.,1,220,20","Kevin","Looks like some guys in s band playing at a busy park.,18,320,20","2"
"32391","","survey-text","217","1605260","0.0-216.0-0.0","A27EV0216FCLJW","","","","{""Q0"":""Can't look away - neat artwork""}","","","","","","","","","","","","","","","","","","","","","","",""
"4415.300000000745","","image-slider-response","218","1609687","0.0-217.0","A27EV0216FCLJW","","","","","10","","","","","","","","","","","","","","","","","","","","","",""
"null","","image-button-response","219","1614698","0.0-218.0","A27EV0216FCLJW","img_art/29.jpg","null","","","","","","","","","","","","","","","","","","","","","","","","",""
"1523","","image-button-response","220","1616233","0.0-219.0","A27EV0216FCLJW","img_art/29.jpg","4","","","","","","","","","","","","","","","","","","","","","","","","",""
"4519","","image-button-response","221","1620767","0.0-220.0-0.0","A27EV0216FCLJW","img_art/29.jpg","0","","","","","","","","","","","","","","","","","","","","","","","","",""
"4347","","image-button-response","222","1625129","0.0-221.0-0.0","A27EV0216FCLJW","img_art/29.jpg","3","","","","","","","","","","","","","","","","","","","","","","","","",""
"null","","html-keyboard-response","223","1626635","0.0-222.0","A27EV0216FCLJW","<p style=""font-size: 48px;"">+</p>","","","","","null","allTrialResponses","1500","1","25","img_art/29.jpg","10","Can't look away - neat artwork","Kevin,Mason,Devin,Joseph,Jack,Garrett","Thats a pretty wierd picture.,6,320,20","easy, too abstract for me, don't get it.,-25,100,20","Looks a bit messy,-13,380,20","It looks like graffiti in a subway tunnel- destruction.,-20,220,20","risks well taken. the brush is hilarious. feels like an artist's frustration, which is relatable.,50,320,20","I think this image looks ugly and needs more colors so it looks nicer.,-30,180,20","Jack","risks well taken. the brush is hilarious. feels like an artist's frustration, which is relatable.,50,320,20","Kevin","Thats a pretty wierd picture.,6,320,20","Joseph","It looks like graffiti in a subway tunnel- destruction.,-20,220,20","2"
"3215","","survey-text","224","1629891","0.0-223.0-0.0","A27EV0216FCLJW","","","","{""Q0"":""table""}","","","","","","","","","","","","","","","","","","","","","","",""
"21224","","survey-text","225","1651125","0.0-224.0-0.0","A27EV0216FCLJW","","","","{""Q0"":""Eerie and abstract""}","","","","","","","","","","","","","","","","","","","","","","",""
"4890.699999999255","","image-slider-response","226","1656025","0.0-225.0","A27EV0216FCLJW","","","","","15","","","","","","","","","","","","","","","","","","","","","",""
"null","","image-button-response","227","1661032","0.0-226.0","A27EV0216FCLJW","img_art/20.jpg","null","","","","","","","","","","","","","","","","","","","","","","","","",""
"1453","","image-button-response","228","1662497","0.0-227.0","A27EV0216FCLJW","img_art/20.jpg","0","","","","","","","","","","","","","","","","","","","","","","","","",""
"2631","","image-button-response","229","1665138","0.0-228.0-0.0","A27EV0216FCLJW","img_art/20.jpg","3","","","","","","","","","","","","","","","","","","","","","","","","",""
"2168","","image-button-response","230","1667325","0.0-229.0-0.0","A27EV0216FCLJW","img_art/20.jpg","4","","","","","","","","","","","","","","","","","","","","","","","","",""
"null","","html-keyboard-response","231","1668831","0.0-230.0","A27EV0216FCLJW","<p style=""font-size: 48px;"">+</p>","","","","","null","allTrialResponses","1500","1","26","img_art/20.jpg","15","Eerie and abstract","Kevin,Gregory,Christian,Joseph,Jack,Antonio","The beast is running after you.,33,320,20","Looks like some type of future dystopian civilization,35,220,20","reminds me of georgia o'keeffe's skull,22,140,20","Something fell over and is burning, but it's kinda dope, you know?,14,220,20","could look for hours. love the brush work. color choices look like a desert.,50,320,20","Makes me feel weary,21,220,20","Kevin","The beast is running after you.,33,320,20","Joseph","Something fell over and is burning, but it's kinda dope, you know?,14,220,20","Jack","could look for hours. love the brush work. color choices look like a desert.,50,320,20","2"
"27395","","survey-text","232","1696276","0.0-231.0-0.0","A27EV0216FCLJW","","","","{""Q0"":""Psychedelic, fun and groovy - good stuff""}","","","","","","","","","","","","","","","","","","","","","","",""
"7241","","image-slider-response","233","1703526","0.0-232.0","A27EV0216FCLJW","","","","","20","","","","","","","","","","","","","","","","","","","","","",""
"3628","","image-button-response","234","1708539","0.0-233.0","A27EV0216FCLJW","img_art/23.jpg","1","","","","","","","","","","","","","","","","","","","","","","","","",""
"619","","image-button-response","235","1709176","0.0-234.0","A27EV0216FCLJW","img_art/23.jpg","1","","","","","","","","","","","","","","","","","","","","","","","","",""
"6716","","image-button-response","236","1715910","0.0-235.0-0.0","A27EV0216FCLJW","img_art/23.jpg","2","","","","","","","","","","","","","","","","","","","","","","","","",""
"4006","","image-button-response","237","1719935","0.0-236.0-0.0","A27EV0216FCLJW","img_art/23.jpg","4","","","","","","","","","","","","","","","","","","","","","","","","",""
"null","","html-keyboard-response","238","1721440","0.0-237.0","A27EV0216FCLJW","<p style=""font-size: 48px;"">+</p>","","","","","null","allTrialResponses","1500","1","27","img_art/23.jpg","20","Psychedelic, fun and groovy - good stuff","Kevin,Edward,Timothy,Joseph,Jack,Nicholas","Looks like fish fossils,12,320,20","This would make a great mural,37,60,20","This feels so energized, i love it,50,240,20","Like a wound that has been sutured. Pain, but also healing.,5,220,20","awesome colors. love the white drawing the eye to the center. oddly comforting.,50,320,20","The more i look at it the more i like it  the dots of color and very interesting,50,240,20","Edward","This would make a great mural,37,60,20","Timothy","This feels so energized, i love it,50,240,20","Jack","awesome colors. love the white drawing the eye to the center. oddly comforting.,50,320,20","2"
"34496","","survey-text","239","1755976","0.0-238.0-0.0","A27EV0216FCLJW","","","","{""Q0"":""It's okay - not much to take away from it, personally""}","","","","","","","","","","","","","","","","","","","","","","",""
"6980.300000000745","","image-slider-response","240","1762969","0.0-239.0","A27EV0216FCLJW","","","","","-20","","","","","","","","","","","","","","","","","","","","","",""
"null","","image-button-response","241","1767978","0.0-240.0","A27EV0216FCLJW","img_art/30.jpg","null","","","","","","","","","","","","","","","","","","","","","","","","",""
"1044","","image-button-response","242","1769037","0.0-241.0","A27EV0216FCLJW","img_art/30.jpg","0","","","","","","","","","","","","","","","","","","","","","","","","",""
"5564","","image-button-response","243","1774616","0.0-242.0-0.0","A27EV0216FCLJW","img_art/30.jpg","5","","","","","","","","","","","","","","","","","","","","","","","","",""
"6828","","image-button-response","244","1781456","0.0-243.0-0.0","A27EV0216FCLJW","img_art/30.jpg","2","","","","","","","","","","","","","","","","","","","","","","","","",""
"null","","html-keyboard-response","245","1782462","0.0-244.0","A27EV0216FCLJW","<p style=""font-size: 48px;"">+</p>","","","","","null","allTrialResponses","1000","1","28","img_art/30.jpg","-20","It's okay - not much to take away from it, personally","Daniel,Edward,Timothy,Adam,Jack,Alejandro","10 year old 10 minute project ""Fun with Painting"",-42,320,20","My son made me a painting that looked like this,26,60,20","It's pleasent but otherwise unprovoking,8,240,20","Dislike the contrast here.,-5,40,20","love the movement of the brush strokes. very interesting piece.,38,320,20","An interesting design but don't like the colors. I value the time and effort put into it, but not a huge fan.,10,80,20","Daniel","10 year old 10 minute project ""Fun with Painting"",-42,320,20","Alejandro","An interesting design but don't like the colors. I value the time and effort put into it, but not a huge fan.,10,80,20","Timothy","It's pleasent but otherwise unprovoking,8,240,20","2"
"47390","","survey-text","246","1829886","0.0-245.0-0.0","A27EV0216FCLJW","","","","{""Q0"":""No opinion - it's okay-ish""}","","","","","","","","","","","","","","","","","","","","","","",""
"12970","","image-slider-response","247","1842871","0.0-246.0","A27EV0216FCLJW","","","","","-25","","","","","","","","","","","","","","","","","","","","","",""
"null","","image-button-response","248","1847898","0.0-247.0","A27EV0216FCLJW","img_art/15.jpg","null","","","","","","","","","","","","","","","","","","","","","","","","",""
"3855","","image-button-response","249","1851770","0.0-248.0","A27EV0216FCLJW","img_art/15.jpg","4","","","","","","","","","","","","","","","","","","","","","","","","",""
"1085","","image-button-response","250","1852875","0.0-249.0-0.0","A27EV0216FCLJW","img_art/15.jpg","3","","","","","","","","","","","","","","","","","","","","","","","","",""
"1361","","image-button-response","251","1854246","0.0-250.0-0.0","A27EV0216FCLJW","img_art/15.jpg","0","","","","","","","","","","","","","","","","","","","","","","","","",""
"null","","html-keyboard-response","252","1855750","0.0-251.0","A27EV0216FCLJW","<p style=""font-size: 48px;"">+</p>","","","","","null","allTrialResponses","1500","1","29","img_art/15.jpg","-25","No opinion - it's okay-ish","Daniel,Jeffrey,Timothy,Michael,Jake,Alejandro","Dark, drab asymmetrical floral piece,-26,320,20","dark and I can not see a meaning behind it,-31,40,20","This painting gives a calm vibe but no stronger emotions than that,10,240,20","Looks incomplete.,-19,140,20","This looks odd and was not well executed.,-3,360,20","The blotted black spots create a nice contrast between the brush strokes within the center and sides. I like it.,41,80,20","Jake","This looks odd and was not well executed.,-3,360,20","Michael","Looks incomplete.,-19,140,20","Daniel","Dark, drab asymmetrical floral piece,-26,320,20","2"
"41383","","survey-text","253","1897159","0.0-252.0-0.0","A27EV0216FCLJW","","","","{""Q0"":""I like the feeling of claustrophobia this evokes""}","","","","","","","","","","","","","","","","","","","","","","",""
"5192.699999999255","","image-slider-response","254","1902363","0.0-253.0","A27EV0216FCLJW","","","","","20","","","","","","","","","","","","","","","","","","","","","",""
"null","","image-button-response","255","1907380","0.0-254.0","A27EV0216FCLJW","img_art/12.jpg","null","","","","","","","","","","","","","","","","","","","","","","","","",""
"6041","","image-button-response","256","1913449","0.0-255.0","A27EV0216FCLJW","img_art/12.jpg","3","","","","","","","","","","","","","","","","","","","","","","","","",""
"5504","","image-button-response","257","1918970","0.0-256.0-0.0","A27EV0216FCLJW","img_art/12.jpg","5","","","","","","","","","","","","","","","","","","","","","","","","",""
"482","","image-button-response","258","1919468","0.0-257.0-0.0","A27EV0216FCLJW","img_art/12.jpg","4","","","","","","","","","","","","","","","","","","","","","","","","",""
"null","","html-keyboard-response","259","1919973","0.0-258.0","A27EV0216FCLJW","<p style=""font-size: 48px;"">+</p>","","","","","null","allTrialResponses","500","1","30","img_art/12.jpg","20","I like the feeling of claustrophobia this evokes","Daniel,Taylor,Luke,Michael,Jake,Noah","Blocky windowed, safe and selfish,-41,320,20","Just wish it was more colorful.,20,200,20","don't feel a lot but it seems very simple,-6,20,20","Not quite my style but there more of a pattern and it is interesting to look at.,15,140,20","It's strange looking and unappealing.,-4,360,20","evokes the 80s, and not in a necessarily good way,-10,260,20","Michael","Not quite my style but there more of a pattern and it is interesting to look at.,15,140,20","Noah","evokes the 80s, and not in a necessarily good way,-10,260,20","Jake","It's strange looking and unappealing.,-4,360,20","2"
"1542","","image-button-response_instructions","260","1921549","0.0-259.0","A27EV0216FCLJW","","0","instructions","","","","","","","","","","","","","","","","","","","","","","","",""
"881","","image-button-response","261","1922454","0.0-260.0","A27EV0216FCLJW","","0","","","","","","","","","","","","","","","","","","","","","","","","",""
