"rt","url","trial_type","trial_index","time_elapsed","internal_node_id","participant_id","stimulus","button_pressed","Name","responses","response","key_press","variableName","fixationTime","condition","trial","photo","subjectRating","subjectResponse","agentsNames","agent_1_Response","agent_2_Response","agent_3_Response","agent_4_Response","agent_5_Response","agent_6_Response","kept_1_name","kept_1_response","kept_2_name","kept_2_response","kept_3_name","kept_3_response","errorCounter"
"8393","external_page_harvard.html","external-html","0","8450","0.0-0.0","A28V5XY8A0R6Q5","","","","","","","","","","","","","","","","","","","","","","","","","","",""
"1728","","image-button-response","1","10180","0.0-1.0","A28V5XY8A0R6Q5","","1","","","","","","","","","","","","","","","","","","","","","","","","",""
"2852","","image-button-response","2","13037","0.0-2.0-0.0","A28V5XY8A0R6Q5","","1","phone","","","","","","","","","","","","","","","","","","","","","","","",""
"10012","","survey-text","3","23051","0.0-3.0-0.0","A28V5XY8A0R6Q5","","","","{""Q0"":""A28V5XY8A0R6Q5""}","","","","","","","","","","","","","","","","","","","","","","",""
"45314","","image-button-response_instructions","4","68366","0.0-4.0","A28V5XY8A0R6Q5","","0","instructions","","","","","","","","","","","","","","","","","","","","","","","",""
"31946","","image-button-response_instructions","5","100315","0.0-5.0","A28V5XY8A0R6Q5","img_art/ins/popularity/ins1.png","0","instructions","","","","","","","","","","","","","","","","","","","","","","","",""
"9861","","image-button-response_instructions","6","110178","0.0-6.0","A28V5XY8A0R6Q5","img_art/ins/popularity/ins2.png","0","instructions","","","","","","","","","","","","","","","","","","","","","","","",""
"18048","","image-button-response_instructions","7","128228","0.0-7.0","A28V5XY8A0R6Q5","img_art/ins/popularity/ins2Extreme.png","0","instructions","","","","","","","","","","","","","","","","","","","","","","","",""
"78942","","image-button-response_instructions","8","207171","0.0-8.0","A28V5XY8A0R6Q5","img_art/ins/popularity/ins3KEEPpop.PNG","0","instructions","","","","","","","","","","","","","","","","","","","","","","","",""
"5051","","image-button-response_instructions","9","212223","0.0-9.0","A28V5XY8A0R6Q5","img_art/ins/popularity/ins3ANamepop.PNG","0","instructions","","","","","","","","","","","","","","","","","","","","","","","",""
"9279","","image-button-response_instructions","10","221504","0.0-10.0","A28V5XY8A0R6Q5","img_art/ins/popularity/ins3ARatingpop.png","0","instructions","","","","","","","","","","","","","","","","","","","","","","","",""
"5268","","image-button-response_instructions","11","226773","0.0-11.0","A28V5XY8A0R6Q5","img_art/ins/popularity/ins3ATextpop.png","0","instructions","","","","","","","","","","","","","","","","","","","","","","","",""
"109736","","image-button-response_instructions","12","336510","0.0-12.0","A28V5XY8A0R6Q5","img_art/ins/popularity/ins3ALikespop.png","0","instructions","","","","","","","","","","","","","","","","","","","","","","","",""
"10818","","image-button-response_instructions","13","347329","0.0-13.0","A28V5XY8A0R6Q5","img_art/ins/popularity/ins3KEEPpop.PNG","0","instructions","","","","","","","","","","","","","","","","","","","","","","","",""
"259321","","image-button-response_instructions","14","606651","0.0-14.0","A28V5XY8A0R6Q5","img_art/ins/popularity/ins3_5RED.png","0","instructions","","","","","","","","","","","","","","","","","","","","","","","",""
"6378","","image-button-response_instructions","15","613030","0.0-15.0","A28V5XY8A0R6Q5","img_art/ins/popularity/ins3KEEPpop.PNG","0","instructions","","","","","","","","","","","","","","","","","","","","","","","",""
"16598","","image-button-response_instructions","16","629630","0.0-16.0","A28V5XY8A0R6Q5","img_art/ins/popularity/ins4KEEPpop.PNG","0","instructions","","","","","","","","","","","","","","","","","","","","","","","",""
"8039","","image-button-response_instructions","17","637669","0.0-17.0","A28V5XY8A0R6Q5","img_art/ins/popularity/ins5KEEPpop.PNG","0","instructions","","","","","","","","","","","","","","","","","","","","","","","",""
"1971","","image-button-response_instructions","18","639640","0.0-18.0","A28V5XY8A0R6Q5","","0","instructions","","","","","","","","","","","","","","","","","","","","","","","",""
"10529","","survey-text","19","650187","0.0-19.0-0.0","A28V5XY8A0R6Q5","","","","{""Q0"":""but""}","","","","","","","","","","","","","","","","","","","","","","",""
"10294","","survey-text","20","660482","0.0-20.0-0.0","A28V5XY8A0R6Q5","","","","{""Q0"":""feminine""}","","","","","","","","","","","","","","","","","","","","","","",""
"12810","","image-slider-response","21","673296","0.0-21.0","A28V5XY8A0R6Q5","","","","","-10","","","","","","","","","","","","","","","","","","","","","",""
"null","","image-button-response","22","678318","0.0-22.0","A28V5XY8A0R6Q5","img_art/ins/1.jpg","null","","","","","","","","","","","","","","","","","","","","","","","","",""
"19373","","image-button-response","23","697692","0.0-23.0","A28V5XY8A0R6Q5","img_art/ins/1.jpg","5","","","","","","","","","","","","","","","","","","","","","","","","",""
"11403","","image-button-response","24","709096","0.0-24.0-0.0","A28V5XY8A0R6Q5","img_art/ins/1.jpg","3","","","","","","","","","","","","","","","","","","","","","","","","",""
"5908","","image-button-response","25","715006","0.0-25.0-0.0","A28V5XY8A0R6Q5","img_art/ins/1.jpg","0","","","","","","","","","","","","","","","","","","","","","","","","",""
"null","","html-keyboard-response","26","716518","0.0-26.0","A28V5XY8A0R6Q5","<p style=""font-size: 48px;"">+</p>","","","","","null","allTrialResponses","1500","1","-2","img_art/ins/1.jpg","-10","feminine","Allison,Ashley,Beth,Dora,Erika,Jen","looks like a lot of things going on in the mist,20,20,20","I just don't get why these type of art would be popular,-32,40,20","This color reminds me of poo,-46,60,20","looks like what my niece in 3rd grade did this afternoon,-50,80,20","I like the sophisticated brushwork,40,100,20","It reminds me of a candy land dream I had,36,120,20","Jen","It reminds me of a candy land dream I had,36,120,20","Dora","looks like what my niece in 3rd grade did this afternoon,-50,80,20","Allison","looks like a lot of things going on in the mist,20,20,20","0"
"29662","","survey-text","27","746194","0.0-27.0-0.0","A28V5XY8A0R6Q5","","","","{""Q0"":""Feels like autumn in the northeast.""}","","","","","","","","","","","","","","","","","","","","","","",""
"4304","","image-slider-response","28","750500","0.0-28.0","A28V5XY8A0R6Q5","","","","","11","","","","","","","","","","","","","","","","","","","","","",""
"null","","image-button-response","29","755517","0.0-29.0","A28V5XY8A0R6Q5","img_art/ins/2.jpg","null","","","","","","","","","","","","","","","","","","","","","","","","",""
"7049","","image-button-response","30","762567","0.0-30.0","A28V5XY8A0R6Q5","img_art/ins/2.jpg","5","","","","","","","","","","","","","","","","","","","","","","","","",""
"6686","","image-button-response","31","769254","0.0-31.0-0.0","A28V5XY8A0R6Q5","img_art/ins/2.jpg","4","","","","","","","","","","","","","","","","","","","","","","","","",""
"19274","","image-button-response","32","788529","0.0-32.0-0.0","A28V5XY8A0R6Q5","img_art/ins/2.jpg","2","","","","","","","","","","","","","","","","","","","","","","","","",""
"null","","html-keyboard-response","33","789047","0.0-33.0","A28V5XY8A0R6Q5","<p style=""font-size: 48px;"">+</p>","","","","","null","allTrialResponses","500","1","-1","img_art/ins/2.jpg","11","Feels like autumn in the northeast.","Allison,Jenna,Katie,Dora,Kara,Jen","I don't have strong feelings about this,10,20,20","One of my pet peevs,-48,140,20","too much color!,-28,180,20","looks too angry,-50,80,20","I like the blocks of color arrangements,30,160,20","It reminds me of a fireplace,36,120,20","Jen","It reminds me of a fireplace,36,120,20","Kara","I like the blocks of color arrangements,30,160,20","Katie","too much color!,-28,180,20","0"
"20711","","survey-text","34","809763","0.0-34.0-0.0","A28V5XY8A0R6Q5","","","","{""Q0"":""Seagulls at sunset.""}","","","","","","","","","","","","","","","","","","","","","","",""
"5807","","image-slider-response","35","815571","0.0-35.0","A28V5XY8A0R6Q5","","","","","8","","","","","","","","","","","","","","","","","","","","","",""
"null","","image-button-response","36","820587","0.0-36.0","A28V5XY8A0R6Q5","img_art/ins/3.jpg","null","","","","","","","","","","","","","","","","","","","","","","","","",""
"5556","","image-button-response","37","826145","0.0-37.0","A28V5XY8A0R6Q5","img_art/ins/3.jpg","4","","","","","","","","","","","","","","","","","","","","","","","","",""
"1887","","image-button-response","38","828033","0.0-38.0-0.0","A28V5XY8A0R6Q5","img_art/ins/3.jpg","1","","","","","","","","","","","","","","","","","","","","","","","","",""
"3778","","image-button-response","39","831813","0.0-39.0-0.0","A28V5XY8A0R6Q5","img_art/ins/3.jpg","5","","","","","","","","","","","","","","","","","","","","","","","","",""
"null","","html-keyboard-response","40","833316","0.0-40.0","A28V5XY8A0R6Q5","<p style=""font-size: 48px;"">+</p>","","","","","null","allTrialResponses","1500","1","0","img_art/ins/3.jpg","8","Seagulls at sunset.","Rose,Mary,Katie,Leslie,Kara,Jen","My daily routine, it's depressing,-20,240,20","I like the overlapping of brushes,41,220,20","It looks depressing,-26,180,20","It's an alright work,15,200,20","calming blue is very nice,36,160,20","I can feel a rainy day from this painting,18,120,20","Kara","calming blue is very nice,36,160,20","Mary","I like the overlapping of brushes,41,220,20","Jen","I can feel a rainy day from this painting,18,120,20","0"
"4177","","image-button-response_instructions","41","837503","0.0-41.0","A28V5XY8A0R6Q5","","0","instructions","","","","","","","","","","","","","","","","","","","","","","","",""
"14409","","survey-likert","42","851913","0.0-42.0-0.0","A28V5XY8A0R6Q5","","","","{""Q0"":"""",""Q1"":0,""Q2"":1}","","","","","","","","","","","","","","","","","","","","","","",""
"4723","","survey-text","43","856641","0.0-43.0-0.0","A28V5XY8A0R6Q5","","","","{""Q0"":""rock""}","","","","","","","","","","","","","","","","","","","","","","",""
"49283","","survey-text","44","905924","0.0-44.0-0.0","A28V5XY8A0R6Q5","","","","{""Q0"":""Those two stick figures are going to drop off the earth if they aren't careful.""}","","","","","","","","","","","","","","","","","","","","","","",""
"7128","","image-slider-response","45","913054","0.0-45.0","A28V5XY8A0R6Q5","","","","","-16","","","","","","","","","","","","","","","","","","","","","",""
"null","","image-button-response","46","918076","0.0-46.0","A28V5XY8A0R6Q5","img_art/22.jpg","null","","","","","","","","","","","","","","","","","","","","","","","","",""
"1112","","image-button-response","47","919190","0.0-47.0","A28V5XY8A0R6Q5","img_art/22.jpg","3","","","","","","","","","","","","","","","","","","","","","","","","",""
"12445","","image-button-response","48","931636","0.0-48.0-0.0","A28V5XY8A0R6Q5","img_art/22.jpg","5","","","","","","","","","","","","","","","","","","","","","","","","",""
"3607","","image-button-response","49","935244","0.0-49.0-0.0","A28V5XY8A0R6Q5","img_art/22.jpg","0","","","","","","","","","","","","","","","","","","","","","","","","",""
"null","","html-keyboard-response","50","936255","0.0-50.0","A28V5XY8A0R6Q5","<p style=""font-size: 48px;"">+</p>","","","","","null","allTrialResponses","1000","1","1","img_art/22.jpg","-16","Those two stick figures are going to drop off the earth if they aren't careful.","Angelica,Kimberly,Erica,Vanessa,Sierra,Abigail","It's bland and ugly.,-21,280,20","I like the key near the sphere in the center,19,260,20","Picture is very relaxing,32,80,20","I don't like the colors or the way they've been arranged.,-20,380,20","colorful. but not much happening,1,260,20","The colors are too dark, too much red,2,20,20","Vanessa","I don't like the colors or the way they've been arranged.,-20,380,20","Abigail","The colors are too dark, too much red,2,20,20","Angelica","It's bland and ugly.,-21,280,20","0"
"22967","","survey-text","51","959228","0.0-51.0-0.0","A28V5XY8A0R6Q5","","","","{""Q0"":""Worms?""}","","","","","","","","","","","","","","","","","","","","","","",""
"3246","","image-slider-response","52","962476","0.0-52.0","A28V5XY8A0R6Q5","","","","","19","","","","","","","","","","","","","","","","","","","","","",""
"null","","image-button-response","53","967494","0.0-53.0","A28V5XY8A0R6Q5","img_art/30.jpg","null","","","","","","","","","","","","","","","","","","","","","","","","",""
"1962","","image-button-response","54","969457","0.0-54.0","A28V5XY8A0R6Q5","img_art/30.jpg","3","","","","","","","","","","","","","","","","","","","","","","","","",""
"7811","","image-button-response","55","977270","0.0-55.0-0.0","A28V5XY8A0R6Q5","img_art/30.jpg","4","","","","","","","","","","","","","","","","","","","","","","","","",""
"2660","","image-button-response","56","979931","0.0-56.0-0.0","A28V5XY8A0R6Q5","img_art/30.jpg","1","","","","","","","","","","","","","","","","","","","","","","","","",""
"null","","html-keyboard-response","57","981435","0.0-57.0","A28V5XY8A0R6Q5","<p style=""font-size: 48px;"">+</p>","","","","","null","allTrialResponses","1500","1","2","img_art/30.jpg","19","Worms?","Angelica,Heather,Victoria,Vanessa,Cynthia,Abigail","This is just simple and ugly.,-2,280,20","beautiful paint brush strokes,1,260,20","to dark and dreary,-28,400,20","I like the red against the blue, but otherwise, it's not really my taste,4,380,20","fun and imaginative,12,320,20","Combination of colors arent good,-6,20,20","Vanessa","I like the red against the blue, but otherwise, it's not really my taste,4,380,20","Cynthia","fun and imaginative,12,320,20","Heather","beautiful paint brush strokes,1,260,20","0"
"34807","","survey-text","58","1016249","0.0-58.0-0.0","A28V5XY8A0R6Q5","","","","{""Q0"":""The grim reeper should be on a black horse!""}","","","","","","","","","","","","","","","","","","","","","","",""
"4310","","image-slider-response","59","1020561","0.0-59.0","A28V5XY8A0R6Q5","","","","","-44","","","","","","","","","","","","","","","","","","","","","",""
"4438","","image-button-response","60","1025570","0.0-60.0","A28V5XY8A0R6Q5","img_art/18.jpg","0","","","","","","","","","","","","","","","","","","","","","","","","",""
"4725","","image-button-response","61","1030297","0.0-61.0","A28V5XY8A0R6Q5","img_art/18.jpg","5","","","","","","","","","","","","","","","","","","","","","","","","",""
"2332","","image-button-response","62","1032631","0.0-62.0-0.0","A28V5XY8A0R6Q5","img_art/18.jpg","0","","","","","","","","","","","","","","","","","","","","","","","","",""
"828","","image-button-response","63","1033460","0.0-63.0-0.0","A28V5XY8A0R6Q5","img_art/18.jpg","0","","","","","","","","","","","","","","","","","","","","","","","","",""
"1850","","image-button-response","64","1038226","0.0-63.1-0.1","A28V5XY8A0R6Q5","img_art/18.jpg","0","","","","","","","","","","","","","","","","","","","","","","","","",""
"4714","","image-button-response","65","1046907","0.0-63.2-0.2","A28V5XY8A0R6Q5","img_art/18.jpg","2","","","","","","","","","","","","","","","","","","","","","","","","",""
"null","","html-keyboard-response","66","1048419","0.0-64.0","A28V5XY8A0R6Q5","<p style=""font-size: 48px;"">+</p>","","","","","null","allTrialResponses","1500","1","3","img_art/18.jpg","-44","The grim reeper should be on a black horse!","Sydney,Heather,Madison,Vanessa,Cynthia,Katie","I like the colors being used, but I don't like the chaos in the middle of it.,20,320,20","i like the colors in the picture and can make out my own images,42,260,20","Pleasant design and composition, unpleasant theme and focus.,-19,60,20","Again, this is too abtract.,-25,380,20","Imaginative, makes me feel creative.,42,320,20","Looks messy. Reminds me of a battle or war. I have an unpleasant feeling the more I look.,-20,160,20","Katie","Looks messy. Reminds me of a battle or war. I have an unpleasant feeling the more I look.,-20,160,20","Sydney","I like the colors being used, but I don't like the chaos in the middle of it.,20,320,20","Madison","Pleasant design and composition, unpleasant theme and focus.,-19,60,20","4"
"31197","","survey-text","67","1079618","0.0-65.0-0.0","A28V5XY8A0R6Q5","","","","{""Q0"":""The roller coaster has de-railed.""}","","","","","","","","","","","","","","","","","","","","","","",""
"3612","","image-slider-response","68","1083232","0.0-66.0","A28V5XY8A0R6Q5","","","","","-45","","","","","","","","","","","","","","","","","","","","","",""
"null","","image-button-response","69","1088238","0.0-67.0","A28V5XY8A0R6Q5","img_art/10.jpg","null","","","","","","","","","","","","","","","","","","","","","","","","",""
"4300","","image-button-response","70","1092540","0.0-68.0","A28V5XY8A0R6Q5","img_art/10.jpg","4","","","","","","","","","","","","","","","","","","","","","","","","",""
"1055","","image-button-response","71","1093596","0.0-69.0-0.0","A28V5XY8A0R6Q5","img_art/10.jpg","5","","","","","","","","","","","","","","","","","","","","","","","","",""
"9941","","image-button-response","72","1103538","0.0-70.0-0.0","A28V5XY8A0R6Q5","img_art/10.jpg","0","","","","","","","","","","","","","","","","","","","","","","","","",""
"null","","html-keyboard-response","73","1104058","0.0-71.0","A28V5XY8A0R6Q5","<p style=""font-size: 48px;"">+</p>","","","","","null","allTrialResponses","500","1","4","img_art/10.jpg","-45","The roller coaster has de-railed.","Sydney,Hannah,Madison,Kaylee,Mikayla,Katie","This piece is unusual in a way that makes me uncomfortable.,-5,320,20","This one is interesting. I like it.,11,240,20","In proper lighting I might enjoy this,11,60,20","a blue whale on the sea,12,200,20","Kinda creepy not my favorite,-26,300,20","Dark and weird. Unidentifiable shape. I can't tell what it is, so I don't like it.,-50,160,20","Mikayla","Kinda creepy not my favorite,-26,300,20","Katie","Dark and weird. Unidentifiable shape. I can't tell what it is, so I don't like it.,-50,160,20","Sydney","This piece is unusual in a way that makes me uncomfortable.,-5,320,20","4"
"25341","","survey-text","74","1129405","0.0-72.0-0.0","A28V5XY8A0R6Q5","","","","{""Q0"":""City lights reflecting off the water.""}","","","","","","","","","","","","","","","","","","","","","","",""
"4170","","image-slider-response","75","1133576","0.0-73.0","A28V5XY8A0R6Q5","","","","","39","","","","","","","","","","","","","","","","","","","","","",""
"null","","image-button-response","76","1138598","0.0-74.0","A28V5XY8A0R6Q5","img_art/11.jpg","null","","","","","","","","","","","","","","","","","","","","","","","","",""
"3901","","image-button-response","77","1142500","0.0-75.0","A28V5XY8A0R6Q5","img_art/11.jpg","2","","","","","","","","","","","","","","","","","","","","","","","","",""
"10511","","image-button-response","78","1153012","0.0-76.0-0.0","A28V5XY8A0R6Q5","img_art/11.jpg","3","","","","","","","","","","","","","","","","","","","","","","","","",""
"9260","","image-button-response","79","1162273","0.0-77.0-0.0","A28V5XY8A0R6Q5","img_art/11.jpg","0","","","","","","","","","","","","","","","","","","","","","","","","",""
"null","","html-keyboard-response","80","1163288","0.0-78.0","A28V5XY8A0R6Q5","<p style=""font-size: 48px;"">+</p>","","","","","null","allTrialResponses","1000","1","5","img_art/11.jpg","39","City lights reflecting off the water.","Sydney,Kelsey,Jessica,Shannon,Mikayla,Katie","I don't like the gloomy color, but it reminds me of a city which I like.,35,320,20","its like telephone wires, or mountains,-17,240,20","This looks cool, and definitely comes to life in a way,36,400,20","This looks like a bridge that has plenty of color.,10,220,20","Scary again. Not a fan.,-23,300,20","Dark and dreary. Makes me think of rain/water. I see grey clouds and high waves. Looks unsettling.,-20,160,20","Jessica","This looks cool, and definitely comes to life in a way,36,400,20","Shannon","This looks like a bridge that has plenty of color.,10,220,20","Sydney","I don't like the gloomy color, but it reminds me of a city which I like.,35,320,20","4"
"4214","","survey-text","81","1167508","0.0-79.0-0.0","A28V5XY8A0R6Q5","","","","{""Q0"":""sky""}","","","","","","","","","","","","","","","","","","","","","","",""
"23385","","survey-text","82","1190893","0.0-80.0-0.0","A28V5XY8A0R6Q5","","","","{""Q0"":""This should be on an ancient coin.""}","","","","","","","","","","","","","","","","","","","","","","",""
"6110","","image-slider-response","83","1197005","0.0-81.0","A28V5XY8A0R6Q5","","","","","-10","","","","","","","","","","","","","","","","","","","","","",""
"null","","image-button-response","84","1202006","0.0-82.0","A28V5XY8A0R6Q5","img_art/25.jpg","null","","","","","","","","","","","","","","","","","","","","","","","","",""
"6723","","image-button-response","85","1208730","0.0-83.0","A28V5XY8A0R6Q5","img_art/25.jpg","5","","","","","","","","","","","","","","","","","","","","","","","","",""
"8822","","image-button-response","86","1217553","0.0-84.0-0.0","A28V5XY8A0R6Q5","img_art/25.jpg","4","","","","","","","","","","","","","","","","","","","","","","","","",""
"3779","","image-button-response","87","1221333","0.0-85.0-0.0","A28V5XY8A0R6Q5","img_art/25.jpg","0","","","","","","","","","","","","","","","","","","","","","","","","",""
"null","","html-keyboard-response","88","1222846","0.0-86.0","A28V5XY8A0R6Q5","<p style=""font-size: 48px;"">+</p>","","","","","null","allTrialResponses","1500","1","6","img_art/25.jpg","-10","This should be on an ancient coin.","Sydney,Caroline,Jessica,Shannon,Lindsey,Jamie","This piece gives me a lot of questions which I kind of like.,10,320,20","Makes me think of Baphomet, As above so below and is scary,-50,100,20","I really like how the lines form this piece.,8,400,20","I like the way the persons clothes look, there could be more color though.,10,220,20","This piece makes me think of oppression and fighting it. Makes me feel calm, sad and strong.,11,400,20","Cool color scheme and appears to be a statue of some type of revered god,40,320,20","Jamie","Cool color scheme and appears to be a statue of some type of revered god,40,320,20","Lindsey","This piece makes me think of oppression and fighting it. Makes me feel calm, sad and strong.,11,400,20","Sydney","This piece gives me a lot of questions which I kind of like.,10,320,20","4"
"35456","","survey-text","89","1258306","0.0-87.0-0.0","A28V5XY8A0R6Q5","","","","{""Q0"":""Illuminati, folks.""}","","","","","","","","","","","","","","","","","","","","","","",""
"4905","","image-slider-response","90","1263212","0.0-88.0","A28V5XY8A0R6Q5","","","","","29","","","","","","","","","","","","","","","","","","","","","",""
"2935","","image-button-response","91","1268213","0.0-89.0","A28V5XY8A0R6Q5","img_art/8.jpg","0","","","","","","","","","","","","","","","","","","","","","","","","",""
"111009","","image-button-response","92","1379222","0.0-90.0","A28V5XY8A0R6Q5","img_art/8.jpg","2","","","","","","","","","","","","","","","","","","","","","","","","",""
"1431","","image-button-response","93","1380655","0.0-91.0-0.0","A28V5XY8A0R6Q5","img_art/8.jpg","5","","","","","","","","","","","","","","","","","","","","","","","","",""
"5844","","image-button-response","94","1386500","0.0-92.0-0.0","A28V5XY8A0R6Q5","img_art/8.jpg","0","","","","","","","","","","","","","","","","","","","","","","","","",""
"null","","html-keyboard-response","95","1387004","0.0-93.0","A28V5XY8A0R6Q5","<p style=""font-size: 48px;"">+</p>","","","","","null","allTrialResponses","500","1","7","img_art/8.jpg","29","Illuminati, folks.","Sydney,Makayla,Kylie,Christina,Lindsey,Jamie","I love the colors in this piece.,25,320,20","I see water and structures that resemble Ancient Rome,15,80,20","Very abstract and seems symbolic,45,300,20","it looks very 80's and kind of scary,-11,240,20","Pleasant colors, lots of interest. Not sure what's going on but I like it.,20,400,20","Cool designs and color schemes,44,320,20","Kylie","Very abstract and seems symbolic,45,300,20","Jamie","Cool designs and color schemes,44,320,20","Sydney","I love the colors in this piece.,25,320,20","4"
"27924","","survey-text","96","1414931","0.0-94.0-0.0","A28V5XY8A0R6Q5","","","","{""Q0"":""Looks like the elephant artist did this.""}","","","","","","","","","","","","","","","","","","","","","","",""
"4084","","image-slider-response","97","1419017","0.0-95.0","A28V5XY8A0R6Q5","","","","","-40","","","","","","","","","","","","","","","","","","","","","",""
"null","","image-button-response","98","1424034","0.0-96.0","A28V5XY8A0R6Q5","img_art/2.jpg","null","","","","","","","","","","","","","","","","","","","","","","","","",""
"4101","","image-button-response","99","1428135","0.0-97.0","A28V5XY8A0R6Q5","img_art/2.jpg","2","","","","","","","","","","","","","","","","","","","","","","","","",""
"2142","","image-button-response","100","1430278","0.0-98.0-0.0","A28V5XY8A0R6Q5","img_art/2.jpg","5","","","","","","","","","","","","","","","","","","","","","","","","",""
"3537","","image-button-response","101","1433816","0.0-99.0-0.0","A28V5XY8A0R6Q5","img_art/2.jpg","4","","","","","","","","","","","","","","","","","","","","","","","","",""
"null","","html-keyboard-response","102","1435335","0.0-100.0","A28V5XY8A0R6Q5","<p style=""font-size: 48px;"">+</p>","","","","","null","allTrialResponses","1500","1","8","img_art/2.jpg","-40","Looks like the elephant artist did this.","Sydney,Anna,Kylie,Jacqueline,Briana,Jamie","I like the color, but I feel like I see a creepy face which I dislike.,-5,320,20","The colors are pretty but I don't really like the shapes in it.,-20,300,20","Not very appealing,-5,300,20","A bit ugly with the greens.,-20,300,20","Childish smiley face,-19,400,20","Awful color coordination and design,-35,320,20","Kylie","Not very appealing,-5,300,20","Jamie","Awful color coordination and design,-35,320,20","Briana","Childish smiley face,-19,400,20","4"
"78525","","survey-text","103","1513864","0.0-101.0-0.0","A28V5XY8A0R6Q5","","","","{""Q0"":""Wow!  Looks like a neurologocal system universe.""}","","","","","","","","","","","","","","","","","","","","","","",""
"4489","","image-slider-response","104","1518356","0.0-102.0","A28V5XY8A0R6Q5","","","","","40","","","","","","","","","","","","","","","","","","","","","",""
"4931","","image-button-response","105","1523367","0.0-103.0","A28V5XY8A0R6Q5","img_art/13.jpg","3","","","","","","","","","","","","","","","","","","","","","","","","",""
"2594","","image-button-response","106","1525964","0.0-104.0","A28V5XY8A0R6Q5","img_art/13.jpg","4","","","","","","","","","","","","","","","","","","","","","","","","",""
"2012","","image-button-response","107","1527976","0.0-105.0-0.0","A28V5XY8A0R6Q5","img_art/13.jpg","5","","","","","","","","","","","","","","","","","","","","","","","","",""
"6870","","image-button-response","108","1534848","0.0-106.0-0.0","A28V5XY8A0R6Q5","img_art/13.jpg","2","","","","","","","","","","","","","","","","","","","","","","","","",""
"null","","html-keyboard-response","109","1536364","0.0-107.0","A28V5XY8A0R6Q5","<p style=""font-size: 48px;"">+</p>","","","","","null","allTrialResponses","1500","1","9","img_art/13.jpg","40","Wow!  Looks like a neurologocal system universe.","Chelsea,Elizabeth,Kylie,Kaitlin,Briana,Jamie","The colors are okay but I don't like the shapes here.,-18,180,20","Love the splash of colors,50,20,20","Very abstract and soothing,40,300,20","I like this picture. The choice of colors are good,31,60,20","The blue colors are very calming. Reminds me of water,33,400,20","Cool colors and looks like rain on a window,45,320,20","Briana","The blue colors are very calming. Reminds me of water,33,400,20","Jamie","Cool colors and looks like rain on a window,45,320,20","Kylie","Very abstract and soothing,40,300,20","4"
"21642","","survey-text","110","1558013","0.0-108.0-0.0","A28V5XY8A0R6Q5","","","","{""Q0"":""Looks like the bag you pick up your doggie poo with.""}","","","","","","","","","","","","","","","","","","","","","","",""
"4240","","image-slider-response","111","1562255","0.0-109.0","A28V5XY8A0R6Q5","","","","","-43","","","","","","","","","","","","","","","","","","","","","",""
"null","","image-button-response","112","1567274","0.0-110.0","A28V5XY8A0R6Q5","img_art/5.jpg","null","","","","","","","","","","","","","","","","","","","","","","","","",""
"2065","","image-button-response","113","1569340","0.0-111.0","A28V5XY8A0R6Q5","img_art/5.jpg","0","","","","","","","","","","","","","","","","","","","","","","","","",""
"7648","","image-button-response","114","1576988","0.0-112.0-0.0","A28V5XY8A0R6Q5","img_art/5.jpg","5","","","","","","","","","","","","","","","","","","","","","","","","",""
"5736","","image-button-response","115","1582726","0.0-113.0-0.0","A28V5XY8A0R6Q5","img_art/5.jpg","3","","","","","","","","","","","","","","","","","","","","","","","","",""
"null","","html-keyboard-response","116","1583232","0.0-114.0","A28V5XY8A0R6Q5","<p style=""font-size: 48px;"">+</p>","","","","","null","allTrialResponses","500","1","10","img_art/5.jpg","-43","Looks like the bag you pick up your doggie poo with.","Alexandra,Danielle,Kylie,Andrea,Briana,Jamie","This looks like a twelve year old did it,-40,60,20","Not a fan of the themes,-30,340,20","It reminds me of a piece of lemon candy, which is one of my favorite flavors,20,300,20","Perfume bottle, reminds of fancy nights out.,11,240,20","It looks like a poorly drawn pear,17,400,20","Don't really see it and yellow/pink don't go well together,-35,320,20","Alexandra","This looks like a twelve year old did it,-40,60,20","Jamie","Don't really see it and yellow/pink don't go well together,-35,320,20","Andrea","Perfume bottle, reminds of fancy nights out.,11,240,20","4"
"4453","","survey-text","117","1587703","0.0-115.0-0.0","A28V5XY8A0R6Q5","","","","{""Q0"":""our""}","","","","","","","","","","","","","","","","","","","","","","",""
"11538","","survey-text","118","1599242","0.0-116.0-0.0","A28V5XY8A0R6Q5","","","","{""Q0"":""A storm is brewing.""}","","","","","","","","","","","","","","","","","","","","","","",""
"4273","","image-slider-response","119","1603515","0.0-117.0","A28V5XY8A0R6Q5","","","","","15","","","","","","","","","","","","","","","","","","","","","",""
"null","","image-button-response","120","1608533","0.0-118.0","A28V5XY8A0R6Q5","img_art/21.jpg","null","","","","","","","","","","","","","","","","","","","","","","","","",""
"2487","","image-button-response","121","1611021","0.0-119.0","A28V5XY8A0R6Q5","img_art/21.jpg","1","","","","","","","","","","","","","","","","","","","","","","","","",""
"6481","","image-button-response","122","1617504","0.0-120.0-0.0","A28V5XY8A0R6Q5","img_art/21.jpg","5","","","","","","","","","","","","","","","","","","","","","","","","",""
"7772","","image-button-response","123","1625277","0.0-121.0-0.0","A28V5XY8A0R6Q5","img_art/21.jpg","3","","","","","","","","","","","","","","","","","","","","","","","","",""
"null","","html-keyboard-response","124","1626783","0.0-122.0","A28V5XY8A0R6Q5","<p style=""font-size: 48px;"">+</p>","","","","","null","allTrialResponses","1500","1","11","img_art/21.jpg","15","A storm is brewing.","Alexandra,Samantha,Sabrina,Andrea,Kristen,Jamie","This one is nice, it reminds me of the sky,42,60,20","Love the colors and the relationship between the light and storm,50,140,20","I like the representation of love and hate in this,43,120,20","It feels like a day at sea but the pink is slightly jarring and holding my eye.,26,240,20","calm, ship at sea, sunset,16,280,20","Contrast of fire and water looks cool,20,320,20","Samantha","Love the colors and the relationship between the light and storm,50,140,20","Jamie","Contrast of fire and water looks cool,20,320,20","Andrea","It feels like a day at sea but the pink is slightly jarring and holding my eye.,26,240,20","4"
"61832","","survey-text","125","1688623","0.0-123.0-0.0","A28V5XY8A0R6Q5","","","","{""Q0"":""Alligator selfie!""}","","","","","","","","","","","","","","","","","","","","","","",""
"6418","","image-slider-response","126","1695042","0.0-124.0","A28V5XY8A0R6Q5","","","","","-25","","","","","","","","","","","","","","","","","","","","","",""
"null","","image-button-response","127","1700052","0.0-125.0","A28V5XY8A0R6Q5","img_art/9.jpg","null","","","","","","","","","","","","","","","","","","","","","","","","",""
"4350","","image-button-response","128","1704404","0.0-126.0","A28V5XY8A0R6Q5","img_art/9.jpg","2","","","","","","","","","","","","","","","","","","","","","","","","",""
"3977","","image-button-response","129","1708382","0.0-127.0-0.0","A28V5XY8A0R6Q5","img_art/9.jpg","4","","","","","","","","","","","","","","","","","","","","","","","","",""
"9768","","image-button-response","130","1718151","0.0-128.0-0.0","A28V5XY8A0R6Q5","img_art/9.jpg","5","","","","","","","","","","","","","","","","","","","","","","","","",""
"null","","html-keyboard-response","131","1719161","0.0-129.0","A28V5XY8A0R6Q5","<p style=""font-size: 48px;"">+</p>","","","","","null","allTrialResponses","1000","1","12","img_art/9.jpg","-25","Alligator selfie!","Jasmine,Samantha,Morgan,Andrea,Sophia,Jamie","I like abstract art that looks that there is more than random brush strokes. This one looks the former,10,340,20","Some nice colors but i do not like it,-18,140,20","The mouth of an ugly beast.,-25,380,20","Sleeping woman in a cave. Makes me feel safe.,20,240,20","Yikes. I'm not sure what to make of this one.,-14,280,20","Mash up of colors and designs don't really go together,-5,320,20","Morgan","The mouth of an ugly beast.,-25,380,20","Sophia","Yikes. I'm not sure what to make of this one.,-14,280,20","Jamie","Mash up of colors and designs don't really go together,-5,320,20","4"
"23548","","survey-text","132","1742716","0.0-130.0-0.0","A28V5XY8A0R6Q5","","","","{""Q0"":""Taken from Endeavor.""}","","","","","","","","","","","","","","","","","","","","","","",""
"5901","","image-slider-response","133","1748618","0.0-131.0","A28V5XY8A0R6Q5","","","","","-23","","","","","","","","","","","","","","","","","","","","","",""
"3631","","image-button-response","134","1753622","0.0-132.0","A28V5XY8A0R6Q5","img_art/7.jpg","0","","","","","","","","","","","","","","","","","","","","","","","","",""
"2695","","image-button-response","135","1756320","0.0-133.0","A28V5XY8A0R6Q5","img_art/7.jpg","1","","","","","","","","","","","","","","","","","","","","","","","","",""
"3655","","image-button-response","136","1759976","0.0-134.0-0.0","A28V5XY8A0R6Q5","img_art/7.jpg","4","","","","","","","","","","","","","","","","","","","","","","","","",""
"2300","","image-button-response","137","1762277","0.0-135.0-0.0","A28V5XY8A0R6Q5","img_art/7.jpg","3","","","","","","","","","","","","","","","","","","","","","","","","",""
"null","","html-keyboard-response","138","1763782","0.0-136.0","A28V5XY8A0R6Q5","<p style=""font-size: 48px;"">+</p>","","","","","null","allTrialResponses","1500","1","13","img_art/7.jpg","-23","Taken from Endeavor.","Destiny,Courtney,Morgan,Alyssa,Sophia,Jamie","mars also crunchy leaves maybe a beehive,32,360,20","That a desert floor,16,280,20","Dead bugs on an insect battleground.,-10,380,20","It looks like someone took a picture of a muddy ground and called it art.,-41,160,20","Is this cookie dough?  Yum!,-10,280,20","Looks like a battle raging on,20,320,20","Courtney","That a desert floor,16,280,20","Sophia","Is this cookie dough?  Yum!,-10,280,20","Alyssa","It looks like someone took a picture of a muddy ground and called it art.,-41,160,20","4"
"28293","","survey-text","139","1792083","0.0-137.0-0.0","A28V5XY8A0R6Q5","","","","{""Q0"":""A pumpkin stem, no doubt.""}","","","","","","","","","","","","","","","","","","","","","","",""
"3896","","image-slider-response","140","1795981","0.0-138.0","A28V5XY8A0R6Q5","","","","","-31","","","","","","","","","","","","","","","","","","","","","",""
"null","","image-button-response","141","1800992","0.0-139.0","A28V5XY8A0R6Q5","img_art/6.jpg","null","","","","","","","","","","","","","","","","","","","","","","","","",""
"2424","","image-button-response","142","1803417","0.0-140.0","A28V5XY8A0R6Q5","img_art/6.jpg","1","","","","","","","","","","","","","","","","","","","","","","","","",""
"3843","","image-button-response","143","1807261","0.0-141.0-0.0","A28V5XY8A0R6Q5","img_art/6.jpg","4","","","","","","","","","","","","","","","","","","","","","","","","",""
"2457","","image-button-response","144","1809719","0.0-142.0-0.0","A28V5XY8A0R6Q5","img_art/6.jpg","5","","","","","","","","","","","","","","","","","","","","","","","","",""
"null","","html-keyboard-response","145","1810721","0.0-143.0","A28V5XY8A0R6Q5","<p style=""font-size: 48px;"">+</p>","","","","","null","allTrialResponses","1000","1","14","img_art/6.jpg","-31","A pumpkin stem, no doubt.","Megan,Courtney,Laura,Alyssa,Sophia,Breanna","Odd desert, nice sand color with headless bird,11,200,20","Its the headless bird. But why?,21,280,20","graceful and light,35,320,20","It makes me stop and think about what the artist is trying to say.It creates a feeling of solitude and tranqulity,30,160,20","It's okay. It kind of looks like a bird with his head buried in his feathers.,2,280,20","Not impressed, just very plain,-10,380,20","Courtney","Its the headless bird. But why?,21,280,20","Sophia","It's okay. It kind of looks like a bird with his head buried in his feathers.,2,280,20","Breanna","Not impressed, just very plain,-10,380,20","4"
"29043","","survey-text","146","1839771","0.0-144.0-0.0","A28V5XY8A0R6Q5","","","","{""Q0"":""Is that smoke or is that smoke?""}","","","","","","","","","","","","","","","","","","","","","","",""
"3058","","image-slider-response","147","1842830","0.0-145.0","A28V5XY8A0R6Q5","","","","","-36","","","","","","","","","","","","","","","","","","","","","",""
"null","","image-button-response","148","1847841","0.0-146.0","A28V5XY8A0R6Q5","img_art/20.jpg","null","","","","","","","","","","","","","","","","","","","","","","","","",""
"7731","","image-button-response","149","1855574","0.0-147.0","A28V5XY8A0R6Q5","img_art/20.jpg","3","","","","","","","","","","","","","","","","","","","","","","","","",""
"1079","","image-button-response","150","1856655","0.0-148.0-0.0","A28V5XY8A0R6Q5","img_art/20.jpg","0","","","","","","","","","","","","","","","","","","","","","","","","",""
"1205","","image-button-response","151","1857861","0.0-149.0-0.0","A28V5XY8A0R6Q5","img_art/20.jpg","1","","","","","","","","","","","","","","","","","","","","","","","","",""
"null","","html-keyboard-response","152","1858363","0.0-150.0","A28V5XY8A0R6Q5","<p style=""font-size: 48px;"">+</p>","","","","","null","allTrialResponses","500","1","15","img_art/20.jpg","-36","Is that smoke or is that smoke?","Paige,Courtney,Angela,Caitlin,Sophia,Breanna","scared. makes me feel alone or abandoned,-11,60,20","The beast is running after you.,33,280,20","I like the blues, and the sense of foreboding it makes me feel.,20,260,20","Not bad for all the southwestern people.,15,80,20","A truck rolled over?  I do like the pictures and the technique though.,25,280,20","Makes me feel impressed,9,380,20","Caitlin","Not bad for all the southwestern people.,15,80,20","Paige","scared. makes me feel alone or abandoned,-11,60,20","Courtney","The beast is running after you.,33,280,20","4"
"5121","","survey-text","153","1863505","0.0-151.0-0.0","A28V5XY8A0R6Q5","","","","{""Q0"":""course""}","","","","","","","","","","","","","","","","","","","","","","",""
"13127","","survey-text","154","1876632","0.0-152.0-0.0","A28V5XY8A0R6Q5","","","","{""Q0"":""I lost the dog.""}","","","","","","","","","","","","","","","","","","","","","","",""
"4122","","image-slider-response","155","1880757","0.0-153.0","A28V5XY8A0R6Q5","","","","","20","","","","","","","","","","","","","","","","","","","","","",""
"null","","image-button-response","156","1885760","0.0-154.0","A28V5XY8A0R6Q5","img_art/4.jpg","null","","","","","","","","","","","","","","","","","","","","","","","","",""
"678","","image-button-response","157","1886441","0.0-155.0","A28V5XY8A0R6Q5","img_art/4.jpg","3","","","","","","","","","","","","","","","","","","","","","","","","",""
"9501","","image-button-response","158","1895942","0.0-156.0-0.0","A28V5XY8A0R6Q5","img_art/4.jpg","2","","","","","","","","","","","","","","","","","","","","","","","","",""
"10137","","image-button-response","159","1906080","0.0-157.0-0.0","A28V5XY8A0R6Q5","img_art/4.jpg","5","","","","","","","","","","","","","","","","","","","","","","","","",""
"null","","html-keyboard-response","160","1907589","0.0-158.0","A28V5XY8A0R6Q5","<p style=""font-size: 48px;"">+</p>","","","","","null","allTrialResponses","1500","1","16","img_art/4.jpg","20","I lost the dog.","Paige,Courtney,Brooke,Caitlin,Gabriela,Meghan","the colors are calming,31,60,20","A leaning trophy,-9,280,20","Looks like the roomba got into dog poop,-30,60,20","They give out trophies now for fighting with brass knuckles?,-20,80,20","The bold colors are exciting. It looks like a statue on someone's mantle.,18,140,20","feels free flowing and relaxed,21,220,20","Caitlin","They give out trophies now for fighting with brass knuckles?,-20,80,20","Brooke","Looks like the roomba got into dog poop,-30,60,20","Meghan","feels free flowing and relaxed,21,220,20","4"
"27049","","survey-text","161","1934646","0.0-159.0-0.0","A28V5XY8A0R6Q5","","","","{""Q0"":""A cemetery.""}","","","","","","","","","","","","","","","","","","","","","","",""
"3864","","image-slider-response","162","1938512","0.0-160.0","A28V5XY8A0R6Q5","","","","","-34","","","","","","","","","","","","","","","","","","","","","",""
"null","","image-button-response","163","1943520","0.0-161.0","A28V5XY8A0R6Q5","img_art/17.jpg","null","","","","","","","","","","","","","","","","","","","","","","","","",""
"2998","","image-button-response","164","1946520","0.0-162.0","A28V5XY8A0R6Q5","img_art/17.jpg","4","","","","","","","","","","","","","","","","","","","","","","","","",""
"3593","","image-button-response","165","1950113","0.0-163.0-0.0","A28V5XY8A0R6Q5","img_art/17.jpg","0","","","","","","","","","","","","","","","","","","","","","","","","",""
"3999","","image-button-response","166","1954113","0.0-164.0-0.0","A28V5XY8A0R6Q5","img_art/17.jpg","1","","","","","","","","","","","","","","","","","","","","","","","","",""
"null","","html-keyboard-response","167","1955630","0.0-165.0","A28V5XY8A0R6Q5","<p style=""font-size: 48px;"">+</p>","","","","","null","allTrialResponses","1500","1","17","img_art/17.jpg","-34","A cemetery.","Catherine,Cassandra,Brooke,Caitlin,Natalie,Meghan","Nature coming to the inside of your space that you are locked into.,50,160,20","Very pretty...the colors and good and flow well.,33,120,20","doorways and trees are pleasant,30,60,20","Somewhat should trim the tree branches at the shopping mall.,10,80,20","my response to the picture is that it looks beautiful,27,400,20","pretty bland in coloring,1,220,20","Natalie","my response to the picture is that it looks beautiful,27,400,20","Catherine","Nature coming to the inside of your space that you are locked into.,50,160,20","Cassandra","Very pretty...the colors and good and flow well.,33,120,20","4"
"28717","","survey-text","168","1984352","0.0-166.0-0.0","A28V5XY8A0R6Q5","","","","{""Q0"":""Has anyone seen my eyeliner?""}","","","","","","","","","","","","","","","","","","","","","","",""
"5566","","image-slider-response","169","1989919","0.0-167.0","A28V5XY8A0R6Q5","","","","","13","","","","","","","","","","","","","","","","","","","","","",""
"null","","image-button-response","170","1994930","0.0-168.0","A28V5XY8A0R6Q5","img_art/15.jpg","null","","","","","","","","","","","","","","","","","","","","","","","","",""
"9558","","image-button-response","171","2004489","0.0-169.0","A28V5XY8A0R6Q5","img_art/15.jpg","2","","","","","","","","","","","","","","","","","","","","","","","","",""
"6025","","image-button-response","172","2010515","0.0-170.0-0.0","A28V5XY8A0R6Q5","img_art/15.jpg","5","","","","","","","","","","","","","","","","","","","","","","","","",""
"11297","","image-button-response","173","2021813","0.0-171.0-0.0","A28V5XY8A0R6Q5","img_art/15.jpg","0","","","","","","","","","","","","","","","","","","","","","","","","",""
"null","","html-keyboard-response","174","2023329","0.0-172.0","A28V5XY8A0R6Q5","<p style=""font-size: 48px;"">+</p>","","","","","null","allTrialResponses","1500","1","18","img_art/15.jpg","13","Has anyone seen my eyeliner?","Catherine,Cassandra,Cheyenne,Jennifer,Natalie,Jenna","ants on the ground playing with bubble gum. They may be thinking of how they can use it to build something,-30,160,20","Hate it...black dots.,-47,120,20","I like how the black and blue clash.,14,200,20","This piece isn't particularly attractive, but it's not ugly either.,1,380,20","my response to the picture is that I dont know what I am looking at,-25,400,20","interesting technique. the blue is very pretty,18,360,20","Cheyenne","I like how the black and blue clash.,14,200,20","Jenna","interesting technique. the blue is very pretty,18,360,20","Catherine","ants on the ground playing with bubble gum. They may be thinking of how they can use it to build something,-30,160,20","4"
"9796","","survey-text","175","2033139","0.0-173.0-0.0","A28V5XY8A0R6Q5","","","","{""Q0"":""Uuugly!""}","","","","","","","","","","","","","","","","","","","","","","",""
"3716","","image-slider-response","176","2036857","0.0-174.0","A28V5XY8A0R6Q5","","","","","-49","","","","","","","","","","","","","","","","","","","","","",""
"2849","","image-button-response","177","2041869","0.0-175.0","A28V5XY8A0R6Q5","img_art/12.jpg","0","","","","","","","","","","","","","","","","","","","","","","","","",""
"6557","","image-button-response","178","2048428","0.0-176.0","A28V5XY8A0R6Q5","img_art/12.jpg","0","","","","","","","","","","","","","","","","","","","","","","","","",""
"4876","","image-button-response","179","2053305","0.0-177.0-0.0","A28V5XY8A0R6Q5","img_art/12.jpg","5","","","","","","","","","","","","","","","","","","","","","","","","",""
"1556","","image-button-response","180","2054863","0.0-178.0-0.0","A28V5XY8A0R6Q5","img_art/12.jpg","4","","","","","","","","","","","","","","","","","","","","","","","","",""
"null","","html-keyboard-response","181","2055879","0.0-179.0","A28V5XY8A0R6Q5","<p style=""font-size: 48px;"">+</p>","","","","","null","allTrialResponses","1000","1","19","img_art/12.jpg","-49","Uuugly!","Catherine,Haley,Cheyenne,Miranda,Monica,Jenna","confused. stages of a persons life from beginning positive to ending negative.,-10,160,20","Very interesting. Makes me want to look at it for a long time.,16,220,20","Comes off as a bit boring.,-11,200,20","This is like going to a really old mcdoanlds in a tiny town and it's never been renovated so it's breaking down,-31,320,20","Reminds me of collages we made in elementary school. I like the contrast of the colors from top to bottom,43,360,20","interesting, but feels like someone cut up a picture and pasted it together wrong. want to see the original,15,360,20","Catherine","confused. stages of a persons life from beginning positive to ending negative.,-10,160,20","Jenna","interesting, but feels like someone cut up a picture and pasted it together wrong. want to see the original,15,360,20","Monica","Reminds me of collages we made in elementary school. I like the contrast of the colors from top to bottom,43,360,20","4"
"13342","","survey-text","182","2069229","0.0-180.0-0.0","A28V5XY8A0R6Q5","","","","{""Q0"":""After the storm.""}","","","","","","","","","","","","","","","","","","","","","","",""
"6933","","image-slider-response","183","2076162","0.0-181.0","A28V5XY8A0R6Q5","","","","","13","","","","","","","","","","","","","","","","","","","","","",""
"1737","","image-button-response","184","2081169","0.0-182.0","A28V5XY8A0R6Q5","img_art/14.jpg","0","","","","","","","","","","","","","","","","","","","","","","","","",""
"5076","","image-button-response","185","2086247","0.0-183.0","A28V5XY8A0R6Q5","img_art/14.jpg","5","","","","","","","","","","","","","","","","","","","","","","","","",""
"1650","","image-button-response","186","2087898","0.0-184.0-0.0","A28V5XY8A0R6Q5","img_art/14.jpg","3","","","","","","","","","","","","","","","","","","","","","","","","",""
"8584","","image-button-response","187","2096484","0.0-185.0-0.0","A28V5XY8A0R6Q5","img_art/14.jpg","1","","","","","","","","","","","","","","","","","","","","","","","","",""
"null","","html-keyboard-response","188","2096986","0.0-186.0","A28V5XY8A0R6Q5","<p style=""font-size: 48px;"">+</p>","","","","","null","allTrialResponses","500","1","20","img_art/14.jpg","13","After the storm.","Catherine,Diana,Erin,Katelyn,Monica,Jenna","Tornado, nature. trees falling and displaced creatures. Love the colors though.,1,160,20","This piece feels inviting. It's like opening up the pages of your favorite book for the first time.,26,380,20","Looks childish and basic,-42,120,20","Its cute. Not striking but i would keep it in my home.,10,100,20","Just don't like it, maybe it's the bleeding colors on the left of the tree-looking thing in the center or the faded background,-10,360,20","love the colors. despite their brightness it seems sad somehow.,41,360,20","Jenna","love the colors. despite their brightness it seems sad somehow.,41,360,20","Katelyn","Its cute. Not striking but i would keep it in my home.,10,100,20","Diana","This piece feels inviting. It's like opening up the pages of your favorite book for the first time.,26,380,20","4"
"3203","","survey-text","189","2100196","0.0-187.0-0.0","A28V5XY8A0R6Q5","","","","{""Q0"":""we""}","","","","","","","","","","","","","","","","","","","","","","",""
"24845","","survey-text","190","2125042","0.0-188.0-0.0","A28V5XY8A0R6Q5","","","","{""Q0"":""The artists first attempt.""}","","","","","","","","","","","","","","","","","","","","","","",""
"8955","","image-slider-response","191","2133998","0.0-189.0","A28V5XY8A0R6Q5","","","","","-45","","","","","","","","","","","","","","","","","","","","","",""
"1696","","image-button-response","192","2139017","0.0-190.0","A28V5XY8A0R6Q5","img_art/27.jpg","0","","","","","","","","","","","","","","","","","","","","","","","","",""
"601055","","image-button-response","193","2740075","0.0-191.0","A28V5XY8A0R6Q5","img_art/27.jpg","0","","","","","","","","","","","","","","","","","","","","","","","","",""
"843","","image-button-response","194","2740921","0.0-192.0-0.0","A28V5XY8A0R6Q5","img_art/27.jpg","4","","","","","","","","","","","","","","","","","","","","","","","","",""
"755","","image-button-response","195","2741681","0.0-193.0-0.0","A28V5XY8A0R6Q5","img_art/27.jpg","5","","","","","","","","","","","","","","","","","","","","","","","","",""
"null","","html-keyboard-response","196","2742193","0.0-194.0","A28V5XY8A0R6Q5","<p style=""font-size: 48px;"">+</p>","","","","","null","allTrialResponses","500","1","21","img_art/27.jpg","-45","The artists first attempt.","Claire,Diana,Allison,Katelyn,Savannah,Jenna","looks like a little kid did it,-30,260,20","I don't care for the green scribbles; not sure what they are. But I adore the colors in the background.,24,380,20","Warn colors are pretty, but too blotchy for me.,3,140,20","Doesnt look like anything to me. Doesnt capture my attention.,-25,100,20","An abstract piece with such lifeless colors.,-26,200,20","the green & white scribbles feel childlike. perhaps the quality of the photo, but the colors are gloomy.,-13,360,20","Claire","looks like a little kid did it,-30,260,20","Savannah","An abstract piece with such lifeless colors.,-26,200,20","Jenna","the green & white scribbles feel childlike. perhaps the quality of the photo, but the colors are gloomy.,-13,360,20","4"
"14152","","survey-text","197","2756362","0.0-195.0-0.0","A28V5XY8A0R6Q5","","","","{""Q0"":""Murderer!!!!""}","","","","","","","","","","","","","","","","","","","","","","",""
"3615","","image-slider-response","198","2759979","0.0-196.0","A28V5XY8A0R6Q5","","","","","-26","","","","","","","","","","","","","","","","","","","","","",""
"3536","","image-button-response","199","2764993","0.0-197.0","A28V5XY8A0R6Q5","img_art/29.jpg","0","","","","","","","","","","","","","","","","","","","","","","","","",""
"305","","image-button-response","200","2765300","0.0-198.0","A28V5XY8A0R6Q5","img_art/29.jpg","1","","","","","","","","","","","","","","","","","","","","","","","","",""
"2027","","image-button-response","201","2767328","0.0-199.0-0.0","A28V5XY8A0R6Q5","img_art/29.jpg","2","","","","","","","","","","","","","","","","","","","","","","","","",""
"1898","","image-button-response","202","2769227","0.0-200.0-0.0","A28V5XY8A0R6Q5","img_art/29.jpg","5","","","","","","","","","","","","","","","","","","","","","","","","",""
"null","","html-keyboard-response","203","2770731","0.0-201.0","A28V5XY8A0R6Q5","<p style=""font-size: 48px;"">+</p>","","","","","null","allTrialResponses","1500","1","22","img_art/29.jpg","-26","Murderer!!!!","Claire,Margaret,Emma,Shelby,Savannah,Jenna","interesting, but I wouldn't put it on my wall,8,260,20","this does nothing for me. hate the colors. hate the design,-50,100,20","Feels messy, stressful,-22,60,20","Doesnt say much for me,0,240,20","Looks wrong. Like a real painting was vandalized.,-50,200,20","risks well taken. the brush is hilarious. feels like an artist's frustration, which is relatable.,50,360,20","Margaret","this does nothing for me. hate the colors. hate the design,-50,100,20","Emma","Feels messy, stressful,-22,60,20","Jenna","risks well taken. the brush is hilarious. feels like an artist's frustration, which is relatable.,50,360,20","4"
"17127","","survey-text","204","2787865","0.0-202.0-0.0","A28V5XY8A0R6Q5","","","","{""Q0"":""Scribble art.""}","","","","","","","","","","","","","","","","","","","","","","",""
"9062","","image-slider-response","205","2796929","0.0-203.0","A28V5XY8A0R6Q5","","","","","-38","","","","","","","","","","","","","","","","","","","","","",""
"1648","","image-button-response","206","2801938","0.0-204.0","A28V5XY8A0R6Q5","img_art/3.jpg","4","","","","","","","","","","","","","","","","","","","","","","","","",""
"383","","image-button-response","207","2802322","0.0-205.0","A28V5XY8A0R6Q5","img_art/3.jpg","1","","","","","","","","","","","","","","","","","","","","","","","","",""
"1406","","image-button-response","208","2803729","0.0-206.0-0.0","A28V5XY8A0R6Q5","img_art/3.jpg","4","","","","","","","","","","","","","","","","","","","","","","","","",""
"4052","","image-button-response","209","2807783","0.0-207.0-0.0","A28V5XY8A0R6Q5","img_art/3.jpg","2","","","","","","","","","","","","","","","","","","","","","","","","",""
"null","","html-keyboard-response","210","2808787","0.0-208.0","A28V5XY8A0R6Q5","<p style=""font-size: 48px;"">+</p>","","","","","null","allTrialResponses","1000","1","23","img_art/3.jpg","-38","Scribble art.","Mackenzie,Margaret,Emma,Brianna,Hailey,Jenna","I like the simplicity of it.,20,20,20","seems distressing. a blood scene,-3,100,20","Feels upset .......,-10,60,20","It's very plain,-20,20,20","painted by a 2 year old. cold and boring,-30,200,20","unique & stylized. interesting. another one I could keep staring at.,50,360,20","Margaret","seems distressing. a blood scene,-3,100,20","Hailey","painted by a 2 year old. cold and boring,-30,200,20","Emma","Feels upset .......,-10,60,20","4"
"19134","","survey-text","211","2827932","0.0-209.0-0.0","A28V5XY8A0R6Q5","","","","{""Q0"":""A chorus line at Mardi Gras.""}","","","","","","","","","","","","","","","","","","","","","","",""
"4850","","image-slider-response","212","2832783","0.0-210.0","A28V5XY8A0R6Q5","","","","","13","","","","","","","","","","","","","","","","","","","","","",""
"1391","","image-button-response","213","2837793","0.0-211.0","A28V5XY8A0R6Q5","img_art/23.jpg","0","","","","","","","","","","","","","","","","","","","","","","","","",""
"1383","","image-button-response","214","2839177","0.0-212.0","A28V5XY8A0R6Q5","img_art/23.jpg","0","","","","","","","","","","","","","","","","","","","","","","","","",""
"1424","","image-button-response","215","2840602","0.0-213.0-0.0","A28V5XY8A0R6Q5","img_art/23.jpg","3","","","","","","","","","","","","","","","","","","","","","","","","",""
"6142","","image-button-response","216","2846746","0.0-214.0-0.0","A28V5XY8A0R6Q5","img_art/23.jpg","2","","","","","","","","","","","","","","","","","","","","","","","","",""
"null","","html-keyboard-response","217","2848261","0.0-215.0","A28V5XY8A0R6Q5","<p style=""font-size: 48px;"">+</p>","","","","","null","allTrialResponses","1500","1","24","img_art/23.jpg","13","A chorus line at Mardi Gras.","Tiffany,Margaret,Emma,Marissa,Hailey,Amy","I feel happy and a little excited. Like watching fireworks with family.,26,360,20","white reminds me of screamo music band tshirts when they have their name in the unreadable lettering,-9,100,20","Love the use of colors and light,50,60,20","It feels exciting,23,160,20","cold and dark feeling,-27,200,20","So exciting and full of the night.,20,220,20","Tiffany","I feel happy and a little excited. Like watching fireworks with family.,26,360,20","Marissa","It feels exciting,23,160,20","Emma","Love the use of colors and light,50,60,20","4"
"8148","","survey-text","218","2856419","0.0-216.0-0.0","A28V5XY8A0R6Q5","","","","{""Q0"":""Kiddie art.""}","","","","","","","","","","","","","","","","","","","","","","",""
"3645","","image-slider-response","219","2860066","0.0-217.0","A28V5XY8A0R6Q5","","","","","-48","","","","","","","","","","","","","","","","","","","","","",""
"3341","","image-button-response","220","2865071","0.0-218.0","A28V5XY8A0R6Q5","img_art/16.jpg","0","","","","","","","","","","","","","","","","","","","","","","","","",""
"1981","","image-button-response","221","2867055","0.0-219.0","A28V5XY8A0R6Q5","img_art/16.jpg","0","","","","","","","","","","","","","","","","","","","","","","","","",""
"1047","","image-button-response","222","2868103","0.0-220.0-0.0","A28V5XY8A0R6Q5","img_art/16.jpg","2","","","","","","","","","","","","","","","","","","","","","","","","",""
"1565","","image-button-response","223","2869669","0.0-221.0-0.0","A28V5XY8A0R6Q5","img_art/16.jpg","5","","","","","","","","","","","","","","","","","","","","","","","","",""
"null","","html-keyboard-response","224","2870681","0.0-222.0","A28V5XY8A0R6Q5","<p style=""font-size: 48px;"">+</p>","","","","","null","allTrialResponses","1000","1","25","img_art/16.jpg","-48","Kiddie art.","Tiffany,Taylor,Emma,Marissa,Julia,Maria","I feel irked, like somehow the items in this painting just happened to fall on the page together.,-44,360,20","It just makes me feel uncomfortable,-25,340,20","Kind of creepyyyyyy,-41,60,20","I do not like this dark and twisted portrayal of childhood,-42,160,20","I love the teddy bear,50,40,20","feel a little creeped out,-20,120,20","Tiffany","I feel irked, like somehow the items in this painting just happened to fall on the page together.,-44,360,20","Emma","Kind of creepyyyyyy,-41,60,20","Maria","feel a little creeped out,-20,120,20","4"
"4966","","survey-text","225","2875671","0.0-223.0-0.0","A28V5XY8A0R6Q5","","","","{""Q0"":""table""}","","","","","","","","","","","","","","","","","","","","","","",""
"17023","","survey-text","226","2892695","0.0-224.0-0.0","A28V5XY8A0R6Q5","","","","{""Q0"":""Serene.""}","","","","","","","","","","","","","","","","","","","","","","",""
"4530","","image-slider-response","227","2897227","0.0-225.0","A28V5XY8A0R6Q5","","","","","22","","","","","","","","","","","","","","","","","","","","","",""
"3982","","image-button-response","228","2902231","0.0-226.0","A28V5XY8A0R6Q5","img_art/19.jpg","3","","","","","","","","","","","","","","","","","","","","","","","","",""
"1669","","image-button-response","229","2903903","0.0-227.0","A28V5XY8A0R6Q5","img_art/19.jpg","3","","","","","","","","","","","","","","","","","","","","","","","","",""
"3926","","image-button-response","230","2907831","0.0-228.0-0.0","A28V5XY8A0R6Q5","img_art/19.jpg","2","","","","","","","","","","","","","","","","","","","","","","","","",""
"1454","","image-button-response","231","2909287","0.0-229.0-0.0","A28V5XY8A0R6Q5","img_art/19.jpg","5","","","","","","","","","","","","","","","","","","","","","","","","",""
"null","","html-keyboard-response","232","2910791","0.0-230.0","A28V5XY8A0R6Q5","<p style=""font-size: 48px;"">+</p>","","","","","null","allTrialResponses","1500","1","26","img_art/19.jpg","22","Serene.","Tiffany,Grace,Emma,Leslie,Lauren,Maria","I feel a little anxious and happy. I'm about to walk into a market and any number of treasures could be found,14,360,20","Looks like a child's rendering of a city street but not too sure.,0,180,20","Interesting, leaves you wondering what it is,40,60,20","It's a cute city scene, but nothing special.,10,380,20","The image doesn't really invoke any emotions strongly.,0,340,20","the way the landscape is portrayed captivates me - I enjoy studying the structure,32,120,20","Leslie","It's a cute city scene, but nothing special.,10,380,20","Emma","Interesting, leaves you wondering what it is,40,60,20","Maria","the way the landscape is portrayed captivates me - I enjoy studying the structure,32,120,20","4"
"25161","","survey-text","233","2935967","0.0-231.0-0.0","A28V5XY8A0R6Q5","","","","{""Q0"":""Dreary, looks like a dead zone.""}","","","","","","","","","","","","","","","","","","","","","","",""
"3442","","image-slider-response","234","2939410","0.0-232.0","A28V5XY8A0R6Q5","","","","","-44","","","","","","","","","","","","","","","","","","","","","",""
"null","","image-button-response","235","2944419","0.0-233.0","A28V5XY8A0R6Q5","img_art/26.jpg","null","","","","","","","","","","","","","","","","","","","","","","","","",""
"1080","","image-button-response","236","2945501","0.0-234.0","A28V5XY8A0R6Q5","img_art/26.jpg","2","","","","","","","","","","","","","","","","","","","","","","","","",""
"2212","","image-button-response","237","2947715","0.0-235.0-0.0","A28V5XY8A0R6Q5","img_art/26.jpg","4","","","","","","","","","","","","","","","","","","","","","","","","",""
"1386","","image-button-response","238","2949101","0.0-236.0-0.0","A28V5XY8A0R6Q5","img_art/26.jpg","0","","","","","","","","","","","","","","","","","","","","","","","","",""
"null","","html-keyboard-response","239","2949611","0.0-237.0","A28V5XY8A0R6Q5","<p style=""font-size: 48px;"">+</p>","","","","","null","allTrialResponses","500","1","27","img_art/26.jpg","-44","Dreary, looks like a dead zone.","Melissa,Alicia,Emma,Leslie,Amber,Maria","feels incomplete,-50,240,20","I like the simple watercolor colors, makes my mind work, thumbs up.,27,120,20","Looks unfinished,-31,60,20","It's a cute city scene. I like the trees.,10,380,20","The colors are muted.,1,200,20","fairly neutral, really,8,120,20","Emma","Looks unfinished,-31,60,20","Amber","The colors are muted.,1,200,20","Melissa","feels incomplete,-50,240,20","4"
"26437","","survey-text","240","2976055","0.0-238.0-0.0","A28V5XY8A0R6Q5","","","","{""Q0"":""Seems like an industrial negotiation.""}","","","","","","","","","","","","","","","","","","","","","","",""
"3857","","image-slider-response","241","2979914","0.0-239.0","A28V5XY8A0R6Q5","","","","","26","","","","","","","","","","","","","","","","","","","","","",""
"null","","image-button-response","242","2984920","0.0-240.0","A28V5XY8A0R6Q5","img_art/28.jpg","null","","","","","","","","","","","","","","","","","","","","","","","","",""
"3242","","image-button-response","243","2988165","0.0-241.0","A28V5XY8A0R6Q5","img_art/28.jpg","1","","","","","","","","","","","","","","","","","","","","","","","","",""
"2243","","image-button-response","244","2990409","0.0-242.0-0.0","A28V5XY8A0R6Q5","img_art/28.jpg","5","","","","","","","","","","","","","","","","","","","","","","","","",""
"2833","","image-button-response","245","2993244","0.0-243.0-0.0","A28V5XY8A0R6Q5","img_art/28.jpg","0","","","","","","","","","","","","","","","","","","","","","","","","",""
"null","","html-keyboard-response","246","2993750","0.0-244.0","A28V5XY8A0R6Q5","<p style=""font-size: 48px;"">+</p>","","","","","null","allTrialResponses","500","1","28","img_art/28.jpg","26","Seems like an industrial negotiation.","Melissa,Ashley,Emma,Isabella,Amber,Sarah","reminds me of kandinsky,14,240,20","Normally don't react well to abstract art, but it looks almost like something's there.,28,320,20","Don't love the colors,-10,60,20","This is also something I would see in a serious but safe environment,14,280,20","Colors are too dull.,-30,200,20","something about all the off-greys is pretty interesting,5,180,20","Ashley","Normally don't react well to abstract art, but it looks almost like something's there.,28,320,20","Sarah","something about all the off-greys is pretty interesting,5,180,20","Melissa","reminds me of kandinsky,14,240,20","4"
"16157","","survey-text","247","3009914","0.0-245.0-0.0","A28V5XY8A0R6Q5","","","","{""Q0"":""Water ball art.""}","","","","","","","","","","","","","","","","","","","","","","",""
"3442","","image-slider-response","248","3013356","0.0-246.0","A28V5XY8A0R6Q5","","","","","-38","","","","","","","","","","","","","","","","","","","","","",""
"1532","","image-button-response","249","3018361","0.0-247.0","A28V5XY8A0R6Q5","img_art/1.jpg","0","","","","","","","","","","","","","","","","","","","","","","","","",""
"3142","","image-button-response","250","3021504","0.0-248.0","A28V5XY8A0R6Q5","img_art/1.jpg","5","","","","","","","","","","","","","","","","","","","","","","","","",""
"2699","","image-button-response","251","3024203","0.0-249.0-0.0","A28V5XY8A0R6Q5","img_art/1.jpg","0","","","","","","","","","","","","","","","","","","","","","","","","",""
"2269","","image-button-response","252","3026474","0.0-250.0-0.0","A28V5XY8A0R6Q5","img_art/1.jpg","4","","","","","","","","","","","","","","","","","","","","","","","","",""
"null","","html-keyboard-response","253","3027490","0.0-251.0","A28V5XY8A0R6Q5","<p style=""font-size: 48px;"">+</p>","","","","","null","allTrialResponses","1000","1","29","img_art/1.jpg","-38","Water ball art.","Melissa,Ashley,Brittany,Cassidy,Dominique,Sarah","muddy and uninteresting,-16,240,20","More passable, colorful, abstract.,13,320,20","It reminds me of a sunset I once saw.,16,40,20","I like the colors and layers,25,140,20","I love the detail and colors like a beautiful autumn day,35,400,20","it's boring despite all the colors,-2,180,20","Sarah","it's boring despite all the colors,-2,180,20","Melissa","muddy and uninteresting,-16,240,20","Dominique","I love the detail and colors like a beautiful autumn day,35,400,20","4"
"22981","","survey-text","254","3050480","0.0-252.0-0.0","A28V5XY8A0R6Q5","","","","{""Q0"":""Very nice nature scene.""}","","","","","","","","","","","","","","","","","","","","","","",""
"7926","","image-slider-response","255","3058407","0.0-253.0","A28V5XY8A0R6Q5","","","","","19","","","","","","","","","","","","","","","","","","","","","",""
"3929","","image-button-response","256","3063410","0.0-254.0","A28V5XY8A0R6Q5","img_art/24.jpg","0","","","","","","","","","","","","","","","","","","","","","","","","",""
"1885","","image-button-response","257","3065296","0.0-255.0","A28V5XY8A0R6Q5","img_art/24.jpg","4","","","","","","","","","","","","","","","","","","","","","","","","",""
"3835","","image-button-response","258","3069131","0.0-256.0-0.0","A28V5XY8A0R6Q5","img_art/24.jpg","2","","","","","","","","","","","","","","","","","","","","","","","","",""
"4601","","image-button-response","259","3073734","0.0-257.0-0.0","A28V5XY8A0R6Q5","img_art/24.jpg","5","","","","","","","","","","","","","","","","","","","","","","","","",""
"null","","html-keyboard-response","260","3074249","0.0-258.0","A28V5XY8A0R6Q5","<p style=""font-size: 48px;"">+</p>","","","","","null","allTrialResponses","500","1","30","img_art/24.jpg","19","Very nice nature scene.","Melissa,Gabrielle,Mariah,Madeline,Dominique,Sarah","feels overdone, but still executed well,0,240,20","flowing water part is good, some of the rest is ok but dark,14,160,20","It is like a really bad impressionist painting.,-40,140,20","colors are good but the style is iffy,12,40,20","Spending a day in nature,21,400,20","it's fine, the colors are pleasing, but not my taste,9,180,20","Dominique","Spending a day in nature,21,400,20","Mariah","It is like a really bad impressionist painting.,-40,140,20","Sarah","it's fine, the colors are pleasing, but not my taste,9,180,20","4"
"4165","","image-button-response_instructions","261","3078421","0.0-259.0","A28V5XY8A0R6Q5","","0","instructions","","","","","","","","","","","","","","","","","","","","","","","",""
