"rt","url","trial_type","trial_index","time_elapsed","internal_node_id","participant_id","stimulus","button_pressed","Name","responses","response","key_press","variableName","fixationTime","condition","trial","photo","subjectRating","subjectResponse","agentsNames","agent_1_Response","agent_2_Response","agent_3_Response","agent_4_Response","agent_5_Response","agent_6_Response","kept_1_name","kept_1_response","kept_2_name","kept_2_response","kept_3_name","kept_3_response","errorCounter"
"9556","external_page_harvard.html","external-html","0","9627","0.0-0.0","A2APG8MSLJ6G2K","","","","","","","","","","","","","","","","","","","","","","","","","","",""
"2101","","image-button-response","1","11730","0.0-1.0","A2APG8MSLJ6G2K","","1","","","","","","","","","","","","","","","","","","","","","","","","",""
"2215","","image-button-response","2","13948","0.0-2.0-0.0","A2APG8MSLJ6G2K","","1","phone","","","","","","","","","","","","","","","","","","","","","","","",""
"7636","","survey-text","3","21586","0.0-3.0-0.0","A2APG8MSLJ6G2K","","","","{""Q0"":""A2APG8MSLJ6G2K""}","","","","","","","","","","","","","","","","","","","","","","",""
"5031","","image-button-response_instructions","4","26619","0.0-4.0","A2APG8MSLJ6G2K","","0","instructions","","","","","","","","","","","","","","","","","","","","","","","",""
"11344","","image-button-response_instructions","5","37964","0.0-5.0","A2APG8MSLJ6G2K","img_art/ins/popularity/ins1.png","0","instructions","","","","","","","","","","","","","","","","","","","","","","","",""
"5529","","image-button-response_instructions","6","43494","0.0-6.0","A2APG8MSLJ6G2K","img_art/ins/popularity/ins2.png","0","instructions","","","","","","","","","","","","","","","","","","","","","","","",""
"6900","","image-button-response_instructions","7","50396","0.0-7.0","A2APG8MSLJ6G2K","img_art/ins/popularity/ins2Extreme.png","0","instructions","","","","","","","","","","","","","","","","","","","","","","","",""
"20859","","image-button-response_instructions","8","71256","0.0-8.0","A2APG8MSLJ6G2K","img_art/ins/popularity/ins3KEEPpop.PNG","0","instructions","","","","","","","","","","","","","","","","","","","","","","","",""
"4849","","image-button-response_instructions","9","76106","0.0-9.0","A2APG8MSLJ6G2K","img_art/ins/popularity/ins3ANamepop.PNG","0","instructions","","","","","","","","","","","","","","","","","","","","","","","",""
"4623","","image-button-response_instructions","10","80729","0.0-10.0","A2APG8MSLJ6G2K","img_art/ins/popularity/ins3ARatingpop.png","0","instructions","","","","","","","","","","","","","","","","","","","","","","","",""
"3637","","image-button-response_instructions","11","84368","0.0-11.0","A2APG8MSLJ6G2K","img_art/ins/popularity/ins3ATextpop.png","0","instructions","","","","","","","","","","","","","","","","","","","","","","","",""
"4363","","image-button-response_instructions","12","88732","0.0-12.0","A2APG8MSLJ6G2K","img_art/ins/popularity/ins3ALikespop.png","0","instructions","","","","","","","","","","","","","","","","","","","","","","","",""
"14583","","image-button-response_instructions","13","103315","0.0-13.0","A2APG8MSLJ6G2K","img_art/ins/popularity/ins3KEEPpop.PNG","0","instructions","","","","","","","","","","","","","","","","","","","","","","","",""
"17169","","image-button-response_instructions","14","120486","0.0-14.0","A2APG8MSLJ6G2K","img_art/ins/popularity/ins3_5RED.png","0","instructions","","","","","","","","","","","","","","","","","","","","","","","",""
"7352","","image-button-response_instructions","15","127839","0.0-15.0","A2APG8MSLJ6G2K","img_art/ins/popularity/ins3KEEPpop.PNG","0","instructions","","","","","","","","","","","","","","","","","","","","","","","",""
"25909","","image-button-response_instructions","16","153749","0.0-16.0","A2APG8MSLJ6G2K","img_art/ins/popularity/ins4KEEPpop.PNG","0","instructions","","","","","","","","","","","","","","","","","","","","","","","",""
"5153","","image-button-response_instructions","17","158902","0.0-17.0","A2APG8MSLJ6G2K","img_art/ins/popularity/ins5KEEPpop.PNG","0","instructions","","","","","","","","","","","","","","","","","","","","","","","",""
"1544","","image-button-response_instructions","18","160447","0.0-18.0","A2APG8MSLJ6G2K","","0","instructions","","","","","","","","","","","","","","","","","","","","","","","",""
"10271","","survey-text","19","170738","0.0-19.0-0.0","A2APG8MSLJ6G2K","","","","{""Q0"":""but""}","","","","","","","","","","","","","","","","","","","","","","",""
"16241","","survey-text","20","186981","0.0-20.0-0.0","A2APG8MSLJ6G2K","","","","{""Q0"":""nice brush strokes, like a wheat field""}","","","","","","","","","","","","","","","","","","","","","","",""
"4156.899999856949","","image-slider-response","21","191140","0.0-21.0","A2APG8MSLJ6G2K","","","","","26","","","","","","","","","","","","","","","","","","","","","",""
"null","","image-button-response","22","196145","0.0-22.0","A2APG8MSLJ6G2K","img_art/ins/1.jpg","null","","","","","","","","","","","","","","","","","","","","","","","","",""
"304","","image-button-response","23","196450","0.0-23.0","A2APG8MSLJ6G2K","img_art/ins/1.jpg","4","","","","","","","","","","","","","","","","","","","","","","","","",""
"6540","","image-button-response","24","202992","0.0-24.0-0.0","A2APG8MSLJ6G2K","img_art/ins/1.jpg","5","","","","","","","","","","","","","","","","","","","","","","","","",""
"1262","","image-button-response","25","204255","0.0-25.0-0.0","A2APG8MSLJ6G2K","img_art/ins/1.jpg","1","","","","","","","","","","","","","","","","","","","","","","","","",""
"null","","html-keyboard-response","26","204759","0.0-26.0","A2APG8MSLJ6G2K","<p style=""font-size: 48px;"">+</p>","","","","","null","allTrialResponses","500","1","-2","img_art/ins/1.jpg","26","nice brush strokes, like a wheat field","Allison,Ashley,Beth,Dora,Erika,Jen","looks like a lot of things going on in the mist,20,20,20","I just don't get why these type of art would be popular,-32,40,20","This color reminds me of poo,-46,60,20","looks like what my niece in 3rd grade did this afternoon,-50,80,20","I like the sophisticated brushwork,40,100,20","It reminds me of a candy land dream I had,36,120,20","Erika","I like the sophisticated brushwork,40,100,20","Jen","It reminds me of a candy land dream I had,36,120,20","Ashley","I just don't get why these type of art would be popular,-32,40,20","0"
"10179","","survey-text","27","214941","0.0-27.0-0.0","A2APG8MSLJ6G2K","","","","{""Q0"":""violent abstract colors""}","","","","","","","","","","","","","","","","","","","","","","",""
"3805.7999999523163","","image-slider-response","28","218748","0.0-28.0","A2APG8MSLJ6G2K","","","","","-13","","","","","","","","","","","","","","","","","","","","","",""
"3383","","image-button-response","29","223759","0.0-29.0","A2APG8MSLJ6G2K","img_art/ins/2.jpg","4","","","","","","","","","","","","","","","","","","","","","","","","",""
"2191","","image-button-response","30","225951","0.0-30.0","A2APG8MSLJ6G2K","img_art/ins/2.jpg","0","","","","","","","","","","","","","","","","","","","","","","","","",""
"2201","","image-button-response","31","228153","0.0-31.0-0.0","A2APG8MSLJ6G2K","img_art/ins/2.jpg","5","","","","","","","","","","","","","","","","","","","","","","","","",""
"2969","","image-button-response","32","231123","0.0-32.0-0.0","A2APG8MSLJ6G2K","img_art/ins/2.jpg","4","","","","","","","","","","","","","","","","","","","","","","","","",""
"null","","html-keyboard-response","33","232131","0.0-33.0","A2APG8MSLJ6G2K","<p style=""font-size: 48px;"">+</p>","","","","","null","allTrialResponses","1000","1","-1","img_art/ins/2.jpg","-13","violent abstract colors","Kara,Ashley,Katie,Jenna,Erika,Jen","I like the blocks of color arrangements,30,160,20","Idk, it is just annoying,-32,40,20","too much color!,-28,180,20","One of my pet peevs,-48,140,20","I would never be able to compose a sophisticated pallete like this,48,100,20","It reminds me of a fireplace,36,120,20","Kara","I like the blocks of color arrangements,30,160,20","Jen","It reminds me of a fireplace,36,120,20","Erika","I would never be able to compose a sophisticated pallete like this,48,100,20","0"
"12166","","survey-text","34","244301","0.0-34.0-0.0","A2APG8MSLJ6G2K","","","","{""Q0"":""looks like elvis at the piano""}","","","","","","","","","","","","","","","","","","","","","","",""
"2191","","image-slider-response","35","246493","0.0-35.0","A2APG8MSLJ6G2K","","","","","26","","","","","","","","","","","","","","","","","","","","","",""
"3022","","image-button-response","36","251499","0.0-36.0","A2APG8MSLJ6G2K","img_art/ins/3.jpg","4","","","","","","","","","","","","","","","","","","","","","","","","",""
"1277","","image-button-response","37","252778","0.0-37.0","A2APG8MSLJ6G2K","img_art/ins/3.jpg","4","","","","","","","","","","","","","","","","","","","","","","","","",""
"2607","","image-button-response","38","255386","0.0-38.0-0.0","A2APG8MSLJ6G2K","img_art/ins/3.jpg","5","","","","","","","","","","","","","","","","","","","","","","","","",""
"4704","","image-button-response","39","260091","0.0-39.0-0.0","A2APG8MSLJ6G2K","img_art/ins/3.jpg","2","","","","","","","","","","","","","","","","","","","","","","","","",""
"null","","html-keyboard-response","40","261106","0.0-40.0","A2APG8MSLJ6G2K","<p style=""font-size: 48px;"">+</p>","","","","","null","allTrialResponses","1000","1","0","img_art/ins/3.jpg","26","looks like elvis at the piano","Kara,Rose,Mary,Leslie,Erika,Jen","calming blue is very nice,36,160,20","My daily routine, it's depressing,-20,240,20","I like the overlapping of brushes,41,220,20","It's an alright work,15,200,20","I feel connected to the artist,40,100,20","I can feel a rainy day from this painting,18,120,20","Erika","I feel connected to the artist,40,100,20","Jen","I can feel a rainy day from this painting,18,120,20","Mary","I like the overlapping of brushes,41,220,20","0"
"9184","","image-button-response_instructions","41","270294","0.0-41.0","A2APG8MSLJ6G2K","","0","instructions","","","","","","","","","","","","","","","","","","","","","","","",""
"10802","","survey-likert","42","281097","0.0-42.0-0.0","A2APG8MSLJ6G2K","","","","{""Q0"":"""",""Q1"":0,""Q2"":1}","","","","","","","","","","","","","","","","","","","","","","",""
"10028","","survey-text","43","291129","0.0-43.0-0.0","A2APG8MSLJ6G2K","","","","{""Q0"":""rock""}","","","","","","","","","","","","","","","","","","","","","","",""
"12104","","survey-text","44","303234","0.0-44.0-0.0","A2APG8MSLJ6G2K","","","","{""Q0"":""looks like abstract landscape""}","","","","","","","","","","","","","","","","","","","","","","",""
"2082.9000000953674","","image-slider-response","45","305318","0.0-45.0","A2APG8MSLJ6G2K","","","","","35","","","","","","","","","","","","","","","","","","","","","",""
"3998","","image-button-response","46","310350","0.0-46.0","A2APG8MSLJ6G2K","img_art/27.jpg","3","","","","","","","","","","","","","","","","","","","","","","","","",""
"1011","","image-button-response","47","311363","0.0-47.0","A2APG8MSLJ6G2K","img_art/27.jpg","3","","","","","","","","","","","","","","","","","","","","","","","","",""
"2213","","image-button-response","48","313577","0.0-48.0-0.0","A2APG8MSLJ6G2K","img_art/27.jpg","2","","","","","","","","","","","","","","","","","","","","","","","","",""
"1296","","image-button-response","49","314874","0.0-49.0-0.0","A2APG8MSLJ6G2K","img_art/27.jpg","0","","","","","","","","","","","","","","","","","","","","","","","","",""
"null","","html-keyboard-response","50","316385","0.0-50.0","A2APG8MSLJ6G2K","<p style=""font-size: 48px;"">+</p>","","","","","null","allTrialResponses","1500","1","1","img_art/27.jpg","35","looks like abstract landscape","Brianna,Vanessa,Kylie,Makayla,Crystal,Kaitlyn","This painting is very unique,21,20,20","Colors make me think of fall, but I don't like how the picture was done or the weird lines across the background,6,380,20","Soothing in the middle of some confusion,40,300,20","Calming sky , relaxing,23,80,20","Muddied and directionless. Like someone dragged a brush across the paper for the sake of doing something.,-50,300,20","The variation of orange is nice,9,80,20","Makayla","Calming sky , relaxing,23,80,20","Kylie","Soothing in the middle of some confusion,40,300,20","Brianna","This painting is very unique,21,20,20","0"
"14465","","survey-text","51","330852","0.0-51.0-0.0","A2APG8MSLJ6G2K","","","","{""Q0"":""trees in a dark evening""}","","","","","","","","","","","","","","","","","","","","","","",""
"2562.5999999046326","","image-slider-response","52","333416","0.0-52.0","A2APG8MSLJ6G2K","","","","","16","","","","","","","","","","","","","","","","","","","","","",""
"null","","image-button-response","53","338429","0.0-53.0","A2APG8MSLJ6G2K","img_art/15.jpg","null","","","","","","","","","","","","","","","","","","","","","","","","",""
"1248","","image-button-response","54","339678","0.0-54.0","A2APG8MSLJ6G2K","img_art/15.jpg","5","","","","","","","","","","","","","","","","","","","","","","","","",""
"1048","","image-button-response","55","340727","0.0-55.0-0.0","A2APG8MSLJ6G2K","img_art/15.jpg","2","","","","","","","","","","","","","","","","","","","","","","","","",""
"1880","","image-button-response","56","342608","0.0-56.0-0.0","A2APG8MSLJ6G2K","img_art/15.jpg","3","","","","","","","","","","","","","","","","","","","","","","","","",""
"null","","html-keyboard-response","57","343122","0.0-57.0","A2APG8MSLJ6G2K","<p style=""font-size: 48px;"">+</p>","","","","","null","allTrialResponses","500","1","2","img_art/15.jpg","16","trees in a dark evening","Brianna,Sabrina,Kylie,Makayla,Angelica,Anna","No opinion truthfully,1,20,20","Extreme darkness and sadness,-30,120,20","I don't know how I feel about this,31,300,20","It's just dots. Doesn't bring any positive or negative feelings,2,80,20","This looks odd and was not well executed.,-3,280,20","I like how it's simple but beautiful.,40,300,20","Anna","I like how it's simple but beautiful.,40,300,20","Kylie","I don't know how I feel about this,31,300,20","Makayla","It's just dots. Doesn't bring any positive or negative feelings,2,80,20","0"
"12057","","survey-text","58","355181","0.0-58.0-0.0","A2APG8MSLJ6G2K","","","","{""Q0"":""love the abstract town and  colors""}","","","","","","","","","","","","","","","","","","","","","","",""
"2224.399999856949","","image-slider-response","59","357407","0.0-59.0","A2APG8MSLJ6G2K","","","","","40","","","","","","","","","","","","","","","","","","","","","",""
"null","","image-button-response","60","362414","0.0-60.0","A2APG8MSLJ6G2K","img_art/19.jpg","null","","","","","","","","","","","","","","","","","","","","","","","","",""
"1091","","image-button-response","61","363506","0.0-61.0","A2APG8MSLJ6G2K","img_art/19.jpg","1","","","","","","","","","","","","","","","","","","","","","","","","",""
"988","","image-button-response","62","364494","0.0-62.0-0.0","A2APG8MSLJ6G2K","img_art/19.jpg","2","","","","","","","","","","","","","","","","","","","","","","","","",""
"1123","","image-button-response","63","365618","0.0-63.0-0.0","A2APG8MSLJ6G2K","img_art/19.jpg","5","","","","","","","","","","","","","","","","","","","","","","","","",""
"null","","html-keyboard-response","64","366122","0.0-64.0","A2APG8MSLJ6G2K","<p style=""font-size: 48px;"">+</p>","","","","","null","allTrialResponses","500","1","3","img_art/19.jpg","40","love the abstract town and  colors","Paige,Nicole,Kylie,Makayla,Alexandra,Anna","it's too busy for me. Makes me feel stressed.,1,60,20","Feels like something I would hang in my dining room,42,20,20","Reminds me of a quaint little town I once visited in Italy,50,300,20","Looks like hustle and bustle ,,3,80,20","This photo has too much going on.,-19,60,20","I like the shapes.,22,300,20","Nicole","Feels like something I would hang in my dining room,42,20,20","Kylie","Reminds me of a quaint little town I once visited in Italy,50,300,20","Anna","I like the shapes.,22,300,20","0"
"17603","","survey-text","65","383727","0.0-65.0-0.0","A2APG8MSLJ6G2K","","","","{""Q0"":""love the colors, like a sunset but blue skies""}","","","","","","","","","","","","","","","","","","","","","","",""
"2583","","image-slider-response","66","386311","0.0-66.0","A2APG8MSLJ6G2K","","","","","40","","","","","","","","","","","","","","","","","","","","","",""
"4083","","image-button-response","67","391328","0.0-67.0","A2APG8MSLJ6G2K","img_art/21.jpg","5","","","","","","","","","","","","","","","","","","","","","","","","",""
"379","","image-button-response","68","391709","0.0-68.0","A2APG8MSLJ6G2K","img_art/21.jpg","5","","","","","","","","","","","","","","","","","","","","","","","","",""
"1421","","image-button-response","69","393133","0.0-69.0-0.0","A2APG8MSLJ6G2K","img_art/21.jpg","3","","","","","","","","","","","","","","","","","","","","","","","","",""
"2065","","image-button-response","70","395200","0.0-70.0-0.0","A2APG8MSLJ6G2K","img_art/21.jpg","2","","","","","","","","","","","","","","","","","","","","","","","","",""
"null","","html-keyboard-response","71","395715","0.0-71.0","A2APG8MSLJ6G2K","<p style=""font-size: 48px;"">+</p>","","","","","null","allTrialResponses","500","1","4","img_art/21.jpg","40","love the colors, like a sunset but blue skies","Victoria,Nicole,Kylie,Michaela,Marissa,Anna","like the colors,30,400,20","Makes me think of a natural disaster but I love how it looks. Makes you think,30,20,20","Makes me think of a battleship targeting a beautiful mountainside,0,300,20","I love how vague it is but how you can imagine a story anyway, like clouds,45,260,20","I feel confused,-18,160,20","I love the colors and the differences between the left and right sides.,22,300,20","Anna","I love the colors and the differences between the left and right sides.,22,300,20","Michaela","I love how vague it is but how you can imagine a story anyway, like clouds,45,260,20","Kylie","Makes me think of a battleship targeting a beautiful mountainside,0,300,20","0"
"14011","","survey-text","72","409728","0.0-72.0-0.0","A2APG8MSLJ6G2K","","","","{""Q0"":""love a tropical painting, a bird or tree?""}","","","","","","","","","","","","","","","","","","","","","","",""
"2080.7000000476837","","image-slider-response","73","411811","0.0-73.0","A2APG8MSLJ6G2K","","","","","33","","","","","","","","","","","","","","","","","","","","","",""
"null","","image-button-response","74","416825","0.0-74.0","A2APG8MSLJ6G2K","img_art/6.jpg","null","","","","","","","","","","","","","","","","","","","","","","","","",""
"144","","image-button-response","75","416970","0.0-75.0","A2APG8MSLJ6G2K","img_art/6.jpg","5","","","","","","","","","","","","","","","","","","","","","","","","",""
"2263","","image-button-response","76","419234","0.0-76.0-0.0","A2APG8MSLJ6G2K","img_art/6.jpg","1","","","","","","","","","","","","","","","","","","","","","","","","",""
"1647","","image-button-response","77","420883","0.0-77.0-0.0","A2APG8MSLJ6G2K","img_art/6.jpg","3","","","","","","","","","","","","","","","","","","","","","","","","",""
"null","","html-keyboard-response","78","421893","0.0-78.0","A2APG8MSLJ6G2K","<p style=""font-size: 48px;"">+</p>","","","","","null","allTrialResponses","1000","1","5","img_art/6.jpg","33","love a tropical painting, a bird or tree?","Michelle,Taylor,Kylie,Michaela,Stephanie,Anna","Definitely belongs at a doctor's office, I think it's a crow or a tree?,-3,280,20","Reminds me of my friend's bird,21,340,20","Reminds me of feeling incomplete,1,300,20","It looks like a bird looking away,32,260,20","Nevermore!  A black raven sitting on a pumpkin. Halloween,-35,300,20","It reminds me of a simplistic bird. I like the colors used.,40,300,20","Anna","It reminds me of a simplistic bird. I like the colors used.,40,300,20","Taylor","Reminds me of my friend's bird,21,340,20","Michaela","It looks like a bird looking away,32,260,20","0"
"4422","","survey-text","79","426320","0.0-79.0-0.0","A2APG8MSLJ6G2K","","","","{""Q0"":""sky""}","","","","","","","","","","","","","","","","","","","","","","",""
"8013","","survey-text","80","434333","0.0-80.0-0.0","A2APG8MSLJ6G2K","","","","{""Q0"":""looks like a bunch of rope""}","","","","","","","","","","","","","","","","","","","","","","",""
"2611.7000000476837","","image-slider-response","81","436946","0.0-81.0","A2APG8MSLJ6G2K","","","","","-12","","","","","","","","","","","","","","","","","","","","","",""
"1819","","image-button-response","82","441960","0.0-82.0","A2APG8MSLJ6G2K","img_art/4.jpg","5","","","","","","","","","","","","","","","","","","","","","","","","",""
"601","","image-button-response","83","442563","0.0-83.0","A2APG8MSLJ6G2K","img_art/4.jpg","5","","","","","","","","","","","","","","","","","","","","","","","","",""
"1462","","image-button-response","84","444027","0.0-84.0-0.0","A2APG8MSLJ6G2K","img_art/4.jpg","4","","","","","","","","","","","","","","","","","","","","","","","","",""
"924","","image-button-response","85","444953","0.0-85.0-0.0","A2APG8MSLJ6G2K","img_art/4.jpg","3","","","","","","","","","","","","","","","","","","","","","","","","",""
"null","","html-keyboard-response","86","446459","0.0-86.0","A2APG8MSLJ6G2K","<p style=""font-size: 48px;"">+</p>","","","","","null","allTrialResponses","1500","1","6","img_art/4.jpg","-12","looks like a bunch of rope","Katie,Taylor,Mary,Michaela,Monica,Anna","Warm colors, but too random. I feel like I'm seeing something mangled. It is unpleasant.,-30,160,20","Reminds me of a first place trophy,30,340,20","This looks like a child got into his diaper.,-46,180,20","It reminds me of something a kid would make for their parents,13,260,20","The dark yellow color makes me think of mustard, which I dislike,-27,360,20","It doesn't make me feel anything it just looks like a kid did it.,-30,300,20","Anna","It doesn't make me feel anything it just looks like a kid did it.,-30,300,20","Monica","The dark yellow color makes me think of mustard, which I dislike,-27,360,20","Michaela","It reminds me of something a kid would make for their parents,13,260,20","0"
"10392","","survey-text","87","456853","0.0-87.0-0.0","A2APG8MSLJ6G2K","","","","{""Q0"":""love the abstract modern feeling""}","","","","","","","","","","","","","","","","","","","","","","",""
"2275.5","","image-slider-response","88","459129","0.0-88.0","A2APG8MSLJ6G2K","","","","","29","","","","","","","","","","","","","","","","","","","","","",""
"4932","","image-button-response","89","464146","0.0-89.0","A2APG8MSLJ6G2K","img_art/26.jpg","0","","","","","","","","","","","","","","","","","","","","","","","","",""
"824","","image-button-response","90","464971","0.0-90.0","A2APG8MSLJ6G2K","img_art/26.jpg","0","","","","","","","","","","","","","","","","","","","","","","","","",""
"553","","image-button-response","91","465526","0.0-91.0-0.0","A2APG8MSLJ6G2K","img_art/26.jpg","1","","","","","","","","","","","","","","","","","","","","","","","","",""
"1336","","image-button-response","92","466863","0.0-92.0-0.0","A2APG8MSLJ6G2K","img_art/26.jpg","2","","","","","","","","","","","","","","","","","","","","","","","","",""
"null","","html-keyboard-response","93","467868","0.0-93.0","A2APG8MSLJ6G2K","<p style=""font-size: 48px;"">+</p>","","","","","null","allTrialResponses","1000","1","7","img_art/26.jpg","29","love the abstract modern feeling","Sophia,Katherine,Kelsey,Michaela,Monica,Anna","I like this. Looks like a city street and I can use my imagination to make it come alive.,15,280,20","This style of objects that are supposed to be something but then are blurry is interesting.,38,120,20","this is nice!! i like the muted colors,34,240,20","Elevator art but the watercolors are good,29,260,20","It looks empty and unfinished,-28,360,20","It looks like a watercolor I did when I was 6.,-30,300,20","Sophia","I like this. Looks like a city street and I can use my imagination to make it come alive.,15,280,20","Katherine","This style of objects that are supposed to be something but then are blurry is interesting.,38,120,20","Kelsey","this is nice!! i like the muted colors,34,240,20","0"
"19768","","survey-text","94","487638","0.0-94.0-0.0","A2APG8MSLJ6G2K","","","","{""Q0"":""i like the abstract old boat painting""}","","","","","","","","","","","","","","","","","","","","","","",""
"2487.2999999523163","","image-slider-response","95","490127","0.0-95.0","A2APG8MSLJ6G2K","","","","","22","","","","","","","","","","","","","","","","","","","","","",""
"null","","image-button-response","96","495135","0.0-96.0","A2APG8MSLJ6G2K","img_art/18.jpg","null","","","","","","","","","","","","","","","","","","","","","","","","",""
"1737","","image-button-response","97","496873","0.0-97.0","A2APG8MSLJ6G2K","img_art/18.jpg","5","","","","","","","","","","","","","","","","","","","","","","","","",""
"1160","","image-button-response","98","498033","0.0-98.0-0.0","A2APG8MSLJ6G2K","img_art/18.jpg","1","","","","","","","","","","","","","","","","","","","","","","","","",""
"571","","image-button-response","99","498606","0.0-99.0-0.0","A2APG8MSLJ6G2K","img_art/18.jpg","0","","","","","","","","","","","","","","","","","","","","","","","","",""
"null","","html-keyboard-response","100","500121","0.0-100.0","A2APG8MSLJ6G2K","<p style=""font-size: 48px;"">+</p>","","","","","null","allTrialResponses","1500","1","8","img_art/18.jpg","22","i like the abstract old boat painting","Sophia,Katherine,Kelsey,Amber,Kayla,Amy","This one is very dark and apocalyptic indeed!,-30,280,20","Ok this is really badass. Like a warrior come to the last battle,50,120,20","its messy, it seems angry,-21,240,20","ugly and lots of movement,-6,200,20","It's like a ship, but a freaky ship.,-11,180,20","So much going on. Frightening and tumultous, brave and inspiring. I'd like to spend the rest of my life interpreting it.,30,220,20","Amy","So much going on. Frightening and tumultous, brave and inspiring. I'd like to spend the rest of my life interpreting it.,30,220,20","Katherine","Ok this is really badass. Like a warrior come to the last battle,50,120,20","Sophia","This one is very dark and apocalyptic indeed!,-30,280,20","0"
"14293","","survey-text","101","514416","0.0-101.0-0.0","A2APG8MSLJ6G2K","","","","{""Q0"":""these are my colors but not sure i like the abstract""}","","","","","","","","","","","","","","","","","","","","","","",""
"2943.100000143051","","image-slider-response","102","517361","0.0-102.0","A2APG8MSLJ6G2K","","","","","-1","","","","","","","","","","","","","","","","","","","","","",""
"4625","","image-button-response","103","522368","0.0-103.0","A2APG8MSLJ6G2K","img_art/13.jpg","5","","","","","","","","","","","","","","","","","","","","","","","","",""
"220","","image-button-response","104","522590","0.0-104.0","A2APG8MSLJ6G2K","img_art/13.jpg","5","","","","","","","","","","","","","","","","","","","","","","","","",""
"1717","","image-button-response","105","524309","0.0-105.0-0.0","A2APG8MSLJ6G2K","img_art/13.jpg","2","","","","","","","","","","","","","","","","","","","","","","","","",""
"1049","","image-button-response","106","525359","0.0-106.0-0.0","A2APG8MSLJ6G2K","img_art/13.jpg","1","","","","","","","","","","","","","","","","","","","","","","","","",""
"null","","html-keyboard-response","107","526873","0.0-107.0","A2APG8MSLJ6G2K","<p style=""font-size: 48px;"">+</p>","","","","","null","allTrialResponses","1500","1","9","img_art/13.jpg","-1","these are my colors but not sure i like the abstract","Sophia,Katherine,Sydney,Rebecca,Melissa,Amy","I like the colors used in this piece.,2,280,20","Best color combo. i love this.,50,120,20","I love the style of this piece, but the color choice could've been more eye catching or calming.,40,320,20","love the style but not very novel,9,100,20","feels sterile/manufactured,1,240,20","I recognize the beauty of this but FOR ME its large degree of abstraction diminishes my emotional interaction.,-10,220,20","Amy","I recognize the beauty of this but FOR ME its large degree of abstraction diminishes my emotional interaction.,-10,220,20","Sydney","I love the style of this piece, but the color choice could've been more eye catching or calming.,40,320,20","Katherine","Best color combo. i love this.,50,120,20","0"
"10214","","survey-text","108","537089","0.0-108.0-0.0","A2APG8MSLJ6G2K","","","","{""Q0"":""looks like a child painted it, duh.""}","","","","","","","","","","","","","","","","","","","","","","",""
"3864.899999856949","","image-slider-response","109","540955","0.0-109.0","A2APG8MSLJ6G2K","","","","","-37","","","","","","","","","","","","","","","","","","","","","",""
"null","","image-button-response","110","545969","0.0-110.0","A2APG8MSLJ6G2K","img_art/30.jpg","null","","","","","","","","","","","","","","","","","","","","","","","","",""
"1016","","image-button-response","111","546986","0.0-111.0","A2APG8MSLJ6G2K","img_art/30.jpg","1","","","","","","","","","","","","","","","","","","","","","","","","",""
"792","","image-button-response","112","547779","0.0-112.0-0.0","A2APG8MSLJ6G2K","img_art/30.jpg","2","","","","","","","","","","","","","","","","","","","","","","","","",""
"833","","image-button-response","113","548613","0.0-113.0-0.0","A2APG8MSLJ6G2K","img_art/30.jpg","5","","","","","","","","","","","","","","","","","","","","","","","","",""
"null","","html-keyboard-response","114","550119","0.0-114.0","A2APG8MSLJ6G2K","<p style=""font-size: 48px;"">+</p>","","","","","null","allTrialResponses","1500","1","10","img_art/30.jpg","-37","looks like a child painted it, duh.","Grace,Katherine,Sydney,Lauren,Leah,Amy","A little too dull. Would've liked brighter colors. Also looks washed out.,1,180,20","For some reason I like the red in this one. Maybe it's the style of lines/blurs,46,120,20","I love the colors, the style, and the uniqueness in this piece. I love everything.,50,320,20","I like how the strokes invokes a sense of fluidity.,20,340,20","Interesting, almost an underworld of plant life,11,360,20","Too much abstraction for me, leaving my focus mainly on color. I like the texture.,-20,220,20","Katherine","For some reason I like the red in this one. Maybe it's the style of lines/blurs,46,120,20","Sydney","I love the colors, the style, and the uniqueness in this piece. I love everything.,50,320,20","Amy","Too much abstraction for me, leaving my focus mainly on color. I like the texture.,-20,220,20","0"
"3516","","survey-text","115","553639","0.0-115.0-0.0","A2APG8MSLJ6G2K","","","","{""Q0"":""our""}","","","","","","","","","","","","","","","","","","","","","","",""
"16814","","survey-text","116","570454","0.0-116.0-0.0","A2APG8MSLJ6G2K","","","","{""Q0"":""i like the black/ink type of abstract, it's moving""}","","","","","","","","","","","","","","","","","","","","","","",""
"2120.4000000953674","","image-slider-response","117","572576","0.0-117.0","A2APG8MSLJ6G2K","","","","","35","","","","","","","","","","","","","","","","","","","","","",""
"null","","image-button-response","118","577579","0.0-118.0","A2APG8MSLJ6G2K","img_art/11.jpg","null","","","","","","","","","","","","","","","","","","","","","","","","",""
"232","","image-button-response","119","577813","0.0-119.0","A2APG8MSLJ6G2K","img_art/11.jpg","5","","","","","","","","","","","","","","","","","","","","","","","","",""
"696","","image-button-response","120","578509","0.0-120.0-0.0","A2APG8MSLJ6G2K","img_art/11.jpg","4","","","","","","","","","","","","","","","","","","","","","","","","",""
"733","","image-button-response","121","579244","0.0-121.0-0.0","A2APG8MSLJ6G2K","img_art/11.jpg","2","","","","","","","","","","","","","","","","","","","","","","","","",""
"null","","html-keyboard-response","122","579756","0.0-122.0","A2APG8MSLJ6G2K","<p style=""font-size: 48px;"">+</p>","","","","","null","allTrialResponses","500","1","11","img_art/11.jpg","35","i like the black/ink type of abstract, it's moving","Diana,Katherine,Sydney,Alexandria,Rachel,Amy","It makes my head feel dizzy. So I rated it lower.,-25,380,20","Makes me feel like my vision is breaking,19,120,20","I don't like the gloomy color, but it reminds me of a city which I like.,35,320,20","it reminds me of music,43,80,20","Makes me think of a futuristic scene of vehicles flying in the sky in a city.,36,80,20","Simple and complex. Hopeful yet dark. I love this,35,220,20","Amy","Simple and complex. Hopeful yet dark. I love this,35,220,20","Rachel","Makes me think of a futuristic scene of vehicles flying in the sky in a city.,36,80,20","Sydney","I don't like the gloomy color, but it reminds me of a city which I like.,35,320,20","0"
"14366","","survey-text","123","594125","0.0-123.0-0.0","A2APG8MSLJ6G2K","","","","{""Q0"":""love water in a painting, plus these colors!""}","","","","","","","","","","","","","","","","","","","","","","",""
"1375.7999999523163","","image-slider-response","124","595502","0.0-124.0","A2APG8MSLJ6G2K","","","","","30","","","","","","","","","","","","","","","","","","","","","",""
"null","","image-button-response","125","600515","0.0-125.0","A2APG8MSLJ6G2K","img_art/24.jpg","null","","","","","","","","","","","","","","","","","","","","","","","","",""
"566","","image-button-response","126","601083","0.0-126.0","A2APG8MSLJ6G2K","img_art/24.jpg","4","","","","","","","","","","","","","","","","","","","","","","","","",""
"373","","image-button-response","127","601457","0.0-127.0-0.0","A2APG8MSLJ6G2K","img_art/24.jpg","5","","","","","","","","","","","","","","","","","","","","","","","","",""
"557","","image-button-response","128","602015","0.0-128.0-0.0","A2APG8MSLJ6G2K","img_art/24.jpg","2","","","","","","","","","","","","","","","","","","","","","","","","",""
"null","","html-keyboard-response","129","603021","0.0-129.0","A2APG8MSLJ6G2K","<p style=""font-size: 48px;"">+</p>","","","","","null","allTrialResponses","1000","1","12","img_art/24.jpg","30","love water in a painting, plus these colors!","Courtney,Molly,Sydney,Allison,Rachel,Amy","What a nice refreshing waterfall.,39,280,20","Extraordinary and unusual.,30,340,20","I'm reminded of a waterfall, but I feel like it could've been better portrayed.,5,320,20","I appreciate the earth tones. Soothing.,5,140,20","Looks like a beautiful stream rolling through terrain of rocks and flowers.,43,80,20","The contorted angles of the flowing water upset the harmony,-20,220,20","Rachel","Looks like a beautiful stream rolling through terrain of rocks and flowers.,43,80,20","Amy","The contorted angles of the flowing water upset the harmony,-20,220,20","Sydney","I'm reminded of a waterfall, but I feel like it could've been better portrayed.,5,320,20","0"
"12827","","survey-text","130","615850","0.0-130.0-0.0","A2APG8MSLJ6G2K","","","","{""Q0"":""nope, don't like that red, looks violent""}","","","","","","","","","","","","","","","","","","","","","","",""
"3218.5","","image-slider-response","131","619070","0.0-131.0","A2APG8MSLJ6G2K","","","","","-44","","","","","","","","","","","","","","","","","","","","","",""
"null","","image-button-response","132","624081","0.0-132.0","A2APG8MSLJ6G2K","img_art/3.jpg","null","","","","","","","","","","","","","","","","","","","","","","","","",""
"574","","image-button-response","133","624657","0.0-133.0","A2APG8MSLJ6G2K","img_art/3.jpg","4","","","","","","","","","","","","","","","","","","","","","","","","",""
"741","","image-button-response","134","625398","0.0-134.0-0.0","A2APG8MSLJ6G2K","img_art/3.jpg","5","","","","","","","","","","","","","","","","","","","","","","","","",""
"635","","image-button-response","135","626036","0.0-135.0-0.0","A2APG8MSLJ6G2K","img_art/3.jpg","2","","","","","","","","","","","","","","","","","","","","","","","","",""
"null","","html-keyboard-response","136","626538","0.0-136.0","A2APG8MSLJ6G2K","<p style=""font-size: 48px;"">+</p>","","","","","null","allTrialResponses","500","1","13","img_art/3.jpg","-44","nope, don't like that red, looks violent","Jenna,Chelsea,Sydney,Brittany,Rachel,Amy","unique & stylized. interesting. another one I could keep staring at.,50,360,20","It looks like scribbles.,-40,180,20","This piece makes me think it has a backstory or a reason which I like.,5,320,20","I don't care for art that looks like it was just scribbled.,-19,40,20","Too red and chaotic. Not calming.,-41,80,20","i like the colors particulairly the contrast of foreground to background. Exciting and thoughtful.,10,220,20","Rachel","Too red and chaotic. Not calming.,-41,80,20","Amy","i like the colors particulairly the contrast of foreground to background. Exciting and thoughtful.,10,220,20","Sydney","This piece makes me think it has a backstory or a reason which I like.,5,320,20","0"
"15964","","survey-text","137","642504","0.0-137.0-0.0","A2APG8MSLJ6G2K","","","","{""Q0"":""nothing much but blurry abstract. no.""}","","","","","","","","","","","","","","","","","","","","","","",""
"2043.7000000476837","","image-slider-response","138","644549","0.0-138.0","A2APG8MSLJ6G2K","","","","","-32","","","","","","","","","","","","","","","","","","","","","",""
"null","","image-button-response","139","649557","0.0-139.0","A2APG8MSLJ6G2K","img_art/1.jpg","null","","","","","","","","","","","","","","","","","","","","","","","","",""
"643","","image-button-response","140","650201","0.0-140.0","A2APG8MSLJ6G2K","img_art/1.jpg","5","","","","","","","","","","","","","","","","","","","","","","","","",""
"633","","image-button-response","141","650835","0.0-141.0-0.0","A2APG8MSLJ6G2K","img_art/1.jpg","4","","","","","","","","","","","","","","","","","","","","","","","","",""
"815","","image-button-response","142","651651","0.0-142.0-0.0","A2APG8MSLJ6G2K","img_art/1.jpg","2","","","","","","","","","","","","","","","","","","","","","","","","",""
"null","","html-keyboard-response","143","652668","0.0-143.0","A2APG8MSLJ6G2K","<p style=""font-size: 48px;"">+</p>","","","","","null","allTrialResponses","1000","1","14","img_art/1.jpg","-32","nothing much but blurry abstract. no.","Alicia,Ashley,Sydney,Jessica,Rachel,Amy","just colors mixed together. not interesting.,5,120,20","More passable, colorful, abstract.,13,320,20","I like the way that the colors blend.,35,320,20","Looks like the same thing as the last piece shown to me,10,400,20","While I like the colors, I find nothing interesting or thought provoking about it.,10,80,20","Unpleasing palette. I see a figure but it seems incongrous to the highly abstract background.,-20,220,20","Amy","Unpleasing palette. I see a figure but it seems incongrous to the highly abstract background.,-20,220,20","Rachel","While I like the colors, I find nothing interesting or thought provoking about it.,10,80,20","Sydney","I like the way that the colors blend.,35,320,20","0"
"19053","","survey-text","144","671724","0.0-144.0-0.0","A2APG8MSLJ6G2K","","","","{""Q0"":""too scribbly for me, plus somebody in bed, why?""}","","","","","","","","","","","","","","","","","","","","","","",""
"3381","","image-slider-response","145","675106","0.0-145.0","A2APG8MSLJ6G2K","","","","","-40","","","","","","","","","","","","","","","","","","","","","",""
"null","","image-button-response","146","680118","0.0-146.0","A2APG8MSLJ6G2K","img_art/9.jpg","null","","","","","","","","","","","","","","","","","","","","","","","","",""
"883","","image-button-response","147","681003","0.0-147.0","A2APG8MSLJ6G2K","img_art/9.jpg","3","","","","","","","","","","","","","","","","","","","","","","","","",""
"715","","image-button-response","148","681720","0.0-148.0-0.0","A2APG8MSLJ6G2K","img_art/9.jpg","4","","","","","","","","","","","","","","","","","","","","","","","","",""
"466","","image-button-response","149","682187","0.0-149.0-0.0","A2APG8MSLJ6G2K","img_art/9.jpg","5","","","","","","","","","","","","","","","","","","","","","","","","",""
"null","","html-keyboard-response","150","683690","0.0-150.0","A2APG8MSLJ6G2K","<p style=""font-size: 48px;"">+</p>","","","","","null","allTrialResponses","1500","1","15","img_art/9.jpg","-40","too scribbly for me, plus somebody in bed, why?","Erika,Autumn,Sydney,Jasmine,Rachel,Amy","Colorful and expressive,15,100,20","Abstract but not well made,-26,340,20","I see some of my favorite colors which I like, but I don't like what's portrayed.,35,320,20","I like abstract art that looks that there is more than random brush strokes. This one looks the former,10,340,20","It looks like a lady taking a peaceful nap on a blanket in the grass.,41,80,20","The busyness and harsh nature of the lines in this painting  mute my emotional response.,-10,220,20","Jasmine","I like abstract art that looks that there is more than random brush strokes. This one looks the former,10,340,20","Rachel","It looks like a lady taking a peaceful nap on a blanket in the grass.,41,80,20","Amy","The busyness and harsh nature of the lines in this painting  mute my emotional response.,-10,220,20","0"
"3669","","survey-text","151","687364","0.0-151.0-0.0","A2APG8MSLJ6G2K","","","","{""Q0"":""course""}","","","","","","","","","","","","","","","","","","","","","","",""
"11760","","survey-text","152","699125","0.0-152.0-0.0","A2APG8MSLJ6G2K","","","","{""Q0"":""too blah looking, nothing stands out""}","","","","","","","","","","","","","","","","","","","","","","",""
"2231.4000000953674","","image-slider-response","153","701358","0.0-153.0","A2APG8MSLJ6G2K","","","","","-14","","","","","","","","","","","","","","","","","","","","","",""
"null","","image-button-response","154","706362","0.0-154.0","A2APG8MSLJ6G2K","img_art/14.jpg","null","","","","","","","","","","","","","","","","","","","","","","","","",""
"900","","image-button-response","155","707263","0.0-155.0","A2APG8MSLJ6G2K","img_art/14.jpg","4","","","","","","","","","","","","","","","","","","","","","","","","",""
"936","","image-button-response","156","708201","0.0-156.0-0.0","A2APG8MSLJ6G2K","img_art/14.jpg","5","","","","","","","","","","","","","","","","","","","","","","","","",""
"3049","","image-button-response","157","711250","0.0-157.0-0.0","A2APG8MSLJ6G2K","img_art/14.jpg","0","","","","","","","","","","","","","","","","","","","","","","","","",""
"null","","html-keyboard-response","158","712255","0.0-158.0","A2APG8MSLJ6G2K","<p style=""font-size: 48px;"">+</p>","","","","","null","allTrialResponses","1000","1","16","img_art/14.jpg","-14","too blah looking, nothing stands out","Destiny,Isabella,Caroline,Jasmine,Rachel,Amy","I dont really vibe with the grayish color palette,-7,360,20","Feels like a camp fire among friends,22,280,20","Makes me think of trees and spring. A good feeling,26,100,20","The colors are nice and it reminds me of a shrub or tree,10,340,20","Did not evoke much feeling except confusion. I am not sure what to make of this one.,-20,80,20","In others I might say the colors are garish. Here it works perfectly. The balance is wondrous and unlimiting.,25,220,20","Rachel","Did not evoke much feeling except confusion. I am not sure what to make of this one.,-20,80,20","Amy","In others I might say the colors are garish. Here it works perfectly. The balance is wondrous and unlimiting.,25,220,20","Destiny","I dont really vibe with the grayish color palette,-7,360,20","0"
"13967","","survey-text","159","726225","0.0-159.0-0.0","A2APG8MSLJ6G2K","","","","{""Q0"":""not into  weird looking skeleton type figures.""}","","","","","","","","","","","","","","","","","","","","","","",""
"2224.399999856949","","image-slider-response","160","728451","0.0-160.0","A2APG8MSLJ6G2K","","","","","-39","","","","","","","","","","","","","","","","","","","","","",""
"null","","image-button-response","161","733460","0.0-161.0","A2APG8MSLJ6G2K","img_art/25.jpg","null","","","","","","","","","","","","","","","","","","","","","","","","",""
"977","","image-button-response","162","734438","0.0-162.0","A2APG8MSLJ6G2K","img_art/25.jpg","0","","","","","","","","","","","","","","","","","","","","","","","","",""
"1599","","image-button-response","163","736038","0.0-163.0-0.0","A2APG8MSLJ6G2K","img_art/25.jpg","2","","","","","","","","","","","","","","","","","","","","","","","","",""
"797","","image-button-response","164","736837","0.0-164.0-0.0","A2APG8MSLJ6G2K","img_art/25.jpg","5","","","","","","","","","","","","","","","","","","","","","","","","",""
"null","","html-keyboard-response","165","738348","0.0-165.0","A2APG8MSLJ6G2K","<p style=""font-size: 48px;"">+</p>","","","","","null","allTrialResponses","1500","1","17","img_art/25.jpg","-39","not into  weird looking skeleton type figures.","Destiny,Christina,Laura,Leslie,Rachel,Amy","creeeeeppyyyyyyy but mad cool,-26,360,20","nice colors and it looks like a native work,32,240,20","I think of death,-28,320,20","I feel like I'm looking at something larger than myself.,30,380,20","I like the green color, but the combination of green and a person with a long neck reminds me of aliens,-27,80,20","The limited palette make this figure mysterious and interpret-able.,20,220,20","Destiny","creeeeeppyyyyyyy but mad cool,-26,360,20","Laura","I think of death,-28,320,20","Amy","The limited palette make this figure mysterious and interpret-able.,20,220,20","0"
"21634","","survey-text","166","759985","0.0-166.0-0.0","A2APG8MSLJ6G2K","","","","{""Q0"":""good painting but blah overall effect""}","","","","","","","","","","","","","","","","","","","","","","",""
"2384.9000000953674","","image-slider-response","167","762371","0.0-167.0","A2APG8MSLJ6G2K","","","","","-9","","","","","","","","","","","","","","","","","","","","","",""
"null","","image-button-response","168","767378","0.0-168.0","A2APG8MSLJ6G2K","img_art/7.jpg","null","","","","","","","","","","","","","","","","","","","","","","","","",""
"2847","","image-button-response","169","770226","0.0-169.0","A2APG8MSLJ6G2K","img_art/7.jpg","5","","","","","","","","","","","","","","","","","","","","","","","","",""
"1016","","image-button-response","170","771243","0.0-170.0-0.0","A2APG8MSLJ6G2K","img_art/7.jpg","1","","","","","","","","","","","","","","","","","","","","","","","","",""
"1134","","image-button-response","171","772379","0.0-171.0-0.0","A2APG8MSLJ6G2K","img_art/7.jpg","4","","","","","","","","","","","","","","","","","","","","","","","","",""
"null","","html-keyboard-response","172","773887","0.0-172.0","A2APG8MSLJ6G2K","<p style=""font-size: 48px;"">+</p>","","","","","null","allTrialResponses","1500","1","18","img_art/7.jpg","-9","good painting but blah overall effect","Destiny,Erin,Laura,Kimberly,Angela,Amy","mars also crunchy leaves maybe a beehive,32,360,20","Color is bland and looks damaged,-37,120,20","I feel thirsty - reminds me of desert sand,11,320,20","Looks like a bad picture of a beach,-21,260,20","Looks like vomit, or chunky feces,-42,260,20","Limited emotional reaction for me. No focus and highly abstract,-20,220,20","Amy","Limited emotional reaction for me. No focus and highly abstract,-20,220,20","Erin","Color is bland and looks damaged,-37,120,20","Angela","Looks like vomit, or chunky feces,-42,260,20","0"
"19134","","survey-text","173","793023","0.0-173.0-0.0","A2APG8MSLJ6G2K","","","","{""Q0"":""this just doesn't do much for me, and i'm not into black""}","","","","","","","","","","","","","","","","","","","","","","",""
"2053","","image-slider-response","174","795078","0.0-174.0","A2APG8MSLJ6G2K","","","","","-28","","","","","","","","","","","","","","","","","","","","","",""
"null","","image-button-response","175","800088","0.0-175.0","A2APG8MSLJ6G2K","img_art/10.jpg","null","","","","","","","","","","","","","","","","","","","","","","","","",""
"304","","image-button-response","176","800394","0.0-176.0","A2APG8MSLJ6G2K","img_art/10.jpg","5","","","","","","","","","","","","","","","","","","","","","","","","",""
"1020","","image-button-response","177","801415","0.0-177.0-0.0","A2APG8MSLJ6G2K","img_art/10.jpg","4","","","","","","","","","","","","","","","","","","","","","","","","",""
"1364","","image-button-response","178","802782","0.0-178.0-0.0","A2APG8MSLJ6G2K","img_art/10.jpg","0","","","","","","","","","","","","","","","","","","","","","","","","",""
"null","","html-keyboard-response","179","804289","0.0-179.0","A2APG8MSLJ6G2K","<p style=""font-size: 48px;"">+</p>","","","","","null","allTrialResponses","1500","1","19","img_art/10.jpg","-28","this just doesn't do much for me, and i'm not into black","Sara,Erin,Hailey,Andrea,Angela,Amy","I don't like the colors,-20,160,20","Cello music instrument,11,120,20","a fast racetrack. go, go, go,5,200,20","Kraken, and I love it.,39,240,20","This makes me think of a city, specifically London.,20,260,20","Highly abstract and yet the shapes and colors provide an emotional accessibility for me.,20,220,20","Amy","Highly abstract and yet the shapes and colors provide an emotional accessibility for me.,20,220,20","Angela","This makes me think of a city, specifically London.,20,260,20","Sara","I don't like the colors,-20,160,20","0"
"17942","","survey-text","180","822235","0.0-180.0-0.0","A2APG8MSLJ6G2K","","","","{""Q0"":""abstract people, nice colors, but overall depressing""}","","","","","","","","","","","","","","","","","","","","","","",""
"1585.5","","image-slider-response","181","823822","0.0-181.0","A2APG8MSLJ6G2K","","","","","-29","","","","","","","","","","","","","","","","","","","","","",""
"4743","","image-button-response","182","828829","0.0-182.0","A2APG8MSLJ6G2K","img_art/23.jpg","4","","","","","","","","","","","","","","","","","","","","","","","","",""
"304","","image-button-response","183","829135","0.0-183.0","A2APG8MSLJ6G2K","img_art/23.jpg","4","","","","","","","","","","","","","","","","","","","","","","","","",""
"801","","image-button-response","184","829938","0.0-184.0-0.0","A2APG8MSLJ6G2K","img_art/23.jpg","1","","","","","","","","","","","","","","","","","","","","","","","","",""
"586","","image-button-response","185","830526","0.0-185.0-0.0","A2APG8MSLJ6G2K","img_art/23.jpg","2","","","","","","","","","","","","","","","","","","","","","","","","",""
"null","","html-keyboard-response","186","831031","0.0-186.0","A2APG8MSLJ6G2K","<p style=""font-size: 48px;"">+</p>","","","","","null","allTrialResponses","500","1","20","img_art/23.jpg","-29","abstract people, nice colors, but overall depressing","Sara,Maria,Dominique,Julia,Angela,Amy","Beautiful color scheme,21,160,20","the pattern of colours imbues in me a sense of infinity, which I find soothing,10,120,20","Very happy , busy , free, and full of Hope,28,400,20","this looks like a pop rock album cover,-10,40,20","Like the background colors and the energy, but the white bits ruin it for me,-7,260,20","So exciting and full of the night.,20,220,20","Angela","Like the background colors and the energy, but the white bits ruin it for me,-7,260,20","Maria","the pattern of colours imbues in me a sense of infinity, which I find soothing,10,120,20","Dominique","Very happy , busy , free, and full of Hope,28,400,20","0"
"3211","","survey-text","187","834248","0.0-187.0-0.0","A2APG8MSLJ6G2K","","","","{""Q0"":""we""}","","","","","","","","","","","","","","","","","","","","","","",""
"8034","","survey-text","188","842283","0.0-188.0-0.0","A2APG8MSLJ6G2K","","","","{""Q0"":""too much black in there for me.""}","","","","","","","","","","","","","","","","","","","","","","",""
"1940.2999999523163","","image-slider-response","189","844224","0.0-189.0","A2APG8MSLJ6G2K","","","","","-33","","","","","","","","","","","","","","","","","","","","","",""
"null","","image-button-response","190","849228","0.0-190.0","A2APG8MSLJ6G2K","img_art/12.jpg","null","","","","","","","","","","","","","","","","","","","","","","","","",""
"412","","image-button-response","191","849641","0.0-191.0","A2APG8MSLJ6G2K","img_art/12.jpg","4","","","","","","","","","","","","","","","","","","","","","","","","",""
"1229","","image-button-response","192","850871","0.0-192.0-0.0","A2APG8MSLJ6G2K","img_art/12.jpg","5","","","","","","","","","","","","","","","","","","","","","","","","",""
"2118","","image-button-response","193","852990","0.0-193.0-0.0","A2APG8MSLJ6G2K","img_art/12.jpg","1","","","","","","","","","","","","","","","","","","","","","","","","",""
"null","","html-keyboard-response","194","854004","0.0-194.0","A2APG8MSLJ6G2K","<p style=""font-size: 48px;"">+</p>","","","","","null","allTrialResponses","1000","1","21","img_art/12.jpg","-33","too much black in there for me.","Madison,Maria,Dominique,Emily,Angela,Olivia","Different enough to be memorable. The gradient of hues is appealing and appeasing.,32,60,20","evokes the 80s, and not in a necessarily good way,-10,120,20","I have seen some like this before very popular and full of life,42,400,20","Not quite my style but there more of a pattern and it is interesting to look at.,15,40,20","I like the colors in the bottom half of the painting,10,260,20","feels cluttered,-11,40,20","Angela","I like the colors in the bottom half of the painting,10,260,20","Olivia","feels cluttered,-11,40,20","Maria","evokes the 80s, and not in a necessarily good way,-10,120,20","0"
"13587","","survey-text","195","867594","0.0-195.0-0.0","A2APG8MSLJ6G2K","","","","{""Q0"":""soothing painting of a town but too much black""}","","","","","","","","","","","","","","","","","","","","","","",""
"2254.5999999046326","","image-slider-response","196","869849","0.0-196.0","A2APG8MSLJ6G2K","","","","","6","","","","","","","","","","","","","","","","","","","","","",""
"4794","","image-button-response","197","874852","0.0-197.0","A2APG8MSLJ6G2K","img_art/20.jpg","4","","","","","","","","","","","","","","","","","","","","","","","","",""
"607","","image-button-response","198","875461","0.0-198.0","A2APG8MSLJ6G2K","img_art/20.jpg","4","","","","","","","","","","","","","","","","","","","","","","","","",""
"1859","","image-button-response","199","877321","0.0-199.0-0.0","A2APG8MSLJ6G2K","img_art/20.jpg","2","","","","","","","","","","","","","","","","","","","","","","","","",""
"1695","","image-button-response","200","879017","0.0-200.0-0.0","A2APG8MSLJ6G2K","img_art/20.jpg","0","","","","","","","","","","","","","","","","","","","","","","","","",""
"null","","html-keyboard-response","201","880027","0.0-201.0","A2APG8MSLJ6G2K","<p style=""font-size: 48px;"">+</p>","","","","","null","allTrialResponses","1000","1","22","img_art/20.jpg","6","soothing painting of a town but too much black","Hannah,Maria,Heather,Erica,Angela,Olivia","Reminds me of the Southwest; i.e. New Mexico or Arizona. It's interesting.,12,240,20","just feels generic,-18,120,20","make me feel like its a little country maybe a tractor and a skull head of a bull,1,260,20","looks like an auto accident,-30,80,20","I like the blues, and the sense of foreboding it makes me feel.,20,260,20","crash after traffic causing grief,-11,40,20","Angela","I like the blues, and the sense of foreboding it makes me feel.,20,260,20","Heather","make me feel like its a little country maybe a tractor and a skull head of a bull,1,260,20","Hannah","Reminds me of the Southwest; i.e. New Mexico or Arizona. It's interesting.,12,240,20","0"
"29562","","survey-text","202","909592","0.0-202.0-0.0","A2APG8MSLJ6G2K","","","","{""Q0"":""this looks like nonsensical abstract to me""}","","","","","","","","","","","","","","","","","","","","","","",""
"2157.300000190735","","image-slider-response","203","911751","0.0-203.0","A2APG8MSLJ6G2K","","","","","-26","","","","","","","","","","","","","","","","","","","","","",""
"4308","","image-button-response","204","916765","0.0-204.0","A2APG8MSLJ6G2K","img_art/29.jpg","5","","","","","","","","","","","","","","","","","","","","","","","","",""
"87","","image-button-response","205","916854","0.0-205.0","A2APG8MSLJ6G2K","img_art/29.jpg","5","","","","","","","","","","","","","","","","","","","","","","","","",""
"911","","image-button-response","206","917767","0.0-206.0-0.0","A2APG8MSLJ6G2K","img_art/29.jpg","0","","","","","","","","","","","","","","","","","","","","","","","","",""
"966","","image-button-response","207","918734","0.0-207.0-0.0","A2APG8MSLJ6G2K","img_art/29.jpg","1","","","","","","","","","","","","","","","","","","","","","","","","",""
"null","","html-keyboard-response","208","920236","0.0-208.0","A2APG8MSLJ6G2K","<p style=""font-size: 48px;"">+</p>","","","","","null","allTrialResponses","1500","1","23","img_art/29.jpg","-26","this looks like nonsensical abstract to me","Hannah,Margaret,Heather,Alexa,Angela,Mariah","I don't like the red X through it.,-20,240,20","this does nothing for me. hate the colors. hate the design,-50,100,20","i dont know how it makes me feel.,1,260,20","Very wild and I like it,20,40,20","I would like this piece better without the red X across it,-10,260,20","It feels like looking through layers of frustration.,19,140,20","Mariah","It feels like looking through layers of frustration.,19,140,20","Hannah","I don't like the red X through it.,-20,240,20","Margaret","this does nothing for me. hate the colors. hate the design,-50,100,20","0"
"23496","","survey-text","209","943736","0.0-209.0-0.0","A2APG8MSLJ6G2K","","","","{""Q0"":""what? too dreary and dark for me.""}","","","","","","","","","","","","","","","","","","","","","","",""
"2052.899999856949","","image-slider-response","210","945791","0.0-210.0","A2APG8MSLJ6G2K","","","","","-40","","","","","","","","","","","","","","","","","","","","","",""
"null","","image-button-response","211","950799","0.0-211.0","A2APG8MSLJ6G2K","img_art/16.jpg","null","","","","","","","","","","","","","","","","","","","","","","","","",""
"752","","image-button-response","212","951553","0.0-212.0","A2APG8MSLJ6G2K","img_art/16.jpg","5","","","","","","","","","","","","","","","","","","","","","","","","",""
"1269","","image-button-response","213","952824","0.0-213.0-0.0","A2APG8MSLJ6G2K","img_art/16.jpg","2","","","","","","","","","","","","","","","","","","","","","","","","",""
"823","","image-button-response","214","953649","0.0-214.0-0.0","A2APG8MSLJ6G2K","img_art/16.jpg","0","","","","","","","","","","","","","","","","","","","","","","","","",""
"null","","html-keyboard-response","215","955154","0.0-215.0","A2APG8MSLJ6G2K","<p style=""font-size: 48px;"">+</p>","","","","","null","allTrialResponses","1500","1","24","img_art/16.jpg","-40","what? too dreary and dark for me.","Hannah,Margaret,Megan,Kaylee,Kaitlin,Mariah","This is weird and a little creepy.,6,240,20","i like how it incorporates mixed visual art with the photo of the bear and the drawings,30,100,20","Ugly, broken up and mismatched,-50,200,20","cool teddy bear,50,200,20","The teddy bear looks really scared,-30,60,20","Why is that bear there? It looks like it would be gross to touch. The texture bothers me.,-20,140,20","Mariah","Why is that bear there? It looks like it would be gross to touch. The texture bothers me.,-20,140,20","Megan","Ugly, broken up and mismatched,-50,200,20","Hannah","This is weird and a little creepy.,6,240,20","0"
"15461","","survey-text","216","970618","0.0-216.0-0.0","A2APG8MSLJ6G2K","","","","{""Q0"":""i like the colors but needs to be brighter.""}","","","","","","","","","","","","","","","","","","","","","","",""
"1481.5","","image-slider-response","217","972101","0.0-217.0","A2APG8MSLJ6G2K","","","","","11","","","","","","","","","","","","","","","","","","","","","",""
"null","","image-button-response","218","977109","0.0-218.0","A2APG8MSLJ6G2K","img_art/2.jpg","null","","","","","","","","","","","","","","","","","","","","","","","","",""
"1182","","image-button-response","219","978291","0.0-219.0","A2APG8MSLJ6G2K","img_art/2.jpg","5","","","","","","","","","","","","","","","","","","","","","","","","",""
"1605","","image-button-response","220","979898","0.0-220.0-0.0","A2APG8MSLJ6G2K","img_art/2.jpg","3","","","","","","","","","","","","","","","","","","","","","","","","",""
"1915","","image-button-response","221","981814","0.0-221.0-0.0","A2APG8MSLJ6G2K","img_art/2.jpg","4","","","","","","","","","","","","","","","","","","","","","","","","",""
"null","","html-keyboard-response","222","982817","0.0-222.0","A2APG8MSLJ6G2K","<p style=""font-size: 48px;"">+</p>","","","","","null","allTrialResponses","1000","1","25","img_art/2.jpg","11","i like the colors but needs to be brighter.","Hannah,Kristen,Megan,Cassandra,Shannon,Mariah","Looks like child's art.,-19,240,20","smilely face, soulful,11,280,20","Colors and space work but the top scribbled killed it.,11,200,20","I didn't like this it looked like a kindergardner painted it and the green was out of place.,-46,120,20","I like this picture a little because the colors make it look a little vibrant.,10,220,20","The colors are soothing, but the composition feels thoughtless.,-11,140,20","Mariah","The colors are soothing, but the composition feels thoughtless.,-11,140,20","Cassandra","I didn't like this it looked like a kindergardner painted it and the green was out of place.,-46,120,20","Shannon","I like this picture a little because the colors make it look a little vibrant.,10,220,20","0"
"3512","","survey-text","223","986335","0.0-223.0-0.0","A2APG8MSLJ6G2K","","","","{""Q0"":""table""}","","","","","","","","","","","","","","","","","","","","","","",""
"15360","","survey-text","224","1001696","0.0-224.0-0.0","A2APG8MSLJ6G2K","","","","{""Q0"":""just not enough color, too blase for me""}","","","","","","","","","","","","","","","","","","","","","","",""
"2312.9000000953674","","image-slider-response","225","1004010","0.0-225.0","A2APG8MSLJ6G2K","","","","","-10","","","","","","","","","","","","","","","","","","","","","",""
"null","","image-button-response","226","1009024","0.0-226.0","A2APG8MSLJ6G2K","img_art/28.jpg","null","","","","","","","","","","","","","","","","","","","","","","","","",""
"658","","image-button-response","227","1009684","0.0-227.0","A2APG8MSLJ6G2K","img_art/28.jpg","5","","","","","","","","","","","","","","","","","","","","","","","","",""
"995","","image-button-response","228","1010679","0.0-228.0-0.0","A2APG8MSLJ6G2K","img_art/28.jpg","4","","","","","","","","","","","","","","","","","","","","","","","","",""
"597","","image-button-response","229","1011278","0.0-229.0-0.0","A2APG8MSLJ6G2K","img_art/28.jpg","3","","","","","","","","","","","","","","","","","","","","","","","","",""
"null","","html-keyboard-response","230","1011789","0.0-230.0","A2APG8MSLJ6G2K","<p style=""font-size: 48px;"">+</p>","","","","","null","allTrialResponses","500","1","26","img_art/28.jpg","-10","just not enough color, too blase for me","Samantha,Lindsey,Kathryn,Cassandra,Shannon,Mariah","Interesting and weird. Perfect conversational piece,33,140,20","Not a fan of the drab colors but it looks a little bit interesting.,-7,400,20","My immediate reaction was to think of smog. It recalls choking on dirty air.,-20,140,20","Hate it...brown and drab,-37,120,20","I don't like the way the colors look; I think very disgusting colors were used.,-20,220,20","Colors are pleasing, shapes are vaguely unpleasant. Kidneys at a smoky bar.,5,140,20","Mariah","Colors are pleasing, shapes are vaguely unpleasant. Kidneys at a smoky bar.,5,140,20","Shannon","I don't like the way the colors look; I think very disgusting colors were used.,-20,220,20","Cassandra","Hate it...brown and drab,-37,120,20","0"
"14726","","survey-text","231","1026520","0.0-231.0-0.0","A2APG8MSLJ6G2K","","","","{""Q0"":""bright colors but not my colors...i think of danger""}","","","","","","","","","","","","","","","","","","","","","","",""
"2062.2000000476837","","image-slider-response","232","1028583","0.0-232.0","A2APG8MSLJ6G2K","","","","","-17","","","","","","","","","","","","","","","","","","","","","",""
"null","","image-button-response","233","1033600","0.0-233.0","A2APG8MSLJ6G2K","img_art/22.jpg","null","","","","","","","","","","","","","","","","","","","","","","","","",""
"127","","image-button-response","234","1033728","0.0-234.0","A2APG8MSLJ6G2K","img_art/22.jpg","3","","","","","","","","","","","","","","","","","","","","","","","","",""
"972","","image-button-response","235","1034702","0.0-235.0-0.0","A2APG8MSLJ6G2K","img_art/22.jpg","3","","","","","","","","","","","","","","","","","","","","","","","","",""
"716","","image-button-response","236","1038455","0.0-235.1-0.1","A2APG8MSLJ6G2K","img_art/22.jpg","4","","","","","","","","","","","","","","","","","","","","","","","","",""
"425","","image-button-response","237","1038882","0.0-236.0-0.0","A2APG8MSLJ6G2K","img_art/22.jpg","5","","","","","","","","","","","","","","","","","","","","","","","","",""
"null","","html-keyboard-response","238","1039896","0.0-237.0","A2APG8MSLJ6G2K","<p style=""font-size: 48px;"">+</p>","","","","","null","allTrialResponses","1000","1","27","img_art/22.jpg","-17","bright colors but not my colors...i think of danger","Bailey,Kelly,Shelby,Cassandra,Shannon,Mariah","Looks like a giant blob,-45,360,20","I really enjoy the blended colors.,20,220,20","This painting has a very nostalgic feel,20,240,20","Don't like it...too much red,-17,120,20","I think this picture looks interesting because of the way the colors work together.,20,220,20","The colors are pleasant, the shapes are inviting.,21,140,20","Cassandra","Don't like it...too much red,-17,120,20","Shannon","I think this picture looks interesting because of the way the colors work together.,20,220,20","Mariah","The colors are pleasant, the shapes are inviting.,21,140,20","2"
"26195","","survey-text","239","1066095","0.0-238.0-0.0","A2APG8MSLJ6G2K","","","","{""Q0"":""this is ok but it's just not for me, i don't like strange faces stuck in paintings""}","","","","","","","","","","","","","","","","","","","","","","",""
"2791.2999999523163","","image-slider-response","240","1068888","0.0-239.0","A2APG8MSLJ6G2K","","","","","-21","","","","","","","","","","","","","","","","","","","","","",""
"null","","image-button-response","241","1073894","0.0-240.0","A2APG8MSLJ6G2K","img_art/8.jpg","null","","","","","","","","","","","","","","","","","","","","","","","","",""
"2606","","image-button-response","242","1076502","0.0-241.0","A2APG8MSLJ6G2K","img_art/8.jpg","2","","","","","","","","","","","","","","","","","","","","","","","","",""
"1831","","image-button-response","243","1078334","0.0-242.0-0.0","A2APG8MSLJ6G2K","img_art/8.jpg","0","","","","","","","","","","","","","","","","","","","","","","","","",""
"940","","image-button-response","244","1079275","0.0-243.0-0.0","A2APG8MSLJ6G2K","img_art/8.jpg","5","","","","","","","","","","","","","","","","","","","","","","","","",""
"null","","html-keyboard-response","245","1080781","0.0-244.0","A2APG8MSLJ6G2K","<p style=""font-size: 48px;"">+</p>","","","","","null","allTrialResponses","1500","1","28","img_art/8.jpg","-21","this is ok but it's just not for me, i don't like strange faces stuck in paintings","Briana,Emma,Caitlin,Cassandra,Shannon,Mariah","Its abstract and interesting,24,400,20","Love the colors & block-style,50,60,20","And I'll huff and I'll puff and I'll blow your town down!!,20,80,20","I like the colors and the scene.,24,120,20","I like that it looks like a city and the way the shapes and colors are put together,40,220,20","Clean and stark. The colors are pleasant.,15,140,20","Caitlin","And I'll huff and I'll puff and I'll blow your town down!!,20,80,20","Briana","Its abstract and interesting,24,400,20","Mariah","Clean and stark. The colors are pleasant.,15,140,20","2"
"17998","","survey-text","246","1098783","0.0-245.0-0.0","A2APG8MSLJ6G2K","","","","{""Q0"":""interesting perspective in abstract, but it's just OK""}","","","","","","","","","","","","","","","","","","","","","","",""
"2267.2999999523163","","image-slider-response","247","1101052","0.0-246.0","A2APG8MSLJ6G2K","","","","","3","","","","","","","","","","","","","","","","","","","","","",""
"null","","image-button-response","248","1106058","0.0-247.0","A2APG8MSLJ6G2K","img_art/17.jpg","null","","","","","","","","","","","","","","","","","","","","","","","","",""
"619","","image-button-response","249","1106678","0.0-248.0","A2APG8MSLJ6G2K","img_art/17.jpg","3","","","","","","","","","","","","","","","","","","","","","","","","",""
"775","","image-button-response","250","1107454","0.0-249.0-0.0","A2APG8MSLJ6G2K","img_art/17.jpg","1","","","","","","","","","","","","","","","","","","","","","","","","",""
"2004","","image-button-response","251","1109460","0.0-250.0-0.0","A2APG8MSLJ6G2K","img_art/17.jpg","5","","","","","","","","","","","","","","","","","","","","","","","","",""
"null","","html-keyboard-response","252","1109976","0.0-251.0","A2APG8MSLJ6G2K","<p style=""font-size: 48px;"">+</p>","","","","","null","allTrialResponses","500","1","29","img_art/17.jpg","3","interesting perspective in abstract, but it's just OK","Briana,Morgan,Caitlin,Claire,Madeline,Mariah","It looks unfinished,-7,400,20","Tree of knowledge in a quiet school.,17,380,20","Somewhat should trim the tree branches at the shopping mall.,10,80,20","its whimsical and light,50,260,20","So expressive and wonderful wow!,17,40,20","It feels like nature overtaking civilization.,21,140,20","Claire","its whimsical and light,50,260,20","Morgan","Tree of knowledge in a quiet school.,17,380,20","Mariah","It feels like nature overtaking civilization.,21,140,20","2"
"19205","","survey-text","253","1129185","0.0-252.0-0.0","A2APG8MSLJ6G2K","","","","{""Q0"":""wasted painting is what I think""}","","","","","","","","","","","","","","","","","","","","","","",""
"2136.7000000476837","","image-slider-response","254","1131322","0.0-253.0","A2APG8MSLJ6G2K","","","","","-43","","","","","","","","","","","","","","","","","","","","","",""
"null","","image-button-response","255","1136336","0.0-254.0","A2APG8MSLJ6G2K","img_art/5.jpg","null","","","","","","","","","","","","","","","","","","","","","","","","",""
"542","","image-button-response","256","1136879","0.0-255.0","A2APG8MSLJ6G2K","img_art/5.jpg","0","","","","","","","","","","","","","","","","","","","","","","","","",""
"837","","image-button-response","257","1137717","0.0-256.0-0.0","A2APG8MSLJ6G2K","img_art/5.jpg","1","","","","","","","","","","","","","","","","","","","","","","","","",""
"940","","image-button-response","258","1138659","0.0-257.0-0.0","A2APG8MSLJ6G2K","img_art/5.jpg","2","","","","","","","","","","","","","","","","","","","","","","","","",""
"null","","html-keyboard-response","259","1140174","0.0-258.0","A2APG8MSLJ6G2K","<p style=""font-size: 48px;"">+</p>","","","","","null","allTrialResponses","1500","1","30","img_art/5.jpg","-43","wasted painting is what I think","Tiffany,Morgan,Chloe,Claire,Elizabeth,Mariah","I feel nothing looking at this.,-5,360,20","Dull pyramid that says nothing.,7,380,20","Black stripe looks violent,-31,220,20","I like the strokes and colors used,20,260,20","Perfect for art exhibition,39,20,20","It feels very strong and open.,31,140,20","Tiffany","I feel nothing looking at this.,-5,360,20","Morgan","Dull pyramid that says nothing.,7,380,20","Chloe","Black stripe looks violent,-31,220,20","2"
"5248","","image-button-response_instructions","260","1145425","0.0-259.0","A2APG8MSLJ6G2K","","0","instructions","","","","","","","","","","","","","","","","","","","","","","","",""
"2130","","image-button-response","261","1147559","0.0-260.0","A2APG8MSLJ6G2K","","0","","","","","","","","","","","","","","","","","","","","","","","","",""
