"rt","url","trial_type","trial_index","time_elapsed","internal_node_id","participant_id","stimulus","button_pressed","Name","responses","response","key_press","variableName","fixationTime","condition","trial","photo","subjectRating","subjectResponse","agentsNames","agent_1_Response","agent_2_Response","agent_3_Response","agent_4_Response","agent_5_Response","agent_6_Response","kept_1_name","kept_1_response","kept_2_name","kept_2_response","kept_3_name","kept_3_response","errorCounter"
"24106","external_page_harvard.html","external-html","0","25171","0.0-0.0","A2BABL5AHUOYC7","","","","","","","","","","","","","","","","","","","","","","","","","","",""
"1695","","image-button-response","1","26871","0.0-1.0","A2BABL5AHUOYC7","","0","","","","","","","","","","","","","","","","","","","","","","","","",""
"1520","","image-button-response","2","28406","0.0-2.0-0.0","A2BABL5AHUOYC7","","1","phone","","","","","","","","","","","","","","","","","","","","","","","",""
"3980","","survey-text","3","32391","0.0-3.0-0.0","A2BABL5AHUOYC7","","","","{""Q0"":""A2BABL5AHUOYC7""}","","","","","","","","","","","","","","","","","","","","","","",""
"4322","","image-button-response_instructions","4","36749","0.0-4.0","A2BABL5AHUOYC7","","0","instructions","","","","","","","","","","","","","","","","","","","","","","","",""
"39382","","image-button-response_instructions","5","76132","0.0-5.0","A2BABL5AHUOYC7","img_art/ins/popularity/ins1.png","0","instructions","","","","","","","","","","","","","","","","","","","","","","","",""
"9853","","image-button-response_instructions","6","85985","0.0-6.0","A2BABL5AHUOYC7","img_art/ins/popularity/ins2.png","0","instructions","","","","","","","","","","","","","","","","","","","","","","","",""
"10977","","image-button-response_instructions","7","96962","0.0-7.0","A2BABL5AHUOYC7","img_art/ins/popularity/ins2Extreme.png","0","instructions","","","","","","","","","","","","","","","","","","","","","","","",""
"10918","","image-button-response_instructions","8","107896","0.0-8.0","A2BABL5AHUOYC7","img_art/ins/popularity/ins3KEEPpop.PNG","0","instructions","","","","","","","","","","","","","","","","","","","","","","","",""
"4910","","image-button-response_instructions","9","112827","0.0-9.0","A2BABL5AHUOYC7","img_art/ins/popularity/ins3ANamepop.PNG","0","instructions","","","","","","","","","","","","","","","","","","","","","","","",""
"4374","","image-button-response_instructions","10","117226","0.0-10.0","A2BABL5AHUOYC7","img_art/ins/popularity/ins3ARatingpop.png","0","instructions","","","","","","","","","","","","","","","","","","","","","","","",""
"1887","","image-button-response_instructions","11","119128","0.0-11.0","A2BABL5AHUOYC7","img_art/ins/popularity/ins3ATextpop.png","0","instructions","","","","","","","","","","","","","","","","","","","","","","","",""
"3795","","image-button-response_instructions","12","122948","0.0-12.0","A2BABL5AHUOYC7","img_art/ins/popularity/ins3ALikespop.png","0","instructions","","","","","","","","","","","","","","","","","","","","","","","",""
"4347","","image-button-response_instructions","13","127300","0.0-13.0","A2BABL5AHUOYC7","img_art/ins/popularity/ins3KEEPpop.PNG","0","instructions","","","","","","","","","","","","","","","","","","","","","","","",""
"7379","","image-button-response_instructions","14","134697","0.0-14.0","A2BABL5AHUOYC7","img_art/ins/popularity/ins3_5RED.png","0","instructions","","","","","","","","","","","","","","","","","","","","","","","",""
"3388","","image-button-response_instructions","15","138097","0.0-15.0","A2BABL5AHUOYC7","img_art/ins/popularity/ins3KEEPpop.PNG","0","instructions","","","","","","","","","","","","","","","","","","","","","","","",""
"5367","","image-button-response_instructions","16","143464","0.0-16.0","A2BABL5AHUOYC7","img_art/ins/popularity/ins4KEEPpop.PNG","0","instructions","","","","","","","","","","","","","","","","","","","","","","","",""
"4267","","image-button-response_instructions","17","147731","0.0-17.0","A2BABL5AHUOYC7","img_art/ins/popularity/ins5KEEPpop.PNG","0","instructions","","","","","","","","","","","","","","","","","","","","","","","",""
"4243","","image-button-response_instructions","18","151984","0.0-18.0","A2BABL5AHUOYC7","","0","instructions","","","","","","","","","","","","","","","","","","","","","","","",""
"12640","","survey-text","19","165235","0.0-19.0-0.0","A2BABL5AHUOYC7","","","","{""Q0"":""but""}","","","","","","","","","","","","","","","","","","","","","","",""
"11615","","survey-text","20","176880","0.0-20.0-0.0","A2BABL5AHUOYC7","","","","{""Q0"":""way too colorful.""}","","","","","","","","","","","","","","","","","","","","","","",""
"4544","","image-slider-response","21","181454","0.0-21.0","A2BABL5AHUOYC7","","","","","-31","","","","","","","","","","","","","","","","","","","","","",""
"null","","image-button-response","22","186497","0.0-22.0","A2BABL5AHUOYC7","img_art/ins/1.jpg","null","","","","","","","","","","","","","","","","","","","","","","","","",""
"8684","","image-button-response","23","195211","0.0-23.0","A2BABL5AHUOYC7","img_art/ins/1.jpg","5","","","","","","","","","","","","","","","","","","","","","","","","",""
"1628","","image-button-response","24","196860","0.0-24.0-0.0","A2BABL5AHUOYC7","img_art/ins/1.jpg","4","","","","","","","","","","","","","","","","","","","","","","","","",""
"2765","","image-button-response","25","199693","0.0-25.0-0.0","A2BABL5AHUOYC7","img_art/ins/1.jpg","1","","","","","","","","","","","","","","","","","","","","","","","","",""
"null","","html-keyboard-response","26","201279","0.0-26.0","A2BABL5AHUOYC7","<p style=""font-size: 48px;"">+</p>","","","","","null","allTrialResponses","1500","1","-2","img_art/ins/1.jpg","-31","way too colorful.","Adam,Alex,Ben,Carl,Daniel,Jack","Seems like doodles,-20,20,20","very creative work.,36,40,20","This color reminds me of poo,-46,60,20","very calming artwork,42,80,20","It looks like a murder scene.,-48,100,20","I like the sophisticated brushwork,40,120,20","Jack","I like the sophisticated brushwork,40,120,20","Daniel","It looks like a murder scene.,-48,100,20","Alex","very creative work.,36,40,20","0"
"14946","","survey-text","27","216810","0.0-27.0-0.0","A2BABL5AHUOYC7","","","","{""Q0"":""I love the color choices.""}","","","","","","","","","","","","","","","","","","","","","","",""
"4541","","image-slider-response","28","221366","0.0-28.0","A2BABL5AHUOYC7","","","","","18","","","","","","","","","","","","","","","","","","","","","",""
"null","","image-button-response","29","226381","0.0-29.0","A2BABL5AHUOYC7","img_art/ins/2.jpg","null","","","","","","","","","","","","","","","","","","","","","","","","",""
"1529","","image-button-response","30","227925","0.0-30.0","A2BABL5AHUOYC7","img_art/ins/2.jpg","0","","","","","","","","","","","","","","","","","","","","","","","","",""
"2085","","image-button-response","31","230025","0.0-31.0-0.0","A2BABL5AHUOYC7","img_art/ins/2.jpg","1","","","","","","","","","","","","","","","","","","","","","","","","",""
"2120","","image-button-response","32","232206","0.0-32.0-0.0","A2BABL5AHUOYC7","img_art/ins/2.jpg","5","","","","","","","","","","","","","","","","","","","","","","","","",""
"null","","html-keyboard-response","33","233713","0.0-33.0","A2BABL5AHUOYC7","<p style=""font-size: 48px;"">+</p>","","","","","null","allTrialResponses","1500","1","-1","img_art/ins/2.jpg","18","I love the color choices.","John,Alex,Kyle,James,Daniel,Jack","love the texture of paint,48,160,20","I like the blocks of color arrangements,30,40,20","Idk, it is just annoying,-32,180,20","looks too angry,-50,140,20","One of my pet peevs,-48,100,20","I would never be able to compose a sophisticated pallete like this,48,120,20","John","love the texture of paint,48,160,20","Alex","I like the blocks of color arrangements,30,40,20","Jack","I would never be able to compose a sophisticated pallete like this,48,120,20","0"
"17877","","survey-text","34","251595","0.0-34.0-0.0","A2BABL5AHUOYC7","","","","{""Q0"":""The colors are well mixed.""}","","","","","","","","","","","","","","","","","","","","","","",""
"4766","","image-slider-response","35","256367","0.0-35.0","A2BABL5AHUOYC7","","","","","42","","","","","","","","","","","","","","","","","","","","","",""
"3876","","image-button-response","36","261394","0.0-36.0","A2BABL5AHUOYC7","img_art/ins/3.jpg","3","","","","","","","","","","","","","","","","","","","","","","","","",""
"1358","","image-button-response","37","262759","0.0-37.0","A2BABL5AHUOYC7","img_art/ins/3.jpg","5","","","","","","","","","","","","","","","","","","","","","","","","",""
"1141","","image-button-response","38","263902","0.0-38.0-0.0","A2BABL5AHUOYC7","img_art/ins/3.jpg","3","","","","","","","","","","","","","","","","","","","","","","","","",""
"2863","","image-button-response","39","266765","0.0-39.0-0.0","A2BABL5AHUOYC7","img_art/ins/3.jpg","0","","","","","","","","","","","","","","","","","","","","","","","","",""
"null","","html-keyboard-response","40","268376","0.0-40.0","A2BABL5AHUOYC7","<p style=""font-size: 48px;"">+</p>","","","","","null","allTrialResponses","1500","1","0","img_art/ins/3.jpg","42","The colors are well mixed.","John,Alex,Sam,Mike,Ron,Jack","I like the overlapping of brushes,41,160,20","calming blue is very nice,36,40,20","I can feel a rainy day from this painting,18,240,20","enjoy the different shades of blue,22,200,20","It looks depressing,-26,220,20","I feel connected to the artist,40,120,20","Jack","I feel connected to the artist,40,120,20","Mike","enjoy the different shades of blue,22,200,20","John","I like the overlapping of brushes,41,160,20","0"
"41518","","image-button-response_instructions","41","309990","0.0-41.0","A2BABL5AHUOYC7","","0","instructions","","","","","","","","","","","","","","","","","","","","","","","",""
"15666","","survey-likert","42","325656","0.0-42.0-0.0","A2BABL5AHUOYC7","","","","{""Q0"":"""",""Q1"":0,""Q2"":1}","","","","","","","","","","","","","","","","","","","","","","",""
"4450","","survey-text","43","330123","0.0-43.0-0.0","A2BABL5AHUOYC7","","","","{""Q0"":""rock""}","","","","","","","","","","","","","","","","","","","","","","",""
"19948","","survey-text","44","350081","0.0-44.0-0.0","A2BABL5AHUOYC7","","","","{""Q0"":""this piece is beautiful.""}","","","","","","","","","","","","","","","","","","","","","","",""
"3448","","image-slider-response","45","353541","0.0-45.0","A2BABL5AHUOYC7","","","","","21","","","","","","","","","","","","","","","","","","","","","",""
"null","","image-button-response","46","358816","0.0-46.0","A2BABL5AHUOYC7","img_art/20.jpg","null","","","","","","","","","","","","","","","","","","","","","","","","",""
"697","","image-button-response","47","359527","0.0-47.0","A2BABL5AHUOYC7","img_art/20.jpg","1","","","","","","","","","","","","","","","","","","","","","","","","",""
"1924","","image-button-response","48","361481","0.0-48.0-0.0","A2BABL5AHUOYC7","img_art/20.jpg","0","","","","","","","","","","","","","","","","","","","","","","","","",""
"3030","","image-button-response","49","364541","0.0-49.0-0.0","A2BABL5AHUOYC7","img_art/20.jpg","3","","","","","","","","","","","","","","","","","","","","","","","","",""
"null","","html-keyboard-response","50","365046","0.0-50.0","A2BABL5AHUOYC7","<p style=""font-size: 48px;"">+</p>","","","","","null","allTrialResponses","500","1","1","img_art/20.jpg","21","this piece is beautiful.","Patrick,Matthew,Devin,Devon,Brandon,Cody","Looks calm but a bit dark,21,280,20","Painting within a painting, abstract.,32,120,20","Looks somewhat dark and emotional,-10,380,20","i can feel the intensity in this,11,400,20","I like the proportion of the car to the desert city, but too abstract for me,15,320,20","I like the distortion of the objects, good colors,20,180,20","Matthew","Painting within a painting, abstract.,32,120,20","Patrick","Looks calm but a bit dark,21,280,20","Devon","i can feel the intensity in this,11,400,20","0"
"27529","","survey-text","51","392582","0.0-51.0-0.0","A2BABL5AHUOYC7","","","","{""Q0"":""This is picture perfect. ""}","","","","","","","","","","","","","","","","","","","","","","",""
"3708","","image-slider-response","52","396300","0.0-52.0","A2BABL5AHUOYC7","","","","","50","","","","","","","","","","","","","","","","","","","","","",""
"null","","image-button-response","53","401328","0.0-53.0","A2BABL5AHUOYC7","img_art/17.jpg","null","","","","","","","","","","","","","","","","","","","","","","","","",""
"3704","","image-button-response","54","405137","0.0-54.0","A2BABL5AHUOYC7","img_art/17.jpg","2","","","","","","","","","","","","","","","","","","","","","","","","",""
"910","","image-button-response","55","406067","0.0-55.0-0.0","A2BABL5AHUOYC7","img_art/17.jpg","2","","","","","","","","","","","","","","","","","","","","","","","","",""
"1842","","image-button-response","56","415549","0.0-55.1-0.1","A2BABL5AHUOYC7","img_art/17.jpg","5","","","","","","","","","","","","","","","","","","","","","","","","",""
"1433","","image-button-response","57","417012","0.0-56.0-0.0","A2BABL5AHUOYC7","img_art/17.jpg","4","","","","","","","","","","","","","","","","","","","","","","","","",""
"null","","html-keyboard-response","58","417517","0.0-57.0","A2BABL5AHUOYC7","<p style=""font-size: 48px;"">+</p>","","","","","null","allTrialResponses","500","1","2","img_art/17.jpg","50","This is picture perfect. ","Patrick,Matthew,Tyler,Devon,David,Malik","Beautiful patterns but evokes sad emotions in me due to the color shades,31,280,20","taste the rainbow, feel the flavor.,23,120,20","No strong reaction. Beautiful design, but hue appears taciturn. Bad photograph?,1,320,20","i feel some sadness in this picture,25,400,20","I like how the image gives an impression of gaseous tree.,15,340,20","I love vague, dreamlike styles,50,40,20","Tyler","No strong reaction. Beautiful design, but hue appears taciturn. Bad photograph?,1,320,20","Malik","I love vague, dreamlike styles,50,40,20","David","I like how the image gives an impression of gaseous tree.,15,340,20","2"
"17602","","survey-text","59","435169","0.0-58.0-0.0","A2BABL5AHUOYC7","","","","{""Q0"":""Too many colors and not well blended.""}","","","","","","","","","","","","","","","","","","","","","","",""
"5738","","image-slider-response","60","440912","0.0-59.0","A2BABL5AHUOYC7","","","","","-9","","","","","","","","","","","","","","","","","","","","","",""
"2819","","image-button-response","61","445927","0.0-60.0","A2BABL5AHUOYC7","img_art/1.jpg","3","","","","","","","","","","","","","","","","","","","","","","","","",""
"852","","image-button-response","62","446800","0.0-61.0","A2BABL5AHUOYC7","img_art/1.jpg","3","","","","","","","","","","","","","","","","","","","","","","","","",""
"2752","","image-button-response","63","449597","0.0-62.0-0.0","A2BABL5AHUOYC7","img_art/1.jpg","4","","","","","","","","","","","","","","","","","","","","","","","","",""
"7126","","image-button-response","64","456769","0.0-63.0-0.0","A2BABL5AHUOYC7","img_art/1.jpg","2","","","","","","","","","","","","","","","","","","","","","","","","",""
"null","","html-keyboard-response","65","457294","0.0-64.0","A2BABL5AHUOYC7","<p style=""font-size: 48px;"">+</p>","","","","","null","allTrialResponses","500","1","3","img_art/1.jpg","-9","Too many colors and not well blended.","Samuel,Ethan,Tyler,Jesse,David,Malik","feels like there is meaning,9,400,20","This piece feels soft and romantic to me. I do not care for so much orange though.,3,120,20","This looks like the same artist as the first picture, but cropped? Looks incomplete.,28,320,20","Im not a fan of the bluriness,-18,80,20","This image doesn't invoke much in me.,0,340,20","Vague and directionless,-14,40,20","Jesse","Im not a fan of the bluriness,-18,80,20","David","This image doesn't invoke much in me.,0,340,20","Tyler","This looks like the same artist as the first picture, but cropped? Looks incomplete.,28,320,20","2"
"36120","","survey-text","66","493427","0.0-65.0-0.0","A2BABL5AHUOYC7","","","","{""Q0"":""A beautiful piece.""}","","","","","","","","","","","","","","","","","","","","","","",""
"3729","","image-slider-response","67","497182","0.0-66.0","A2BABL5AHUOYC7","","","","","23","","","","","","","","","","","","","","","","","","","","","",""
"4674","","image-button-response","68","502248","0.0-67.0","A2BABL5AHUOYC7","img_art/10.jpg","2","","","","","","","","","","","","","","","","","","","","","","","","",""
"3461","","image-button-response","69","505749","0.0-68.0","A2BABL5AHUOYC7","img_art/10.jpg","3","","","","","","","","","","","","","","","","","","","","","","","","",""
"3547","","image-button-response","70","509391","0.0-69.0-0.0","A2BABL5AHUOYC7","img_art/10.jpg","5","","","","","","","","","","","","","","","","","","","","","","","","",""
"3167","","image-button-response","71","512568","0.0-70.0-0.0","A2BABL5AHUOYC7","img_art/10.jpg","2","","","","","","","","","","","","","","","","","","","","","","","","",""
"null","","html-keyboard-response","72","514077","0.0-71.0","A2BABL5AHUOYC7","<p style=""font-size: 48px;"">+</p>","","","","","null","allTrialResponses","1500","1","4","img_art/10.jpg","23","A beautiful piece.","Miguel,Robert,Tyler,Jesse,David,Jeremy","It just looks like a dirty stain.,-38,160,20","The black color is depressing.,-50,360,20","In proper lighting I might enjoy this,11,320,20","It makes me think of music and i love the reflective aspect,29,80,20","I can't really tell what this is suppose to represent, but overall I don't like the design.,-20,340,20","kind of happy. it is intriguing,23,60,20","Jesse","It makes me think of music and i love the reflective aspect,29,80,20","Jeremy","kind of happy. it is intriguing,23,60,20","Tyler","In proper lighting I might enjoy this,11,320,20","2"
"56601","","survey-text","73","570748","0.0-72.0-0.0","A2BABL5AHUOYC7","","","","{""Q0"":""The colors are well blended and the art, perfect.""}","","","","","","","","","","","","","","","","","","","","","","",""
"8203","","image-slider-response","74","578961","0.0-73.0","A2BABL5AHUOYC7","","","","","47","","","","","","","","","","","","","","","","","","","","","",""
"null","","image-button-response","75","584057","0.0-74.0","A2BABL5AHUOYC7","img_art/8.jpg","null","","","","","","","","","","","","","","","","","","","","","","","","",""
"7407","","image-button-response","76","591464","0.0-75.0","A2BABL5AHUOYC7","img_art/8.jpg","1","","","","","","","","","","","","","","","","","","","","","","","","",""
"2442","","image-button-response","77","593946","0.0-76.0-0.0","A2BABL5AHUOYC7","img_art/8.jpg","2","","","","","","","","","","","","","","","","","","","","","","","","",""
"6375","","image-button-response","78","600351","0.0-77.0-0.0","A2BABL5AHUOYC7","img_art/8.jpg","3","","","","","","","","","","","","","","","","","","","","","","","","",""
"null","","html-keyboard-response","79","600860","0.0-78.0","A2BABL5AHUOYC7","<p style=""font-size: 48px;"">+</p>","","","","","null","allTrialResponses","500","1","5","img_art/8.jpg","47","The colors are well blended and the art, perfect.","Bryce,Caleb,Tyler,Jesse,Gabriel,Jeremy","Its kinda like an optical illusion.,22,20,20","Despite the detail, this picture is very abstract!,31,40,20","The composition is striking, and some of the images are quite dramatic,11,320,20","I like the definition and the strong lines. It makes me think of someone watching over the world,24,80,20","i like all the different faces,19,160,20","Nervous like being up high,10,60,20","Caleb","Despite the detail, this picture is very abstract!,31,40,20","Tyler","The composition is striking, and some of the images are quite dramatic,11,320,20","Jesse","I like the definition and the strong lines. It makes me think of someone watching over the world,24,80,20","2"
"5440","","survey-text","80","606381","0.0-79.0-0.0","A2BABL5AHUOYC7","","","","{""Q0"":""sky""}","","","","","","","","","","","","","","","","","","","","","","",""
"11583","","survey-text","81","617977","0.0-80.0-0.0","A2BABL5AHUOYC7","","","","{""Q0"":""this is deep.""}","","","","","","","","","","","","","","","","","","","","","","",""
"5152","","image-slider-response","82","623154","0.0-81.0","A2BABL5AHUOYC7","","","","","17","","","","","","","","","","","","","","","","","","","","","",""
"null","","image-button-response","83","628172","0.0-82.0","A2BABL5AHUOYC7","img_art/27.jpg","null","","","","","","","","","","","","","","","","","","","","","","","","",""
"11269","","image-button-response","84","639446","0.0-83.0","A2BABL5AHUOYC7","img_art/27.jpg","4","","","","","","","","","","","","","","","","","","","","","","","","",""
"1993","","image-button-response","85","641458","0.0-84.0-0.0","A2BABL5AHUOYC7","img_art/27.jpg","3","","","","","","","","","","","","","","","","","","","","","","","","",""
"761","","image-button-response","86","642271","0.0-85.0-0.0","A2BABL5AHUOYC7","img_art/27.jpg","5","","","","","","","","","","","","","","","","","","","","","","","","",""
"null","","html-keyboard-response","87","642813","0.0-86.0","A2BABL5AHUOYC7","<p style=""font-size: 48px;"">+</p>","","","","","null","allTrialResponses","500","1","6","img_art/27.jpg","17","this is deep.","Jesus,Caleb,Tyler,Jesse,Thomas,Christian","The color palette isn't my taste,-24,100,20","An abstract piece with such lifeless colors.,-26,40,20","The photographing is horribly distracting. I would feel more favorable toward the original colors/ brightness,1,320,20","Doesnt look like anything to me. Doesnt capture my attention.,-25,80,20","First thought is again, that this looks like a child's art assignment,-20,220,20","don't understand, the green induces confusion,1,140,20","Thomas","First thought is again, that this looks like a child's art assignment,-20,220,20","Jesse","Doesnt look like anything to me. Doesnt capture my attention.,-25,80,20","Christian","don't understand, the green induces confusion,1,140,20","2"
"21419","","survey-text","88","664254","0.0-87.0-0.0","A2BABL5AHUOYC7","","","","{""Q0"":""not a fan of too much black color""}","","","","","","","","","","","","","","","","","","","","","","",""
"5302","","image-slider-response","89","669573","0.0-88.0","A2BABL5AHUOYC7","","","","","-43","","","","","","","","","","","","","","","","","","","","","",""
"4409","","image-button-response","90","674790","0.0-89.0","A2BABL5AHUOYC7","img_art/15.jpg","5","","","","","","","","","","","","","","","","","","","","","","","","",""
"5448","","image-button-response","91","680239","0.0-90.0","A2BABL5AHUOYC7","img_art/15.jpg","3","","","","","","","","","","","","","","","","","","","","","","","","",""
"1226","","image-button-response","92","681492","0.0-91.0-0.0","A2BABL5AHUOYC7","img_art/15.jpg","5","","","","","","","","","","","","","","","","","","","","","","","","",""
"5482","","image-button-response","93","686993","0.0-92.0-0.0","A2BABL5AHUOYC7","img_art/15.jpg","4","","","","","","","","","","","","","","","","","","","","","","","","",""
"null","","html-keyboard-response","94","688561","0.0-93.0","A2BABL5AHUOYC7","<p style=""font-size: 48px;"">+</p>","","","","","null","allTrialResponses","1500","1","7","img_art/15.jpg","-43","not a fan of too much black color","Kyle,Spencer,Trevor,Jesse,Thomas,Christian","I like it as the colors complement each other well,21,340,20","Pretty, like in a field of poppies,19,120,20","I really like the colors,14,280,20","Doesnt trigger much of a reaction overall,-2,80,20","Interesting, and I don't dislike it.,9,220,20","very unsettling! like reverse porcelain esp because of the colors,28,140,20","Jesse","Doesnt trigger much of a reaction overall,-2,80,20","Christian","very unsettling! like reverse porcelain esp because of the colors,28,140,20","Thomas","Interesting, and I don't dislike it.,9,220,20","2"
"26006","","survey-text","95","714633","0.0-94.0-0.0","A2BABL5AHUOYC7","","","","{""Q0"":""I feel connected to this artist""}","","","","","","","","","","","","","","","","","","","","","","",""
"4904","","image-slider-response","96","719540","0.0-95.0","A2BABL5AHUOYC7","","","","","31","","","","","","","","","","","","","","","","","","","","","",""
"2400","","image-button-response","97","724654","0.0-96.0","A2BABL5AHUOYC7","img_art/18.jpg","4","","","","","","","","","","","","","","","","","","","","","","","","",""
"1859","","image-button-response","98","726518","0.0-97.0","A2BABL5AHUOYC7","img_art/18.jpg","4","","","","","","","","","","","","","","","","","","","","","","","","",""
"11122","","image-button-response","99","737645","0.0-98.0-0.0","A2BABL5AHUOYC7","img_art/18.jpg","5","","","","","","","","","","","","","","","","","","","","","","","","",""
"4366","","image-button-response","100","742031","0.0-99.0-0.0","A2BABL5AHUOYC7","img_art/18.jpg","0","","","","","","","","","","","","","","","","","","","","","","","","",""
"null","","html-keyboard-response","101","743090","0.0-100.0","A2BABL5AHUOYC7","<p style=""font-size: 48px;"">+</p>","","","","","null","allTrialResponses","1000","1","8","img_art/18.jpg","31","I feel connected to this artist","Bryan,Nathaniel,Luke,Jesse,Thomas,Christian","First saw sailing ship in bad weather but then saw woman in upper left - not sure what I'm seeing.,21,400,20","Looks like a jumbled mess. I prefer a clearer picture,-18,220,20","the harsh lines with the smooth lines makes me think of wild animals,20,20,20","It reminds me of ghosts on a boat. Makes me nervous.,-27,80,20","I could stare at this for long stretches of time and still find new details. I love it.,40,220,20","reminds me of the little prince, with the color scheme and all,16,140,20","Thomas","I could stare at this for long stretches of time and still find new details. I love it.,40,220,20","Christian","reminds me of the little prince, with the color scheme and all,16,140,20","Bryan","First saw sailing ship in bad weather but then saw woman in upper left - not sure what I'm seeing.,21,400,20","2"
"31390","","survey-text","102","774605","0.0-101.0-0.0","A2BABL5AHUOYC7","","","","{""Q0"":""I don't like the blurriness""}","","","","","","","","","","","","","","","","","","","","","","",""
"3842","","image-slider-response","103","778467","0.0-102.0","A2BABL5AHUOYC7","","","","","-32","","","","","","","","","","","","","","","","","","","","","",""
"null","","image-button-response","104","783496","0.0-103.0","A2BABL5AHUOYC7","img_art/14.jpg","null","","","","","","","","","","","","","","","","","","","","","","","","",""
"23862","","image-button-response","105","807374","0.0-104.0","A2BABL5AHUOYC7","img_art/14.jpg","0","","","","","","","","","","","","","","","","","","","","","","","","",""
"3768","","image-button-response","106","811160","0.0-105.0-0.0","A2BABL5AHUOYC7","img_art/14.jpg","4","","","","","","","","","","","","","","","","","","","","","","","","",""
"7294","","image-button-response","107","818493","0.0-106.0-0.0","A2BABL5AHUOYC7","img_art/14.jpg","5","","","","","","","","","","","","","","","","","","","","","","","","",""
"null","","html-keyboard-response","108","819015","0.0-107.0","A2BABL5AHUOYC7","<p style=""font-size: 48px;"">+</p>","","","","","null","allTrialResponses","500","1","9","img_art/14.jpg","-32","I don't like the blurriness","Bryan,Marcus,Elijah,Dylan,Thomas,Christian","Like some of the colors but not much else.,1,400,20","I like the colors and the shapes are interesting,11,60,20","Makes me feel good,30,80,20","Pretty, dainty, unique,22,40,20","I like the colors in the background, but not the bottom/center. It almost looks sloppy.,-20,220,20","medium recalls back to an oriental style,16,140,20","Bryan","Like some of the colors but not much else.,1,400,20","Thomas","I like the colors in the background, but not the bottom/center. It almost looks sloppy.,-20,220,20","Christian","medium recalls back to an oriental style,16,140,20","2"
"22820","","survey-text","109","841874","0.0-108.0-0.0","A2BABL5AHUOYC7","","","","{""Q0"":""Scary piece.""}","","","","","","","","","","","","","","","","","","","","","","",""
"3446","","image-slider-response","110","845322","0.0-109.0","A2BABL5AHUOYC7","","","","","-15","","","","","","","","","","","","","","","","","","","","","",""
"null","","image-button-response","111","850334","0.0-110.0","A2BABL5AHUOYC7","img_art/25.jpg","null","","","","","","","","","","","","","","","","","","","","","","","","",""
"809","","image-button-response","112","851155","0.0-111.0","A2BABL5AHUOYC7","img_art/25.jpg","3","","","","","","","","","","","","","","","","","","","","","","","","",""
"1387","","image-button-response","113","852559","0.0-112.0-0.0","A2BABL5AHUOYC7","img_art/25.jpg","5","","","","","","","","","","","","","","","","","","","","","","","","",""
"2284","","image-button-response","114","854862","0.0-113.0-0.0","A2BABL5AHUOYC7","img_art/25.jpg","0","","","","","","","","","","","","","","","","","","","","","","","","",""
"null","","html-keyboard-response","115","855925","0.0-114.0","A2BABL5AHUOYC7","<p style=""font-size: 48px;"">+</p>","","","","","null","allTrialResponses","1000","1","10","img_art/25.jpg","-15","Scary piece.","Bryan,Cameron,Peter,Scott,Thomas,Christian","Scary. Something out of a Stephen King book/movie.,-31,400,20","Like the color, but what is that thing.,-10,60,20","It's very mystical.,5,320,20","reminds me of a zombie,-36,20,20","I like the design but the brightness of the color feels almost blinding to me.,-3,220,20","I'm sorry but I don't uderstand this,-20,140,20","Scott","reminds me of a zombie,-36,20,20","Christian","I'm sorry but I don't uderstand this,-20,140,20","Bryan","Scary. Something out of a Stephen King book/movie.,-31,400,20","2"
"5687","","survey-text","116","862063","0.0-115.0-0.0","A2BABL5AHUOYC7","","","","{""Q0"":""our""}","","","","","","","","","","","","","","","","","","","","","","",""
"15032","","survey-text","117","877111","0.0-116.0-0.0","A2BABL5AHUOYC7","","","","{""Q0"":""Scary piece.""}","","","","","","","","","","","","","","","","","","","","","","",""
"4051","","image-slider-response","118","881171","0.0-117.0","A2BABL5AHUOYC7","","","","","-17","","","","","","","","","","","","","","","","","","","","","",""
"3314","","image-button-response","119","886198","0.0-118.0","A2BABL5AHUOYC7","img_art/16.jpg","5","","","","","","","","","","","","","","","","","","","","","","","","",""
"1051","","image-button-response","120","887288","0.0-119.0","A2BABL5AHUOYC7","img_art/16.jpg","3","","","","","","","","","","","","","","","","","","","","","","","","",""
"878","","image-button-response","121","888187","0.0-120.0-0.0","A2BABL5AHUOYC7","img_art/16.jpg","0","","","","","","","","","","","","","","","","","","","","","","","","",""
"2524","","image-button-response","122","890729","0.0-121.0-0.0","A2BABL5AHUOYC7","img_art/16.jpg","2","","","","","","","","","","","","","","","","","","","","","","","","",""
"null","","html-keyboard-response","123","891273","0.0-122.0","A2BABL5AHUOYC7","<p style=""font-size: 48px;"">+</p>","","","","","null","allTrialResponses","500","1","11","img_art/16.jpg","-17","Scary piece.","Bryan,Jose,Garrett,Scott,Stephen,Christian","Something terrible happened. Either the figure on the right is the victim or another shredded toy.,-49,400,20","Super weird. Id like to know more about it,24,200,20","I think this picture is weird and the colors are very boring.,-50,180,20","feels chaotic and morbid,-39,20,20","Cute but there's a lot going on.,7,140,20","don't know how to feel, I mean I respect it but I honestly don't know about this,-12,140,20","Scott","feels chaotic and morbid,-39,20,20","Bryan","Something terrible happened. Either the figure on the right is the victim or another shredded toy.,-49,400,20","Garrett","I think this picture is weird and the colors are very boring.,-50,180,20","2"
"13841","","survey-text","124","905127","0.0-123.0-0.0","A2BABL5AHUOYC7","","","","{""Q0"":""Not precise enough""}","","","","","","","","","","","","","","","","","","","","","","",""
"3415","","image-slider-response","125","908550","0.0-124.0","A2BABL5AHUOYC7","","","","","-11","","","","","","","","","","","","","","","","","","","","","",""
"2123","","image-button-response","126","913588","0.0-125.0","A2BABL5AHUOYC7","img_art/29.jpg","0","","","","","","","","","","","","","","","","","","","","","","","","",""
"447","","image-button-response","127","914072","0.0-126.0","A2BABL5AHUOYC7","img_art/29.jpg","0","","","","","","","","","","","","","","","","","","","","","","","","",""
"1266","","image-button-response","128","915403","0.0-127.0-0.0","A2BABL5AHUOYC7","img_art/29.jpg","3","","","","","","","","","","","","","","","","","","","","","","","","",""
"492","","image-button-response","129","916002","0.0-128.0-0.0","A2BABL5AHUOYC7","img_art/29.jpg","4","","","","","","","","","","","","","","","","","","","","","","","","",""
"null","","html-keyboard-response","130","917652","0.0-129.0","A2BABL5AHUOYC7","<p style=""font-size: 48px;"">+</p>","","","","","null","allTrialResponses","1500","1","12","img_art/29.jpg","-11","Not precise enough","Bryan,Jack,Garrett,Scott,Shawn,Derek","Doesn't do much for me. I like some of the colors but not much else.,-10,400,20","risks well taken. the brush is hilarious. feels like an artist's frustration, which is relatable.,50,320,20","I think this image looks ugly and needs more colors so it looks nicer.,-30,180,20","feels random and not thoughtout,-37,20,20","Looks muddy and sticky,-31,100,20","Very wild and I like it,20,360,20","Bryan","Doesn't do much for me. I like some of the colors but not much else.,-10,400,20","Scott","feels random and not thoughtout,-37,20,20","Shawn","Looks muddy and sticky,-31,100,20","2"
"46847","","survey-text","131","964659","0.0-130.0-0.0","A2BABL5AHUOYC7","","","","{""Q0"":""deep representation""}","","","","","","","","","","","","","","","","","","","","","","",""
"4343","","image-slider-response","132","969034","0.0-131.0","A2BABL5AHUOYC7","","","","","13","","","","","","","","","","","","","","","","","","","","","",""
"null","","image-button-response","133","974084","0.0-132.0","A2BABL5AHUOYC7","img_art/11.jpg","null","","","","","","","","","","","","","","","","","","","","","","","","",""
"2580","","image-button-response","134","976664","0.0-133.0","A2BABL5AHUOYC7","img_art/11.jpg","0","","","","","","","","","","","","","","","","","","","","","","","","",""
"1205","","image-button-response","135","977901","0.0-134.0-0.0","A2BABL5AHUOYC7","img_art/11.jpg","1","","","","","","","","","","","","","","","","","","","","","","","","",""
"2814","","image-button-response","136","980751","0.0-135.0-0.0","A2BABL5AHUOYC7","img_art/11.jpg","5","","","","","","","","","","","","","","","","","","","","","","","","",""
"null","","html-keyboard-response","137","981786","0.0-136.0","A2BABL5AHUOYC7","<p style=""font-size: 48px;"">+</p>","","","","","null","allTrialResponses","1000","1","13","img_art/11.jpg","13","deep representation","Bryan,Nathan,Andrew,Scott,Shawn,Colton","Rainy asian city scape.,31,400,20","Reminds me of some of post-apocalyptic view of street lights or maybe a city,30,200,20","It's a really cool painting, but it reminds me of bad traffic,-20,160,20","makes me feel dizzy,-37,20,20","Like the movement but not the background colors.,21,100,20","the wavy lines are nice and pleasing,13,220,20","Bryan","Rainy asian city scape.,31,400,20","Nathan","Reminds me of some of post-apocalyptic view of street lights or maybe a city,30,200,20","Colton","the wavy lines are nice and pleasing,13,220,20","2"
"31288","","survey-text","138","1013106","0.0-137.0-0.0","A2BABL5AHUOYC7","","","","{""Q0"":""nice color blend""}","","","","","","","","","","","","","","","","","","","","","","",""
"4589","","image-slider-response","139","1017731","0.0-138.0","A2BABL5AHUOYC7","","","","","20","","","","","","","","","","","","","","","","","","","","","",""
"2966","","image-button-response","140","1022805","0.0-139.0","A2BABL5AHUOYC7","img_art/5.jpg","5","","","","","","","","","","","","","","","","","","","","","","","","",""
"12494","","image-button-response","141","1035339","0.0-140.0","A2BABL5AHUOYC7","img_art/5.jpg","3","","","","","","","","","","","","","","","","","","","","","","","","",""
"1231","","image-button-response","142","1036600","0.0-141.0-0.0","A2BABL5AHUOYC7","img_art/5.jpg","5","","","","","","","","","","","","","","","","","","","","","","","","",""
"6727","","image-button-response","143","1043377","0.0-142.0-0.0","A2BABL5AHUOYC7","img_art/5.jpg","1","","","","","","","","","","","","","","","","","","","","","","","","",""
"null","","html-keyboard-response","144","1044397","0.0-143.0","A2BABL5AHUOYC7","<p style=""font-size: 48px;"">+</p>","","","","","null","allTrialResponses","1000","1","14","img_art/5.jpg","20","nice color blend","Bryan,Nathan,Jared,Ian,Aaron,Colton","Looks like a yellow plastic trash bag.,-42,400,20","Not a fan of the themes,-30,200,20","i dont like the yellow or the shape,-26,400,20","This either looks like a bell or aliens finishing the pyramids,-34,260,20","It's kind of boring.,-20,20,20","I like the strokes and colors used,20,220,20","Ian","This either looks like a bell or aliens finishing the pyramids,-34,260,20","Colton","I like the strokes and colors used,20,220,20","Nathan","Not a fan of the themes,-30,200,20","2"
"32392","","survey-text","145","1076814","0.0-144.0-0.0","A2BABL5AHUOYC7","","","","{""Q0"":""beautiful piece""}","","","","","","","","","","","","","","","","","","","","","","",""
"3525","","image-slider-response","146","1080404","0.0-145.0","A2BABL5AHUOYC7","","","","","34","","","","","","","","","","","","","","","","","","","","","",""
"2727","","image-button-response","147","1085469","0.0-146.0","A2BABL5AHUOYC7","img_art/4.jpg","4","","","","","","","","","","","","","","","","","","","","","","","","",""
"1769","","image-button-response","148","1087245","0.0-147.0","A2BABL5AHUOYC7","img_art/4.jpg","0","","","","","","","","","","","","","","","","","","","","","","","","",""
"1901","","image-button-response","149","1089186","0.0-148.0-0.0","A2BABL5AHUOYC7","img_art/4.jpg","4","","","","","","","","","","","","","","","","","","","","","","","","",""
"4539","","image-button-response","150","1093763","0.0-149.0-0.0","A2BABL5AHUOYC7","img_art/4.jpg","2","","","","","","","","","","","","","","","","","","","","","","","","",""
"null","","html-keyboard-response","151","1094809","0.0-150.0","A2BABL5AHUOYC7","<p style=""font-size: 48px;"">+</p>","","","","","null","allTrialResponses","1000","1","15","img_art/4.jpg","34","beautiful piece","Connor,Nathan,Angel,Ian,Jeffrey,Colton","Seems simplistic,-8,240,20","Not my preference when it comes to art styles or subjects,-10,200,20","I feel kind of guilty looking at this, like I'm receiving a reward I don't I deserve.,-10,180,20","I just don't understand this one at all, I do not like it,-43,260,20","Easy and relaxing,23,40,20","I really don't like the colors,-26,220,20","Connor","Seems simplistic,-8,240,20","Jeffrey","Easy and relaxing,23,40,20","Angel","I feel kind of guilty looking at this, like I'm receiving a reward I don't I deserve.,-10,180,20","2"
"10835","","survey-text","152","1105804","0.0-151.0-0.0","A2BABL5AHUOYC7","","","","{""Q0"":""course""}","","","","","","","","","","","","","","","","","","","","","","",""
"58473","","survey-text","153","1164287","0.0-152.0-0.0","A2BABL5AHUOYC7","","","","{""Q0"":""too much color and not well blended""}","","","","","","","","","","","","","","","","","","","","","","",""
"4040","","image-slider-response","154","1168352","0.0-153.0","A2BABL5AHUOYC7","","","","","-27","","","","","","","","","","","","","","","","","","","","","",""
"2108","","image-button-response","155","1173591","0.0-154.0","A2BABL5AHUOYC7","img_art/2.jpg","1","","","","","","","","","","","","","","","","","","","","","","","","",""
"1920","","image-button-response","156","1175561","0.0-155.0","A2BABL5AHUOYC7","img_art/2.jpg","2","","","","","","","","","","","","","","","","","","","","","","","","",""
"706","","image-button-response","157","1176307","0.0-156.0-0.0","A2BABL5AHUOYC7","img_art/2.jpg","1","","","","","","","","","","","","","","","","","","","","","","","","",""
"1742","","image-button-response","158","1178080","0.0-157.0-0.0","A2BABL5AHUOYC7","img_art/2.jpg","3","","","","","","","","","","","","","","","","","","","","","","","","",""
"null","","html-keyboard-response","159","1179104","0.0-158.0","A2BABL5AHUOYC7","<p style=""font-size: 48px;"">+</p>","","","","","null","allTrialResponses","1000","1","16","img_art/2.jpg","-27","too much color and not well blended","Connor,Christopher,Angel,Gregory,Jeffrey,Richard","There is an odd face here that is creepy,-4,240,20","nope. just looks like a mess,-28,160,20","I think I'm put off by the clashing colors here. It feels discombobulated and sick.,-10,180,20","Awful color coordination and design,-35,220,20","positive, seems like someone really happy and colourful is looking at me,22,40,20","doctor's office art work, nice colors and not offensive,23,340,20","Angel","I think I'm put off by the clashing colors here. It feels discombobulated and sick.,-10,180,20","Christopher","nope. just looks like a mess,-28,160,20","Gregory","Awful color coordination and design,-35,220,20","2"
"22740","","survey-text","160","1201860","0.0-159.0-0.0","A2BABL5AHUOYC7","","","","{""Q0"":""looks incomplete""}","","","","","","","","","","","","","","","","","","","","","","",""
"8347","","image-slider-response","161","1210232","0.0-160.0","A2BABL5AHUOYC7","","","","","-15","","","","","","","","","","","","","","","","","","","","","",""
"null","","image-button-response","162","1215254","0.0-161.0","A2BABL5AHUOYC7","img_art/6.jpg","null","","","","","","","","","","","","","","","","","","","","","","","","",""
"3971","","image-button-response","163","1219285","0.0-162.0","A2BABL5AHUOYC7","img_art/6.jpg","5","","","","","","","","","","","","","","","","","","","","","","","","",""
"5597","","image-button-response","164","1224918","0.0-163.0-0.0","A2BABL5AHUOYC7","img_art/6.jpg","1","","","","","","","","","","","","","","","","","","","","","","","","",""
"1200","","image-button-response","165","1226169","0.0-164.0-0.0","A2BABL5AHUOYC7","img_art/6.jpg","0","","","","","","","","","","","","","","","","","","","","","","","","",""
"null","","html-keyboard-response","166","1227709","0.0-165.0","A2BABL5AHUOYC7","<p style=""font-size: 48px;"">+</p>","","","","","null","allTrialResponses","1500","1","17","img_art/6.jpg","-15","looks incomplete","Brian,Christopher,Angel,Gregory,Evan,Alex","this is too simple for me,-34,380,20","it's interesting but I don't love it,10,160,20","This piece feels hopeful, like an oasis in the desert.,20,180,20","Tree growing in a desert. Gives me feelings of hope,5,220,20","I am intrigued but unsure whether I enjoy this or not,6,140,20","Definitely belongs at a doctor's office, I think it's a crow or a tree?,-3,100,20","Alex","Definitely belongs at a doctor's office, I think it's a crow or a tree?,-3,100,20","Christopher","it's interesting but I don't love it,10,160,20","Brian","this is too simple for me,-34,380,20","2"
"13746","","survey-text","167","1241510","0.0-166.0-0.0","A2BABL5AHUOYC7","","","","{""Q0"":""not well blended""}","","","","","","","","","","","","","","","","","","","","","","",""
"4570","","image-slider-response","168","1246110","0.0-167.0","A2BABL5AHUOYC7","","","","","-19","","","","","","","","","","","","","","","","","","","","","",""
"null","","image-button-response","169","1251128","0.0-168.0","A2BABL5AHUOYC7","img_art/19.jpg","null","","","","","","","","","","","","","","","","","","","","","","","","",""
"636","","image-button-response","170","1251785","0.0-169.0","A2BABL5AHUOYC7","img_art/19.jpg","1","","","","","","","","","","","","","","","","","","","","","","","","",""
"862","","image-button-response","171","1252650","0.0-170.0-0.0","A2BABL5AHUOYC7","img_art/19.jpg","0","","","","","","","","","","","","","","","","","","","","","","","","",""
"1128","","image-button-response","172","1253806","0.0-171.0-0.0","A2BABL5AHUOYC7","img_art/19.jpg","3","","","","","","","","","","","","","","","","","","","","","","","","",""
"null","","html-keyboard-response","173","1254806","0.0-172.0","A2BABL5AHUOYC7","<p style=""font-size: 48px;"">+</p>","","","","","null","allTrialResponses","1000","1","18","img_art/19.jpg","-19","not well blended","Brian,Christopher,Adrian,Joseph,Ryan,Alex","I like this style but don't really like the specific setting of the landscape,-7,380,20","too much of a mix of lines and shading,-22,160,20","Pleasant colors with just enough detail to be recognizable. I can see a scene in it that tells a story.,7,60,20","Too messy and busy. Too much going on there for me.,-12,220,20","Its just a nice painting, nothing too special but nothing negative,25,380,20","I like the water but again, the small lines with no detail are irritating,3,100,20","Christopher","too much of a mix of lines and shading,-22,160,20","Brian","I like this style but don't really like the specific setting of the landscape,-7,380,20","Joseph","Too messy and busy. Too much going on there for me.,-12,220,20","2"
"27870","","survey-text","174","1282706","0.0-173.0-0.0","A2BABL5AHUOYC7","","","","{""Q0"":""beautiful piece""}","","","","","","","","","","","","","","","","","","","","","","",""
"10218","","image-slider-response","175","1292939","0.0-174.0","A2BABL5AHUOYC7","","","","","24","","","","","","","","","","","","","","","","","","","","","",""
"null","","image-button-response","176","1297992","0.0-175.0","A2BABL5AHUOYC7","img_art/7.jpg","null","","","","","","","","","","","","","","","","","","","","","","","","",""
"23261","","image-button-response","177","1321361","0.0-176.0","A2BABL5AHUOYC7","img_art/7.jpg","4","","","","","","","","","","","","","","","","","","","","","","","","",""
"1755","","image-button-response","178","1323142","0.0-177.0-0.0","A2BABL5AHUOYC7","img_art/7.jpg","5","","","","","","","","","","","","","","","","","","","","","","","","",""
"3005","","image-button-response","179","1326197","0.0-178.0-0.0","A2BABL5AHUOYC7","img_art/7.jpg","1","","","","","","","","","","","","","","","","","","","","","","","","",""
"null","","html-keyboard-response","180","1327803","0.0-179.0","A2BABL5AHUOYC7","<p style=""font-size: 48px;"">+</p>","","","","","null","allTrialResponses","1500","1","19","img_art/7.jpg","24","beautiful piece","Brian,Christopher,Isaiah,Joseph,Edward,Justin","I would like this more if I could pretend it was the moon.,-26,380,20","i kind of like this, it looks like a photo of a planet's surface,16,160,20","I feel relaxed and a little nostalgic, like I'm exploring the wall of a very old building.,18,300,20","Dinosaur bones. Death.,-14,220,20","It looks like maybe some seeds?,14,60,20","It looks like a wall, not really something I'd enjoy looking at.,-12,280,20","Edward","It looks like maybe some seeds?,14,60,20","Justin","It looks like a wall, not really something I'd enjoy looking at.,-12,280,20","Christopher","i kind of like this, it looks like a photo of a planet's surface,16,160,20","2"
"15734","","survey-text","181","1343567","0.0-180.0-0.0","A2BABL5AHUOYC7","","","","{""Q0"":""Blurry but still decent""}","","","","","","","","","","","","","","","","","","","","","","",""
"4828","","image-slider-response","182","1348431","0.0-181.0","A2BABL5AHUOYC7","","","","","10","","","","","","","","","","","","","","","","","","","","","",""
"3187","","image-button-response","183","1353624","0.0-182.0","A2BABL5AHUOYC7","img_art/9.jpg","0","","","","","","","","","","","","","","","","","","","","","","","","",""
"1942","","image-button-response","184","1355576","0.0-183.0","A2BABL5AHUOYC7","img_art/9.jpg","0","","","","","","","","","","","","","","","","","","","","","","","","",""
"4175","","image-button-response","185","1359766","0.0-184.0-0.0","A2BABL5AHUOYC7","img_art/9.jpg","3","","","","","","","","","","","","","","","","","","","","","","","","",""
"3071","","image-button-response","186","1362862","0.0-185.0-0.0","A2BABL5AHUOYC7","img_art/9.jpg","5","","","","","","","","","","","","","","","","","","","","","","","","",""
"null","","html-keyboard-response","187","1364389","0.0-186.0","A2BABL5AHUOYC7","<p style=""font-size: 48px;"">+</p>","","","","","null","allTrialResponses","1500","1","20","img_art/9.jpg","10","Blurry but still decent","Alexis,Christopher,Isaac,Eric,Edward,Justin","This photo make me feel peaceful. It looks like a woman sleeping in a garden,42,140,20","I really like the color balance but the image is odd,-5,160,20","I don't like the obvious lines of colored pencil on the border.,-24,280,20","I see some of my favorite colors which I like, but I don't like what's portrayed.,35,100,20","The colors remind me of peacocks,24,60,20","It reminds me of an illustration for a fairy tale.,19,280,20","Alexis","This photo make me feel peaceful. It looks like a woman sleeping in a garden,42,140,20","Eric","I see some of my favorite colors which I like, but I don't like what's portrayed.,35,100,20","Justin","It reminds me of an illustration for a fairy tale.,19,280,20","2"
"4504","","survey-text","188","1368905","0.0-187.0-0.0","A2BABL5AHUOYC7","","","","{""Q0"":""we""}","","","","","","","","","","","","","","","","","","","","","","",""
"32201","","survey-text","189","1401146","0.0-188.0-0.0","A2BABL5AHUOYC7","","","","{""Q0"":""The colors are well balanced and the choice, perfect.""}","","","","","","","","","","","","","","","","","","","","","","",""
"5229","","image-slider-response","190","1406395","0.0-189.0","A2BABL5AHUOYC7","","","","","38","","","","","","","","","","","","","","","","","","","","","",""
"null","","image-button-response","191","1411477","0.0-190.0","A2BABL5AHUOYC7","img_art/13.jpg","null","","","","","","","","","","","","","","","","","","","","","","","","",""
"1593","","image-button-response","192","1413085","0.0-191.0","A2BABL5AHUOYC7","img_art/13.jpg","1","","","","","","","","","","","","","","","","","","","","","","","","",""
"2087","","image-button-response","193","1415192","0.0-192.0-0.0","A2BABL5AHUOYC7","img_art/13.jpg","2","","","","","","","","","","","","","","","","","","","","","","","","",""
"3435","","image-button-response","194","1418651","0.0-193.0-0.0","A2BABL5AHUOYC7","img_art/13.jpg","4","","","","","","","","","","","","","","","","","","","","","","","","",""
"null","","html-keyboard-response","195","1419176","0.0-194.0","A2BABL5AHUOYC7","<p style=""font-size: 48px;"">+</p>","","","","","null","allTrialResponses","500","1","21","img_art/13.jpg","38","The colors are well balanced and the choice, perfect.","Alexis,Luis,Kenneth,Eric,Joshua,Justin","It looks too common, is a bit boring,-41,140,20","I love the edgy nature,50,400,20","I would hang this photo in my room.,21,300,20","I love the style of this piece, but the color choice could've been more eye catching or calming.,40,100,20","Like this a lot and would hang in my house.,27,240,20","Not really a fan of ""splash"" art.,-20,280,20","Luis","I love the edgy nature,50,400,20","Kenneth","I would hang this photo in my room.,21,300,20","Joshua","Like this a lot and would hang in my house.,27,240,20","2"
"16299","","survey-text","196","1435505","0.0-195.0-0.0","A2BABL5AHUOYC7","","","","{""Q0"":""beautiful piece""}","","","","","","","","","","","","","","","","","","","","","","",""
"3567","","image-slider-response","197","1439079","0.0-196.0","A2BABL5AHUOYC7","","","","","21","","","","","","","","","","","","","","","","","","","","","",""
"3652","","image-button-response","198","1444121","0.0-197.0","A2BABL5AHUOYC7","img_art/24.jpg","3","","","","","","","","","","","","","","","","","","","","","","","","",""
"1214","","image-button-response","199","1445430","0.0-198.0","A2BABL5AHUOYC7","img_art/24.jpg","5","","","","","","","","","","","","","","","","","","","","","","","","",""
"1052","","image-button-response","200","1446512","0.0-199.0-0.0","A2BABL5AHUOYC7","img_art/24.jpg","3","","","","","","","","","","","","","","","","","","","","","","","","",""
"1700","","image-button-response","201","1448247","0.0-200.0-0.0","A2BABL5AHUOYC7","img_art/24.jpg","0","","","","","","","","","","","","","","","","","","","","","","","","",""
"null","","html-keyboard-response","202","1448763","0.0-201.0","A2BABL5AHUOYC7","<p style=""font-size: 48px;"">+</p>","","","","","null","allTrialResponses","500","1","22","img_art/24.jpg","21","beautiful piece","John,Luis,Kenneth,Austin,Joshua,Benjamin","Beautiful.Nice use of colors and invokes feelings of serene and peace,40,120,20","Love the natural vibe,50,400,20","Cute; I like what the image itself & the colors.,25,300,20","Evokes pleasant feelings,50,240,20","It's okay but don't love it.,7,240,20","peaceful and calm yet joyous.,50,260,20","Benjamin","peaceful and calm yet joyous.,50,260,20","Austin","Evokes pleasant feelings,50,240,20","John","Beautiful.Nice use of colors and invokes feelings of serene and peace,40,120,20","2"
"25723","","survey-text","203","1474554","0.0-202.0-0.0","A2BABL5AHUOYC7","","","","{""Q0"":""confusing""}","","","","","","","","","","","","","","","","","","","","","","",""
"4205","","image-slider-response","204","1478771","0.0-203.0","A2BABL5AHUOYC7","","","","","-17","","","","","","","","","","","","","","","","","","","","","",""
"null","","image-button-response","205","1484007","0.0-204.0","A2BABL5AHUOYC7","img_art/3.jpg","null","","","","","","","","","","","","","","","","","","","","","","","","",""
"381","","image-button-response","206","1484388","0.0-205.0","A2BABL5AHUOYC7","img_art/3.jpg","0","","","","","","","","","","","","","","","","","","","","","","","","",""
"3322","","image-button-response","207","1487726","0.0-206.0-0.0","A2BABL5AHUOYC7","img_art/3.jpg","4","","","","","","","","","","","","","","","","","","","","","","","","",""
"1216","","image-button-response","208","1488977","0.0-207.0-0.0","A2BABL5AHUOYC7","img_art/3.jpg","3","","","","","","","","","","","","","","","","","","","","","","","","",""
"null","","html-keyboard-response","209","1489522","0.0-208.0","A2BABL5AHUOYC7","<p style=""font-size: 48px;"">+</p>","","","","","null","allTrialResponses","500","1","23","img_art/3.jpg","-17","confusing","John,Chase,William,Austin,Sean,Benjamin","Looks like someone spilled ketchup and forgot to clean it up,-30,120,20","Looks like a bloody head with teeth.,-16,120,20","makes me think of anger,-33,380,20","It doesn't invoke any excitement,-21,240,20","my response to the picture is a lot of red, danger,,-21,40,20","seems to be a lot of angry scribble.,-20,260,20","John","Looks like someone spilled ketchup and forgot to clean it up,-30,120,20","Sean","my response to the picture is a lot of red, danger,,-21,40,20","Austin","It doesn't invoke any excitement,-21,240,20","2"
"13760","","survey-text","210","1503307","0.0-209.0-0.0","A2BABL5AHUOYC7","","","","{""Q0"":""well blended.""}","","","","","","","","","","","","","","","","","","","","","","",""
"5897","","image-slider-response","211","1509219","0.0-210.0","A2BABL5AHUOYC7","","","","","17","","","","","","","","","","","","","","","","","","","","","",""
"null","","image-button-response","212","1514256","0.0-211.0","A2BABL5AHUOYC7","img_art/12.jpg","null","","","","","","","","","","","","","","","","","","","","","","","","",""
"1017","","image-button-response","213","1515293","0.0-212.0","A2BABL5AHUOYC7","img_art/12.jpg","0","","","","","","","","","","","","","","","","","","","","","","","","",""
"3679","","image-button-response","214","1518983","0.0-213.0-0.0","A2BABL5AHUOYC7","img_art/12.jpg","3","","","","","","","","","","","","","","","","","","","","","","","","",""
"1564","","image-button-response","215","1520556","0.0-214.0-0.0","A2BABL5AHUOYC7","img_art/12.jpg","5","","","","","","","","","","","","","","","","","","","","","","","","",""
"null","","html-keyboard-response","216","1522136","0.0-215.0","A2BABL5AHUOYC7","<p style=""font-size: 48px;"">+</p>","","","","","null","allTrialResponses","1000","1","24","img_art/12.jpg","17","well blended.","John,Tanner,Alexander,Austin,Sean,Logan","Its cool,reminiscent of Andy Warhol type of style,10,120,20","stressful, upsetting,-10,180,20","Ugly color combinations, no focus.,-25,120,20","Explosion of texture,31,240,20","my reaction is that the picture is wierd,-11,40,20","giving me major endless summer vibes,26,360,20","John","Its cool,reminiscent of Andy Warhol type of style,10,120,20","Austin","Explosion of texture,31,240,20","Logan","giving me major endless summer vibes,26,360,20","2"
"11139","","survey-text","217","1533306","0.0-216.0-0.0","A2BABL5AHUOYC7","","","","{""Q0"":""beautiful piece""}","","","","","","","","","","","","","","","","","","","","","","",""
"3747","","image-slider-response","218","1537181","0.0-217.0","A2BABL5AHUOYC7","","","","","27","","","","","","","","","","","","","","","","","","","","","",""
"3172","","image-button-response","219","1542211","0.0-218.0","A2BABL5AHUOYC7","img_art/30.jpg","3","","","","","","","","","","","","","","","","","","","","","","","","",""
"774","","image-button-response","220","1542985","0.0-219.0","A2BABL5AHUOYC7","img_art/30.jpg","3","","","","","","","","","","","","","","","","","","","","","","","","",""
"7505","","image-button-response","221","1550492","0.0-220.0-0.0","A2BABL5AHUOYC7","img_art/30.jpg","1","","","","","","","","","","","","","","","","","","","","","","","","",""
"8775","","image-button-response","222","1559321","0.0-221.0-0.0","A2BABL5AHUOYC7","img_art/30.jpg","2","","","","","","","","","","","","","","","","","","","","","","","","",""
"null","","html-keyboard-response","223","1560926","0.0-222.0","A2BABL5AHUOYC7","<p style=""font-size: 48px;"">+</p>","","","","","null","allTrialResponses","1500","1","25","img_art/30.jpg","27","beautiful piece","John,Kevin,Jacob,Austin,Adam,Logan","ugly nasty colors,-10,120,20","Some people dancing.,-7,320,20","Looks cool , but no meaning,1,340,20","Love the bold brush strokes and the illusion it creates,50,240,20","Dislike the contrast here.,-5,40,20","literally stupid I made this with as seen on tv products when I was 7,-42,360,20","Austin","Love the bold brush strokes and the illusion it creates,50,240,20","Kevin","Some people dancing.,-7,320,20","Jacob","Looks cool , but no meaning,1,340,20","2"
"8634","","survey-text","224","1570426","0.0-223.0-0.0","A2BABL5AHUOYC7","","","","{""Q0"":""table""}","","","","","","","","","","","","","","","","","","","","","","",""
"13756","","survey-text","225","1584190","0.0-224.0-0.0","A2BABL5AHUOYC7","","","","{""Q0"":""looks chaotic""}","","","","","","","","","","","","","","","","","","","","","","",""
"4880","","image-slider-response","226","1589090","0.0-225.0","A2BABL5AHUOYC7","","","","","-12","","","","","","","","","","","","","","","","","","","","","",""
"null","","image-button-response","227","1594445","0.0-226.0","A2BABL5AHUOYC7","img_art/21.jpg","null","","","","","","","","","","","","","","","","","","","","","","","","",""
"913","","image-button-response","228","1595372","0.0-227.0","A2BABL5AHUOYC7","img_art/21.jpg","1","","","","","","","","","","","","","","","","","","","","","","","","",""
"1228","","image-button-response","229","1596674","0.0-228.0-0.0","A2BABL5AHUOYC7","img_art/21.jpg","2","","","","","","","","","","","","","","","","","","","","","","","","",""
"2520","","image-button-response","230","1599265","0.0-229.0-0.0","A2BABL5AHUOYC7","img_art/21.jpg","3","","","","","","","","","","","","","","","","","","","","","","","","",""
"null","","html-keyboard-response","231","1600391","0.0-230.0","A2BABL5AHUOYC7","<p style=""font-size: 48px;"">+</p>","","","","","null","allTrialResponses","1000","1","26","img_art/21.jpg","-12","looks chaotic","Corey,Kevin,Jacob,Austin,Charles,Vincent","i like the colors and the blending,17,260,20","Another ship on fire.,-10,320,20","I like how the colors blend together like a beautiful sunset.,25,340,20","Touches the heart,50,240,20","Another swathe of ocean,31,100,20","Love the colors have to say this is my favorite above all,37,360,20","Kevin","Another ship on fire.,-10,320,20","Jacob","I like how the colors blend together like a beautiful sunset.,25,340,20","Austin","Touches the heart,50,240,20","2"
"22094","","survey-text","232","1623332","0.0-231.0-0.0","A2BABL5AHUOYC7","","","","{""Q0"":""not well blended""}","","","","","","","","","","","","","","","","","","","","","","",""
"3837","","image-slider-response","233","1627173","0.0-232.0","A2BABL5AHUOYC7","","","","","-21","","","","","","","","","","","","","","","","","","","","","",""
"3400","","image-button-response","234","1632214","0.0-233.0","A2BABL5AHUOYC7","img_art/26.jpg","5","","","","","","","","","","","","","","","","","","","","","","","","",""
"3836","","image-button-response","235","1636089","0.0-234.0","A2BABL5AHUOYC7","img_art/26.jpg","1","","","","","","","","","","","","","","","","","","","","","","","","",""
"988","","image-button-response","236","1637109","0.0-235.0-0.0","A2BABL5AHUOYC7","img_art/26.jpg","2","","","","","","","","","","","","","","","","","","","","","","","","",""
"1637","","image-button-response","237","1638762","0.0-236.0-0.0","A2BABL5AHUOYC7","img_art/26.jpg","5","","","","","","","","","","","","","","","","","","","","","","","","",""
"null","","html-keyboard-response","238","1640271","0.0-237.0","A2BABL5AHUOYC7","<p style=""font-size: 48px;"">+</p>","","","","","null","allTrialResponses","1500","1","27","img_art/26.jpg","-21","not well blended","Brett,Kevin,Jacob,Austin,Mitchell,Daniel","Picturesque little town,45,360,20","Some trees in front of a house.,2,320,20","It doesn't look so vibrant, I'm not sure what feelings they were trying to capture,-41,340,20","Like the soft blend of colors,26,240,20","Incomplete, The artist painted his impression of somthing he was thinking of,0,180,20","Washed out suburban scene with childish tones.,-24,320,20","Kevin","Some trees in front of a house.,2,320,20","Jacob","It doesn't look so vibrant, I'm not sure what feelings they were trying to capture,-41,340,20","Daniel","Washed out suburban scene with childish tones.,-24,320,20","2"
"33422","","survey-text","239","1673749","0.0-238.0-0.0","A2BABL5AHUOYC7","","","","{""Q0"":""not well blended""}","","","","","","","","","","","","","","","","","","","","","","",""
"3661","","image-slider-response","240","1677533","0.0-239.0","A2BABL5AHUOYC7","","","","","-19","","","","","","","","","","","","","","","","","","","","","",""
"null","","image-button-response","241","1682932","0.0-240.0","A2BABL5AHUOYC7","img_art/22.jpg","null","","","","","","","","","","","","","","","","","","","","","","","","",""
"5662","","image-button-response","242","1688610","0.0-241.0","A2BABL5AHUOYC7","img_art/22.jpg","0","","","","","","","","","","","","","","","","","","","","","","","","",""
"3615","","image-button-response","243","1692247","0.0-242.0-0.0","A2BABL5AHUOYC7","img_art/22.jpg","4","","","","","","","","","","","","","","","","","","","","","","","","",""
"1399","","image-button-response","244","1693656","0.0-243.0-0.0","A2BABL5AHUOYC7","img_art/22.jpg","3","","","","","","","","","","","","","","","","","","","","","","","","",""
"null","","html-keyboard-response","245","1694161","0.0-244.0","A2BABL5AHUOYC7","<p style=""font-size: 48px;"">+</p>","","","","","null","allTrialResponses","500","1","28","img_art/22.jpg","-19","not well blended","Brendan,Kevin,Jacob,Lucas,Juan,Daniel","its just ugly for me,-50,340,20","Looks hot where ever that is.,-8,320,20","I like the mixing of the primary colors.,8,340,20","Unfortunately, I can't see anything special in this painting.,-20,380,20","I don't like the colors or the way they've been arranged.,-20,260,20","Organic sun spot on a flexible grid,18,320,20","Brendan","its just ugly for me,-50,340,20","Juan","I don't like the colors or the way they've been arranged.,-20,260,20","Lucas","Unfortunately, I can't see anything special in this painting.,-20,380,20","2"
"24278","","survey-text","246","1718698","0.0-245.0-0.0","A2BABL5AHUOYC7","","","","{""Q0"":""this looks unclear""}","","","","","","","","","","","","","","","","","","","","","","",""
"5421","","image-slider-response","247","1724174","0.0-246.0","A2BABL5AHUOYC7","","","","","-5","","","","","","","","","","","","","","","","","","","","","",""
"1881","","image-button-response","248","1729209","0.0-247.0","A2BABL5AHUOYC7","img_art/28.jpg","4","","","","","","","","","","","","","","","","","","","","","","","","",""
"771","","image-button-response","249","1730000","0.0-248.0","A2BABL5AHUOYC7","img_art/28.jpg","0","","","","","","","","","","","","","","","","","","","","","","","","",""
"740","","image-button-response","250","1730755","0.0-249.0-0.0","A2BABL5AHUOYC7","img_art/28.jpg","2","","","","","","","","","","","","","","","","","","","","","","","","",""
"1228","","image-button-response","251","1732010","0.0-250.0-0.0","A2BABL5AHUOYC7","img_art/28.jpg","4","","","","","","","","","","","","","","","","","","","","","","","","",""
"null","","html-keyboard-response","252","1733645","0.0-251.0","A2BABL5AHUOYC7","<p style=""font-size: 48px;"">+</p>","","","","","null","allTrialResponses","1500","1","29","img_art/28.jpg","-5","this looks unclear","Brendan,Jason,Jake,Lucas,Juan,Paul","i dont understand it,-34,340,20","Not sure what way this picture is suppose to be oriented,-5,20,20","This is very ugly with poor colors.,-23,360,20","This painting is mysterious, it makes me curious.,5,380,20","It's such a blah piece and way too abstract.,-50,260,20","The dark colors make it look dirty and the shapes make me uncomfortable,-50,300,20","Brendan","i dont understand it,-34,340,20","Jake","This is very ugly with poor colors.,-23,360,20","Juan","It's such a blah piece and way too abstract.,-50,260,20","2"
"32401","","survey-text","253","1766191","0.0-252.0-0.0","A2BABL5AHUOYC7","","","","{""Q0"":""beautiful piece""}","","","","","","","","","","","","","","","","","","","","","","",""
"4763","","image-slider-response","254","1770963","0.0-253.0","A2BABL5AHUOYC7","","","","","25","","","","","","","","","","","","","","","","","","","","","",""
"4135","","image-button-response","255","1776002","0.0-254.0","A2BABL5AHUOYC7","img_art/23.jpg","1","","","","","","","","","","","","","","","","","","","","","","","","",""
"622","","image-button-response","256","1776639","0.0-255.0","A2BABL5AHUOYC7","img_art/23.jpg","5","","","","","","","","","","","","","","","","","","","","","","","","",""
"1283","","image-button-response","257","1777927","0.0-256.0-0.0","A2BABL5AHUOYC7","img_art/23.jpg","1","","","","","","","","","","","","","","","","","","","","","","","","",""
"6387","","image-button-response","258","1784329","0.0-257.0-0.0","A2BABL5AHUOYC7","img_art/23.jpg","2","","","","","","","","","","","","","","","","","","","","","","","","",""
"null","","html-keyboard-response","259","1785335","0.0-258.0","A2BABL5AHUOYC7","<p style=""font-size: 48px;"">+</p>","","","","","null","allTrialResponses","1000","1","30","img_art/23.jpg","25","beautiful piece","Brendan,Bradley,Jake,Anthony,Juan,Hunter","i completely dont get it,-47,340,20","I like the contrast and the bright colors in this one.,6,300,20","This looks like hotel room art, it's ugly and odd.,-2,360,20","The cluster of white silhouettes against the colorful background makes me feel uneasy for some reason,-36,200,20","This is ugly and weird.,-50,260,20","do not like color splatters or sharp silhouettes, feels tacky,-34,240,20","Hunter","do not like color splatters or sharp silhouettes, feels tacky,-34,240,20","Bradley","I like the contrast and the bright colors in this one.,6,300,20","Jake","This looks like hotel room art, it's ugly and odd.,-2,360,20","2"
"3154","","image-button-response_instructions","260","1788510","0.0-259.0","A2BABL5AHUOYC7","","0","instructions","","","","","","","","","","","","","","","","","","","","","","","",""
"1897","","image-button-response","261","1790418","0.0-260.0","A2BABL5AHUOYC7","","0","","","","","","","","","","","","","","","","","","","","","","","","",""
