"rt","url","trial_type","trial_index","time_elapsed","internal_node_id","participant_id","stimulus","button_pressed","Name","responses","response","key_press","variableName","fixationTime","condition","trial","photo","subjectRating","subjectResponse","agentsNames","agent_1_Response","agent_2_Response","agent_3_Response","agent_4_Response","agent_5_Response","agent_6_Response","kept_1_name","kept_1_response","kept_2_name","kept_2_response","kept_3_name","kept_3_response","errorCounter"
"161966","external_page_harvard.html","external-html","0","162073","0.0-0.0","A2BT7QVGXJKFKI","","","","","","","","","","","","","","","","","","","","","","","","","","",""
"3277","","image-button-response","1","165352","0.0-1.0","A2BT7QVGXJKFKI","","1","","","","","","","","","","","","","","","","","","","","","","","","",""
"1582","","image-button-response","2","166941","0.0-2.0-0.0","A2BT7QVGXJKFKI","","1","phone","","","","","","","","","","","","","","","","","","","","","","","",""
"20781","","survey-text","3","187724","0.0-3.0-0.0","A2BT7QVGXJKFKI","","","","{""Q0"":""A2BT7QVGXJKFKI""}","","","","","","","","","","","","","","","","","","","","","","",""
"26544","","image-button-response_instructions","4","214271","0.0-4.0","A2BT7QVGXJKFKI","","0","instructions","","","","","","","","","","","","","","","","","","","","","","","",""
"17105","","image-button-response_instructions","5","231377","0.0-5.0","A2BT7QVGXJKFKI","img_art/ins/popularity/ins1.png","0","instructions","","","","","","","","","","","","","","","","","","","","","","","",""
"6927","","image-button-response_instructions","6","238306","0.0-6.0","A2BT7QVGXJKFKI","img_art/ins/popularity/ins2.png","0","instructions","","","","","","","","","","","","","","","","","","","","","","","",""
"5128","","image-button-response_instructions","7","243436","0.0-7.0","A2BT7QVGXJKFKI","img_art/ins/popularity/ins2Extreme.png","0","instructions","","","","","","","","","","","","","","","","","","","","","","","",""
"13398","","image-button-response_instructions","8","256835","0.0-8.0","A2BT7QVGXJKFKI","img_art/ins/popularity/ins3KEEPpop.PNG","0","instructions","","","","","","","","","","","","","","","","","","","","","","","",""
"2984","","image-button-response_instructions","9","259820","0.0-9.0","A2BT7QVGXJKFKI","img_art/ins/popularity/ins3ANamepop.PNG","0","instructions","","","","","","","","","","","","","","","","","","","","","","","",""
"4302","","image-button-response_instructions","10","264124","0.0-10.0","A2BT7QVGXJKFKI","img_art/ins/popularity/ins3ARatingpop.png","0","instructions","","","","","","","","","","","","","","","","","","","","","","","",""
"2664","","image-button-response_instructions","11","266789","0.0-11.0","A2BT7QVGXJKFKI","img_art/ins/popularity/ins3ATextpop.png","0","instructions","","","","","","","","","","","","","","","","","","","","","","","",""
"6555","","image-button-response_instructions","12","273346","0.0-12.0","A2BT7QVGXJKFKI","img_art/ins/popularity/ins3ALikespop.png","0","instructions","","","","","","","","","","","","","","","","","","","","","","","",""
"11532","","image-button-response_instructions","13","284880","0.0-13.0","A2BT7QVGXJKFKI","img_art/ins/popularity/ins3KEEPpop.PNG","0","instructions","","","","","","","","","","","","","","","","","","","","","","","",""
"13307","","image-button-response_instructions","14","298188","0.0-14.0","A2BT7QVGXJKFKI","img_art/ins/popularity/ins3_5RED.png","0","instructions","","","","","","","","","","","","","","","","","","","","","","","",""
"3598","","image-button-response_instructions","15","301788","0.0-15.0","A2BT7QVGXJKFKI","img_art/ins/popularity/ins3KEEPpop.PNG","0","instructions","","","","","","","","","","","","","","","","","","","","","","","",""
"9516","","image-button-response_instructions","16","311306","0.0-16.0","A2BT7QVGXJKFKI","img_art/ins/popularity/ins4KEEPpop.PNG","0","instructions","","","","","","","","","","","","","","","","","","","","","","","",""
"4160","","image-button-response_instructions","17","315468","0.0-17.0","A2BT7QVGXJKFKI","img_art/ins/popularity/ins5KEEPpop.PNG","0","instructions","","","","","","","","","","","","","","","","","","","","","","","",""
"1737","","image-button-response_instructions","18","317206","0.0-18.0","A2BT7QVGXJKFKI","","0","instructions","","","","","","","","","","","","","","","","","","","","","","","",""
"4342","","survey-text","19","321570","0.0-19.0-0.0","A2BT7QVGXJKFKI","","","","{""Q0"":""but""}","","","","","","","","","","","","","","","","","","","","","","",""
"42798","","survey-text","20","364369","0.0-20.0-0.0","A2BT7QVGXJKFKI","","","","{""Q0"":""I like the combination of colors. It seems very 80s-throwback to me.""}","","","","","","","","","","","","","","","","","","","","","","",""
"5734.199999988079","","image-slider-response","21","370106","0.0-21.0","A2BT7QVGXJKFKI","","","","","13","","","","","","","","","","","","","","","","","","","","","",""
"null","","image-button-response","22","375118","0.0-22.0","A2BT7QVGXJKFKI","img_art/ins/1.jpg","null","","","","","","","","","","","","","","","","","","","","","","","","",""
"1096","","image-button-response","23","376216","0.0-23.0","A2BT7QVGXJKFKI","img_art/ins/1.jpg","5","","","","","","","","","","","","","","","","","","","","","","","","",""
"4385","","image-button-response","24","380604","0.0-24.0-0.0","A2BT7QVGXJKFKI","img_art/ins/1.jpg","4","","","","","","","","","","","","","","","","","","","","","","","","",""
"2016","","image-button-response","25","382624","0.0-25.0-0.0","A2BT7QVGXJKFKI","img_art/ins/1.jpg","0","","","","","","","","","","","","","","","","","","","","","","","","",""
"null","","html-keyboard-response","26","383627","0.0-26.0","A2BT7QVGXJKFKI","<p style=""font-size: 48px;"">+</p>","","","","","null","allTrialResponses","1000","1","-2","img_art/ins/1.jpg","13","I like the combination of colors. It seems very 80s-throwback to me.","Allison,Ashley,Beth,Dora,Erika,Jen","looks like a lot of things going on in the mist,20,20,20","I just don't get why these type of art would be popular,-32,40,20","This color reminds me of poo,-46,60,20","looks like what my niece in 3rd grade did this afternoon,-50,80,20","I like the sophisticated brushwork,40,100,20","It reminds me of a candy land dream I had,36,120,20","Jen","It reminds me of a candy land dream I had,36,120,20","Erika","I like the sophisticated brushwork,40,100,20","Allison","looks like a lot of things going on in the mist,20,20,20","0"
"45839","","survey-text","27","429471","0.0-27.0-0.0","A2BT7QVGXJKFKI","","","","{""Q0"":""This piece conveys heaviness, weight. The red comes across as foreboding, like maybe the lighting in a cyberpunk movie.""}","","","","","","","","","","","","","","","","","","","","","","",""
"5523","","image-slider-response","28","434997","0.0-28.0","A2BT7QVGXJKFKI","","","","","20","","","","","","","","","","","","","","","","","","","","","",""
"3799","","image-button-response","29","440000","0.0-29.0","A2BT7QVGXJKFKI","img_art/ins/2.jpg","4","","","","","","","","","","","","","","","","","","","","","","","","",""
"310","","image-button-response","30","440312","0.0-30.0","A2BT7QVGXJKFKI","img_art/ins/2.jpg","5","","","","","","","","","","","","","","","","","","","","","","","","",""
"5079","","image-button-response","31","445394","0.0-31.0-0.0","A2BT7QVGXJKFKI","img_art/ins/2.jpg","1","","","","","","","","","","","","","","","","","","","","","","","","",""
"3551","","image-button-response","32","448948","0.0-32.0-0.0","A2BT7QVGXJKFKI","img_art/ins/2.jpg","4","","","","","","","","","","","","","","","","","","","","","","","","",""
"null","","html-keyboard-response","33","449950","0.0-33.0","A2BT7QVGXJKFKI","<p style=""font-size: 48px;"">+</p>","","","","","null","allTrialResponses","1000","1","-1","img_art/ins/2.jpg","20","This piece conveys heaviness, weight. The red comes across as foreboding, like maybe the lighting in a cyberpunk movie.","Allison,Kara,Katie,Jenna,Erika,Jen","I don't have strong feelings about this,10,20,20","I like the blocks of color arrangements,30,160,20","too much color!,-28,180,20","One of my pet peevs,-48,140,20","I would never be able to compose a sophisticated pallete like this,48,100,20","It reminds me of a fireplace,36,120,20","Jen","It reminds me of a fireplace,36,120,20","Kara","I like the blocks of color arrangements,30,160,20","Erika","I would never be able to compose a sophisticated pallete like this,48,100,20","0"
"31999","","survey-text","34","481952","0.0-34.0-0.0","A2BT7QVGXJKFKI","","","","{""Q0"":""It seems Scandinavian with the stark blue and white. It seems very cold and clean.""}","","","","","","","","","","","","","","","","","","","","","","",""
"5781.5","","image-slider-response","35","487736","0.0-35.0","A2BT7QVGXJKFKI","","","","","27","","","","","","","","","","","","","","","","","","","","","",""
"4994","","image-button-response","36","492740","0.0-36.0","A2BT7QVGXJKFKI","img_art/ins/3.jpg","5","","","","","","","","","","","","","","","","","","","","","","","","",""
"1751","","image-button-response","37","494494","0.0-37.0","A2BT7QVGXJKFKI","img_art/ins/3.jpg","5","","","","","","","","","","","","","","","","","","","","","","","","",""
"3137","","image-button-response","38","497634","0.0-38.0-0.0","A2BT7QVGXJKFKI","img_art/ins/3.jpg","1","","","","","","","","","","","","","","","","","","","","","","","","",""
"3981","","image-button-response","39","501618","0.0-39.0-0.0","A2BT7QVGXJKFKI","img_art/ins/3.jpg","0","","","","","","","","","","","","","","","","","","","","","","","","",""
"null","","html-keyboard-response","40","502633","0.0-40.0","A2BT7QVGXJKFKI","<p style=""font-size: 48px;"">+</p>","","","","","null","allTrialResponses","1000","1","0","img_art/ins/3.jpg","27","It seems Scandinavian with the stark blue and white. It seems very cold and clean.","Mary,Kara,Rose,Leslie,Erika,Jen","I like the overlapping of brushes,41,220,20","calming blue is very nice,36,160,20","My daily routine, it's depressing,-20,240,20","It's an alright work,15,200,20","I feel connected to the artist,40,100,20","I can feel a rainy day from this painting,18,120,20","Jen","I can feel a rainy day from this painting,18,120,20","Kara","calming blue is very nice,36,160,20","Mary","I like the overlapping of brushes,41,220,20","0"
"4059","","image-button-response_instructions","41","506697","0.0-41.0","A2BT7QVGXJKFKI","","0","instructions","","","","","","","","","","","","","","","","","","","","","","","",""
"9936","","survey-likert","42","516635","0.0-42.0-0.0","A2BT7QVGXJKFKI","","","","{""Q0"":"""",""Q1"":0,""Q2"":1}","","","","","","","","","","","","","","","","","","","","","","",""
"3712","","survey-text","43","520352","0.0-43.0-0.0","A2BT7QVGXJKFKI","","","","{""Q0"":""rock""}","","","","","","","","","","","","","","","","","","","","","","",""
"27409","","survey-text","44","547763","0.0-44.0-0.0","A2BT7QVGXJKFKI","","","","{""Q0"":""I don't care for the color palette. It reminds me of rotten things, death and decay.""}","","","","","","","","","","","","","","","","","","","","","","",""
"6691.199999988079","","image-slider-response","45","554456","0.0-45.0","A2BT7QVGXJKFKI","","","","","-30","","","","","","","","","","","","","","","","","","","","","",""
"null","","image-button-response","46","559480","0.0-46.0","A2BT7QVGXJKFKI","img_art/18.jpg","null","","","","","","","","","","","","","","","","","","","","","","","","",""
"7319","","image-button-response","47","566802","0.0-47.0","A2BT7QVGXJKFKI","img_art/18.jpg","2","","","","","","","","","","","","","","","","","","","","","","","","",""
"4969","","image-button-response","48","571774","0.0-48.0-0.0","A2BT7QVGXJKFKI","img_art/18.jpg","1","","","","","","","","","","","","","","","","","","","","","","","","",""
"3262","","image-button-response","49","575040","0.0-49.0-0.0","A2BT7QVGXJKFKI","img_art/18.jpg","5","","","","","","","","","","","","","","","","","","","","","","","","",""
"null","","html-keyboard-response","50","576556","0.0-50.0","A2BT7QVGXJKFKI","<p style=""font-size: 48px;"">+</p>","","","","","null","allTrialResponses","1500","1","1","img_art/18.jpg","-30","I don't care for the color palette. It reminds me of rotten things, death and decay.","Alexis,Kelsey,Rachel,Courtney,Allison,Morgan","Crusade-feel, but a little too abstract for my taste,23,100,20","its messy, it seems angry,-21,240,20","This one seems rather ghoulish to me.,-41,80,20","Pirate ship in stormy seas before it sank.,11,280,20","Colors are okay. Reminds me of cavalry.,10,140,20","Ghostly sea adventure.,20,380,20","Rachel","This one seems rather ghoulish to me.,-41,80,20","Kelsey","its messy, it seems angry,-21,240,20","Morgan","Ghostly sea adventure.,20,380,20","0"
"39960","","survey-text","51","616522","0.0-51.0-0.0","A2BT7QVGXJKFKI","","","","{""Q0"":""I'm not really a fan of the strange color combination. The olive-gray is muddy. It looks like fetuses in dirty water.""}","","","","","","","","","","","","","","","","","","","","","","",""
"9458.5","","image-slider-response","52","625983","0.0-52.0","A2BT7QVGXJKFKI","","","","","-30","","","","","","","","","","","","","","","","","","","","","",""
"null","","image-button-response","53","630994","0.0-53.0","A2BT7QVGXJKFKI","img_art/28.jpg","null","","","","","","","","","","","","","","","","","","","","","","","","",""
"996","","image-button-response","54","631992","0.0-54.0","A2BT7QVGXJKFKI","img_art/28.jpg","4","","","","","","","","","","","","","","","","","","","","","","","","",""
"3401","","image-button-response","55","635396","0.0-55.0-0.0","A2BT7QVGXJKFKI","img_art/28.jpg","5","","","","","","","","","","","","","","","","","","","","","","","","",""
"3964","","image-button-response","56","639363","0.0-56.0-0.0","A2BT7QVGXJKFKI","img_art/28.jpg","1","","","","","","","","","","","","","","","","","","","","","","","","",""
"null","","html-keyboard-response","57","640878","0.0-57.0","A2BT7QVGXJKFKI","<p style=""font-size: 48px;"">+</p>","","","","","null","allTrialResponses","1500","1","2","img_art/28.jpg","-30","I'm not really a fan of the strange color combination. The olive-gray is muddy. It looks like fetuses in dirty water.","Dominique,Kelsey,Rachel,Melissa,Brittany,Morgan","This is one of my favorites. It says to me to take time for people,37,400,20","this one is rather disturbing,-22,240,20","Too muted and bland. I like my art to be vivid.,-11,80,20","reminds me of kandinsky,14,240,20","I don't like the colors or the design.,-20,40,20","Apartment throw up.,-5,380,20","Brittany","I don't like the colors or the design.,-20,40,20","Morgan","Apartment throw up.,-5,380,20","Kelsey","this one is rather disturbing,-22,240,20","0"
"37034","","survey-text","58","677914","0.0-58.0-0.0","A2BT7QVGXJKFKI","","","","{""Q0"":""I actually really like this energetic color as well as the scribbly design. It seems manic to me.""}","","","","","","","","","","","","","","","","","","","","","","",""
"5496.699999988079","","image-slider-response","59","683414","0.0-59.0","A2BT7QVGXJKFKI","","","","","22","","","","","","","","","","","","","","","","","","","","","",""
"null","","image-button-response","60","688417","0.0-60.0","A2BT7QVGXJKFKI","img_art/3.jpg","null","","","","","","","","","","","","","","","","","","","","","","","","",""
"11479","","image-button-response","61","699899","0.0-61.0","A2BT7QVGXJKFKI","img_art/3.jpg","5","","","","","","","","","","","","","","","","","","","","","","","","",""
"2388","","image-button-response","62","702290","0.0-62.0-0.0","A2BT7QVGXJKFKI","img_art/3.jpg","0","","","","","","","","","","","","","","","","","","","","","","","","",""
"4587","","image-button-response","63","706880","0.0-63.0-0.0","A2BT7QVGXJKFKI","img_art/3.jpg","4","","","","","","","","","","","","","","","","","","","","","","","","",""
"null","","html-keyboard-response","64","708383","0.0-64.0","A2BT7QVGXJKFKI","<p style=""font-size: 48px;"">+</p>","","","","","null","allTrialResponses","1500","1","3","img_art/3.jpg","22","I actually really like this energetic color as well as the scribbly design. It seems manic to me.","Alexandria,Kelsey,Elizabeth,Cassidy,Brittany,Morgan","it makes me feel really angry,-20,80,20","just scribbles, not pleasing,-30,240,20","It doesn't invoke any excitement,-21,20,20","Again, looks like a child's work. I don't get these types of pieces. Too simple,-47,140,20","I don't care for art that looks like it was just scribbled.,-19,40,20","Somewhere between a child's art and a poorly drawn battle map.,8,380,20","Morgan","Somewhere between a child's art and a poorly drawn battle map.,8,380,20","Alexandria","it makes me feel really angry,-20,80,20","Brittany","I don't care for art that looks like it was just scribbled.,-19,40,20","0"
"27318","","survey-text","65","735708","0.0-65.0-0.0","A2BT7QVGXJKFKI","","","","{""Q0"":""I like that it could be a garden or it could be trees growing out of the wall. Maybe it's a hallucination.""}","","","","","","","","","","","","","","","","","","","","","","",""
"4112.400000035763","","image-slider-response","66","739822","0.0-66.0","A2BT7QVGXJKFKI","","","","","15","","","","","","","","","","","","","","","","","","","","","",""
"3261","","image-button-response","67","744826","0.0-67.0","A2BT7QVGXJKFKI","img_art/17.jpg","5","","","","","","","","","","","","","","","","","","","","","","","","",""
"237","","image-button-response","68","745065","0.0-68.0","A2BT7QVGXJKFKI","img_art/17.jpg","5","","","","","","","","","","","","","","","","","","","","","","","","",""
"9731","","image-button-response","69","754799","0.0-69.0-0.0","A2BT7QVGXJKFKI","img_art/17.jpg","2","","","","","","","","","","","","","","","","","","","","","","","","",""
"5837","","image-button-response","70","760638","0.0-70.0-0.0","A2BT7QVGXJKFKI","img_art/17.jpg","4","","","","","","","","","","","","","","","","","","","","","","","","",""
"null","","html-keyboard-response","71","761151","0.0-71.0","A2BT7QVGXJKFKI","<p style=""font-size: 48px;"">+</p>","","","","","null","allTrialResponses","500","1","4","img_art/17.jpg","15","I like that it could be a garden or it could be trees growing out of the wall. Maybe it's a hallucination.","Alexandria,Alexandra,Shannon,Julia,Brittany,Morgan","it looks very intricate and colorful,50,80,20","This is very beautiful and elegant.,42,60,20","I like the way the colors were used behind the tree. Makes the image colorful and interesting.,30,220,20","I'm not into paintings of trees,-18,40,20","I like the colors and the design.,20,40,20","Tree of knowledge in a quiet school.,17,380,20","Morgan","Tree of knowledge in a quiet school.,17,380,20","Shannon","I like the way the colors were used behind the tree. Makes the image colorful and interesting.,30,220,20","Brittany","I like the colors and the design.,20,40,20","0"
"26742","","survey-text","72","787899","0.0-72.0-0.0","A2BT7QVGXJKFKI","","","","{""Q0"":""This is nice and peaceful. A little too muted for my taste, but it's nice.""}","","","","","","","","","","","","","","","","","","","","","","",""
"3651.2000000476837","","image-slider-response","73","791552","0.0-73.0","A2BT7QVGXJKFKI","","","","","6","","","","","","","","","","","","","","","","","","","","","",""
"null","","image-button-response","74","796558","0.0-74.0","A2BT7QVGXJKFKI","img_art/26.jpg","null","","","","","","","","","","","","","","","","","","","","","","","","",""
"4966","","image-button-response","75","801527","0.0-75.0","A2BT7QVGXJKFKI","img_art/26.jpg","3","","","","","","","","","","","","","","","","","","","","","","","","",""
"5569","","image-button-response","76","807098","0.0-76.0-0.0","A2BT7QVGXJKFKI","img_art/26.jpg","1","","","","","","","","","","","","","","","","","","","","","","","","",""
"650","","image-button-response","77","807752","0.0-77.0-0.0","A2BT7QVGXJKFKI","img_art/26.jpg","0","","","","","","","","","","","","","","","","","","","","","","","","",""
"null","","html-keyboard-response","78","809257","0.0-78.0","A2BT7QVGXJKFKI","<p style=""font-size: 48px;"">+</p>","","","","","null","allTrialResponses","1500","1","5","img_art/26.jpg","6","This is nice and peaceful. A little too muted for my taste, but it's nice.","Chelsea,Amanda,Shannon,Gabriela,Brittany,Morgan","I wish it were more pastel but I think it is relaxing to look at.,30,180,20","Pleasant to look at,28,180,20","I like that it looks like an actual picture and isn't just random colors.,25,220,20","it makes me feel normal and calm, I like the busy city street,10,140,20","It looks boring and too rough.,-9,40,20","Confusing park picture.,8,380,20","Gabriela","it makes me feel normal and calm, I like the busy city street,10,140,20","Amanda","Pleasant to look at,28,180,20","Chelsea","I wish it were more pastel but I think it is relaxing to look at.,30,180,20","0"
"2968","","survey-text","79","812234","0.0-79.0-0.0","A2BT7QVGXJKFKI","","","","{""Q0"":""sky""}","","","","","","","","","","","","","","","","","","","","","","",""
"46374","","survey-text","80","858609","0.0-80.0-0.0","A2BT7QVGXJKFKI","","","","{""Q0"":""I love this color of bottle green, especially with the contrasting black. It's sort of spooky and esoteric.""}","","","","","","","","","","","","","","","","","","","","","","",""
"6526.800000011921","","image-slider-response","81","865139","0.0-81.0","A2BT7QVGXJKFKI","","","","","39","","","","","","","","","","","","","","","","","","","","","",""
"null","","image-button-response","82","870155","0.0-82.0","A2BT7QVGXJKFKI","img_art/25.jpg","null","","","","","","","","","","","","","","","","","","","","","","","","",""
"3515","","image-button-response","83","873672","0.0-83.0","A2BT7QVGXJKFKI","img_art/25.jpg","2","","","","","","","","","","","","","","","","","","","","","","","","",""
"4837","","image-button-response","84","878513","0.0-84.0-0.0","A2BT7QVGXJKFKI","img_art/25.jpg","4","","","","","","","","","","","","","","","","","","","","","","","","",""
"3309","","image-button-response","85","881824","0.0-85.0-0.0","A2BT7QVGXJKFKI","img_art/25.jpg","3","","","","","","","","","","","","","","","","","","","","","","","","",""
"null","","html-keyboard-response","86","883326","0.0-86.0","A2BT7QVGXJKFKI","<p style=""font-size: 48px;"">+</p>","","","","","null","allTrialResponses","1500","1","6","img_art/25.jpg","39","I love this color of bottle green, especially with the contrasting black. It's sort of spooky and esoteric.","Chelsea,Amanda,Gabrielle,Gabriela,Catherine,Brooke","The color and image are unsettling.,-29,180,20","Reminds me of Mr. Burns on drugs in the Simpsons,-50,180,20","interesting pattern and color choice, kind of unusual,2,160,20","It looks like a person at a graveyard,18,140,20","culture, tradition. Village people with an honored elder.,40,160,20","Like the color, but what is that thing.,-10,60,20","Gabrielle","interesting pattern and color choice, kind of unusual,2,160,20","Catherine","culture, tradition. Village people with an honored elder.,40,160,20","Gabriela","It looks like a person at a graveyard,18,140,20","0"
"26734","","survey-text","87","910064","0.0-87.0-0.0","A2BT7QVGXJKFKI","","","","{""Q0"":""I enjoy abstract art like this. This particular color scheme isn't my favorite. I don't like the pink with the yellow.""}","","","","","","","","","","","","","","","","","","","","","","",""
"4525.300000011921","","image-slider-response","88","914591","0.0-88.0","A2BT7QVGXJKFKI","","","","","-10","","","","","","","","","","","","","","","","","","","","","",""
"null","","image-button-response","89","919595","0.0-89.0","A2BT7QVGXJKFKI","img_art/5.jpg","null","","","","","","","","","","","","","","","","","","","","","","","","",""
"5616","","image-button-response","90","925213","0.0-90.0","A2BT7QVGXJKFKI","img_art/5.jpg","0","","","","","","","","","","","","","","","","","","","","","","","","",""
"1088","","image-button-response","91","926304","0.0-91.0-0.0","A2BT7QVGXJKFKI","img_art/5.jpg","4","","","","","","","","","","","","","","","","","","","","","","","","",""
"3754","","image-button-response","92","930060","0.0-92.0-0.0","A2BT7QVGXJKFKI","img_art/5.jpg","1","","","","","","","","","","","","","","","","","","","","","","","","",""
"null","","html-keyboard-response","93","931063","0.0-93.0","A2BT7QVGXJKFKI","<p style=""font-size: 48px;"">+</p>","","","","","null","allTrialResponses","1000","1","7","img_art/5.jpg","-10","I enjoy abstract art like this. This particular color scheme isn't my favorite. I don't like the pink with the yellow.","Caroline,Molly,Gabrielle,Gabriela,Catherine,Taylor","Too much angular things happening, makes me think of stabbing something which makes me uncomfortable,-50,100,20","Very non-dynamic painting, dislike it.,-10,340,20","looks like a 2nd grader did it,-50,160,20","I am confused as to what this is supposed to be,6,140,20","Building remnants in the sand.,1,160,20","Doesn't make me think anything,-1,340,20","Caroline","Too much angular things happening, makes me think of stabbing something which makes me uncomfortable,-50,100,20","Catherine","Building remnants in the sand.,1,160,20","Molly","Very non-dynamic painting, dislike it.,-10,340,20","0"
"60929","","survey-text","94","991994","0.0-94.0-0.0","A2BT7QVGXJKFKI","","","","{""Q0"":""At first it looks like one of those midcentury ship paintings. I like it. It suggests infinity, death, and is suggestive of music as well. Heavy.""}","","","","","","","","","","","","","","","","","","","","","","",""
"3675.7999999523163","","image-slider-response","95","995672","0.0-95.0","A2BT7QVGXJKFKI","","","","","16","","","","","","","","","","","","","","","","","","","","","",""
"3658","","image-button-response","96","1000680","0.0-96.0","A2BT7QVGXJKFKI","img_art/10.jpg","4","","","","","","","","","","","","","","","","","","","","","","","","",""
"1643","","image-button-response","97","1002325","0.0-97.0","A2BT7QVGXJKFKI","img_art/10.jpg","4","","","","","","","","","","","","","","","","","","","","","","","","",""
"11578","","image-button-response","98","1013905","0.0-98.0-0.0","A2BT7QVGXJKFKI","img_art/10.jpg","3","","","","","","","","","","","","","","","","","","","","","","","","",""
"5529","","image-button-response","99","1019437","0.0-99.0-0.0","A2BT7QVGXJKFKI","img_art/10.jpg","0","","","","","","","","","","","","","","","","","","","","","","","","",""
"null","","html-keyboard-response","100","1020955","0.0-100.0","A2BT7QVGXJKFKI","<p style=""font-size: 48px;"">+</p>","","","","","null","allTrialResponses","1500","1","8","img_art/10.jpg","16","At first it looks like one of those midcentury ship paintings. I like it. It suggests infinity, death, and is suggestive of music as well. Heavy.","Caroline,Molly,Natalie,Danielle,Catherine,Monica","This painting made me think of a guitar which made me think of music which envoked happy feelings.,28,100,20","For me, it looks like a giant ship on the sea and it's astonishing.,30,340,20","I see a rollercoaster,23,400,20","Seems very lovecraftian, which I love that style,25,340,20","Circle of life, with highs and lows, good and bad. You always weather the storm and come out on top.,40,160,20","It doesn't look pleasing to the eye, it kind of looks like an animal but a dirty one,-38,360,20","Catherine","Circle of life, with highs and lows, good and bad. You always weather the storm and come out on top.,40,160,20","Danielle","Seems very lovecraftian, which I love that style,25,340,20","Caroline","This painting made me think of a guitar which made me think of music which envoked happy feelings.,28,100,20","0"
"41641","","survey-text","101","1062601","0.0-101.0-0.0","A2BT7QVGXJKFKI","","","","{""Q0"":""I like abstract splatters, and I think the colors do well together. The vertical striped background makes it a little too furniture-store-ish to me, but it's nice to view.""}","","","","","","","","","","","","","","","","","","","","","","",""
"3341.400000035763","","image-slider-response","102","1065944","0.0-102.0","A2BT7QVGXJKFKI","","","","","7","","","","","","","","","","","","","","","","","","","","","",""
"null","","image-button-response","103","1070953","0.0-103.0","A2BT7QVGXJKFKI","img_art/13.jpg","null","","","","","","","","","","","","","","","","","","","","","","","","",""
"74447","","image-button-response","104","1145403","0.0-104.0","A2BT7QVGXJKFKI","img_art/13.jpg","3","","","","","","","","","","","","","","","","","","","","","","","","",""
"18971","","image-button-response","105","1164377","0.0-105.0-0.0","A2BT7QVGXJKFKI","img_art/13.jpg","5","","","","","","","","","","","","","","","","","","","","","","","","",""
"2678","","image-button-response","106","1167057","0.0-106.0-0.0","A2BT7QVGXJKFKI","img_art/13.jpg","4","","","","","","","","","","","","","","","","","","","","","","","","",""
"null","","html-keyboard-response","107","1168586","0.0-107.0","A2BT7QVGXJKFKI","<p style=""font-size: 48px;"">+</p>","","","","","null","allTrialResponses","1500","1","9","img_art/13.jpg","7","I like abstract splatters, and I think the colors do well together. The vertical striped background makes it a little too furniture-store-ish to me, but it's nice to view.","Caroline,Diana,Cynthia,Danielle,Catherine,Jamie","Pretty but didnt cause a reaction,33,100,20","I really loved the color contrast. Having the white stripe in the center makes the it appear 3D.,11,380,20","It reminds me of rain,11,320,20","While it is a bit basic and doesn't speak to me much, I like the feeling it gives,40,340,20","Magnified rain around trees. Beautiful happy colors. The little person on the right feels nature is huge.,45,160,20","Cool colors and looks like rain on a window,45,320,20","Danielle","While it is a bit basic and doesn't speak to me much, I like the feeling it gives,40,340,20","Jamie","Cool colors and looks like rain on a window,45,320,20","Catherine","Magnified rain around trees. Beautiful happy colors. The little person on the right feels nature is huge.,45,160,20","0"
"27811","","survey-text","108","1196401","0.0-108.0-0.0","A2BT7QVGXJKFKI","","","","{""Q0"":""This is pretty cool. It looks like it could be part of a somewhat-spooky illustrated book for children.""}","","","","","","","","","","","","","","","","","","","","","","",""
"3051","","image-slider-response","109","1199455","0.0-109.0","A2BT7QVGXJKFKI","","","","","27","","","","","","","","","","","","","","","","","","","","","",""
"null","","image-button-response","110","1204459","0.0-110.0","A2BT7QVGXJKFKI","img_art/15.jpg","null","","","","","","","","","","","","","","","","","","","","","","","","",""
"4985","","image-button-response","111","1209446","0.0-111.0","A2BT7QVGXJKFKI","img_art/15.jpg","5","","","","","","","","","","","","","","","","","","","","","","","","",""
"1049","","image-button-response","112","1210498","0.0-112.0-0.0","A2BT7QVGXJKFKI","img_art/15.jpg","5","","","","","","","","","","","","","","","","","","","","","","","","",""
"880","","image-button-response","113","1218110","0.0-112.1-0.1","A2BT7QVGXJKFKI","img_art/15.jpg","1","","","","","","","","","","","","","","","","","","","","","","","","",""
"689","","image-button-response","114","1218801","0.0-113.0-0.0","A2BT7QVGXJKFKI","img_art/15.jpg","3","","","","","","","","","","","","","","","","","","","","","","","","",""
"null","","html-keyboard-response","115","1220305","0.0-114.0","A2BT7QVGXJKFKI","<p style=""font-size: 48px;"">+</p>","","","","","null","allTrialResponses","1500","1","10","img_art/15.jpg","27","This is pretty cool. It looks like it could be part of a somewhat-spooky illustrated book for children.","Samantha,Leah,Michaela,Danielle,Catherine,Jamie","Not interesting enough. Boring,-37,140,20","Pretty, like in a field of poppies,19,360,20","Reminds me of lilacs,26,260,20","This is pretty nice, reminds me of dark peacock feathers, or perhaps a bush with berries in it?,15,340,20","ants on the ground playing with bubble gum. They may be thinking of how they can use it to build something,-30,160,20","Black and blue is my favorite color combination,35,320,20","Jamie","Black and blue is my favorite color combination,35,320,20","Leah","Pretty, like in a field of poppies,19,360,20","Danielle","This is pretty nice, reminds me of dark peacock feathers, or perhaps a bush with berries in it?,15,340,20","2"
"3562","","survey-text","116","1223875","0.0-115.0-0.0","A2BT7QVGXJKFKI","","","","{""Q0"":""our""}","","","","","","","","","","","","","","","","","","","","","","",""
"28086","","survey-text","117","1251962","0.0-116.0-0.0","A2BT7QVGXJKFKI","","","","{""Q0"":""This is a little basic and for me there's too much white space, but I love the multi-colored palette.""}","","","","","","","","","","","","","","","","","","","","","","",""
"3315.300000011921","","image-slider-response","118","1255279","0.0-117.0","A2BT7QVGXJKFKI","","","","","15","","","","","","","","","","","","","","","","","","","","","",""
"null","","image-button-response","119","1260288","0.0-118.0","A2BT7QVGXJKFKI","img_art/14.jpg","null","","","","","","","","","","","","","","","","","","","","","","","","",""
"5664","","image-button-response","120","1265954","0.0-119.0","A2BT7QVGXJKFKI","img_art/14.jpg","1","","","","","","","","","","","","","","","","","","","","","","","","",""
"8397","","image-button-response","121","1274354","0.0-120.0-0.0","A2BT7QVGXJKFKI","img_art/14.jpg","2","","","","","","","","","","","","","","","","","","","","","","","","",""
"4011","","image-button-response","122","1278368","0.0-121.0-0.0","A2BT7QVGXJKFKI","img_art/14.jpg","5","","","","","","","","","","","","","","","","","","","","","","","","",""
"null","","html-keyboard-response","123","1279382","0.0-122.0","A2BT7QVGXJKFKI","<p style=""font-size: 48px;"">+</p>","","","","","null","allTrialResponses","1000","1","11","img_art/14.jpg","15","This is a little basic and for me there's too much white space, but I love the multi-colored palette.","Jennifer,Leah,Mikayla,Danielle,Leslie,Jamie","This piece is average compared to the others.,1,380,20","I like the simplicity along with the colors,27,360,20","The red looks like blood and im not a huge fan,15,300,20","Too much yellow in this image, i'm not a fan of art that is overly-saturated with yellow,-30,340,20","This elicits no reaction in me.,0,380,20","Not as cool as other tree looking paintings,-5,320,20","Leah","I like the simplicity along with the colors,27,360,20","Mikayla","The red looks like blood and im not a huge fan,15,300,20","Jamie","Not as cool as other tree looking paintings,-5,320,20","2"
"50425","","survey-text","124","1329813","0.0-123.0-0.0","A2BT7QVGXJKFKI","","","","{""Q0"":""Almost like a cliffside beach and ocean. Somewhat foreboding.""}","","","","","","","","","","","","","","","","","","","","","","",""
"4619.199999988079","","image-slider-response","125","1334434","0.0-124.0","A2BT7QVGXJKFKI","","","","","14","","","","","","","","","","","","","","","","","","","","","",""
"null","","image-button-response","126","1339450","0.0-125.0","A2BT7QVGXJKFKI","img_art/21.jpg","null","","","","","","","","","","","","","","","","","","","","","","","","",""
"9895","","image-button-response","127","1349348","0.0-126.0","A2BT7QVGXJKFKI","img_art/21.jpg","5","","","","","","","","","","","","","","","","","","","","","","","","",""
"5227","","image-button-response","128","1354578","0.0-127.0-0.0","A2BT7QVGXJKFKI","img_art/21.jpg","3","","","","","","","","","","","","","","","","","","","","","","","","",""
"4523","","image-button-response","129","1359103","0.0-128.0-0.0","A2BT7QVGXJKFKI","img_art/21.jpg","3","","","","","","","","","","","","","","","","","","","","","","","","",""
"3732","","image-button-response","130","1368044","0.0-128.1-0.1","A2BT7QVGXJKFKI","img_art/21.jpg","0","","","","","","","","","","","","","","","","","","","","","","","","",""
"null","","html-keyboard-response","131","1369058","0.0-129.0","A2BT7QVGXJKFKI","<p style=""font-size: 48px;"">+</p>","","","","","null","allTrialResponses","1000","1","12","img_art/21.jpg","14","Almost like a cliffside beach and ocean. Somewhat foreboding.","Ashley,Leah,Mikayla,Kristen,Kaitlyn,Jamie","Disturbing, land meets ocean, lvoely really.,43,320,20","Love the colors, uplifting and stormy at the same time,32,360,20","Nothing exciting in this one.,-36,300,20","calm, ship at sea, sunset,16,280,20","The division in the picture is pleasing but the random white dots are distracting,12,80,20","Contrast of fire and water looks cool,20,320,20","Jamie","Contrast of fire and water looks cool,20,320,20","Kristen","calm, ship at sea, sunset,16,280,20","Ashley","Disturbing, land meets ocean, lvoely really.,43,320,20","4"
"42030","","survey-text","132","1411092","0.0-130.0-0.0","A2BT7QVGXJKFKI","","","","{""Q0"":""Almost like a Picasso but more contemporary. I like how the colors seem to be behind rips in the top layer.""}","","","","","","","","","","","","","","","","","","","","","","",""
"2957","","image-slider-response","133","1414051","0.0-131.0","A2BT7QVGXJKFKI","","","","","12","","","","","","","","","","","","","","","","","","","","","",""
"null","","image-button-response","134","1419057","0.0-132.0","A2BT7QVGXJKFKI","img_art/11.jpg","null","","","","","","","","","","","","","","","","","","","","","","","","",""
"2046","","image-button-response","135","1421105","0.0-133.0","A2BT7QVGXJKFKI","img_art/11.jpg","5","","","","","","","","","","","","","","","","","","","","","","","","",""
"1188","","image-button-response","136","1422296","0.0-134.0-0.0","A2BT7QVGXJKFKI","img_art/11.jpg","0","","","","","","","","","","","","","","","","","","","","","","","","",""
"1174","","image-button-response","137","1423472","0.0-135.0-0.0","A2BT7QVGXJKFKI","img_art/11.jpg","0","","","","","","","","","","","","","","","","","","","","","","","","",""
"1355","","image-button-response","138","1427377","0.0-135.1-0.1","A2BT7QVGXJKFKI","img_art/11.jpg","0","","","","","","","","","","","","","","","","","","","","","","","","",""
"8039","","image-button-response","139","1438466","0.0-135.2-0.2","A2BT7QVGXJKFKI","img_art/11.jpg","2","","","","","","","","","","","","","","","","","","","","","","","","",""
"null","","html-keyboard-response","140","1439981","0.0-136.0","A2BT7QVGXJKFKI","<p style=""font-size: 48px;"">+</p>","","","","","null","allTrialResponses","1500","1","13","img_art/11.jpg","12","Almost like a Picasso but more contemporary. I like how the colors seem to be behind rips in the top layer.","Ashley,Breanna,Anna,Kristen,Sara,Jamie","Dark but bright, city but ocean, musical scales.,50,320,20","Very cool, makes me feel good,39,380,20","It makes me think of a coastal sea town.,50,300,20","small town, friendly. calm,35,280,20","Looks sad but clean,31,160,20","Looks like a cityscape,25,320,20","Jamie","Looks like a cityscape,25,320,20","Ashley","Dark but bright, city but ocean, musical scales.,50,320,20","Anna","It makes me think of a coastal sea town.,50,300,20","8"
"20314","","survey-text","141","1460302","0.0-137.0-0.0","A2BT7QVGXJKFKI","","","","{""Q0"":""It reminds me of an Oscar award. I like the color scheme.""}","","","","","","","","","","","","","","","","","","","","","","",""
"2694.199999988079","","image-slider-response","142","1462998","0.0-138.0","A2BT7QVGXJKFKI","","","","","21","","","","","","","","","","","","","","","","","","","","","",""
"null","","image-button-response","143","1468016","0.0-139.0","A2BT7QVGXJKFKI","img_art/4.jpg","null","","","","","","","","","","","","","","","","","","","","","","","","",""
"13493","","image-button-response","144","1481509","0.0-140.0","A2BT7QVGXJKFKI","img_art/4.jpg","4","","","","","","","","","","","","","","","","","","","","","","","","",""
"4368","","image-button-response","145","1485879","0.0-141.0-0.0","A2BT7QVGXJKFKI","img_art/4.jpg","1","","","","","","","","","","","","","","","","","","","","","","","","",""
"3372","","image-button-response","146","1489254","0.0-142.0-0.0","A2BT7QVGXJKFKI","img_art/4.jpg","0","","","","","","","","","","","","","","","","","","","","","","","","",""
"null","","html-keyboard-response","147","1489760","0.0-143.0","A2BT7QVGXJKFKI","<p style=""font-size: 48px;"">+</p>","","","","","null","allTrialResponses","500","1","14","img_art/4.jpg","21","It reminds me of an Oscar award. I like the color scheme.","Ashley,Laura,Anna,Andrea,Kathryn,Jamie","It looks like a hand.,25,320,20","spontaneous, without hesitation,22,320,20","It doesn't make me feel anything it just looks like a kid did it.,-30,300,20","I think it speaks to familial closeness but the tonality is offputting to me.,-10,240,20","I feel kind of guilty looking at this, like I'm receiving a reward I don't I deserve.,-10,140,20","Mustard yellow doesn't do it for me,-25,320,20","Kathryn","I feel kind of guilty looking at this, like I'm receiving a reward I don't I deserve.,-10,140,20","Laura","spontaneous, without hesitation,22,320,20","Ashley","It looks like a hand.,25,320,20","8"
"41922","","survey-text","148","1531690","0.0-144.0-0.0","A2BT7QVGXJKFKI","","","","{""Q0"":""Interesting. It's disturbing and thought-provoking. Like a dead childhood, lost innocence.""}","","","","","","","","","","","","","","","","","","","","","","",""
"3480.099999964237","","image-slider-response","149","1535172","0.0-145.0","A2BT7QVGXJKFKI","","","","","-5","","","","","","","","","","","","","","","","","","","","","",""
"null","","image-button-response","150","1540174","0.0-146.0","A2BT7QVGXJKFKI","img_art/16.jpg","null","","","","","","","","","","","","","","","","","","","","","","","","",""
"3333","","image-button-response","151","1543510","0.0-147.0","A2BT7QVGXJKFKI","img_art/16.jpg","1","","","","","","","","","","","","","","","","","","","","","","","","",""
"2652","","image-button-response","152","1546164","0.0-148.0-0.0","A2BT7QVGXJKFKI","img_art/16.jpg","4","","","","","","","","","","","","","","","","","","","","","","","","",""
"4890","","image-button-response","153","1551058","0.0-149.0-0.0","A2BT7QVGXJKFKI","img_art/16.jpg","5","","","","","","","","","","","","","","","","","","","","","","","","",""
"null","","html-keyboard-response","154","1552572","0.0-150.0","A2BT7QVGXJKFKI","<p style=""font-size: 48px;"">+</p>","","","","","null","allTrialResponses","1500","1","15","img_art/16.jpg","-5","Interesting. It's disturbing and thought-provoking. Like a dead childhood, lost innocence.","Ashley,Laura,Jasmine,Hailey,Kathryn,Sophia","A lot fo these could abstract or childrens work.,23,320,20","depressing and confrontational,-9,320,20","I like it because it's quite different from the rest,23,340,20","cute and warm. i like the bear,15,200,20","I see something that is supposed to be comforting but it's been discarded and lost.,-20,140,20","This feels like there's some kind of pedofile thing going on here.,-50,280,20","Laura","depressing and confrontational,-9,320,20","Kathryn","I see something that is supposed to be comforting but it's been discarded and lost.,-20,140,20","Sophia","This feels like there's some kind of pedofile thing going on here.,-50,280,20","8"
"3801","","survey-text","155","1556378","0.0-151.0-0.0","A2BT7QVGXJKFKI","","","","{""Q0"":""course""}","","","","","","","","","","","","","","","","","","","","","","",""
"38646","","survey-text","156","1595025","0.0-152.0-0.0","A2BT7QVGXJKFKI","","","","{""Q0"":""I like the direction and design of the strokes. The background colors are a little muddy, but I really like the hot red strokes.""}","","","","","","","","","","","","","","","","","","","","","","",""
"5070.300000011921","","image-slider-response","157","1600097","0.0-153.0","A2BT7QVGXJKFKI","","","","","17","","","","","","","","","","","","","","","","","","","","","",""
"null","","image-button-response","158","1605102","0.0-154.0","A2BT7QVGXJKFKI","img_art/30.jpg","null","","","","","","","","","","","","","","","","","","","","","","","","",""
"5198","","image-button-response","159","1610303","0.0-155.0","A2BT7QVGXJKFKI","img_art/30.jpg","3","","","","","","","","","","","","","","","","","","","","","","","","",""
"3614","","image-button-response","160","1613917","0.0-156.0-0.0","A2BT7QVGXJKFKI","img_art/30.jpg","4","","","","","","","","","","","","","","","","","","","","","","","","",""
"8482","","image-button-response","161","1622402","0.0-157.0-0.0","A2BT7QVGXJKFKI","img_art/30.jpg","1","","","","","","","","","","","","","","","","","","","","","","","","",""
"null","","html-keyboard-response","162","1623411","0.0-158.0","A2BT7QVGXJKFKI","<p style=""font-size: 48px;"">+</p>","","","","","null","allTrialResponses","1000","1","16","img_art/30.jpg","17","I like the direction and design of the strokes. The background colors are a little muddy, but I really like the hot red strokes.","Savannah,Laura,Christina,Olivia,Kathryn,Sophia","Colors are nice but it just seems too simple.,-26,200,20","sloppy, unintentional,-20,320,20","it looks like some thing I could make it my garage,-18,240,20","perceiving greatness,20,40,20","It's like a child's art piece: carefree and not trying to conform to anything.,10,140,20","Hmmm. I think the artist is trying to direct me to a spreadsheet?  (s/s),-10,280,20","Olivia","perceiving greatness,20,40,20","Kathryn","It's like a child's art piece: carefree and not trying to conform to anything.,10,140,20","Laura","sloppy, unintentional,-20,320,20","8"
"14030","","survey-text","163","1637448","0.0-159.0-0.0","A2BT7QVGXJKFKI","","","","{""Q0"":""Like a satellite image of badlands.""}","","","","","","","","","","","","","","","","","","","","","","",""
"3673.600000023842","","image-slider-response","164","1641124","0.0-160.0","A2BT7QVGXJKFKI","","","","","5","","","","","","","","","","","","","","","","","","","","","",""
"null","","image-button-response","165","1646140","0.0-161.0","A2BT7QVGXJKFKI","img_art/7.jpg","null","","","","","","","","","","","","","","","","","","","","","","","","",""
"1636","","image-button-response","166","1647777","0.0-162.0","A2BT7QVGXJKFKI","img_art/7.jpg","1","","","","","","","","","","","","","","","","","","","","","","","","",""
"1753","","image-button-response","167","1649531","0.0-163.0-0.0","A2BT7QVGXJKFKI","img_art/7.jpg","0","","","","","","","","","","","","","","","","","","","","","","","","",""
"1722","","image-button-response","168","1651255","0.0-164.0-0.0","A2BT7QVGXJKFKI","img_art/7.jpg","3","","","","","","","","","","","","","","","","","","","","","","","","",""
"null","","html-keyboard-response","169","1651763","0.0-165.0","A2BT7QVGXJKFKI","<p style=""font-size: 48px;"">+</p>","","","","","null","allTrialResponses","500","1","17","img_art/7.jpg","5","Like a satellite image of badlands.","Jordan,Laura,Vanessa,Olivia,Kathryn,Victoria","looks like the surface of the moon.,1,20,20","I feel thirsty - reminds me of desert sand,11,320,20","This is borning and lifeless.,-50,380,20","looking down on earth,19,40,20","It's off-putting because it reminds me of walking over rough sand/rocks or having scabs on my skin.,-10,140,20","looks like a photograph,-4,400,20","Laura","I feel thirsty - reminds me of desert sand,11,320,20","Jordan","looks like the surface of the moon.,1,20,20","Olivia","looking down on earth,19,40,20","8"
"28682","","survey-text","170","1680452","0.0-166.0-0.0","A2BT7QVGXJKFKI","","","","{""Q0"":""Reminds me of We Are the World. Musicians making harmonies together. I like the background colors.""}","","","","","","","","","","","","","","","","","","","","","","",""
"4160","","image-slider-response","171","1684614","0.0-167.0","A2BT7QVGXJKFKI","","","","","23","","","","","","","","","","","","","","","","","","","","","",""
"null","","image-button-response","172","1689621","0.0-168.0","A2BT7QVGXJKFKI","img_art/23.jpg","null","","","","","","","","","","","","","","","","","","","","","","","","",""
"1005","","image-button-response","173","1690629","0.0-169.0","A2BT7QVGXJKFKI","img_art/23.jpg","3","","","","","","","","","","","","","","","","","","","","","","","","",""
"1696","","image-button-response","174","1692328","0.0-170.0-0.0","A2BT7QVGXJKFKI","img_art/23.jpg","4","","","","","","","","","","","","","","","","","","","","","","","","",""
"627","","image-button-response","175","1692957","0.0-171.0-0.0","A2BT7QVGXJKFKI","img_art/23.jpg","1","","","","","","","","","","","","","","","","","","","","","","","","",""
"null","","html-keyboard-response","176","1693965","0.0-172.0","A2BT7QVGXJKFKI","<p style=""font-size: 48px;"">+</p>","","","","","null","allTrialResponses","1000","1","18","img_art/23.jpg","23","Reminds me of We Are the World. Musicians making harmonies together. I like the background colors.","Jordan,Laura,Lindsey,Olivia,Erika,Kaitlin","NO, I don't get it,-50,20,20","teeth! dancing people, celebrations,-39,320,20","Too much contrasting colors together. I hate it.,-50,400,20","happiness in the universe,28,40,20","Very intense and unique,3,100,20","i cannot breath in this,-10,60,20","Olivia","happiness in the universe,28,40,20","Erika","Very intense and unique,3,100,20","Laura","teeth! dancing people, celebrations,-39,320,20","8"
"38682","","survey-text","177","1732651","0.0-173.0-0.0","A2BT7QVGXJKFKI","","","","{""Q0"":""Scary, looming anthropomorphized storm about to breathe destruction on a city.""}","","","","","","","","","","","","","","","","","","","","","","",""
"4040.899999976158","","image-slider-response","178","1736694","0.0-174.0","A2BT7QVGXJKFKI","","","","","17","","","","","","","","","","","","","","","","","","","","","",""
"null","","image-button-response","179","1741700","0.0-175.0","A2BT7QVGXJKFKI","img_art/8.jpg","null","","","","","","","","","","","","","","","","","","","","","","","","",""
"5863","","image-button-response","180","1747565","0.0-176.0","A2BT7QVGXJKFKI","img_art/8.jpg","1","","","","","","","","","","","","","","","","","","","","","","","","",""
"4906","","image-button-response","181","1752473","0.0-177.0-0.0","A2BT7QVGXJKFKI","img_art/8.jpg","0","","","","","","","","","","","","","","","","","","","","","","","","",""
"1151","","image-button-response","182","1753628","0.0-178.0-0.0","A2BT7QVGXJKFKI","img_art/8.jpg","2","","","","","","","","","","","","","","","","","","","","","","","","",""
"null","","html-keyboard-response","183","1755145","0.0-179.0","A2BT7QVGXJKFKI","<p style=""font-size: 48px;"">+</p>","","","","","null","allTrialResponses","1500","1","19","img_art/8.jpg","17","Scary, looming anthropomorphized storm about to breathe destruction on a city.","Katelyn,Laura,Briana,Olivia,Erika,Margaret","I like the definition and the strong lines. It makes me think of someone watching over the world,24,100,20","chaotic and disassembled,-8,320,20","Its abstract and interesting,24,400,20","being watched over,17,40,20","Striking, but not my taste,20,100,20","its pretty exciting to look at, there is alot going on,15,100,20","Laura","chaotic and disassembled,-8,320,20","Katelyn","I like the definition and the strong lines. It makes me think of someone watching over the world,24,100,20","Briana","Its abstract and interesting,24,400,20","8"
"54098","","survey-text","184","1809249","0.0-180.0-0.0","A2BT7QVGXJKFKI","","","","{""Q0"":""Interesting how it's broken up into distributed rectangles, almost like you're looking across from one skyscraper to another, with people in their apartments living their lives. A little lonely.""}","","","","","","","","","","","","","","","","","","","","","","",""
"3034","","image-slider-response","185","1812285","0.0-181.0","A2BT7QVGXJKFKI","","","","","17","","","","","","","","","","","","","","","","","","","","","",""
"null","","image-button-response","186","1817288","0.0-182.0","A2BT7QVGXJKFKI","img_art/12.jpg","null","","","","","","","","","","","","","","","","","","","","","","","","",""
"2242","","image-button-response","187","1819532","0.0-183.0","A2BT7QVGXJKFKI","img_art/12.jpg","1","","","","","","","","","","","","","","","","","","","","","","","","",""
"3005","","image-button-response","188","1822540","0.0-184.0-0.0","A2BT7QVGXJKFKI","img_art/12.jpg","5","","","","","","","","","","","","","","","","","","","","","","","","",""
"1946","","image-button-response","189","1824488","0.0-185.0-0.0","A2BT7QVGXJKFKI","img_art/12.jpg","2","","","","","","","","","","","","","","","","","","","","","","","","",""
"null","","html-keyboard-response","190","1825502","0.0-186.0","A2BT7QVGXJKFKI","<p style=""font-size: 48px;"">+</p>","","","","","null","allTrialResponses","1000","1","20","img_art/12.jpg","17","Interesting how it's broken up into distributed rectangles, almost like you're looking across from one skyscraper to another, with people in their apartments living their lives. A little lonely.","Katelyn,Laura,Briana,Autumn,Alexa,Angela","Just confuses me overall,-11,100,20","angry, disturbed and sharp,-25,320,20","Interesting colors. I really dont like modern art though,24,400,20","Good too basic.,18,340,20","I love the pattern and this looks like it took a good deal of effort,35,40,20","I like the colors in the bottom half of the painting,10,260,20","Laura","angry, disturbed and sharp,-25,320,20","Angela","I like the colors in the bottom half of the painting,10,260,20","Briana","Interesting colors. I really dont like modern art though,24,400,20","8"
"2347","","survey-text","191","1827855","0.0-187.0-0.0","A2BT7QVGXJKFKI","","","","{""Q0"":""we""}","","","","","","","","","","","","","","","","","","","","","","",""
"24565","","survey-text","192","1852421","0.0-188.0-0.0","A2BT7QVGXJKFKI","","","","{""Q0"":""Looks like a melted keyboard and desktop. ""}","","","","","","","","","","","","","","","","","","","","","","",""
"2949.2999999523163","","image-slider-response","193","1855373","0.0-189.0","A2BT7QVGXJKFKI","","","","","-25","","","","","","","","","","","","","","","","","","","","","",""
"4908","","image-button-response","194","1860383","0.0-190.0","A2BT7QVGXJKFKI","img_art/29.jpg","5","","","","","","","","","","","","","","","","","","","","","","","","",""
"6210","","image-button-response","195","1866596","0.0-191.0","A2BT7QVGXJKFKI","img_art/29.jpg","0","","","","","","","","","","","","","","","","","","","","","","","","",""
"2661","","image-button-response","196","1869260","0.0-192.0-0.0","A2BT7QVGXJKFKI","img_art/29.jpg","5","","","","","","","","","","","","","","","","","","","","","","","","",""
"1681","","image-button-response","197","1870944","0.0-193.0-0.0","A2BT7QVGXJKFKI","img_art/29.jpg","2","","","","","","","","","","","","","","","","","","","","","","","","",""
"null","","html-keyboard-response","198","1871947","0.0-194.0","A2BT7QVGXJKFKI","<p style=""font-size: 48px;"">+</p>","","","","","null","allTrialResponses","1000","1","21","img_art/29.jpg","-25","Looks like a melted keyboard and desktop. ","Emma,Laura,Briana,Shelby,Amber,Angela","Feels messy, stressful,-22,60,20","this is not art to me - it's random collage,-45,320,20","Looks like someone trying to make something they dont understand,-36,400,20","Doesnt say much for me,0,240,20","Don't like the red X across the painting.,-15,200,20","I would like this piece better without the red X across it,-10,260,20","Emma","Feels messy, stressful,-22,60,20","Angela","I would like this piece better without the red X across it,-10,260,20","Briana","Looks like someone trying to make something they dont understand,-36,400,20","8"
"39749","","survey-text","199","1911700","0.0-195.0-0.0","A2BT7QVGXJKFKI","","","","{""Q0"":""I enjoy the color scheme, but it's scary. The skeleton keys are an interesting addition. Maybe this is a doorknob.""}","","","","","","","","","","","","","","","","","","","","","","",""
"2374.399999976158","","image-slider-response","200","1914076","0.0-196.0","A2BT7QVGXJKFKI","","","","","-8","","","","","","","","","","","","","","","","","","","","","",""
"null","","image-button-response","201","1919089","0.0-197.0","A2BT7QVGXJKFKI","img_art/22.jpg","null","","","","","","","","","","","","","","","","","","","","","","","","",""
"11391","","image-button-response","202","1930482","0.0-198.0","A2BT7QVGXJKFKI","img_art/22.jpg","2","","","","","","","","","","","","","","","","","","","","","","","","",""
"972","","image-button-response","203","1931456","0.0-199.0-0.0","A2BT7QVGXJKFKI","img_art/22.jpg","1","","","","","","","","","","","","","","","","","","","","","","","","",""
"3318","","image-button-response","204","1934776","0.0-200.0-0.0","A2BT7QVGXJKFKI","img_art/22.jpg","3","","","","","","","","","","","","","","","","","","","","","","","","",""
"null","","html-keyboard-response","205","1935778","0.0-201.0","A2BT7QVGXJKFKI","<p style=""font-size: 48px;"">+</p>","","","","","null","allTrialResponses","1000","1","22","img_art/22.jpg","-8","I enjoy the color scheme, but it's scary. The skeleton keys are an interesting addition. Maybe this is a doorknob.","Emma,Grace,Briana,Paige,Destiny,Angela","Love the use of color,50,60,20","Love vibrant colors & the abstractness.,43,180,20","Bright colors feel warm,22,400,20","Happy. I like to colors,33,60,20","so boring. Wow you made some circles some squares very nice,-40,360,20","Like the colors. I enjoy looking at this one.,15,260,20","Briana","Bright colors feel warm,22,400,20","Grace","Love vibrant colors & the abstractness.,43,180,20","Paige","Happy. I like to colors,33,60,20","8"
"33423","","survey-text","206","1969205","0.0-202.0-0.0","A2BT7QVGXJKFKI","","","","{""Q0"":""Like a crashed rocket ship on a remote planet. ""}","","","","","","","","","","","","","","","","","","","","","","",""
"3185.699999988079","","image-slider-response","207","1972393","0.0-203.0","A2BT7QVGXJKFKI","","","","","7","","","","","","","","","","","","","","","","","","","","","",""
"4704","","image-button-response","208","1977409","0.0-204.0","A2BT7QVGXJKFKI","img_art/20.jpg","3","","","","","","","","","","","","","","","","","","","","","","","","",""
"2040","","image-button-response","209","1979452","0.0-205.0","A2BT7QVGXJKFKI","img_art/20.jpg","0","","","","","","","","","","","","","","","","","","","","","","","","",""
"1370","","image-button-response","210","1980824","0.0-206.0-0.0","A2BT7QVGXJKFKI","img_art/20.jpg","3","","","","","","","","","","","","","","","","","","","","","","","","",""
"4049","","image-button-response","211","1984876","0.0-207.0-0.0","A2BT7QVGXJKFKI","img_art/20.jpg","2","","","","","","","","","","","","","","","","","","","","","","","","",""
"null","","html-keyboard-response","212","1985379","0.0-208.0","A2BT7QVGXJKFKI","<p style=""font-size: 48px;"">+</p>","","","","","null","allTrialResponses","500","1","23","img_art/20.jpg","7","Like a crashed rocket ship on a remote planet. ","Jacqueline,Grace,Briana,Paige,Makayla,Kylie","Looks like a refinery dumping shit into the water.,-40,300,20","Reminds me of Georgia O'Keefe.,11,180,20","Someone trying to be dali,-15,400,20","scared. makes me feel alone or abandoned,-11,60,20","Little picturesque town that I would like to visit,19,80,20","City life vs shore life,40,300,20","Jacqueline","Looks like a refinery dumping shit into the water.,-40,300,20","Paige","scared. makes me feel alone or abandoned,-11,60,20","Briana","Someone trying to be dali,-15,400,20","8"
"51201","","survey-text","213","2036587","0.0-209.0-0.0","A2BT7QVGXJKFKI","","","","{""Q0"":""A woman taking a nap on a fancy chaise. The scissors or whatever implement that is are kind of disturbing.""}","","","","","","","","","","","","","","","","","","","","","","",""
"2653.099999964237","","image-slider-response","214","2039243","0.0-210.0","A2BT7QVGXJKFKI","","","","","11","","","","","","","","","","","","","","","","","","","","","",""
"null","","image-button-response","215","2044249","0.0-211.0","A2BT7QVGXJKFKI","img_art/9.jpg","null","","","","","","","","","","","","","","","","","","","","","","","","",""
"4756","","image-button-response","216","2049008","0.0-212.0","A2BT7QVGXJKFKI","img_art/9.jpg","4","","","","","","","","","","","","","","","","","","","","","","","","",""
"1945","","image-button-response","217","2050956","0.0-213.0-0.0","A2BT7QVGXJKFKI","img_art/9.jpg","1","","","","","","","","","","","","","","","","","","","","","","","","",""
"3357","","image-button-response","218","2054316","0.0-214.0-0.0","A2BT7QVGXJKFKI","img_art/9.jpg","2","","","","","","","","","","","","","","","","","","","","","","","","",""
"null","","html-keyboard-response","219","2055329","0.0-215.0","A2BT7QVGXJKFKI","<p style=""font-size: 48px;"">+</p>","","","","","null","allTrialResponses","1000","1","24","img_art/9.jpg","11","A woman taking a nap on a fancy chaise. The scissors or whatever implement that is are kind of disturbing.","Jacqueline,Mackenzie,Briana,Paige,Brianna,Caitlin","Looks like a sloppy iguana.,-11,300,20","I enjoy the design, but the colors look waxy,-7,20,20","I see a foot. Idk colors are pleasant,12,400,20","I feel this incites anger,-16,60,20","This has some of my favorite colors, and I like it,21,20,20","Caveman. Not for my walls.,-5,80,20","Brianna","This has some of my favorite colors, and I like it,21,20,20","Mackenzie","I enjoy the design, but the colors look waxy,-7,20,20","Briana","I see a foot. Idk colors are pleasant,12,400,20","8"
"14997","","survey-text","220","2070333","0.0-216.0-0.0","A2BT7QVGXJKFKI","","","","{""Q0"":""beautiful abstract waterfall in a vibrant summer forest.""}","","","","","","","","","","","","","","","","","","","","","","",""
"3871.100000023842","","image-slider-response","221","2074206","0.0-217.0","A2BT7QVGXJKFKI","","","","","27","","","","","","","","","","","","","","","","","","","","","",""
"null","","image-button-response","222","2079213","0.0-218.0","A2BT7QVGXJKFKI","img_art/24.jpg","null","","","","","","","","","","","","","","","","","","","","","","","","",""
"1397","","image-button-response","223","2080612","0.0-219.0","A2BT7QVGXJKFKI","img_art/24.jpg","3","","","","","","","","","","","","","","","","","","","","","","","","",""
"2414","","image-button-response","224","2083028","0.0-220.0-0.0","A2BT7QVGXJKFKI","img_art/24.jpg","4","","","","","","","","","","","","","","","","","","","","","","","","",""
"775","","image-button-response","225","2083805","0.0-221.0-0.0","A2BT7QVGXJKFKI","img_art/24.jpg","1","","","","","","","","","","","","","","","","","","","","","","","","",""
"null","","html-keyboard-response","226","2085314","0.0-222.0","A2BT7QVGXJKFKI","<p style=""font-size: 48px;"">+</p>","","","","","null","allTrialResponses","1500","1","25","img_art/24.jpg","27","beautiful abstract waterfall in a vibrant summer forest.","Abigail,Mackenzie,Briana,Alyssa,Brianna,Katie","Beautiful waterfall I like waterfalls,39,20,20","I like the vivid colors and different textures,32,20,20","Abstract waterfall landscape. Confusing,-13,400,20","Beautiful.Nice use of colors and invokes feelings of serene and peace,40,160,20","The waterfall looks peaceful,11,20,20","I see a waterfall, which is relaxing and peaceful!  I like the blue coloring,30,160,20","Alyssa","Beautiful.Nice use of colors and invokes feelings of serene and peace,40,160,20","Brianna","The waterfall looks peaceful,11,20,20","Mackenzie","I like the vivid colors and different textures,32,20,20","8"
"11013","","survey-text","227","2096338","0.0-223.0-0.0","A2BT7QVGXJKFKI","","","","{""Q0"":""table""}","","","","","","","","","","","","","","","","","","","","","","",""
"29440","","survey-text","228","2125779","0.0-224.0-0.0","A2BT7QVGXJKFKI","","","","{""Q0"":""Reminds me of a view from a park in a heavily-polluted city.""}","","","","","","","","","","","","","","","","","","","","","","",""
"3747.399999976158","","image-slider-response","229","2129528","0.0-225.0","A2BT7QVGXJKFKI","","","","","-19","","","","","","","","","","","","","","","","","","","","","",""
"null","","image-button-response","230","2134534","0.0-226.0","A2BT7QVGXJKFKI","img_art/27.jpg","null","","","","","","","","","","","","","","","","","","","","","","","","",""
"3602","","image-button-response","231","2138138","0.0-227.0","A2BT7QVGXJKFKI","img_art/27.jpg","1","","","","","","","","","","","","","","","","","","","","","","","","",""
"1717","","image-button-response","232","2139856","0.0-228.0-0.0","A2BT7QVGXJKFKI","img_art/27.jpg","0","","","","","","","","","","","","","","","","","","","","","","","","",""
"8827","","image-button-response","233","2148686","0.0-229.0-0.0","A2BT7QVGXJKFKI","img_art/27.jpg","2","","","","","","","","","","","","","","","","","","","","","","","","",""
"null","","html-keyboard-response","234","2149700","0.0-230.0","A2BT7QVGXJKFKI","<p style=""font-size: 48px;"">+</p>","","","","","null","allTrialResponses","1000","1","26","img_art/27.jpg","-19","Reminds me of a view from a park in a heavily-polluted city.","Mary,Mackenzie,Lauren,Alyssa,Brianna,Michelle","I like the layer upon layer of different mediums used here.,21,180,20","The color palette isn't my taste,-24,20,20","Not a fan of the green; gives off the impression that someone else drew on it.,-20,340,20","Looks as if a toddler painted it,-20,160,20","This painting is very unique,21,20,20","very abstract, I don't understand it, but I like the bright, cheerful colors,14,280,20","Mackenzie","The color palette isn't my taste,-24,20,20","Mary","I like the layer upon layer of different mediums used here.,21,180,20","Lauren","Not a fan of the green; gives off the impression that someone else drew on it.,-20,340,20","8"
"27017","","survey-text","235","2176722","0.0-231.0-0.0","A2BT7QVGXJKFKI","","","","{""Q0"":""A beach town. The colors make it look stable, peaceful.""}","","","","","","","","","","","","","","","","","","","","","","",""
"3923.099999964237","","image-slider-response","236","2180648","0.0-232.0","A2BT7QVGXJKFKI","","","","","-9","","","","","","","","","","","","","","","","","","","","","",""
"null","","image-button-response","237","2185661","0.0-233.0","A2BT7QVGXJKFKI","img_art/19.jpg","null","","","","","","","","","","","","","","","","","","","","","","","","",""
"2707","","image-button-response","238","2188370","0.0-234.0","A2BT7QVGXJKFKI","img_art/19.jpg","0","","","","","","","","","","","","","","","","","","","","","","","","",""
"1831","","image-button-response","239","2190203","0.0-235.0-0.0","A2BT7QVGXJKFKI","img_art/19.jpg","1","","","","","","","","","","","","","","","","","","","","","","","","",""
"4743","","image-button-response","240","2194948","0.0-236.0-0.0","A2BT7QVGXJKFKI","img_art/19.jpg","4","","","","","","","","","","","","","","","","","","","","","","","","",""
"null","","html-keyboard-response","241","2195962","0.0-237.0","A2BT7QVGXJKFKI","<p style=""font-size: 48px;"">+</p>","","","","","null","allTrialResponses","1000","1","27","img_art/19.jpg","-9","A beach town. The colors make it look stable, peaceful.","Mary,Mackenzie,Lauren,Kimberly,Cheyenne,Sarah","I interpret an outdoor scene. It's good because it makes me want to look longer.,22,180,20","Shapes give it a feeling of being crowded,-18,20,20","The image doesn't really invoke any emotions strongly.,0,340,20","The blue makes it look like it has depth,11,260,20","Solid use of colors but wished it looked more realistic.,12,200,20","too much of a mix of lines and shading,-22,180,20","Mary","I interpret an outdoor scene. It's good because it makes me want to look longer.,22,180,20","Mackenzie","Shapes give it a feeling of being crowded,-18,20,20","Cheyenne","Solid use of colors but wished it looked more realistic.,12,200,20","8"
"18652","","survey-text","242","2214619","0.0-238.0-0.0","A2BT7QVGXJKFKI","","","","{""Q0"":""It's like a crow in fall or at Halloween.""}","","","","","","","","","","","","","","","","","","","","","","",""
"2304.199999988079","","image-slider-response","243","2216926","0.0-239.0","A2BT7QVGXJKFKI","","","","","25","","","","","","","","","","","","","","","","","","","","","",""
"null","","image-button-response","244","2221931","0.0-240.0","A2BT7QVGXJKFKI","img_art/6.jpg","null","","","","","","","","","","","","","","","","","","","","","","","","",""
"3624","","image-button-response","245","2225558","0.0-241.0","A2BT7QVGXJKFKI","img_art/6.jpg","0","","","","","","","","","","","","","","","","","","","","","","","","",""
"1377","","image-button-response","246","2226938","0.0-242.0-0.0","A2BT7QVGXJKFKI","img_art/6.jpg","1","","","","","","","","","","","","","","","","","","","","","","","","",""
"4344","","image-button-response","247","2231284","0.0-243.0-0.0","A2BT7QVGXJKFKI","img_art/6.jpg","2","","","","","","","","","","","","","","","","","","","","","","","","",""
"null","","html-keyboard-response","248","2232798","0.0-244.0","A2BT7QVGXJKFKI","<p style=""font-size: 48px;"">+</p>","","","","","null","allTrialResponses","1500","1","28","img_art/6.jpg","25","It's like a crow in fall or at Halloween.","Mary,Mackenzie,Nicole,Heather,Cheyenne,Maria","This piece has some emotion of isolation. I like it.,6,180,20","I enjoy the color contrast.,20,20,20","The colors and rough brush strokes make me nervous,-10,20,20","it looks like a stick holding a wig on a cliff,21,260,20","Good painting but too simple to care about it for very long.,-15,200,20","intrigues me - not sure what I'm seeing, but I like combination of colour and texture,21,120,20","Mary","This piece has some emotion of isolation. I like it.,6,180,20","Mackenzie","I enjoy the color contrast.,20,20,20","Nicole","The colors and rough brush strokes make me nervous,-10,20,20","8"
"51021","","survey-text","249","2283825","0.0-245.0-0.0","A2BT7QVGXJKFKI","","","","{""Q0"":""I'm not a fan of the muddied colors. The olive green mixed into it all makes it seem dingy and polluted.""}","","","","","","","","","","","","","","","","","","","","","","",""
"3799","","image-slider-response","250","2287627","0.0-246.0","A2BT7QVGXJKFKI","","","","","-18","","","","","","","","","","","","","","","","","","","","","",""
"null","","image-button-response","251","2292638","0.0-247.0","A2BT7QVGXJKFKI","img_art/2.jpg","null","","","","","","","","","","","","","","","","","","","","","","","","",""
"3552","","image-button-response","252","2296192","0.0-248.0","A2BT7QVGXJKFKI","img_art/2.jpg","2","","","","","","","","","","","","","","","","","","","","","","","","",""
"1592","","image-button-response","253","2297787","0.0-249.0-0.0","A2BT7QVGXJKFKI","img_art/2.jpg","1","","","","","","","","","","","","","","","","","","","","","","","","",""
"2695","","image-button-response","254","2300484","0.0-250.0-0.0","A2BT7QVGXJKFKI","img_art/2.jpg","5","","","","","","","","","","","","","","","","","","","","","","","","",""
"null","","html-keyboard-response","255","2301493","0.0-251.0","A2BT7QVGXJKFKI","<p style=""font-size: 48px;"">+</p>","","","","","null","allTrialResponses","1000","1","29","img_art/2.jpg","-18","I'm not a fan of the muddied colors. The olive green mixed into it all makes it seem dingy and polluted.","Mary,Mackenzie,Nicole,Jenna,Emily,Crystal","This looks like a professional abstract drawing. I like the shapes.,7,180,20","Muted green is overpowering,-10,20,20","It's a cool piece but honestly these color choices are the worst thing in the world,-31,20,20","the colors are a bit odd, and the squiggly line at the top is distracting,0,360,20","Random colors and shapes mashed together. Nothing artistic, but better than some of the other ones.,-37,40,20","Looks contrived and like someone tried to hard to make it abstract,-31,300,20","Nicole","It's a cool piece but honestly these color choices are the worst thing in the world,-31,20,20","Mackenzie","Muted green is overpowering,-10,20,20","Crystal","Looks contrived and like someone tried to hard to make it abstract,-31,300,20","8"
"37825","","survey-text","256","2339325","0.0-252.0-0.0","A2BT7QVGXJKFKI","","","","{""Q0"":""I enjoy the colors in this one along with the distribution. The minimal black designs on top are thought-provoking.""}","","","","","","","","","","","","","","","","","","","","","","",""
"3090.400000035763","","image-slider-response","257","2342418","0.0-253.0","A2BT7QVGXJKFKI","","","","","18","","","","","","","","","","","","","","","","","","","","","",""
"null","","image-button-response","258","2347434","0.0-254.0","A2BT7QVGXJKFKI","img_art/1.jpg","null","","","","","","","","","","","","","","","","","","","","","","","","",""
"16356","","image-button-response","259","2363791","0.0-255.0","A2BT7QVGXJKFKI","img_art/1.jpg","0","","","","","","","","","","","","","","","","","","","","","","","","",""
"2444","","image-button-response","260","2366237","0.0-256.0-0.0","A2BT7QVGXJKFKI","img_art/1.jpg","1","","","","","","","","","","","","","","","","","","","","","","","","",""
"988","","image-button-response","261","2367227","0.0-257.0-0.0","A2BT7QVGXJKFKI","img_art/1.jpg","2","","","","","","","","","","","","","","","","","","","","","","","","",""
"null","","html-keyboard-response","262","2368240","0.0-258.0","A2BT7QVGXJKFKI","<p style=""font-size: 48px;"">+</p>","","","","","null","allTrialResponses","1000","1","30","img_art/1.jpg","18","I enjoy the colors in this one along with the distribution. The minimal black designs on top are thought-provoking.","Erin,Mackenzie,Nicole,Miranda,Bailey,Crystal","Love the coloration and abstract figures,18,120,20","I like the simple aspect to the design,21,20,20","I love the colors but it's too intense sometimes,22,20,20","Someone painted a landscape and decided they didn't like it so they covered it up.,13,320,20","A bit of a smokey mess, but it does have an air of mystery I like,7,360,20","Interesting color scheme but to bled to me,11,300,20","Erin","Love the coloration and abstract figures,18,120,20","Mackenzie","I like the simple aspect to the design,21,20,20","Nicole","I love the colors but it's too intense sometimes,22,20,20","8"
"4143","","image-button-response_instructions","263","2372392","0.0-259.0","A2BT7QVGXJKFKI","","0","instructions","","","","","","","","","","","","","","","","","","","","","","","",""
"1765","","image-button-response","264","2374161","0.0-260.0","A2BT7QVGXJKFKI","","0","","","","","","","","","","","","","","","","","","","","","","","","",""
