"rt","url","trial_type","trial_index","time_elapsed","internal_node_id","participant_id","stimulus","button_pressed","Name","responses","response","key_press","variableName","fixationTime","condition","trial","photo","subjectRating","subjectResponse","agentsNames","agent_1_Response","agent_2_Response","agent_3_Response","agent_4_Response","agent_5_Response","agent_6_Response","kept_1_name","kept_1_response","kept_2_name","kept_2_response","kept_3_name","kept_3_response","errorCounter"
"120546","external_page_harvard.html","external-html","0","120754","0.0-0.0","A2CPI18KZN30KW","","","","","","","","","","","","","","","","","","","","","","","","","","",""
"1694","","image-button-response","1","122456","0.0-1.0","A2CPI18KZN30KW","","0","","","","","","","","","","","","","","","","","","","","","","","","",""
"1424","","image-button-response","2","123898","0.0-2.0-0.0","A2CPI18KZN30KW","","1","phone","","","","","","","","","","","","","","","","","","","","","","","",""
"5285","","survey-text","3","129188","0.0-3.0-0.0","A2CPI18KZN30KW","","","","{""Q0"":""A2CPI18KZN30KW""}","","","","","","","","","","","","","","","","","","","","","","",""
"2579","","image-button-response_instructions","4","131772","0.0-4.0","A2CPI18KZN30KW","","0","instructions","","","","","","","","","","","","","","","","","","","","","","","",""
"11056","","image-button-response_instructions","5","142828","0.0-5.0","A2CPI18KZN30KW","img_art/ins/popularity/ins1.png","0","instructions","","","","","","","","","","","","","","","","","","","","","","","",""
"6925","","image-button-response_instructions","6","149755","0.0-6.0","A2CPI18KZN30KW","img_art/ins/popularity/ins2.png","0","instructions","","","","","","","","","","","","","","","","","","","","","","","",""
"2719","","image-button-response_instructions","7","152477","0.0-7.0","A2CPI18KZN30KW","img_art/ins/popularity/ins2Extreme.png","0","instructions","","","","","","","","","","","","","","","","","","","","","","","",""
"2030","","image-button-response_instructions","8","154509","0.0-8.0","A2CPI18KZN30KW","img_art/ins/popularity/ins3KEEPpop.PNG","0","instructions","","","","","","","","","","","","","","","","","","","","","","","",""
"1581","","image-button-response_instructions","9","156094","0.0-9.0","A2CPI18KZN30KW","img_art/ins/popularity/ins3ANamepop.PNG","0","instructions","","","","","","","","","","","","","","","","","","","","","","","",""
"1005","","image-button-response_instructions","10","157101","0.0-10.0","A2CPI18KZN30KW","img_art/ins/popularity/ins3ARatingpop.png","0","instructions","","","","","","","","","","","","","","","","","","","","","","","",""
"927","","image-button-response_instructions","11","158029","0.0-11.0","A2CPI18KZN30KW","img_art/ins/popularity/ins3ATextpop.png","0","instructions","","","","","","","","","","","","","","","","","","","","","","","",""
"943","","image-button-response_instructions","12","158972","0.0-12.0","A2CPI18KZN30KW","img_art/ins/popularity/ins3ALikespop.png","0","instructions","","","","","","","","","","","","","","","","","","","","","","","",""
"944","","image-button-response_instructions","13","159917","0.0-13.0","A2CPI18KZN30KW","img_art/ins/popularity/ins3KEEPpop.PNG","0","instructions","","","","","","","","","","","","","","","","","","","","","","","",""
"958","","image-button-response_instructions","14","160877","0.0-14.0","A2CPI18KZN30KW","img_art/ins/popularity/ins3_5RED.png","0","instructions","","","","","","","","","","","","","","","","","","","","","","","",""
"805","","image-button-response_instructions","15","161685","0.0-15.0","A2CPI18KZN30KW","img_art/ins/popularity/ins3KEEPpop.PNG","0","instructions","","","","","","","","","","","","","","","","","","","","","","","",""
"991","","image-button-response_instructions","16","162678","0.0-16.0","A2CPI18KZN30KW","img_art/ins/popularity/ins4KEEPpop.PNG","0","instructions","","","","","","","","","","","","","","","","","","","","","","","",""
"900","","image-button-response_instructions","17","163581","0.0-17.0","A2CPI18KZN30KW","img_art/ins/popularity/ins5KEEPpop.PNG","0","instructions","","","","","","","","","","","","","","","","","","","","","","","",""
"902","","image-button-response_instructions","18","164484","0.0-18.0","A2CPI18KZN30KW","","0","instructions","","","","","","","","","","","","","","","","","","","","","","","",""
"5414","","survey-text","19","169948","0.0-19.0-0.0","A2CPI18KZN30KW","","","","{""Q0"":""but""}","","","","","","","","","","","","","","","","","","","","","","",""
"3485","","survey-text","20","173437","0.0-20.0-0.0","A2CPI18KZN30KW","","","","{""Q0"":""ok""}","","","","","","","","","","","","","","","","","","","","","","",""
"6695","","survey-text","21","181797","0.0-20.1-0.1","A2CPI18KZN30KW","","","","{""Q0"":""abstract""}","","","","","","","","","","","","","","","","","","","","","","",""
"20725","","image-slider-response","22","202522","0.0-21.0","A2CPI18KZN30KW","","","","","0","","","","","","","","","","","","","","","","","","","","","",""
"null","","image-button-response","23","207535","0.0-22.0","A2CPI18KZN30KW","img_art/ins/1.jpg","null","","","","","","","","","","","","","","","","","","","","","","","","",""
"29425","","image-button-response","24","236965","0.0-23.0","A2CPI18KZN30KW","img_art/ins/1.jpg","3","","","","","","","","","","","","","","","","","","","","","","","","",""
"5321","","image-button-response","25","242296","0.0-24.0-0.0","A2CPI18KZN30KW","img_art/ins/1.jpg","5","","","","","","","","","","","","","","","","","","","","","","","","",""
"1150","","image-button-response","26","243450","0.0-25.0-0.0","A2CPI18KZN30KW","img_art/ins/1.jpg","1","","","","","","","","","","","","","","","","","","","","","","","","",""
"null","","html-keyboard-response","27","244452","0.0-26.0","A2CPI18KZN30KW","<p style=""font-size: 48px;"">+</p>","","","","","null","allTrialResponses","1000","1","-2","img_art/ins/1.jpg","0","abstract","Adam,Alex,Ben,Carl,Daniel,Jack","Seems like doodles,-20,20,20","very creative work.,36,40,20","This color reminds me of poo,-46,60,20","very calming artwork,42,80,20","It looks like a murder scene.,-48,100,20","I like the sophisticated brushwork,40,120,20","Carl","very calming artwork,42,80,20","Jack","I like the sophisticated brushwork,40,120,20","Alex","very creative work.,36,40,20","0"
"7086","","survey-text","28","251548","0.0-27.0-0.0","A2CPI18KZN30KW","","","","{""Q0"":""Good brushwork""}","","","","","","","","","","","","","","","","","","","","","","",""
"6192","","image-slider-response","29","257743","0.0-28.0","A2CPI18KZN30KW","","","","","10","","","","","","","","","","","","","","","","","","","","","",""
"4733","","image-button-response","30","262753","0.0-29.0","A2CPI18KZN30KW","img_art/ins/2.jpg","4","","","","","","","","","","","","","","","","","","","","","","","","",""
"720","","image-button-response","31","263478","0.0-30.0","A2CPI18KZN30KW","img_art/ins/2.jpg","1","","","","","","","","","","","","","","","","","","","","","","","","",""
"1766","","image-button-response","32","265248","0.0-31.0-0.0","A2CPI18KZN30KW","img_art/ins/2.jpg","4","","","","","","","","","","","","","","","","","","","","","","","","",""
"1002","","image-button-response","33","266254","0.0-32.0-0.0","A2CPI18KZN30KW","img_art/ins/2.jpg","5","","","","","","","","","","","","","","","","","","","","","","","","",""
"null","","html-keyboard-response","34","266766","0.0-33.0","A2CPI18KZN30KW","<p style=""font-size: 48px;"">+</p>","","","","","null","allTrialResponses","500","1","-1","img_art/ins/2.jpg","10","Good brushwork","James,Alex,Kyle,Carl,John,Jack","looks too angry,-50,140,20","I like the blocks of color arrangements,30,40,20","Idk, it is just annoying,-32,180,20","I can feel the artist's passion in it,45,80,20","love the texture of paint,48,160,20","I would never be able to compose a sophisticated pallete like this,48,120,20","Alex","I like the blocks of color arrangements,30,40,20","John","love the texture of paint,48,160,20","Jack","I would never be able to compose a sophisticated pallete like this,48,120,20","0"
"8589","","survey-text","35","275357","0.0-34.0-0.0","A2CPI18KZN30KW","","","","{""Q0"":""A simple abstract""}","","","","","","","","","","","","","","","","","","","","","","",""
"4239","","image-slider-response","36","279598","0.0-35.0","A2CPI18KZN30KW","","","","","18","","","","","","","","","","","","","","","","","","","","","",""
"4779","","image-button-response","37","284602","0.0-36.0","A2CPI18KZN30KW","img_art/ins/3.jpg","3","","","","","","","","","","","","","","","","","","","","","","","","",""
"1304","","image-button-response","38","285909","0.0-37.0","A2CPI18KZN30KW","img_art/ins/3.jpg","3","","","","","","","","","","","","","","","","","","","","","","","","",""
"3545","","image-button-response","39","289465","0.0-38.0-0.0","A2CPI18KZN30KW","img_art/ins/3.jpg","1","","","","","","","","","","","","","","","","","","","","","","","","",""
"945","","image-button-response","40","290415","0.0-39.0-0.0","A2CPI18KZN30KW","img_art/ins/3.jpg","0","","","","","","","","","","","","","","","","","","","","","","","","",""
"null","","html-keyboard-response","41","290917","0.0-40.0","A2CPI18KZN30KW","<p style=""font-size: 48px;"">+</p>","","","","","null","allTrialResponses","500","1","0","img_art/ins/3.jpg","18","A simple abstract","Sam,Alex,Ron,Mike,John,Jack","I can feel a rainy day from this painting,18,240,20","calming blue is very nice,36,40,20","It looks depressing,-26,220,20","enjoy the different shades of blue,22,200,20","I like the overlapping of brushes,41,160,20","I feel connected to the artist,40,120,20","Mike","enjoy the different shades of blue,22,200,20","Alex","calming blue is very nice,36,40,20","Sam","I can feel a rainy day from this painting,18,240,20","0"
"5814","","image-button-response_instructions","42","296740","0.0-41.0","A2CPI18KZN30KW","","0","instructions","","","","","","","","","","","","","","","","","","","","","","","",""
"9948","","survey-likert","43","306691","0.0-42.0-0.0","A2CPI18KZN30KW","","","","{""Q0"":"""",""Q1"":0,""Q2"":1}","","","","","","","","","","","","","","","","","","","","","","",""
"4301","","survey-text","44","311021","0.0-43.0-0.0","A2CPI18KZN30KW","","","","{""Q0"":""rock""}","","","","","","","","","","","","","","","","","","","","","","",""
"11229","","survey-text","45","322253","0.0-44.0-0.0","A2CPI18KZN30KW","","","","{""Q0"":""historic""}","","","","","","","","","","","","","","","","","","","","","","",""
"5676","","image-slider-response","46","327934","0.0-45.0","A2CPI18KZN30KW","","","","","10","","","","","","","","","","","","","","","","","","","","","",""
"null","","image-button-response","47","332971","0.0-46.0","A2CPI18KZN30KW","img_art/25.jpg","null","","","","","","","","","","","","","","","","","","","","","","","","",""
"1082","","image-button-response","48","334058","0.0-47.0","A2CPI18KZN30KW","img_art/25.jpg","3","","","","","","","","","","","","","","","","","","","","","","","","",""
"1770","","image-button-response","49","335839","0.0-48.0-0.0","A2CPI18KZN30KW","img_art/25.jpg","4","","","","","","","","","","","","","","","","","","","","","","","","",""
"2268","","image-button-response","50","338111","0.0-49.0-0.0","A2CPI18KZN30KW","img_art/25.jpg","2","","","","","","","","","","","","","","","","","","","","","","","","",""
"null","","html-keyboard-response","51","339620","0.0-50.0","A2CPI18KZN30KW","<p style=""font-size: 48px;"">+</p>","","","","","null","allTrialResponses","1500","1","1","img_art/25.jpg","10","historic","Thomas,Cody,Austin,Steven,Nathaniel,Jeffrey","I like the design but the brightness of the color feels almost blinding to me.,-3,220,20","Like the colors and the figure,30,180,20","Love the color hues and the texture it creates,50,240,20","It's fine, belongs in a church, or somewhere else mystical,15,160,20","I love the background color and it's creepy...but cool.,30,220,20","reminds me of a demon,-25,40,20","Steven","It's fine, belongs in a church, or somewhere else mystical,15,160,20","Nathaniel","I love the background color and it's creepy...but cool.,30,220,20","Austin","Love the color hues and the texture it creates,50,240,20","0"
"9633","","survey-text","52","349277","0.0-51.0-0.0","A2CPI18KZN30KW","","","","{""Q0"":""abstract""}","","","","","","","","","","","","","","","","","","","","","","",""
"3597","","image-slider-response","53","352877","0.0-52.0","A2CPI18KZN30KW","","","","","10","","","","","","","","","","","","","","","","","","","","","",""
"2829","","image-button-response","54","357882","0.0-53.0","A2CPI18KZN30KW","img_art/1.jpg","3","","","","","","","","","","","","","","","","","","","","","","","","",""
"1129","","image-button-response","55","359017","0.0-54.0","A2CPI18KZN30KW","img_art/1.jpg","3","","","","","","","","","","","","","","","","","","","","","","","","",""
"1047","","image-button-response","56","360072","0.0-55.0-0.0","A2CPI18KZN30KW","img_art/1.jpg","4","","","","","","","","","","","","","","","","","","","","","","","","",""
"1252","","image-button-response","57","361327","0.0-56.0-0.0","A2CPI18KZN30KW","img_art/1.jpg","1","","","","","","","","","","","","","","","","","","","","","","","","",""
"null","","html-keyboard-response","58","361831","0.0-57.0","A2CPI18KZN30KW","<p style=""font-size: 48px;"">+</p>","","","","","null","allTrialResponses","500","1","2","img_art/1.jpg","10","abstract","Alex,Charles,Austin,Steven,Nathaniel,William","Random paint does not make art,-5,100,20","It's like being out on a psychedelic lake,32,100,20","Absolutely love this painting,50,240,20","It's fine, but its like something you'd see in the restroom of a cheap restaurant,10,160,20","A bit of a smokey mess, but it does have an air of mystery I like,7,220,20","love how the colors blend,42,380,20","Steven","It's fine, but its like something you'd see in the restroom of a cheap restaurant,10,160,20","Nathaniel","A bit of a smokey mess, but it does have an air of mystery I like,7,220,20","Charles","It's like being out on a psychedelic lake,32,100,20","0"
"12624","","survey-text","59","374478","0.0-58.0-0.0","A2CPI18KZN30KW","","","","{""Q0"":""a child art""}","","","","","","","","","","","","","","","","","","","","","","",""
"6669","","image-slider-response","60","381150","0.0-59.0","A2CPI18KZN30KW","","","","","5","","","","","","","","","","","","","","","","","","","","","",""
"4894","","image-button-response","61","386154","0.0-60.0","A2CPI18KZN30KW","img_art/2.jpg","1","","","","","","","","","","","","","","","","","","","","","","","","",""
"1803","","image-button-response","62","387962","0.0-61.0","A2CPI18KZN30KW","img_art/2.jpg","1","","","","","","","","","","","","","","","","","","","","","","","","",""
"1403","","image-button-response","63","389370","0.0-62.0-0.0","A2CPI18KZN30KW","img_art/2.jpg","0","","","","","","","","","","","","","","","","","","","","","","","","",""
"2050","","image-button-response","64","391425","0.0-63.0-0.0","A2CPI18KZN30KW","img_art/2.jpg","5","","","","","","","","","","","","","","","","","","","","","","","","",""
"null","","html-keyboard-response","65","391928","0.0-64.0","A2CPI18KZN30KW","<p style=""font-size: 48px;"">+</p>","","","","","null","allTrialResponses","500","1","3","img_art/2.jpg","5","a child art","Tyler,Charles,Devin,Steven,Nathaniel,Mason","Grim and overwhelming,-6,320,20","I like the green,13,100,20","I don't really like this style,-5,380,20","I can't get past the fact that it looks like someone wearing a mask,-46,160,20","Too gloopy and unfocused,-38,220,20","retro, amateurish, not a fan of the colors together.,-10,100,20","Charles","I like the green,13,100,20","Tyler","Grim and overwhelming,-6,320,20","Mason","retro, amateurish, not a fan of the colors together.,-10,100,20","0"
"15615","","survey-text","66","407549","0.0-65.0-0.0","A2CPI18KZN30KW","","","","{""Q0"":""beautiful""}","","","","","","","","","","","","","","","","","","","","","","",""
"5003","","image-slider-response","67","412559","0.0-66.0","A2CPI18KZN30KW","","","","","25","","","","","","","","","","","","","","","","","","","","","",""
"3812","","image-button-response","68","417565","0.0-67.0","A2CPI18KZN30KW","img_art/24.jpg","4","","","","","","","","","","","","","","","","","","","","","","","","",""
"567","","image-button-response","69","418139","0.0-68.0","A2CPI18KZN30KW","img_art/24.jpg","3","","","","","","","","","","","","","","","","","","","","","","","","",""
"1513","","image-button-response","70","419657","0.0-69.0-0.0","A2CPI18KZN30KW","img_art/24.jpg","4","","","","","","","","","","","","","","","","","","","","","","","","",""
"555","","image-button-response","71","420219","0.0-70.0-0.0","A2CPI18KZN30KW","img_art/24.jpg","5","","","","","","","","","","","","","","","","","","","","","","","","",""
"null","","html-keyboard-response","72","420721","0.0-71.0","A2CPI18KZN30KW","<p style=""font-size: 48px;"">+</p>","","","","","null","allTrialResponses","500","1","4","img_art/24.jpg","25","beautiful","Tyler,Charles,Corey,Ian,Seth,Mason","Exceedingly garish,-19,320,20","It just feels a little bland for me,-23,100,20","peaceful and serene but Im not the biggest landscape fan,4,260,20","I find the colors work really well. It's very pretty but I have no idea as what it is.,34,260,20","This is stunning. I love how the brown, red and oranges are blended in together.,40,60,20","Nature, abstract, I'd hang this in my house.,37,100,20","Ian","I find the colors work really well. It's very pretty but I have no idea as what it is.,34,260,20","Seth","This is stunning. I love how the brown, red and oranges are blended in together.,40,60,20","Mason","Nature, abstract, I'd hang this in my house.,37,100,20","0"
"4813","","survey-text","73","425535","0.0-72.0-0.0","A2CPI18KZN30KW","","","","{""Q0"":""simple""}","","","","","","","","","","","","","","","","","","","","","","",""
"3994","","image-slider-response","74","429534","0.0-73.0","A2CPI18KZN30KW","","","","","0","","","","","","","","","","","","","","","","","","","","","",""
"3302","","image-button-response","75","434539","0.0-74.0","A2CPI18KZN30KW","img_art/6.jpg","1","","","","","","","","","","","","","","","","","","","","","","","","",""
"4368","","image-button-response","76","438913","0.0-75.0","A2CPI18KZN30KW","img_art/6.jpg","1","","","","","","","","","","","","","","","","","","","","","","","","",""
"1183","","image-button-response","77","440099","0.0-76.0-0.0","A2CPI18KZN30KW","img_art/6.jpg","4","","","","","","","","","","","","","","","","","","","","","","","","",""
"1024","","image-button-response","78","441126","0.0-77.0-0.0","A2CPI18KZN30KW","img_art/6.jpg","0","","","","","","","","","","","","","","","","","","","","","","","","",""
"null","","html-keyboard-response","79","441632","0.0-78.0","A2CPI18KZN30KW","<p style=""font-size: 48px;"">+</p>","","","","","null","allTrialResponses","500","1","5","img_art/6.jpg","0","simple","Dustin,Travis,Michael,Ian,Seth,Mason","I like the warmth of the orange. But, I feel like it's a partial view. I'm frustrated I can't see the entirety.,-20,20,20","No feeling...just left me feeling kind of blah,1,260,20","Looks like a kid created it.,-50,140,20","It's slightly unnerving to look at, it looks a little creepy/eerie,-16,260,20","I love it. It reminds me of a bird sitting on a wall.,26,60,20","kids book cover, uninteresting.,-10,100,20","Travis","No feeling...just left me feeling kind of blah,1,260,20","Seth","I love it. It reminds me of a bird sitting on a wall.,26,60,20","Dustin","I like the warmth of the orange. But, I feel like it's a partial view. I'm frustrated I can't see the entirety.,-20,20,20","0"
"3103","","survey-text","80","444749","0.0-79.0-0.0","A2CPI18KZN30KW","","","","{""Q0"":""sky""}","","","","","","","","","","","","","","","","","","","","","","",""
"6177","","survey-text","81","450927","0.0-80.0-0.0","A2CPI18KZN30KW","","","","{""Q0"":""loneliness""}","","","","","","","","","","","","","","","","","","","","","","",""
"6285","","image-slider-response","82","457215","0.0-81.0","A2CPI18KZN30KW","","","","","20","","","","","","","","","","","","","","","","","","","","","",""
"null","","image-button-response","83","462221","0.0-82.0","A2CPI18KZN30KW","img_art/29.jpg","null","","","","","","","","","","","","","","","","","","","","","","","","",""
"1031","","image-button-response","84","463258","0.0-83.0","A2CPI18KZN30KW","img_art/29.jpg","2","","","","","","","","","","","","","","","","","","","","","","","","",""
"1200","","image-button-response","85","464462","0.0-84.0-0.0","A2CPI18KZN30KW","img_art/29.jpg","1","","","","","","","","","","","","","","","","","","","","","","","","",""
"1441","","image-button-response","86","465905","0.0-85.0-0.0","A2CPI18KZN30KW","img_art/29.jpg","4","","","","","","","","","","","","","","","","","","","","","","","","",""
"null","","html-keyboard-response","87","467406","0.0-86.0","A2CPI18KZN30KW","<p style=""font-size: 48px;"">+</p>","","","","","null","allTrialResponses","1500","1","6","img_art/29.jpg","20","loneliness","Dustin,Travis,Carlos,Noah,Seth,Isaiah","Don't get it! Too dark and random. Perhaps it was the start of something but the artist stopped and cancelled out the work.,-50,20,20","Neural...just a blackboard jungle.,3,260,20","It feels like looking through layers of frustration.,19,80,20","the mixed medium / collage annoys me,-19,260,20","I rated it lower because it looked like a crime scene. It didn't make me feel good.,-44,60,20","I feel a little disgust. There is something off-putting about the smooth shapes and dark colors.,-43,300,20","Carlos","It feels like looking through layers of frustration.,19,80,20","Travis","Neural...just a blackboard jungle.,3,260,20","Seth","I rated it lower because it looked like a crime scene. It didn't make me feel good.,-44,60,20","0"
"10297","","survey-text","88","477712","0.0-87.0-0.0","A2CPI18KZN30KW","","","","{""Q0"":""water it is""}","","","","","","","","","","","","","","","","","","","","","","",""
"3965","","image-slider-response","89","481680","0.0-88.0","A2CPI18KZN30KW","","","","","25","","","","","","","","","","","","","","","","","","","","","",""
"4278","","image-button-response","90","486684","0.0-89.0","A2CPI18KZN30KW","img_art/13.jpg","1","","","","","","","","","","","","","","","","","","","","","","","","",""
"1955","","image-button-response","91","488642","0.0-90.0","A2CPI18KZN30KW","img_art/13.jpg","5","","","","","","","","","","","","","","","","","","","","","","","","",""
"819","","image-button-response","92","489463","0.0-91.0-0.0","A2CPI18KZN30KW","img_art/13.jpg","3","","","","","","","","","","","","","","","","","","","","","","","","",""
"1137","","image-button-response","93","490600","0.0-92.0-0.0","A2CPI18KZN30KW","img_art/13.jpg","1","","","","","","","","","","","","","","","","","","","","","","","","",""
"null","","html-keyboard-response","94","491601","0.0-93.0","A2CPI18KZN30KW","<p style=""font-size: 48px;"">+</p>","","","","","null","allTrialResponses","1000","1","7","img_art/13.jpg","25","water it is","Jorge,Travis,Carlos,Juan,Seth,Blake","It reminds me of rain,11,180,20","I love the colors and the texture,37,260,20","Rain on a cold window.,22,80,20","I love the colors and the contrast between the different blues.,21,260,20","I really loved the color contrast. Having the white stripe in the center makes the it appear 3D.,11,60,20","warm splash of salt water from ocean,16,280,20","Blake","warm splash of salt water from ocean,16,280,20","Juan","I love the colors and the contrast between the different blues.,21,260,20","Travis","I love the colors and the texture,37,260,20","0"
"19673","","survey-text","95","511280","0.0-94.0-0.0","A2CPI18KZN30KW","","","","{""Q0"":""a town sp,ewjer""}","","","","","","","","","","","","","","","","","","","","","","",""
"8653","","image-slider-response","96","519936","0.0-95.0","A2CPI18KZN30KW","","","","","8","","","","","","","","","","","","","","","","","","","","","",""
"null","","image-button-response","97","524940","0.0-96.0","A2CPI18KZN30KW","img_art/19.jpg","null","","","","","","","","","","","","","","","","","","","","","","","","",""
"98","","image-button-response","98","525043","0.0-97.0","A2CPI18KZN30KW","img_art/19.jpg","5","","","","","","","","","","","","","","","","","","","","","","","","",""
"1212","","image-button-response","99","526261","0.0-98.0-0.0","A2CPI18KZN30KW","img_art/19.jpg","4","","","","","","","","","","","","","","","","","","","","","","","","",""
"1159","","image-button-response","100","527426","0.0-99.0-0.0","A2CPI18KZN30KW","img_art/19.jpg","1","","","","","","","","","","","","","","","","","","","","","","","","",""
"null","","html-keyboard-response","101","528427","0.0-100.0","A2CPI18KZN30KW","<p style=""font-size: 48px;"">+</p>","","","","","null","allTrialResponses","1000","1","8","img_art/19.jpg","8","a town sp,ewjer","Kyle,Travis,Jesse,Juan,Caleb,Blake","Just stirred a negative reaction. Don't really like it perhaps because of the structure?,-8,340,20","Nuetral...can't think of anything to say,4,260,20","I dont like the smudge effect,-7,80,20","Again, this is too abstract.,-10,260,20","Watercolor abstract? Strange.,1,40,20","an old cityfrom many years ago. its ok,6,280,20","Blake","an old cityfrom many years ago. its ok,6,280,20","Caleb","Watercolor abstract? Strange.,1,40,20","Travis","Nuetral...can't think of anything to say,4,260,20","0"
"10078","","survey-text","102","538512","0.0-101.0-0.0","A2CPI18KZN30KW","","","","{""Q0"":""A garden""}","","","","","","","","","","","","","","","","","","","","","","",""
"2237","","image-slider-response","103","540752","0.0-102.0","A2CPI18KZN30KW","","","","","0","","","","","","","","","","","","","","","","","","","","","",""
"null","","image-button-response","104","545757","0.0-103.0","A2CPI18KZN30KW","img_art/15.jpg","null","","","","","","","","","","","","","","","","","","","","","","","","",""
"360","","image-button-response","105","546121","0.0-104.0","A2CPI18KZN30KW","img_art/15.jpg","3","","","","","","","","","","","","","","","","","","","","","","","","",""
"2430","","image-button-response","106","548555","0.0-105.0-0.0","A2CPI18KZN30KW","img_art/15.jpg","2","","","","","","","","","","","","","","","","","","","","","","","","",""
"899","","image-button-response","107","549459","0.0-106.0-0.0","A2CPI18KZN30KW","img_art/15.jpg","5","","","","","","","","","","","","","","","","","","","","","","","","",""
"null","","html-keyboard-response","108","550462","0.0-107.0","A2CPI18KZN30KW","<p style=""font-size: 48px;"">+</p>","","","","","null","allTrialResponses","1000","1","9","img_art/15.jpg","0","A garden","Ethan,Travis,Alexis,Cameron,Caleb,Blake","This piece gave me no emotion. It's ugly to me.,-38,120,20","Hate it...black dots.,-47,260,20","it is dark and gloomy,-9,140,20","This one reminds me of a postage stamp, but branches and leaves. Kind of fun.,15,60,20","Love the accent colors in this piece!,20,40,20","ugly picture and don't like it,-22,280,20","Cameron","This one reminds me of a postage stamp, but branches and leaves. Kind of fun.,15,60,20","Alexis","it is dark and gloomy,-9,140,20","Blake","ugly picture and don't like it,-22,280,20","0"
"12779","","survey-text","109","563248","0.0-108.0-0.0","A2CPI18KZN30KW","","","","{""Q0"":""what is this""}","","","","","","","","","","","","","","","","","","","","","","",""
"3469","","image-slider-response","110","566721","0.0-109.0","A2CPI18KZN30KW","","","","","0","","","","","","","","","","","","","","","","","","","","","",""
"null","","image-button-response","111","571725","0.0-110.0","A2CPI18KZN30KW","img_art/30.jpg","null","","","","","","","","","","","","","","","","","","","","","","","","",""
"2417","","image-button-response","112","574146","0.0-111.0","A2CPI18KZN30KW","img_art/30.jpg","0","","","","","","","","","","","","","","","","","","","","","","","","",""
"1871","","image-button-response","113","576022","0.0-112.0-0.0","A2CPI18KZN30KW","img_art/30.jpg","0","","","","","","","","","","","","","","","","","","","","","","","","",""
"1451","","image-button-response","114","582458","0.0-112.1-0.1","A2CPI18KZN30KW","img_art/30.jpg","1","","","","","","","","","","","","","","","","","","","","","","","","",""
"950","","image-button-response","115","583408","0.0-113.0-0.0","A2CPI18KZN30KW","img_art/30.jpg","5","","","","","","","","","","","","","","","","","","","","","","","","",""
"null","","html-keyboard-response","116","584408","0.0-114.0","A2CPI18KZN30KW","<p style=""font-size: 48px;"">+</p>","","","","","null","allTrialResponses","1000","1","10","img_art/30.jpg","0","what is this","Brandon,Cole,Alexis,Cameron,Benjamin,Blake","Too abstract, looks like something I could paint,-50,320,20","Its ugly. Too simple,-23,200,20","I like the strong lines or brush strokes. It looks modern and bold,21,140,20","Like the color and style,31,60,20","fresh and bold. outgoing.,15,260,20","snakes in the grass, I don't like it,-17,280,20","Brandon","Too abstract, looks like something I could paint,-50,320,20","Cole","Its ugly. Too simple,-23,200,20","Blake","snakes in the grass, I don't like it,-17,280,20","2"
"3912","","survey-text","117","588337","0.0-115.0-0.0","A2CPI18KZN30KW","","","","{""Q0"":""our""}","","","","","","","","","","","","","","","","","","","","","","",""
"6300","","survey-text","118","594639","0.0-116.0-0.0","A2CPI18KZN30KW","","","","{""Q0"":""A street""}","","","","","","","","","","","","","","","","","","","","","","",""
"2232","","image-slider-response","119","596880","0.0-117.0","A2CPI18KZN30KW","","","","","0","","","","","","","","","","","","","","","","","","","","","",""
"4934","","image-button-response","120","601885","0.0-118.0","A2CPI18KZN30KW","img_art/26.jpg","1","","","","","","","","","","","","","","","","","","","","","","","","",""
"2834","","image-button-response","121","604723","0.0-119.0","A2CPI18KZN30KW","img_art/26.jpg","1","","","","","","","","","","","","","","","","","","","","","","","","",""
"1125","","image-button-response","122","605851","0.0-120.0-0.0","A2CPI18KZN30KW","img_art/26.jpg","5","","","","","","","","","","","","","","","","","","","","","","","","",""
"3492","","image-button-response","123","609347","0.0-121.0-0.0","A2CPI18KZN30KW","img_art/26.jpg","3","","","","","","","","","","","","","","","","","","","","","","","","",""
"null","","html-keyboard-response","124","610351","0.0-122.0","A2CPI18KZN30KW","<p style=""font-size: 48px;"">+</p>","","","","","null","allTrialResponses","1000","1","11","img_art/26.jpg","0","A street","Brandon,Cole,Jack,Joseph,Matthew,Blake","Much too simple and without color for my taste,-33,320,20","Another blob on a landscape. A city street?,9,200,20","soft colors & brush work. very easy to look at. makes me happy.,50,320,20","Looks like the suburbs. I live in those.,13,220,20","Telented watercolor artist or second grader.,18,120,20","bedroom in the outdoors. warm,9,280,20","Cole","Another blob on a landscape. A city street?,9,200,20","Blake","bedroom in the outdoors. warm,9,280,20","Joseph","Looks like the suburbs. I live in those.,13,220,20","2"
"137695","","survey-text","125","748051","0.0-123.0-0.0","A2CPI18KZN30KW","","","","{""Q0"":""Just wow""}","","","","","","","","","","","","","","","","","","","","","","",""
"5629","","image-slider-response","126","753684","0.0-124.0","A2CPI18KZN30KW","","","","","30","","","","","","","","","","","","","","","","","","","","","",""
"3340","","image-button-response","127","758687","0.0-125.0","A2CPI18KZN30KW","img_art/12.jpg","4","","","","","","","","","","","","","","","","","","","","","","","","",""
"272","","image-button-response","128","758965","0.0-126.0","A2CPI18KZN30KW","img_art/12.jpg","3","","","","","","","","","","","","","","","","","","","","","","","","",""
"1125","","image-button-response","129","760095","0.0-127.0-0.0","A2CPI18KZN30KW","img_art/12.jpg","4","","","","","","","","","","","","","","","","","","","","","","","","",""
"1292","","image-button-response","130","761391","0.0-128.0-0.0","A2CPI18KZN30KW","img_art/12.jpg","1","","","","","","","","","","","","","","","","","","","","","","","","",""
"null","","html-keyboard-response","131","762894","0.0-129.0","A2CPI18KZN30KW","<p style=""font-size: 48px;"">+</p>","","","","","null","allTrialResponses","1500","1","12","img_art/12.jpg","30","Just wow","Kevin,Cole,Adrian,Joseph,Brett,Blake","That is a warn quilt grama made.,11,320,20","Interesting colors. I really dont like modern art though,24,200,20","Ugly colors and I'm just not too much a fan of cubist abstract art.,-50,60,20","Yay! Lots of people, lots of lives.,25,220,20","Night and day, light and dark,35,360,20","negative feelings with these blocks,-20,280,20","Joseph","Yay! Lots of people, lots of lives.,25,220,20","Brett","Night and day, light and dark,35,360,20","Cole","Interesting colors. I really dont like modern art though,24,200,20","2"
"10829","","survey-text","132","773730","0.0-130.0-0.0","A2CPI18KZN30KW","","","","{""Q0"":""Simple""}","","","","","","","","","","","","","","","","","","","","","","",""
"2095","","image-slider-response","133","775826","0.0-131.0","A2CPI18KZN30KW","","","","","0","","","","","","","","","","","","","","","","","","","","","",""
"4141","","image-button-response","134","780832","0.0-132.0","A2CPI18KZN30KW","img_art/21.jpg","4","","","","","","","","","","","","","","","","","","","","","","","","",""
"1962","","image-button-response","135","782797","0.0-133.0","A2CPI18KZN30KW","img_art/21.jpg","4","","","","","","","","","","","","","","","","","","","","","","","","",""
"895","","image-button-response","136","783694","0.0-134.0-0.0","A2CPI18KZN30KW","img_art/21.jpg","1","","","","","","","","","","","","","","","","","","","","","","","","",""
"417","","image-button-response","137","784116","0.0-135.0-0.0","A2CPI18KZN30KW","img_art/21.jpg","0","","","","","","","","","","","","","","","","","","","","","","","","",""
"null","","html-keyboard-response","138","785619","0.0-136.0","A2CPI18KZN30KW","<p style=""font-size: 48px;"">+</p>","","","","","null","allTrialResponses","1500","1","13","img_art/21.jpg","0","Simple","Elijah,Cole,Jake,Joseph,Brett,Colton","Can't understand what it is,-27,80,20","Unfinished. Confusing to look at,-12,200,20","It looks epic and is nice to look at in terms of colors/style.,23,360,20","I like that it reminds me of an abstract version of a Bob Ross painting.,36,220,20","Makes me think of a battleship targeting a beautiful mountainside,0,360,20","i enjoy the clash of colors, reminds me of a storm at sea,32,220,20","Brett","Makes me think of a battleship targeting a beautiful mountainside,0,360,20","Cole","Unfinished. Confusing to look at,-12,200,20","Elijah","Can't understand what it is,-27,80,20","2"
"18040","","survey-text","139","803667","0.0-137.0-0.0","A2CPI18KZN30KW","","","","{""Q0"":""confused""}","","","","","","","","","","","","","","","","","","","","","","",""
"3437","","image-slider-response","140","807107","0.0-138.0","A2CPI18KZN30KW","","","","","0","","","","","","","","","","","","","","","","","","","","","",""
"4540","","image-button-response","141","812112","0.0-139.0","A2CPI18KZN30KW","img_art/28.jpg","2","","","","","","","","","","","","","","","","","","","","","","","","",""
"962","","image-button-response","142","813075","0.0-140.0","A2CPI18KZN30KW","img_art/28.jpg","2","","","","","","","","","","","","","","","","","","","","","","","","",""
"759","","image-button-response","143","813838","0.0-141.0-0.0","A2CPI18KZN30KW","img_art/28.jpg","3","","","","","","","","","","","","","","","","","","","","","","","","",""
"1307","","image-button-response","144","815149","0.0-142.0-0.0","A2CPI18KZN30KW","img_art/28.jpg","0","","","","","","","","","","","","","","","","","","","","","","","","",""
"null","","html-keyboard-response","145","816650","0.0-143.0","A2CPI18KZN30KW","<p style=""font-size: 48px;"">+</p>","","","","","null","allTrialResponses","1500","1","14","img_art/28.jpg","0","confused","Elijah,Cole,Richard,Connor,Brett,Eric","The colors are depressing,-5,80,20","Is this anything?,-20,200,20","bland coloring but pattern interesting,2,340,20","Dislike color palette and amoeba,-9,240,20","Overpopulated city,35,360,20","I enjoy the colors.,25,100,20","Richard","bland coloring but pattern interesting,2,340,20","Connor","Dislike color palette and amoeba,-9,240,20","Elijah","The colors are depressing,-5,80,20","2"
"8482","","survey-text","146","825138","0.0-144.0-0.0","A2CPI18KZN30KW","","","","{""Q0"":""confused""}","","","","","","","","","","","","","","","","","","","","","","",""
"2220","","image-slider-response","147","827364","0.0-145.0","A2CPI18KZN30KW","","","","","0","","","","","","","","","","","","","","","","","","","","","",""
"3885","","image-button-response","148","832368","0.0-146.0","A2CPI18KZN30KW","img_art/20.jpg","3","","","","","","","","","","","","","","","","","","","","","","","","",""
"801","","image-button-response","149","833173","0.0-147.0","A2CPI18KZN30KW","img_art/20.jpg","3","","","","","","","","","","","","","","","","","","","","","","","","",""
"2045","","image-button-response","150","835222","0.0-148.0-0.0","A2CPI18KZN30KW","img_art/20.jpg","1","","","","","","","","","","","","","","","","","","","","","","","","",""
"929","","image-button-response","151","836159","0.0-149.0-0.0","A2CPI18KZN30KW","img_art/20.jpg","5","","","","","","","","","","","","","","","","","","","","","","","","",""
"null","","html-keyboard-response","152","836661","0.0-150.0","A2CPI18KZN30KW","<p style=""font-size: 48px;"">+</p>","","","","","null","allTrialResponses","500","1","15","img_art/20.jpg","0","confused","Elijah,Nathan,Richard,Connor,Gregory,Jeremy","Makes me feel impressed,9,80,20","Don't really like the subject it focuses on, however the color usage is great,-10,200,20","The white blob on the left seems out of place,-34,340,20","Dark frame overpowers the image,-6,240,20","Looks like some type of future dystopian civilization,35,220,20","scared. makes me feel alone or abandoned,-11,60,20","Connor","Dark frame overpowers the image,-6,240,20","Nathan","Don't really like the subject it focuses on, however the color usage is great,-10,200,20","Jeremy","scared. makes me feel alone or abandoned,-11,60,20","2"
"3428","","survey-text","153","840099","0.0-151.0-0.0","A2CPI18KZN30KW","","","","{""Q0"":""course""}","","","","","","","","","","","","","","","","","","","","","","",""
"9839","","survey-text","154","849939","0.0-152.0-0.0","A2CPI18KZN30KW","","","","{""Q0"":""scribbles""}","","","","","","","","","","","","","","","","","","","","","","",""
"5646","","image-slider-response","155","855589","0.0-153.0","A2CPI18KZN30KW","","","","","-25","","","","","","","","","","","","","","","","","","","","","",""
"null","","image-button-response","156","860594","0.0-154.0","A2CPI18KZN30KW","img_art/3.jpg","null","","","","","","","","","","","","","","","","","","","","","","","","",""
"1655","","image-button-response","157","862251","0.0-155.0","A2CPI18KZN30KW","img_art/3.jpg","2","","","","","","","","","","","","","","","","","","","","","","","","",""
"2441","","image-button-response","158","864694","0.0-156.0-0.0","A2CPI18KZN30KW","img_art/3.jpg","0","","","","","","","","","","","","","","","","","","","","","","","","",""
"2002","","image-button-response","159","866703","0.0-157.0-0.0","A2CPI18KZN30KW","img_art/3.jpg","1","","","","","","","","","","","","","","","","","","","","","","","","",""
"null","","html-keyboard-response","160","867203","0.0-158.0","A2CPI18KZN30KW","<p style=""font-size: 48px;"">+</p>","","","","","null","allTrialResponses","500","1","16","img_art/3.jpg","-25","scribbles","Timothy,Nathan,Evan,Connor,Kenneth,Jeremy","This makes me feel a bit disturbed,-35,240,20","Looks like it was painted with blood, which I'm aware is an art style, but it just looks messy.,-20,200,20","It feels like a half assed and failed imitation of Japanese signatures on old paintings,-22,140,20","Shapes are interesting but color is overwhelming,5,240,20","Reminds me of blood.,-28,300,20","seems too angry,-50,60,20","Evan","It feels like a half assed and failed imitation of Japanese signatures on old paintings,-22,140,20","Timothy","This makes me feel a bit disturbed,-35,240,20","Nathan","Looks like it was painted with blood, which I'm aware is an art style, but it just looks messy.,-20,200,20","2"
"6152","","survey-text","161","873364","0.0-159.0-0.0","A2CPI18KZN30KW","","","","{""Q0"":""anime kind""}","","","","","","","","","","","","","","","","","","","","","","",""
"2236","","image-slider-response","162","875602","0.0-160.0","A2CPI18KZN30KW","","","","","0","","","","","","","","","","","","","","","","","","","","","",""
"4530","","image-button-response","163","880603","0.0-161.0","A2CPI18KZN30KW","img_art/5.jpg","4","","","","","","","","","","","","","","","","","","","","","","","","",""
"1091","","image-button-response","164","881714","0.0-162.0","A2CPI18KZN30KW","img_art/5.jpg","4","","","","","","","","","","","","","","","","","","","","","","","","",""
"4560","","image-button-response","165","886277","0.0-163.0-0.0","A2CPI18KZN30KW","img_art/5.jpg","2","","","","","","","","","","","","","","","","","","","","","","","","",""
"1470","","image-button-response","166","887753","0.0-164.0-0.0","A2CPI18KZN30KW","img_art/5.jpg","1","","","","","","","","","","","","","","","","","","","","","","","","",""
"null","","html-keyboard-response","167","888759","0.0-165.0","A2CPI18KZN30KW","<p style=""font-size: 48px;"">+</p>","","","","","null","allTrialResponses","1000","1","17","img_art/5.jpg","0","anime kind","Timothy,Nathan,Evan,Dakota,Jose,Isaac","This feels joyful,39,240,20","Not a fan of the themes,-30,200,20","I am confused as to what I am seeing is it a handbag, duck foot, bell?,-18,140,20","fresh and fun - bright and active,16,280,20","Don't love don't hate,8,200,20","I'm not sure what is going on here.,-46,280,20","Jose","Don't love don't hate,8,200,20","Evan","I am confused as to what I am seeing is it a handbag, duck foot, bell?,-18,140,20","Nathan","Not a fan of the themes,-30,200,20","2"
"5267","","survey-text","168","894036","0.0-166.0-0.0","A2CPI18KZN30KW","","","","{""Q0"":""a dry land""}","","","","","","","","","","","","","","","","","","","","","","",""
"5517","","image-slider-response","169","899556","0.0-167.0","A2CPI18KZN30KW","","","","","10","","","","","","","","","","","","","","","","","","","","","",""
"4790","","image-button-response","170","904560","0.0-168.0","A2CPI18KZN30KW","img_art/7.jpg","0","","","","","","","","","","","","","","","","","","","","","","","","",""
"156","","image-button-response","171","904716","0.0-169.0","A2CPI18KZN30KW","img_art/7.jpg","0","","","","","","","","","","","","","","","","","","","","","","","","",""
"408","","image-button-response","172","905126","0.0-170.0-0.0","A2CPI18KZN30KW","img_art/7.jpg","0","","","","","","","","","","","","","","","","","","","","","","","","",""
"304","","image-button-response","173","908333","0.0-170.1-0.1","A2CPI18KZN30KW","img_art/7.jpg","3","","","","","","","","","","","","","","","","","","","","","","","","",""
"655","","image-button-response","174","908992","0.0-171.0-0.0","A2CPI18KZN30KW","img_art/7.jpg","5","","","","","","","","","","","","","","","","","","","","","","","","",""
"null","","html-keyboard-response","175","909494","0.0-172.0","A2CPI18KZN30KW","<p style=""font-size: 48px;"">+</p>","","","","","null","allTrialResponses","500","1","18","img_art/7.jpg","10","a dry land","Zachary,Nathan,Evan,Stephen,Jose,Shane","Looks like a desert or another planet. While the color choices are narrow, it's still interesting because it is very natural.,12,400,20","I don't like this kind of color scheme or look they went for,-50,200,20","I feel confused, am I looking at a painting or a close up picture of some sort of fly stone?,-19,140,20","Nice realistic feel but nothing stands out.,4,140,20","Reminds me of bugs, I hate bugs,-7,200,20","Dessert like almost like dry land,4,80,20","Zachary","Looks like a desert or another planet. While the color choices are narrow, it's still interesting because it is very natural.,12,400,20","Stephen","Nice realistic feel but nothing stands out.,4,140,20","Shane","Dessert like almost like dry land,4,80,20","4"
"7208","","survey-text","176","916709","0.0-173.0-0.0","A2CPI18KZN30KW","","","","{""Q0"":""So many folding""}","","","","","","","","","","","","","","","","","","","","","","",""
"5532","","image-slider-response","177","922244","0.0-174.0","A2CPI18KZN30KW","","","","","33","","","","","","","","","","","","","","","","","","","","","",""
"null","","image-button-response","178","927253","0.0-175.0","A2CPI18KZN30KW","img_art/8.jpg","null","","","","","","","","","","","","","","","","","","","","","","","","",""
"62","","image-button-response","179","927318","0.0-176.0","A2CPI18KZN30KW","img_art/8.jpg","2","","","","","","","","","","","","","","","","","","","","","","","","",""
"1708","","image-button-response","180","929032","0.0-177.0-0.0","A2CPI18KZN30KW","img_art/8.jpg","0","","","","","","","","","","","","","","","","","","","","","","","","",""
"898","","image-button-response","181","929936","0.0-178.0-0.0","A2CPI18KZN30KW","img_art/8.jpg","5","","","","","","","","","","","","","","","","","","","","","","","","",""
"null","","html-keyboard-response","182","930938","0.0-179.0","A2CPI18KZN30KW","<p style=""font-size: 48px;"">+</p>","","","","","null","allTrialResponses","1000","1","19","img_art/8.jpg","33","So many folding","Zachary,Gabriel,Derek,Stephen,Robert,Shane","I like all of the faces that can be found in this piece. Interesting.,35,400,20","i like all the different faces,19,160,20","It's simply gorgeous. This artist is very talented,50,360,20","Has nice depth to it.,12,140,20","I like the colors and geometrical shapes but the face in the sky makes it look scary,-10,360,20","Ancient city looked after by diety,38,80,20","Derek","It's simply gorgeous. This artist is very talented,50,360,20","Zachary","I like all of the faces that can be found in this piece. Interesting.,35,400,20","Shane","Ancient city looked after by diety,38,80,20","4"
"11426","","survey-text","183","942373","0.0-180.0-0.0","A2CPI18KZN30KW","","","","{""Q0"":""Forest""}","","","","","","","","","","","","","","","","","","","","","","",""
"6558","","image-slider-response","184","948936","0.0-181.0","A2CPI18KZN30KW","","","","","10","","","","","","","","","","","","","","","","","","","","","",""
"null","","image-button-response","185","954270","0.0-182.0","A2CPI18KZN30KW","img_art/17.jpg","null","","","","","","","","","","","","","","","","","","","","","","","","",""
"4677","","image-button-response","186","958952","0.0-183.0","A2CPI18KZN30KW","img_art/17.jpg","4","","","","","","","","","","","","","","","","","","","","","","","","",""
"770","","image-button-response","187","959728","0.0-184.0-0.0","A2CPI18KZN30KW","img_art/17.jpg","3","","","","","","","","","","","","","","","","","","","","","","","","",""
"1050","","image-button-response","188","960783","0.0-185.0-0.0","A2CPI18KZN30KW","img_art/17.jpg","1","","","","","","","","","","","","","","","","","","","","","","","","",""
"null","","html-keyboard-response","189","962286","0.0-186.0","A2CPI18KZN30KW","<p style=""font-size: 48px;"">+</p>","","","","","null","allTrialResponses","1500","1","20","img_art/17.jpg","10","Forest","Zachary,Logan,Derek,Bradley,Chase,Shane","Reminds me of a beautiful tree growing in a courtyard. I like the light and airy technique used.,34,400,20","similar to last one, still pretty cool but I liked arrangement of last one better,13,360,20","The colors are beautiful and the painting itself is magnificent,50,360,20","It kind of pulls you in to float away with it.,9,300,20","It's okay, I just don't see much too it.,7,120,20","Pleasant fall to winter day,22,80,20","Chase","It's okay, I just don't see much too it.,7,120,20","Bradley","It kind of pulls you in to float away with it.,9,300,20","Logan","similar to last one, still pretty cool but I liked arrangement of last one better,13,360,20","4"
"4165","","survey-text","190","966469","0.0-187.0-0.0","A2CPI18KZN30KW","","","","{""Q0"":""we""}","","","","","","","","","","","","","","","","","","","","","","",""
"8844","","survey-text","191","975316","0.0-188.0-0.0","A2CPI18KZN30KW","","","","{""Q0"":""concept""}","","","","","","","","","","","","","","","","","","","","","","",""
"3517","","image-slider-response","192","978837","0.0-189.0","A2CPI18KZN30KW","","","","","4","","","","","","","","","","","","","","","","","","","","","",""
"4493","","image-button-response","193","983841","0.0-190.0","A2CPI18KZN30KW","img_art/10.jpg","3","","","","","","","","","","","","","","","","","","","","","","","","",""
"2614","","image-button-response","194","986459","0.0-191.0","A2CPI18KZN30KW","img_art/10.jpg","3","","","","","","","","","","","","","","","","","","","","","","","","",""
"1407","","image-button-response","195","987872","0.0-192.0-0.0","A2CPI18KZN30KW","img_art/10.jpg","5","","","","","","","","","","","","","","","","","","","","","","","","",""
"1643","","image-button-response","196","989520","0.0-193.0-0.0","A2CPI18KZN30KW","img_art/10.jpg","2","","","","","","","","","","","","","","","","","","","","","","","","",""
"null","","html-keyboard-response","197","990021","0.0-194.0","A2CPI18KZN30KW","<p style=""font-size: 48px;"">+</p>","","","","","null","allTrialResponses","500","1","21","img_art/10.jpg","4","concept","Hunter,Logan,Scott,Bradley,Chase,Peter","shapes are appealing/relationship between the beige square and the black lines,24,240,20","The more I look the more I like. Reminds me of a rollercoaster and a war scene. A lot going on which is unnerving, like a rollercoaster but still fun,22,360,20","kind of reminds me of a map,1,20,20","This piece is very intriguing to me.,3,300,20","Seems more harmonic with the strokes and colors.,31,120,20","I don't hate but don't like it because it looks like a oil slick,2,320,20","Bradley","This piece is very intriguing to me.,3,300,20","Peter","I don't hate but don't like it because it looks like a oil slick,2,320,20","Scott","kind of reminds me of a map,1,20,20","4"
"22359","","survey-text","198","1012389","0.0-195.0-0.0","A2CPI18KZN30KW","","","","{""Q0"":""a tree""}","","","","","","","","","","","","","","","","","","","","","","",""
"1824","","image-slider-response","199","1014214","0.0-196.0","A2CPI18KZN30KW","","","","","0","","","","","","","","","","","","","","","","","","","","","",""
"4277","","image-button-response","200","1019219","0.0-197.0","A2CPI18KZN30KW","img_art/14.jpg","2","","","","","","","","","","","","","","","","","","","","","","","","",""
"1077","","image-button-response","201","1020301","0.0-198.0","A2CPI18KZN30KW","img_art/14.jpg","2","","","","","","","","","","","","","","","","","","","","","","","","",""
"1879","","image-button-response","202","1022184","0.0-199.0-0.0","A2CPI18KZN30KW","img_art/14.jpg","4","","","","","","","","","","","","","","","","","","","","","","","","",""
"1170","","image-button-response","203","1023356","0.0-200.0-0.0","A2CPI18KZN30KW","img_art/14.jpg","1","","","","","","","","","","","","","","","","","","","","","","","","",""
"null","","html-keyboard-response","204","1024356","0.0-201.0","A2CPI18KZN30KW","<p style=""font-size: 48px;"">+</p>","","","","","null","allTrialResponses","1000","1","22","img_art/14.jpg","0","a tree","Luke,Malik,Scott,Bradley,Mark,Peter","looks like it's symbolizing rebirth which is hopeful,22,20,20","It's alright, something I'd see in a guest bedroom,10,40,20","its okay nothing special,11,20,20","I don't know why, but this piece makes me happy.,20,300,20","Cute little plant.,15,80,20","I like that it's like a snippet of a field in the desert,21,320,20","Scott","its okay nothing special,11,20,20","Mark","Cute little plant.,15,80,20","Malik","It's alright, something I'd see in a guest bedroom,10,40,20","4"
"7385","","survey-text","205","1031750","0.0-202.0-0.0","A2CPI18KZN30KW","","","","{""Q0"":""what is this""}","","","","","","","","","","","","","","","","","","","","","","",""
"5851","","image-slider-response","206","1037606","0.0-203.0","A2CPI18KZN30KW","","","","","-36","","","","","","","","","","","","","","","","","","","","","",""
"4045","","image-button-response","207","1042609","0.0-204.0","A2CPI18KZN30KW","img_art/4.jpg","3","","","","","","","","","","","","","","","","","","","","","","","","",""
"921","","image-button-response","208","1043533","0.0-205.0","A2CPI18KZN30KW","img_art/4.jpg","2","","","","","","","","","","","","","","","","","","","","","","","","",""
"1959","","image-button-response","209","1045495","0.0-206.0-0.0","A2CPI18KZN30KW","img_art/4.jpg","3","","","","","","","","","","","","","","","","","","","","","","","","",""
"774","","image-button-response","210","1046271","0.0-207.0-0.0","A2CPI18KZN30KW","img_art/4.jpg","4","","","","","","","","","","","","","","","","","","","","","","","","",""
"null","","html-keyboard-response","211","1047271","0.0-208.0","A2CPI18KZN30KW","<p style=""font-size: 48px;"">+</p>","","","","","null","allTrialResponses","1000","1","23","img_art/4.jpg","-36","what is this","Marcus,Malik,Scott,Miguel,Mark,Adam","Really like the colors, but don't like the object/squiggle in darker gold and black,4,60,20","Reminds me of late night frustrated paintings of my own made of coffee,12,40,20","feels free flowing and relaxed,21,20,20","I don't like murky colors.,-40,160,20","I think it speaks to familial closeness but the tonality is offputting to me.,-10,80,20","McDonald's French Fries.,-10,40,20","Scott","feels free flowing and relaxed,21,20,20","Miguel","I don't like murky colors.,-40,160,20","Mark","I think it speaks to familial closeness but the tonality is offputting to me.,-10,80,20","4"
"5682","","survey-text","212","1052965","0.0-209.0-0.0","A2CPI18KZN30KW","","","","{""Q0"":""Good flow""}","","","","","","","","","","","","","","","","","","","","","","",""
"18093","","image-slider-response","213","1071061","0.0-210.0","A2CPI18KZN30KW","","","","","35","","","","","","","","","","","","","","","","","","","","","",""
"null","","image-button-response","214","1076062","0.0-211.0","A2CPI18KZN30KW","img_art/11.jpg","null","","","","","","","","","","","","","","","","","","","","","","","","",""
"14566","","image-button-response","215","1090632","0.0-212.0","A2CPI18KZN30KW","img_art/11.jpg","4","","","","","","","","","","","","","","","","","","","","","","","","",""
"1691","","image-button-response","216","1092329","0.0-213.0-0.0","A2CPI18KZN30KW","img_art/11.jpg","0","","","","","","","","","","","","","","","","","","","","","","","","",""
"685","","image-button-response","217","1093017","0.0-214.0-0.0","A2CPI18KZN30KW","img_art/11.jpg","1","","","","","","","","","","","","","","","","","","","","","","","","",""
"null","","html-keyboard-response","218","1093519","0.0-215.0","A2CPI18KZN30KW","<p style=""font-size: 48px;"">+</p>","","","","","null","allTrialResponses","500","1","24","img_art/11.jpg","35","Good flow","Devon,James,Scott,Miguel,Mark,Taylor","a beautiful piece of art,33,400,20","I like dark colors.,31,380,20","makes me feel dizzy,-37,20,20","Good but not eye catching,14,160,20","My initial thought was roller coasters but I see ship masts on a cloudy day too.,35,80,20","Busy, busy oceanside city.,-10,200,20","Mark","My initial thought was roller coasters but I see ship masts on a cloudy day too.,35,80,20","Devon","a beautiful piece of art,33,400,20","James","I like dark colors.,31,380,20","4"
"9614","","survey-text","219","1103143","0.0-216.0-0.0","A2CPI18KZN30KW","","","","{""Q0"":""what is this""}","","","","","","","","","","","","","","","","","","","","","","",""
"4733","","image-slider-response","220","1107879","0.0-217.0","A2CPI18KZN30KW","","","","","-17","","","","","","","","","","","","","","","","","","","","","",""
"3153","","image-button-response","221","1112881","0.0-218.0","A2CPI18KZN30KW","img_art/27.jpg","5","","","","","","","","","","","","","","","","","","","","","","","","",""
"436","","image-button-response","222","1113322","0.0-219.0","A2CPI18KZN30KW","img_art/27.jpg","5","","","","","","","","","","","","","","","","","","","","","","","","",""
"1875","","image-button-response","223","1115202","0.0-220.0-0.0","A2CPI18KZN30KW","img_art/27.jpg","3","","","","","","","","","","","","","","","","","","","","","","","","",""
"1561","","image-button-response","224","1116770","0.0-221.0-0.0","A2CPI18KZN30KW","img_art/27.jpg","4","","","","","","","","","","","","","","","","","","","","","","","","",""
"null","","html-keyboard-response","225","1117271","0.0-222.0","A2CPI18KZN30KW","<p style=""font-size: 48px;"">+</p>","","","","","null","allTrialResponses","500","1","25","img_art/27.jpg","-17","what is this","Devon,James,Mitchell,Lucas,Mark,Patrick","this reminds me of simpler time,31,400,20","This painting is very unique,21,380,20","Angelic, childlike. happiness but also with sadness.,40,180,20","No clue what to say.,0,380,20","I see a cathedral through the woods.,12,80,20","Not cohesive design,-31,280,20","Patrick","Not cohesive design,-31,280,20","Lucas","No clue what to say.,0,380,20","Mark","I see a cathedral through the woods.,12,80,20","4"
"2861","","survey-text","226","1120149","0.0-223.0-0.0","A2CPI18KZN30KW","","","","{""Q0"":""table""}","","","","","","","","","","","","","","","","","","","","","","",""
"6273","","survey-text","227","1126424","0.0-224.0-0.0","A2CPI18KZN30KW","","","","{""Q0"":""colorful""}","","","","","","","","","","","","","","","","","","","","","","",""
"5962","","image-slider-response","228","1132390","0.0-225.0","A2CPI18KZN30KW","","","","","15","","","","","","","","","","","","","","","","","","","","","",""
"null","","image-button-response","229","1137396","0.0-226.0","A2CPI18KZN30KW","img_art/22.jpg","null","","","","","","","","","","","","","","","","","","","","","","","","",""
"664","","image-button-response","230","1138062","0.0-227.0","A2CPI18KZN30KW","img_art/22.jpg","2","","","","","","","","","","","","","","","","","","","","","","","","",""
"1088","","image-button-response","231","1139154","0.0-228.0-0.0","A2CPI18KZN30KW","img_art/22.jpg","0","","","","","","","","","","","","","","","","","","","","","","","","",""
"2339","","image-button-response","232","1141498","0.0-229.0-0.0","A2CPI18KZN30KW","img_art/22.jpg","4","","","","","","","","","","","","","","","","","","","","","","","","",""
"null","","html-keyboard-response","233","1142001","0.0-230.0","A2CPI18KZN30KW","<p style=""font-size: 48px;"">+</p>","","","","","null","allTrialResponses","500","1","26","img_art/22.jpg","15","colorful","Samuel,Paul,Joshua,Lucas,Mark,Patrick","ball of light in 90s,8,400,20","I really like the bright colors and sunset feel,31,300,20","This one would work in the right frame. It's nice.,20,240,20","Unfortunately, I can't see anything special in this painting.,-20,380,20","I don't feel much of anything.,0,80,20","Looks like a warm sunset to me i like it,42,280,20","Joshua","This one would work in the right frame. It's nice.,20,240,20","Samuel","ball of light in 90s,8,400,20","Mark","I don't feel much of anything.,0,80,20","4"
"3944","","survey-text","234","1145960","0.0-231.0-0.0","A2CPI18KZN30KW","","","","{""Q0"":""at rest""}","","","","","","","","","","","","","","","","","","","","","","",""
"1851","","image-slider-response","235","1147815","0.0-232.0","A2CPI18KZN30KW","","","","","0","","","","","","","","","","","","","","","","","","","","","",""
"3502","","image-button-response","236","1152818","0.0-233.0","A2CPI18KZN30KW","img_art/9.jpg","0","","","","","","","","","","","","","","","","","","","","","","","","",""
"1707","","image-button-response","237","1154528","0.0-234.0","A2CPI18KZN30KW","img_art/9.jpg","0","","","","","","","","","","","","","","","","","","","","","","","","",""
"1078","","image-button-response","238","1155610","0.0-235.0-0.0","A2CPI18KZN30KW","img_art/9.jpg","4","","","","","","","","","","","","","","","","","","","","","","","","",""
"410","","image-button-response","239","1156025","0.0-236.0-0.0","A2CPI18KZN30KW","img_art/9.jpg","5","","","","","","","","","","","","","","","","","","","","","","","","",""
"null","","html-keyboard-response","240","1157526","0.0-237.0","A2CPI18KZN30KW","<p style=""font-size: 48px;"">+</p>","","","","","null","allTrialResponses","1500","1","27","img_art/9.jpg","0","at rest","Samuel,Tristan,Joshua,Dylan,Mark,Jonathan","what a wild ride,11,400,20","The busyness and harsh nature of the lines in this painting  mute my emotional response.,-10,300,20","Someone lying in bed?  Don't care for it.,-14,240,20","This picture is too busy and ugly,-20,40,20","Sleeping woman in a cave. Makes me feel safe.,20,80,20","It's peaceful and relaxing,24,140,20","Samuel","what a wild ride,11,400,20","Mark","Sleeping woman in a cave. Makes me feel safe.,20,80,20","Jonathan","It's peaceful and relaxing,24,140,20","4"
"10376","","survey-text","241","1167911","0.0-238.0-0.0","A2CPI18KZN30KW","","","","{""Q0"":""excellent""}","","","","","","","","","","","","","","","","","","","","","","",""
"8829","","image-slider-response","242","1176744","0.0-239.0","A2CPI18KZN30KW","","","","","35","","","","","","","","","","","","","","","","","","","","","",""
"3989","","image-button-response","243","1181747","0.0-240.0","A2CPI18KZN30KW","img_art/23.jpg","5","","","","","","","","","","","","","","","","","","","","","","","","",""
"111","","image-button-response","244","1181865","0.0-241.0","A2CPI18KZN30KW","img_art/23.jpg","3","","","","","","","","","","","","","","","","","","","","","","","","",""
"1112","","image-button-response","245","1182978","0.0-242.0-0.0","A2CPI18KZN30KW","img_art/23.jpg","5","","","","","","","","","","","","","","","","","","","","","","","","",""
"1050","","image-button-response","246","1184028","0.0-243.0-0.0","A2CPI18KZN30KW","img_art/23.jpg","0","","","","","","","","","","","","","","","","","","","","","","","","",""
"null","","html-keyboard-response","247","1184529","0.0-244.0","A2CPI18KZN30KW","<p style=""font-size: 48px;"">+</p>","","","","","null","allTrialResponses","500","1","28","img_art/23.jpg","35","excellent","Samuel,Jason,Christopher,Nicholas,Mark,Jonathan","happiness in the universe,28,400,20","Interesting contrast,9,20,20","it's not uninteresting, but i'm not responding to it,-7,160,20","The more i look at it the more i like it  the dots of color and very interesting,50,240,20","I see souls in torment and that makes me feel uneasy.,-21,80,20","Those colors are awesome! And I love the strip of negative space that almost looks like a line of people,50,140,20","Nicholas","The more i look at it the more i like it  the dots of color and very interesting,50,240,20","Jonathan","Those colors are awesome! And I love the strip of negative space that almost looks like a line of people,50,140,20","Samuel","happiness in the universe,28,400,20","4"
"40535","","survey-text","248","1225079","0.0-245.0-0.0","A2CPI18KZN30KW","","","","{""Q0"":""warrior""}","","","","","","","","","","","","","","","","","","","","","","",""
"5149","","image-slider-response","249","1230231","0.0-246.0","A2CPI18KZN30KW","","","","","10","","","","","","","","","","","","","","","","","","","","","",""
"4287","","image-button-response","250","1235234","0.0-247.0","A2CPI18KZN30KW","img_art/18.jpg","1","","","","","","","","","","","","","","","","","","","","","","","","",""
"981","","image-button-response","251","1236219","0.0-248.0","A2CPI18KZN30KW","img_art/18.jpg","1","","","","","","","","","","","","","","","","","","","","","","","","",""
"2354","","image-button-response","252","1238578","0.0-249.0-0.0","A2CPI18KZN30KW","img_art/18.jpg","2","","","","","","","","","","","","","","","","","","","","","","","","",""
"1195","","image-button-response","253","1239779","0.0-250.0-0.0","A2CPI18KZN30KW","img_art/18.jpg","4","","","","","","","","","","","","","","","","","","","","","","","","",""
"null","","html-keyboard-response","254","1241281","0.0-251.0","A2CPI18KZN30KW","<p style=""font-size: 48px;"">+</p>","","","","","null","allTrialResponses","1500","1","29","img_art/18.jpg","10","warrior","Samuel,Aaron,John,Nicholas,Vincent,Jonathan","death rides in life,-25,400,20","I could spend a long time looking at it and see different things in the shapes.,21,20,20","There are alot of elements to this painting and a good mix of colors,32,120,20","Id love to see this piece closer. So much extra details hidden it it.,50,240,20","Very conversational and can see many different looks and feels from this .,34,360,20","There's danger in this painting and it's awesome,40,140,20","Aaron","I could spend a long time looking at it and see different things in the shapes.,21,20,20","John","There are alot of elements to this painting and a good mix of colors,32,120,20","Vincent","Very conversational and can see many different looks and feels from this .,34,360,20","4"
"10012","","survey-text","255","1251304","0.0-252.0-0.0","A2CPI18KZN30KW","","","","{""Q0"":""who made it""}","","","","","","","","","","","","","","","","","","","","","","",""
"2252","","image-slider-response","256","1253561","0.0-253.0","A2CPI18KZN30KW","","","","","0","","","","","","","","","","","","","","","","","","","","","",""
"null","","image-button-response","257","1258565","0.0-254.0","A2CPI18KZN30KW","img_art/16.jpg","null","","","","","","","","","","","","","","","","","","","","","","","","",""
"1105","","image-button-response","258","1259674","0.0-255.0","A2CPI18KZN30KW","img_art/16.jpg","1","","","","","","","","","","","","","","","","","","","","","","","","",""
"4996","","image-button-response","259","1264672","0.0-256.0-0.0","A2CPI18KZN30KW","img_art/16.jpg","3","","","","","","","","","","","","","","","","","","","","","","","","",""
"2019","","image-button-response","260","1266698","0.0-257.0-0.0","A2CPI18KZN30KW","img_art/16.jpg","0","","","","","","","","","","","","","","","","","","","","","","","","",""
"null","","html-keyboard-response","261","1268201","0.0-258.0","A2CPI18KZN30KW","<p style=""font-size: 48px;"">+</p>","","","","","null","allTrialResponses","1500","1","30","img_art/16.jpg","0","who made it","Spencer,Aaron,John,Luis,Vincent,Daniel","Know it is a piece relating to children and gun violence. Sad,-30,120,20","It's edgy but cool,10,20,20","It creeps me out.,-50,120,20","Kind of an edgy teenager vibe,32,400,20","Toys toys toys. Happy playful free spirit,30,360,20","Ugly, broken up and mismatched,-50,320,20","Aaron","It's edgy but cool,10,20,20","Luis","Kind of an edgy teenager vibe,32,400,20","Spencer","Know it is a piece relating to children and gun violence. Sad,-30,120,20","4"
"2325","","image-button-response_instructions","262","1270538","0.0-259.0","A2CPI18KZN30KW","","0","instructions","","","","","","","","","","","","","","","","","","","","","","","",""
"1463","","image-button-response","263","1272010","0.0-260.0","A2CPI18KZN30KW","","0","","","","","","","","","","","","","","","","","","","","","","","","",""
