"rt","url","trial_type","trial_index","time_elapsed","internal_node_id","participant_id","stimulus","button_pressed","Name","responses","response","key_press","variableName","fixationTime","condition","trial","photo","subjectRating","subjectResponse","agentsNames","agent_1_Response","agent_2_Response","agent_3_Response","agent_4_Response","agent_5_Response","agent_6_Response","kept_1_name","kept_1_response","kept_2_name","kept_2_response","kept_3_name","kept_3_response","errorCounter"
"17890","external_page_harvard.html","external-html","0","17955","0.0-0.0","A2DLYBXZNSSJ4S","","","","","","","","","","","","","","","","","","","","","","","","","","",""
"1477","","image-button-response","1","19434","0.0-1.0","A2DLYBXZNSSJ4S","","0","","","","","","","","","","","","","","","","","","","","","","","","",""
"2835","","image-button-response","2","22275","0.0-2.0-0.0","A2DLYBXZNSSJ4S","","1","phone","","","","","","","","","","","","","","","","","","","","","","","",""
"10800","","survey-text","3","33077","0.0-3.0-0.0","A2DLYBXZNSSJ4S","","","","{""Q0"":""A2DLYBXZNSSJ4S""}","","","","","","","","","","","","","","","","","","","","","","",""
"12149","","image-button-response_instructions","4","45229","0.0-4.0","A2DLYBXZNSSJ4S","","0","instructions","","","","","","","","","","","","","","","","","","","","","","","",""
"12904","","image-button-response_instructions","5","58134","0.0-5.0","A2DLYBXZNSSJ4S","img_art/ins/popularity/ins1.png","0","instructions","","","","","","","","","","","","","","","","","","","","","","","",""
"5181","","image-button-response_instructions","6","63317","0.0-6.0","A2DLYBXZNSSJ4S","img_art/ins/popularity/ins2.png","0","instructions","","","","","","","","","","","","","","","","","","","","","","","",""
"4059","","image-button-response_instructions","7","67377","0.0-7.0","A2DLYBXZNSSJ4S","img_art/ins/popularity/ins2Extreme.png","0","instructions","","","","","","","","","","","","","","","","","","","","","","","",""
"20028","","image-button-response_instructions","8","87406","0.0-8.0","A2DLYBXZNSSJ4S","img_art/ins/popularity/ins3KEEPpop.PNG","0","instructions","","","","","","","","","","","","","","","","","","","","","","","",""
"3006","","image-button-response_instructions","9","90413","0.0-9.0","A2DLYBXZNSSJ4S","img_art/ins/popularity/ins3ANamepop.PNG","0","instructions","","","","","","","","","","","","","","","","","","","","","","","",""
"5530","","image-button-response_instructions","10","95944","0.0-10.0","A2DLYBXZNSSJ4S","img_art/ins/popularity/ins3ARatingpop.png","0","instructions","","","","","","","","","","","","","","","","","","","","","","","",""
"4595","","image-button-response_instructions","11","100541","0.0-11.0","A2DLYBXZNSSJ4S","img_art/ins/popularity/ins3ATextpop.png","0","instructions","","","","","","","","","","","","","","","","","","","","","","","",""
"4351","","image-button-response_instructions","12","104893","0.0-12.0","A2DLYBXZNSSJ4S","img_art/ins/popularity/ins3ALikespop.png","0","instructions","","","","","","","","","","","","","","","","","","","","","","","",""
"5825","","image-button-response_instructions","13","110718","0.0-13.0","A2DLYBXZNSSJ4S","img_art/ins/popularity/ins3KEEPpop.PNG","0","instructions","","","","","","","","","","","","","","","","","","","","","","","",""
"13197","","image-button-response_instructions","14","123916","0.0-14.0","A2DLYBXZNSSJ4S","img_art/ins/popularity/ins3_5RED.png","0","instructions","","","","","","","","","","","","","","","","","","","","","","","",""
"6723","","image-button-response_instructions","15","130641","0.0-15.0","A2DLYBXZNSSJ4S","img_art/ins/popularity/ins3KEEPpop.PNG","0","instructions","","","","","","","","","","","","","","","","","","","","","","","",""
"14507","","image-button-response_instructions","16","145149","0.0-16.0","A2DLYBXZNSSJ4S","img_art/ins/popularity/ins4KEEPpop.PNG","0","instructions","","","","","","","","","","","","","","","","","","","","","","","",""
"7458","","image-button-response_instructions","17","152607","0.0-17.0","A2DLYBXZNSSJ4S","img_art/ins/popularity/ins5KEEPpop.PNG","0","instructions","","","","","","","","","","","","","","","","","","","","","","","",""
"2843","","image-button-response_instructions","18","155452","0.0-18.0","A2DLYBXZNSSJ4S","","0","instructions","","","","","","","","","","","","","","","","","","","","","","","",""
"11056","","survey-text","19","166532","0.0-19.0-0.0","A2DLYBXZNSSJ4S","","","","{""Q0"":""but""}","","","","","","","","","","","","","","","","","","","","","","",""
"27646","","survey-text","20","194180","0.0-20.0-0.0","A2DLYBXZNSSJ4S","","","","{""Q0"":""Not very attractive""}","","","","","","","","","","","","","","","","","","","","","","",""
"4343.5","","image-slider-response","21","198526","0.0-21.0","A2DLYBXZNSSJ4S","","","","","-30","","","","","","","","","","","","","","","","","","","","","",""
"null","","image-button-response","22","203541","0.0-22.0","A2DLYBXZNSSJ4S","img_art/ins/1.jpg","null","","","","","","","","","","","","","","","","","","","","","","","","",""
"7812","","image-button-response","23","211355","0.0-23.0","A2DLYBXZNSSJ4S","img_art/ins/1.jpg","1","","","","","","","","","","","","","","","","","","","","","","","","",""
"2356","","image-button-response","24","213713","0.0-24.0-0.0","A2DLYBXZNSSJ4S","img_art/ins/1.jpg","1","","","","","","","","","","","","","","","","","","","","","","","","",""
"1295","","image-button-response","25","225547","0.0-24.1-0.1","A2DLYBXZNSSJ4S","img_art/ins/1.jpg","4","","","","","","","","","","","","","","","","","","","","","","","","",""
"2208","","image-button-response","26","227758","0.0-25.0-0.0","A2DLYBXZNSSJ4S","img_art/ins/1.jpg","2","","","","","","","","","","","","","","","","","","","","","","","","",""
"null","","html-keyboard-response","27","229261","0.0-26.0","A2DLYBXZNSSJ4S","<p style=""font-size: 48px;"">+</p>","","","","","null","allTrialResponses","1500","1","-2","img_art/ins/1.jpg","-30","Not very attractive","Adam,Alex,Ben,Carl,Daniel,Jack","Seems like doodles,-20,20,20","very creative work.,36,40,20","This color reminds me of poo,-46,60,20","very calming artwork,42,80,20","It looks like a murder scene.,-48,100,20","I like the sophisticated brushwork,40,120,20","Alex","very creative work.,36,40,20","Daniel","It looks like a murder scene.,-48,100,20","Ben","This color reminds me of poo,-46,60,20","2"
"16689","","survey-text","28","245963","0.0-27.0-0.0","A2DLYBXZNSSJ4S","","","","{""Q0"":""Abstract is nice""}","","","","","","","","","","","","","","","","","","","","","","",""
"8218.599999904633","","image-slider-response","29","254184","0.0-28.0","A2DLYBXZNSSJ4S","","","","","21","","","","","","","","","","","","","","","","","","","","","",""
"null","","image-button-response","30","259280","0.0-29.0","A2DLYBXZNSSJ4S","img_art/ins/2.jpg","null","","","","","","","","","","","","","","","","","","","","","","","","",""
"8096","","image-button-response","31","267378","0.0-30.0","A2DLYBXZNSSJ4S","img_art/ins/2.jpg","0","","","","","","","","","","","","","","","","","","","","","","","","",""
"1508","","image-button-response","32","268888","0.0-31.0-0.0","A2DLYBXZNSSJ4S","img_art/ins/2.jpg","1","","","","","","","","","","","","","","","","","","","","","","","","",""
"1537","","image-button-response","33","270431","0.0-32.0-0.0","A2DLYBXZNSSJ4S","img_art/ins/2.jpg","0","","","","","","","","","","","","","","","","","","","","","","","","",""
"803","","image-button-response","34","276343","0.0-32.1-0.1","A2DLYBXZNSSJ4S","img_art/ins/2.jpg","2","","","","","","","","","","","","","","","","","","","","","","","","",""
"null","","html-keyboard-response","35","277356","0.0-33.0","A2DLYBXZNSSJ4S","<p style=""font-size: 48px;"">+</p>","","","","","null","allTrialResponses","1000","1","-1","img_art/ins/2.jpg","21","Abstract is nice","John,Alex,Ben,James,Daniel,Kyle","love the texture of paint,48,160,20","I like the blocks of color arrangements,30,40,20","meaningless painting,-45,60,20","looks too angry,-50,140,20","One of my pet peevs,-48,100,20","Idk, it is just annoying,-32,180,20","John","love the texture of paint,48,160,20","Alex","I like the blocks of color arrangements,30,40,20","Ben","meaningless painting,-45,60,20","4"
"6249","","survey-text","36","283618","0.0-34.0-0.0","A2DLYBXZNSSJ4S","","","","{""Q0"":""Cool one""}","","","","","","","","","","","","","","","","","","","","","","",""
"6469.400000095367","","image-slider-response","37","290090","0.0-35.0","A2DLYBXZNSSJ4S","","","","","45","","","","","","","","","","","","","","","","","","","","","",""
"3919","","image-button-response","38","295095","0.0-36.0","A2DLYBXZNSSJ4S","img_art/ins/3.jpg","0","","","","","","","","","","","","","","","","","","","","","","","","",""
"186","","image-button-response","39","295283","0.0-37.0","A2DLYBXZNSSJ4S","img_art/ins/3.jpg","1","","","","","","","","","","","","","","","","","","","","","","","","",""
"1719","","image-button-response","40","297004","0.0-38.0-0.0","A2DLYBXZNSSJ4S","img_art/ins/3.jpg","3","","","","","","","","","","","","","","","","","","","","","","","","",""
"2261","","image-button-response","41","299266","0.0-39.0-0.0","A2DLYBXZNSSJ4S","img_art/ins/3.jpg","4","","","","","","","","","","","","","","","","","","","","","","","","",""
"null","","html-keyboard-response","42","300268","0.0-40.0","A2DLYBXZNSSJ4S","<p style=""font-size: 48px;"">+</p>","","","","","null","allTrialResponses","1000","1","0","img_art/ins/3.jpg","45","Cool one","John,Alex,Ben,Mike,Ron,Sam","I like the overlapping of brushes,41,160,20","calming blue is very nice,36,40,20","This thing gives me anxiety,-41,60,20","enjoy the different shades of blue,22,200,20","It looks depressing,-26,220,20","I can feel a rainy day from this painting,18,240,20","Alex","calming blue is very nice,36,40,20","Mike","enjoy the different shades of blue,22,200,20","Ron","It looks depressing,-26,220,20","4"
"4063","","image-button-response_instructions","43","304334","0.0-41.0","A2DLYBXZNSSJ4S","","0","instructions","","","","","","","","","","","","","","","","","","","","","","","",""
"20819","","survey-likert","44","325154","0.0-42.0-0.0","A2DLYBXZNSSJ4S","","","","{""Q0"":"""",""Q1"":0,""Q2"":1}","","","","","","","","","","","","","","","","","","","","","","",""
"4491","","survey-text","45","329650","0.0-43.0-0.0","A2DLYBXZNSSJ4S","","","","{""Q0"":""rock""}","","","","","","","","","","","","","","","","","","","","","","",""
"7091","","survey-text","46","336742","0.0-44.0-0.0","A2DLYBXZNSSJ4S","","","","{""Q0"":""Cool one""}","","","","","","","","","","","","","","","","","","","","","","",""
"9742.799999952316","","image-slider-response","47","346487","0.0-45.0","A2DLYBXZNSSJ4S","","","","","18","","","","","","","","","","","","","","","","","","","","","",""
"null","","image-button-response","48","351516","0.0-46.0","A2DLYBXZNSSJ4S","img_art/13.jpg","null","","","","","","","","","","","","","","","","","","","","","","","","",""
"3853","","image-button-response","49","355371","0.0-47.0","A2DLYBXZNSSJ4S","img_art/13.jpg","1","","","","","","","","","","","","","","","","","","","","","","","","",""
"1955","","image-button-response","50","357327","0.0-48.0-0.0","A2DLYBXZNSSJ4S","img_art/13.jpg","4","","","","","","","","","","","","","","","","","","","","","","","","",""
"2176","","image-button-response","51","359506","0.0-49.0-0.0","A2DLYBXZNSSJ4S","img_art/13.jpg","2","","","","","","","","","","","","","","","","","","","","","","","","",""
"null","","html-keyboard-response","52","361025","0.0-50.0","A2DLYBXZNSSJ4S","<p style=""font-size: 48px;"">+</p>","","","","","null","allTrialResponses","1500","1","1","img_art/13.jpg","18","Cool one","Dakota,Alex,Cameron,Joseph,Connor,Adam","water on my shower curtain - I feel refreshed, renewed,9,280,20","I like the blue colors and the symmetry and paint splatters but I would not hang it in my house,8,100,20","Like the use of color, not a fan of the splatter,29,60,20","Pleasing, happy, rainy.,12,220,20","Color palette is complementary,40,240,20","Generic mix of colors. Cool and messy.,10,40,20","Alex","I like the blue colors and the symmetry and paint splatters but I would not hang it in my house,8,100,20","Connor","Color palette is complementary,40,240,20","Cameron","Like the use of color, not a fan of the splatter,29,60,20","4"
"9447","","survey-text","53","370477","0.0-51.0-0.0","A2DLYBXZNSSJ4S","","","","{""Q0"":""Just ok""}","","","","","","","","","","","","","","","","","","","","","","",""
"3874.2999999523163","","image-slider-response","54","374353","0.0-52.0","A2DLYBXZNSSJ4S","","","","","-4","","","","","","","","","","","","","","","","","","","","","",""
"null","","image-button-response","55","379367","0.0-53.0","A2DLYBXZNSSJ4S","img_art/20.jpg","null","","","","","","","","","","","","","","","","","","","","","","","","",""
"3845","","image-button-response","56","383215","0.0-54.0","A2DLYBXZNSSJ4S","img_art/20.jpg","1","","","","","","","","","","","","","","","","","","","","","","","","",""
"812","","image-button-response","57","384029","0.0-55.0-0.0","A2DLYBXZNSSJ4S","img_art/20.jpg","0","","","","","","","","","","","","","","","","","","","","","","","","",""
"2374","","image-button-response","58","386405","0.0-56.0-0.0","A2DLYBXZNSSJ4S","img_art/20.jpg","3","","","","","","","","","","","","","","","","","","","","","","","","",""
"null","","html-keyboard-response","59","387407","0.0-57.0","A2DLYBXZNSSJ4S","<p style=""font-size: 48px;"">+</p>","","","","","null","allTrialResponses","1000","1","2","img_art/20.jpg","-4","Just ok","William,Alex,Cameron,Brian,Connor,Dylan","like the colors and desert feel,7,380,20","Reminds me of Dali for some reason, whom I don't like,-7,100,20","Dinosaur skill and some dark shadow above,-30,60,20","The colors are nice, and the shapes conjure the decay of the city in the face of natural entropy,19,380,20","Dark frame overpowers the image,-6,240,20","The white blob looks like a face and it's creepy,-30,40,20","Alex","Reminds me of Dali for some reason, whom I don't like,-7,100,20","William","like the colors and desert feel,7,380,20","Brian","The colors are nice, and the shapes conjure the decay of the city in the face of natural entropy,19,380,20","4"
"10074","","survey-text","60","397485","0.0-58.0-0.0","A2DLYBXZNSSJ4S","","","","{""Q0"":""Good looking""}","","","","","","","","","","","","","","","","","","","","","","",""
"14907.400000095367","","image-slider-response","61","412394","0.0-59.0","A2DLYBXZNSSJ4S","","","","","3","","","","","","","","","","","","","","","","","","","","","",""
"null","","image-button-response","62","417403","0.0-60.0","A2DLYBXZNSSJ4S","img_art/9.jpg","null","","","","","","","","","","","","","","","","","","","","","","","","",""
"4830","","image-button-response","63","422234","0.0-61.0","A2DLYBXZNSSJ4S","img_art/9.jpg","2","","","","","","","","","","","","","","","","","","","","","","","","",""
"1133","","image-button-response","64","423370","0.0-62.0-0.0","A2DLYBXZNSSJ4S","img_art/9.jpg","1","","","","","","","","","","","","","","","","","","","","","","","","",""
"1410","","image-button-response","65","424782","0.0-63.0-0.0","A2DLYBXZNSSJ4S","img_art/9.jpg","0","","","","","","","","","","","","","","","","","","","","","","","","",""
"null","","html-keyboard-response","66","425293","0.0-64.0","A2DLYBXZNSSJ4S","<p style=""font-size: 48px;"">+</p>","","","","","null","allTrialResponses","500","1","3","img_art/9.jpg","3","Good looking","William,Alex,Alejandro,Brian,Isaiah,Adrian","reminds me of a story book,18,380,20","Alright, I can see a reclining lady, I'm just glad to be able to tell what's in the picture,5,100,20","Evokes triumph of a mountain over powering a drowning sea,24,80,20","I don't like the framing of this one,-25,380,20","The piece of art makes me happy, it reminds me of a lively carnival.,15,300,20","Looks like my niece's doodles.,-50,60,20","Alejandro","Evokes triumph of a mountain over powering a drowning sea,24,80,20","Alex","Alright, I can see a reclining lady, I'm just glad to be able to tell what's in the picture,5,100,20","William","reminds me of a story book,18,380,20","4"
"13579","","survey-text","67","438876","0.0-65.0-0.0","A2DLYBXZNSSJ4S","","","","{""Q0"":""It's just amazing""}","","","","","","","","","","","","","","","","","","","","","","",""
"2870.7000000476837","","image-slider-response","68","441748","0.0-66.0","A2DLYBXZNSSJ4S","","","","","50","","","","","","","","","","","","","","","","","","","","","",""
"null","","image-button-response","69","446753","0.0-67.0","A2DLYBXZNSSJ4S","img_art/8.jpg","null","","","","","","","","","","","","","","","","","","","","","","","","",""
"5051","","image-button-response","70","451805","0.0-68.0","A2DLYBXZNSSJ4S","img_art/8.jpg","4","","","","","","","","","","","","","","","","","","","","","","","","",""
"2425","","image-button-response","71","454232","0.0-69.0-0.0","A2DLYBXZNSSJ4S","img_art/8.jpg","2","","","","","","","","","","","","","","","","","","","","","","","","",""
"1506","","image-button-response","72","455740","0.0-70.0-0.0","A2DLYBXZNSSJ4S","img_art/8.jpg","5","","","","","","","","","","","","","","","","","","","","","","","","",""
"null","","html-keyboard-response","73","456243","0.0-71.0","A2DLYBXZNSSJ4S","<p style=""font-size: 48px;"">+</p>","","","","","null","allTrialResponses","500","1","4","img_art/8.jpg","50","It's just amazing","William,Alex,Alejandro,Jake,Mitchell,Jeffrey","makes me think of a busy city,-18,380,20","I appreciate the complexity of this piece but it's too cubist for me,3,100,20","i like the abstract nature of a birds eye view of the city. The hard shapes and squares present with a softness rather than rigidity.,26,80,20","It's a poor rendition of an MC Escher inspired piece.,-25,360,20","Lost in a big city confuse as to where to go to next. No matter if you live in a mansion or homeless. Being bigger than what is going on around you,30,180,20","Very busy, I want to look at it and investigate,23,40,20","Mitchell","Lost in a big city confuse as to where to go to next. No matter if you live in a mansion or homeless. Being bigger than what is going on around you,30,180,20","Alejandro","i like the abstract nature of a birds eye view of the city. The hard shapes and squares present with a softness rather than rigidity.,26,80,20","Jeffrey","Very busy, I want to look at it and investigate,23,40,20","4"
"5543","","survey-text","74","461789","0.0-72.0-0.0","A2DLYBXZNSSJ4S","","","","{""Q0"":""not bad""}","","","","","","","","","","","","","","","","","","","","","","",""
"3033.2000000476837","","image-slider-response","75","464824","0.0-73.0","A2DLYBXZNSSJ4S","","","","","-27","","","","","","","","","","","","","","","","","","","","","",""
"null","","image-button-response","76","469837","0.0-74.0","A2DLYBXZNSSJ4S","img_art/29.jpg","null","","","","","","","","","","","","","","","","","","","","","","","","",""
"1244","","image-button-response","77","471084","0.0-75.0","A2DLYBXZNSSJ4S","img_art/29.jpg","1","","","","","","","","","","","","","","","","","","","","","","","","",""
"1406","","image-button-response","78","472493","0.0-76.0-0.0","A2DLYBXZNSSJ4S","img_art/29.jpg","3","","","","","","","","","","","","","","","","","","","","","","","","",""
"817","","image-button-response","79","473312","0.0-77.0-0.0","A2DLYBXZNSSJ4S","img_art/29.jpg","4","","","","","","","","","","","","","","","","","","","","","","","","",""
"null","","html-keyboard-response","80","474814","0.0-78.0","A2DLYBXZNSSJ4S","<p style=""font-size: 48px;"">+</p>","","","","","null","allTrialResponses","1500","1","5","img_art/29.jpg","-27","not bad","Jesse,Gabriel,Alejandro,Bradley,Mitchell,Jeffrey","Grabs interest but then confuses me,6,80,20","dont like this one,-20,160,20","Reminiscent of Jackson Pollock with a hint of abstract structure with the bordering.,32,80,20","It's creative. It's just not my thing.,-32,300,20","death, darkness, negative picture,-31,180,20","Looks like an accident more than an art to me,-26,40,20","Gabriel","dont like this one,-20,160,20","Bradley","It's creative. It's just not my thing.,-32,300,20","Mitchell","death, darkness, negative picture,-31,180,20","4"
"6357","","survey-text","81","481180","0.0-79.0-0.0","A2DLYBXZNSSJ4S","","","","{""Q0"":""sky""}","","","","","","","","","","","","","","","","","","","","","","",""
"9947","","survey-text","82","491129","0.0-80.0-0.0","A2DLYBXZNSSJ4S","","","","{""Q0"":""It's ok""}","","","","","","","","","","","","","","","","","","","","","","",""
"4385.900000095367","","image-slider-response","83","495516","0.0-81.0","A2DLYBXZNSSJ4S","","","","","-4","","","","","","","","","","","","","","","","","","","","","",""
"null","","image-button-response","84","500518","0.0-82.0","A2DLYBXZNSSJ4S","img_art/30.jpg","null","","","","","","","","","","","","","","","","","","","","","","","","",""
"1120","","image-button-response","85","501639","0.0-83.0","A2DLYBXZNSSJ4S","img_art/30.jpg","5","","","","","","","","","","","","","","","","","","","","","","","","",""
"760","","image-button-response","86","502402","0.0-84.0-0.0","A2DLYBXZNSSJ4S","img_art/30.jpg","3","","","","","","","","","","","","","","","","","","","","","","","","",""
"660","","image-button-response","87","503064","0.0-85.0-0.0","A2DLYBXZNSSJ4S","img_art/30.jpg","4","","","","","","","","","","","","","","","","","","","","","","","","",""
"null","","html-keyboard-response","88","504072","0.0-86.0","A2DLYBXZNSSJ4S","<p style=""font-size: 48px;"">+</p>","","","","","null","allTrialResponses","1000","1","6","img_art/30.jpg","-4","It's ok","Jorge,Gabriel,Aaron,Bradley,Mitchell,Nathan","fun and imaginative,12,180,20","dont like this much at all,-30,160,20","It looks like a pretty but unremarkable painting in a doctors office,15,20,20","Hmmm. I think the artist is trying to direct me to a spreadsheet?  (s/s),-10,300,20","connection, Everything is connected even in contrast.,42,180,20","It's okay. It should either have stuck to the grey-blue, or added more red. Seems unorganized (maybe that's the point?),-9,200,20","Nathan","It's okay. It should either have stuck to the grey-blue, or added more red. Seems unorganized (maybe that's the point?),-9,200,20","Bradley","Hmmm. I think the artist is trying to direct me to a spreadsheet?  (s/s),-10,300,20","Mitchell","connection, Everything is connected even in contrast.,42,180,20","4"
"11992","","survey-text","89","516067","0.0-87.0-0.0","A2DLYBXZNSSJ4S","","","","{""Q0"":""Nice one""}","","","","","","","","","","","","","","","","","","","","","","",""
"4574.700000047684","","image-slider-response","90","520644","0.0-88.0","A2DLYBXZNSSJ4S","","","","","10","","","","","","","","","","","","","","","","","","","","","",""
"null","","image-button-response","91","525654","0.0-89.0","A2DLYBXZNSSJ4S","img_art/15.jpg","null","","","","","","","","","","","","","","","","","","","","","","","","",""
"1038","","image-button-response","92","526693","0.0-90.0","A2DLYBXZNSSJ4S","img_art/15.jpg","4","","","","","","","","","","","","","","","","","","","","","","","","",""
"1085","","image-button-response","93","527780","0.0-91.0-0.0","A2DLYBXZNSSJ4S","img_art/15.jpg","1","","","","","","","","","","","","","","","","","","","","","","","","",""
"825","","image-button-response","94","528606","0.0-92.0-0.0","A2DLYBXZNSSJ4S","img_art/15.jpg","0","","","","","","","","","","","","","","","","","","","","","","","","",""
"null","","html-keyboard-response","95","529108","0.0-93.0","A2DLYBXZNSSJ4S","<p style=""font-size: 48px;"">+</p>","","","","","null","allTrialResponses","500","1","7","img_art/15.jpg","10","Nice one","Austin,Dalton,Christopher,Bradley,Mitchell,Nathan","Perfect Abstract painting,50,240,20","black leaves makes the blue birds stand out.,1,300,20","this is really pretty! i like the pops of blue in all the black,26,160,20","I feel like there's ski jumping going on here.,2,300,20","ants on the ground playing with bubble gum. They may be thinking of how they can use it to build something,-30,180,20","This is pretty nice, reminds me of dark peacock feathers, or perhaps a bush with berries in it?,15,200,20","Mitchell","ants on the ground playing with bubble gum. They may be thinking of how they can use it to build something,-30,180,20","Dalton","black leaves makes the blue birds stand out.,1,300,20","Austin","Perfect Abstract painting,50,240,20","4"
"21206","","survey-text","96","550318","0.0-94.0-0.0","A2DLYBXZNSSJ4S","","","","{""Q0"":""The colors are really good""}","","","","","","","","","","","","","","","","","","","","","","",""
"4346.199999809265","","image-slider-response","97","554666","0.0-95.0","A2DLYBXZNSSJ4S","","","","","28","","","","","","","","","","","","","","","","","","","","","",""
"null","","image-button-response","98","559681","0.0-96.0","A2DLYBXZNSSJ4S","img_art/14.jpg","null","","","","","","","","","","","","","","","","","","","","","","","","",""
"3608","","image-button-response","99","563291","0.0-97.0","A2DLYBXZNSSJ4S","img_art/14.jpg","4","","","","","","","","","","","","","","","","","","","","","","","","",""
"558","","image-button-response","100","563851","0.0-98.0-0.0","A2DLYBXZNSSJ4S","img_art/14.jpg","3","","","","","","","","","","","","","","","","","","","","","","","","",""
"1374","","image-button-response","101","565227","0.0-99.0-0.0","A2DLYBXZNSSJ4S","img_art/14.jpg","0","","","","","","","","","","","","","","","","","","","","","","","","",""
"null","","html-keyboard-response","102","566729","0.0-100.0","A2DLYBXZNSSJ4S","<p style=""font-size: 48px;"">+</p>","","","","","null","allTrialResponses","1500","1","8","img_art/14.jpg","28","The colors are really good","Austin,Dalton,Logan,Steven,Mitchell,Kenneth","Love the abstractness of this painting,39,240,20","nice simple art piece,2,300,20","I dont really vibe with the grayish color palette,-7,360,20","this one isn't bad, reminds me a tree that gives life, and people are waiting for someone new to be born,27,160,20","Tornado, nature. trees falling and displaced creatures. Love the colors though.,1,180,20","Its cute, but not my favorite.,8,300,20","Mitchell","Tornado, nature. trees falling and displaced creatures. Love the colors though.,1,180,20","Steven","this one isn't bad, reminds me a tree that gives life, and people are waiting for someone new to be born,27,160,20","Austin","Love the abstractness of this painting,39,240,20","4"
"8506","","survey-text","103","575239","0.0-101.0-0.0","A2DLYBXZNSSJ4S","","","","{""Q0"":""good one""}","","","","","","","","","","","","","","","","","","","","","","",""
"2777.5","","image-slider-response","104","578019","0.0-102.0","A2DLYBXZNSSJ4S","","","","","30","","","","","","","","","","","","","","","","","","","","","",""
"null","","image-button-response","105","583024","0.0-103.0","A2DLYBXZNSSJ4S","img_art/27.jpg","null","","","","","","","","","","","","","","","","","","","","","","","","",""
"8585","","image-button-response","106","591610","0.0-104.0","A2DLYBXZNSSJ4S","img_art/27.jpg","4","","","","","","","","","","","","","","","","","","","","","","","","",""
"482","","image-button-response","107","592095","0.0-105.0-0.0","A2DLYBXZNSSJ4S","img_art/27.jpg","3","","","","","","","","","","","","","","","","","","","","","","","","",""
"1766","","image-button-response","108","593864","0.0-106.0-0.0","A2DLYBXZNSSJ4S","img_art/27.jpg","1","","","","","","","","","","","","","","","","","","","","","","","","",""
"null","","html-keyboard-response","109","595367","0.0-107.0","A2DLYBXZNSSJ4S","<p style=""font-size: 48px;"">+</p>","","","","","null","allTrialResponses","1500","1","9","img_art/27.jpg","30","good one","Austin,Jeremy,Sean,Steven,Mitchell,Kyle","Like the abstractness of this picture,20,240,20","Pleased. Reminds me of a child drawing,46,60,20","also gives me anxiety,-21,40,20","two warring cities, separated by a small desert,50,160,20","Angelic, childlike. happiness but also with sadness.,40,180,20","I have no strong reactions to this,-1,340,20","Mitchell","Angelic, childlike. happiness but also with sadness.,40,180,20","Steven","two warring cities, separated by a small desert,50,160,20","Jeremy","Pleased. Reminds me of a child drawing,46,60,20","4"
"11032","","survey-text","110","606402","0.0-108.0-0.0","A2DLYBXZNSSJ4S","","","","{""Q0"":""Really amazing one""}","","","","","","","","","","","","","","","","","","","","","","",""
"4330.900000095367","","image-slider-response","111","610735","0.0-109.0","A2DLYBXZNSSJ4S","","","","","50","","","","","","","","","","","","","","","","","","","","","",""
"null","","image-button-response","112","615737","0.0-110.0","A2DLYBXZNSSJ4S","img_art/24.jpg","null","","","","","","","","","","","","","","","","","","","","","","","","",""
"6984","","image-button-response","113","622722","0.0-111.0","A2DLYBXZNSSJ4S","img_art/24.jpg","3","","","","","","","","","","","","","","","","","","","","","","","","",""
"563","","image-button-response","114","623286","0.0-112.0-0.0","A2DLYBXZNSSJ4S","img_art/24.jpg","4","","","","","","","","","","","","","","","","","","","","","","","","",""
"1406","","image-button-response","115","624694","0.0-113.0-0.0","A2DLYBXZNSSJ4S","img_art/24.jpg","0","","","","","","","","","","","","","","","","","","","","","","","","",""
"null","","html-keyboard-response","116","626196","0.0-114.0","A2DLYBXZNSSJ4S","<p style=""font-size: 48px;"">+</p>","","","","","null","allTrialResponses","1500","1","10","img_art/24.jpg","50","Really amazing one","Antonio,Jeremy,Grant,Steven,Mitchell,Jonathan","Waterfalls and spring and gives me a sense of renewal,34,220,20","somewhat happy. I like the colors,38,60,20","The colors look nice, but the painting bores me.,-20,200,20","It's beautiful! I love it! I see a waterfall, and they are my favorite things in the world,50,160,20","Nature, Peace, connected.,50,180,20","The colors and brush strokes make it feel adventurous,20,140,20","Steven","It's beautiful! I love it! I see a waterfall, and they are my favorite things in the world,50,160,20","Mitchell","Nature, Peace, connected.,50,180,20","Antonio","Waterfalls and spring and gives me a sense of renewal,34,220,20","4"
"8312","","survey-text","117","634514","0.0-115.0-0.0","A2DLYBXZNSSJ4S","","","","{""Q0"":""our""}","","","","","","","","","","","","","","","","","","","","","","",""
"14366","","survey-text","118","648882","0.0-116.0-0.0","A2DLYBXZNSSJ4S","","","","{""Q0"":""Really nice one""}","","","","","","","","","","","","","","","","","","","","","","",""
"2642.5999999046326","","image-slider-response","119","651526","0.0-117.0","A2DLYBXZNSSJ4S","","","","","50","","","","","","","","","","","","","","","","","","","","","",""
"null","","image-button-response","120","656530","0.0-118.0","A2DLYBXZNSSJ4S","img_art/10.jpg","null","","","","","","","","","","","","","","","","","","","","","","","","",""
"2838","","image-button-response","121","659370","0.0-119.0","A2DLYBXZNSSJ4S","img_art/10.jpg","5","","","","","","","","","","","","","","","","","","","","","","","","",""
"707","","image-button-response","122","660079","0.0-120.0-0.0","A2DLYBXZNSSJ4S","img_art/10.jpg","4","","","","","","","","","","","","","","","","","","","","","","","","",""
"2149","","image-button-response","123","662230","0.0-121.0-0.0","A2DLYBXZNSSJ4S","img_art/10.jpg","0","","","","","","","","","","","","","","","","","","","","","","","","",""
"null","","html-keyboard-response","124","663736","0.0-122.0","A2DLYBXZNSSJ4S","<p style=""font-size: 48px;"">+</p>","","","","","null","allTrialResponses","1500","1","11","img_art/10.jpg","50","Really nice one","Antonio,Matthew,David,Steven,Mitchell,Luis","This painting made me think of a guitar which made me think of music which envoked happy feelings.,28,220,20","AWESOME VIOLIN!`,26,120,20","I can't really tell what this is suppose to represent, but overall I don't like the design.,-20,340,20","I dont like it, there is too much going on,-19,160,20","Circle of life, with highs and lows, good and bad. You always weather the storm and come out on top.,40,180,20","I love the dark and edgy nature of this,50,400,20","Luis","I love the dark and edgy nature of this,50,400,20","Mitchell","Circle of life, with highs and lows, good and bad. You always weather the storm and come out on top.,40,180,20","Antonio","This painting made me think of a guitar which made me think of music which envoked happy feelings.,28,220,20","4"
"16794","","survey-text","125","680535","0.0-123.0-0.0","A2DLYBXZNSSJ4S","","","","{""Q0"":""good one""}","","","","","","","","","","","","","","","","","","","","","","",""
"4237.899999856949","","image-slider-response","126","684774","0.0-124.0","A2DLYBXZNSSJ4S","","","","","21","","","","","","","","","","","","","","","","","","","","","",""
"null","","image-button-response","127","689790","0.0-125.0","A2DLYBXZNSSJ4S","img_art/25.jpg","null","","","","","","","","","","","","","","","","","","","","","","","","",""
"3934","","image-button-response","128","693725","0.0-126.0","A2DLYBXZNSSJ4S","img_art/25.jpg","1","","","","","","","","","","","","","","","","","","","","","","","","",""
"896","","image-button-response","129","694623","0.0-127.0-0.0","A2DLYBXZNSSJ4S","img_art/25.jpg","2","","","","","","","","","","","","","","","","","","","","","","","","",""
"1182","","image-button-response","130","695807","0.0-128.0-0.0","A2DLYBXZNSSJ4S","img_art/25.jpg","4","","","","","","","","","","","","","","","","","","","","","","","","",""
"null","","html-keyboard-response","131","697308","0.0-129.0","A2DLYBXZNSSJ4S","<p style=""font-size: 48px;"">+</p>","","","","","null","allTrialResponses","1500","1","12","img_art/25.jpg","21","good one","Antonio,Jack,Colton,Daniel,Mitchell,Luis","Makes me think of Baphomet, As above so below and is scary,-50,220,20","beautiful in a primitive way,10,320,20","the colors are pretty,11,220,20","Beautiful color with an interesting otherworldly figure,29,320,20","culture, tradition. Village people with an honored elder.,40,180,20","New life, rising from your personal battles,50,400,20","Jack","beautiful in a primitive way,10,320,20","Colton","the colors are pretty,11,220,20","Mitchell","culture, tradition. Village people with an honored elder.,40,180,20","4"
"8269","","survey-text","132","705580","0.0-130.0-0.0","A2DLYBXZNSSJ4S","","","","{""Q0"":""Very good one""}","","","","","","","","","","","","","","","","","","","","","","",""
"5789.100000143051","","image-slider-response","133","711372","0.0-131.0","A2DLYBXZNSSJ4S","","","","","50","","","","","","","","","","","","","","","","","","","","","",""
"null","","image-button-response","134","716374","0.0-132.0","A2DLYBXZNSSJ4S","img_art/11.jpg","null","","","","","","","","","","","","","","","","","","","","","","","","",""
"934","","image-button-response","135","717309","0.0-133.0","A2DLYBXZNSSJ4S","img_art/11.jpg","5","","","","","","","","","","","","","","","","","","","","","","","","",""
"832","","image-button-response","136","718142","0.0-134.0-0.0","A2DLYBXZNSSJ4S","img_art/11.jpg","1","","","","","","","","","","","","","","","","","","","","","","","","",""
"2625","","image-button-response","137","720770","0.0-135.0-0.0","A2DLYBXZNSSJ4S","img_art/11.jpg","0","","","","","","","","","","","","","","","","","","","","","","","","",""
"null","","html-keyboard-response","138","721272","0.0-136.0","A2DLYBXZNSSJ4S","<p style=""font-size: 48px;"">+</p>","","","","","null","allTrialResponses","500","1","13","img_art/11.jpg","50","Very good one","Travis,Jack,Colton,Alexander,Mitchell,Derek","I liked it it looked like an roller coasters at an amusment park.,16,260,20","makes me think of city highways & bridges on a rainy, foggy day. I like the melancholy it evokes.,43,320,20","the wavy lines are nice and pleasing,13,220,20","Waves of signs.,15,120,20","Busy city life. transportation, anxiety.,10,180,20","There's a lot going on in this painting but it is pleasing and neat looking,31,360,20","Derek","There's a lot going on in this painting but it is pleasing and neat looking,31,360,20","Jack","makes me think of city highways & bridges on a rainy, foggy day. I like the melancholy it evokes.,43,320,20","Travis","I liked it it looked like an roller coasters at an amusment park.,16,260,20","4"
"7399","","survey-text","139","728674","0.0-137.0-0.0","A2DLYBXZNSSJ4S","","","","{""Q0"":""Just okay""}","","","","","","","","","","","","","","","","","","","","","","",""
"4314.599999904633","","image-slider-response","140","732990","0.0-138.0","A2DLYBXZNSSJ4S","","","","","-10","","","","","","","","","","","","","","","","","","","","","",""
"null","","image-button-response","141","737993","0.0-139.0","A2DLYBXZNSSJ4S","img_art/5.jpg","null","","","","","","","","","","","","","","","","","","","","","","","","",""
"1887","","image-button-response","142","739882","0.0-140.0","A2DLYBXZNSSJ4S","img_art/5.jpg","0","","","","","","","","","","","","","","","","","","","","","","","","",""
"980","","image-button-response","143","740863","0.0-141.0-0.0","A2DLYBXZNSSJ4S","img_art/5.jpg","5","","","","","","","","","","","","","","","","","","","","","","","","",""
"456","","image-button-response","144","741322","0.0-142.0-0.0","A2DLYBXZNSSJ4S","img_art/5.jpg","3","","","","","","","","","","","","","","","","","","","","","","","","",""
"null","","html-keyboard-response","145","741824","0.0-143.0","A2DLYBXZNSSJ4S","<p style=""font-size: 48px;"">+</p>","","","","","null","allTrialResponses","500","1","14","img_art/5.jpg","-10","Just okay","Travis,Jack,John,Jose,Carlos,Derek","This was awful and it looked like someone took minimul effort with it... no time at all.,-49,260,20","it's okay. the colors are eye catching, but that's about it.,3,320,20","It has a sense of vague familiarity that i like.Like a stick starting a fire at a campsite.,30,120,20","Don't love don't hate,8,200,20","It feels very strong and open.,31,80,20","It's okay. Don't hate it but don't love it either,0,360,20","Travis","This was awful and it looked like someone took minimul effort with it... no time at all.,-49,260,20","Derek","It's okay. Don't hate it but don't love it either,0,360,20","Jose","Don't love don't hate,8,200,20","4"
"14888","","survey-text","146","756715","0.0-144.0-0.0","A2DLYBXZNSSJ4S","","","","{""Q0"":""just okay""}","","","","","","","","","","","","","","","","","","","","","","",""
"5229.799999952316","","image-slider-response","147","761947","0.0-145.0","A2DLYBXZNSSJ4S","","","","","2","","","","","","","","","","","","","","","","","","","","","",""
"null","","image-button-response","148","766950","0.0-146.0","A2DLYBXZNSSJ4S","img_art/6.jpg","null","","","","","","","","","","","","","","","","","","","","","","","","",""
"2982","","image-button-response","149","769934","0.0-147.0","A2DLYBXZNSSJ4S","img_art/6.jpg","0","","","","","","","","","","","","","","","","","","","","","","","","",""
"447","","image-button-response","150","770382","0.0-148.0-0.0","A2DLYBXZNSSJ4S","img_art/6.jpg","1","","","","","","","","","","","","","","","","","","","","","","","","",""
"815","","image-button-response","151","771198","0.0-149.0-0.0","A2DLYBXZNSSJ4S","img_art/6.jpg","3","","","","","","","","","","","","","","","","","","","","","","","","",""
"null","","html-keyboard-response","152","772211","0.0-150.0","A2DLYBXZNSSJ4S","<p style=""font-size: 48px;"">+</p>","","","","","null","allTrialResponses","1000","1","15","img_art/6.jpg","2","just okay","Travis,Thomas,Bryan,Jose,Isaac,Derek","No feeling...just left me feeling kind of blah,1,260,20","I like the color and the gradient,10,220,20","Growth in the desert?  Don't care for it very much.,-26,400,20","This could be so many different things. I saw a bird first but then it looks like a needle going into skin,34,200,20","It looks like one tall ugly bird.,-43,280,20","Too basic for me,-20,360,20","Travis","No feeling...just left me feeling kind of blah,1,260,20","Thomas","I like the color and the gradient,10,220,20","Jose","This could be so many different things. I saw a bird first but then it looks like a needle going into skin,34,200,20","4"
"6013","","survey-text","153","778230","0.0-151.0-0.0","A2DLYBXZNSSJ4S","","","","{""Q0"":""course""}","","","","","","","","","","","","","","","","","","","","","","",""
"12045","","survey-text","154","790276","0.0-152.0-0.0","A2DLYBXZNSSJ4S","","","","{""Q0"":""nice one""}","","","","","","","","","","","","","","","","","","","","","","",""
"4926.799999952316","","image-slider-response","155","795205","0.0-153.0","A2DLYBXZNSSJ4S","","","","","29","","","","","","","","","","","","","","","","","","","","","",""
"null","","image-button-response","156","800212","0.0-154.0","A2DLYBXZNSSJ4S","img_art/28.jpg","null","","","","","","","","","","","","","","","","","","","","","","","","",""
"3479","","image-button-response","157","803693","0.0-155.0","A2DLYBXZNSSJ4S","img_art/28.jpg","0","","","","","","","","","","","","","","","","","","","","","","","","",""
"414","","image-button-response","158","804109","0.0-156.0-0.0","A2DLYBXZNSSJ4S","img_art/28.jpg","2","","","","","","","","","","","","","","","","","","","","","","","","",""
"1476","","image-button-response","159","805587","0.0-157.0-0.0","A2DLYBXZNSSJ4S","img_art/28.jpg","3","","","","","","","","","","","","","","","","","","","","","","","","",""
"null","","html-keyboard-response","160","807103","0.0-158.0","A2DLYBXZNSSJ4S","<p style=""font-size: 48px;"">+</p>","","","","","null","allTrialResponses","1500","1","16","img_art/28.jpg","29","nice one","Travis,Thomas,Ryan,Jose,Seth,Alexis","Hate it...brown and drab,-37,260,20","I can't explain why, but I really love this one,50,220,20","Colors look too muddy for my liking,-33,380,20","Eh it's just kinda brown and muddy and not very nice looking,-18,200,20","I think this piece is interesting. I love the faces drawn into it.,29,60,20","The brown and green colors used look dull and unappealing,-30,140,20","Travis","Hate it...brown and drab,-37,260,20","Ryan","Colors look too muddy for my liking,-33,380,20","Jose","Eh it's just kinda brown and muddy and not very nice looking,-18,200,20","4"
"21519","","survey-text","161","828627","0.0-159.0-0.0","A2DLYBXZNSSJ4S","","","","{""Q0"":""Nice colors""}","","","","","","","","","","","","","","","","","","","","","","",""
"3600.199999809265","","image-slider-response","162","832228","0.0-160.0","A2DLYBXZNSSJ4S","","","","","32","","","","","","","","","","","","","","","","","","","","","",""
"null","","image-button-response","163","837244","0.0-161.0","A2DLYBXZNSSJ4S","img_art/22.jpg","null","","","","","","","","","","","","","","","","","","","","","","","","",""
"3295","","image-button-response","164","840541","0.0-162.0","A2DLYBXZNSSJ4S","img_art/22.jpg","0","","","","","","","","","","","","","","","","","","","","","","","","",""
"526","","image-button-response","165","841069","0.0-163.0-0.0","A2DLYBXZNSSJ4S","img_art/22.jpg","2","","","","","","","","","","","","","","","","","","","","","","","","",""
"1165","","image-button-response","166","842236","0.0-164.0-0.0","A2DLYBXZNSSJ4S","img_art/22.jpg","3","","","","","","","","","","","","","","","","","","","","","","","","",""
"null","","html-keyboard-response","167","843744","0.0-165.0","A2DLYBXZNSSJ4S","<p style=""font-size: 48px;"">+</p>","","","","","null","allTrialResponses","1500","1","17","img_art/22.jpg","32","Nice colors","Travis,Jordan,Ryan,Jose,Taylor,Vincent","Don't like it...too much red,-17,260,20","The colors are too dark, too much red,2,160,20","Very generic, seen many times before,-43,380,20","Cool squares but what's the circle?,38,200,20","Looks like the kind of art I would see at the doctor's office.,-5,200,20","Can fit with anyone. And in any home a great piece of art,35,360,20","Travis","Don't like it...too much red,-17,260,20","Ryan","Very generic, seen many times before,-43,380,20","Jose","Cool squares but what's the circle?,38,200,20","4"
"8242","","survey-text","168","851991","0.0-166.0-0.0","A2DLYBXZNSSJ4S","","","","{""Q0"":""just okay""}","","","","","","","","","","","","","","","","","","","","","","",""
"4167.200000047684","","image-slider-response","169","856160","0.0-167.0","A2DLYBXZNSSJ4S","","","","","-14","","","","","","","","","","","","","","","","","","","","","",""
"null","","image-button-response","170","861168","0.0-168.0","A2DLYBXZNSSJ4S","img_art/12.jpg","null","","","","","","","","","","","","","","","","","","","","","","","","",""
"3503","","image-button-response","171","864674","0.0-169.0","A2DLYBXZNSSJ4S","img_art/12.jpg","1","","","","","","","","","","","","","","","","","","","","","","","","",""
"632","","image-button-response","172","865308","0.0-170.0-0.0","A2DLYBXZNSSJ4S","img_art/12.jpg","0","","","","","","","","","","","","","","","","","","","","","","","","",""
"1290","","image-button-response","173","866600","0.0-171.0-0.0","A2DLYBXZNSSJ4S","img_art/12.jpg","5","","","","","","","","","","","","","","","","","","","","","","","","",""
"null","","html-keyboard-response","174","867101","0.0-172.0","A2DLYBXZNSSJ4S","<p style=""font-size: 48px;"">+</p>","","","","","null","allTrialResponses","500","1","18","img_art/12.jpg","-14","just okay","Travis,Bryce,Ryan,Jose,Jason,Devin","Neutral...just blocks.,3,260,20","A little bit boring.,-24,20,20","The colors are beautiful and it has great composition,50,380,20","Not sure why but this is my favorite. I'd put it on my wall,50,200,20","The shapes present in the picture make it very interesting,17,20,20","Love the shapes here,12,380,20","Bryce","A little bit boring.,-24,20,20","Travis","Neutral...just blocks.,3,260,20","Devin","Love the shapes here,12,380,20","4"
"9870","","survey-text","175","876975","0.0-173.0-0.0","A2DLYBXZNSSJ4S","","","","{""Q0"":""Not bad""}","","","","","","","","","","","","","","","","","","","","","","",""
"5006.800000190735","","image-slider-response","176","881983","0.0-174.0","A2DLYBXZNSSJ4S","","","","","2","","","","","","","","","","","","","","","","","","","","","",""
"null","","image-button-response","177","886989","0.0-175.0","A2DLYBXZNSSJ4S","img_art/21.jpg","null","","","","","","","","","","","","","","","","","","","","","","","","",""
"2726","","image-button-response","178","889717","0.0-176.0","A2DLYBXZNSSJ4S","img_art/21.jpg","3","","","","","","","","","","","","","","","","","","","","","","","","",""
"737","","image-button-response","179","890457","0.0-177.0-0.0","A2DLYBXZNSSJ4S","img_art/21.jpg","0","","","","","","","","","","","","","","","","","","","","","","","","",""
"700","","image-button-response","180","891159","0.0-178.0-0.0","A2DLYBXZNSSJ4S","img_art/21.jpg","1","","","","","","","","","","","","","","","","","","","","","","","","",""
"null","","html-keyboard-response","181","892187","0.0-179.0","A2DLYBXZNSSJ4S","<p style=""font-size: 48px;"">+</p>","","","","","null","allTrialResponses","1000","1","19","img_art/21.jpg","2","Not bad","Travis,Bryce,Tristan,Tanner,Miguel,Devin","I liked it...it looked like a storm raging.,12,260,20","Nothing exciting in this one.,-36,20,20","A landscape that leaves me inspired and hopeful.,20,300,20","calm, ship at sea, sunset,16,180,20","Amazing colors.,34,160,20","Evokes a strong colorful sense,8,380,20","Tanner","calm, ship at sea, sunset,16,180,20","Travis","I liked it...it looked like a storm raging.,12,260,20","Bryce","Nothing exciting in this one.,-36,20,20","4"
"11975","","survey-text","182","904167","0.0-180.0-0.0","A2DLYBXZNSSJ4S","","","","{""Q0"":""Really good one""}","","","","","","","","","","","","","","","","","","","","","","",""
"2571.2999999523163","","image-slider-response","183","906740","0.0-181.0","A2DLYBXZNSSJ4S","","","","","12","","","","","","","","","","","","","","","","","","","","","",""
"null","","image-button-response","184","911743","0.0-182.0","A2DLYBXZNSSJ4S","img_art/23.jpg","null","","","","","","","","","","","","","","","","","","","","","","","","",""
"1751","","image-button-response","185","913496","0.0-183.0","A2DLYBXZNSSJ4S","img_art/23.jpg","1","","","","","","","","","","","","","","","","","","","","","","","","",""
"574","","image-button-response","186","914071","0.0-184.0-0.0","A2DLYBXZNSSJ4S","img_art/23.jpg","0","","","","","","","","","","","","","","","","","","","","","","","","",""
"1822","","image-button-response","187","915896","0.0-185.0-0.0","A2DLYBXZNSSJ4S","img_art/23.jpg","4","","","","","","","","","","","","","","","","","","","","","","","","",""
"null","","html-keyboard-response","188","916898","0.0-186.0","A2DLYBXZNSSJ4S","<p style=""font-size: 48px;"">+</p>","","","","","null","allTrialResponses","1000","1","20","img_art/23.jpg","12","Really good one","Travis,Bryce,Brett,Tanner,Luke,Cole","I had a very neutral feeling to this,no feelings at all.,1,260,20","So beautiful with the white accents.,50,20,20","Universal celebration,40,360,20","fsiries, happy, spiritual,16,180,20","makes me happy and want to dance,43,20,20","White in the middle look like people dancing naked,19,200,20","Bryce","So beautiful with the white accents.,50,20,20","Travis","I had a very neutral feeling to this,no feelings at all.,1,260,20","Luke","makes me happy and want to dance,43,20,20","4"
"4914","","survey-text","189","921819","0.0-187.0-0.0","A2DLYBXZNSSJ4S","","","","{""Q0"":""we""}","","","","","","","","","","","","","","","","","","","","","","",""
"9967","","survey-text","190","931787","0.0-188.0-0.0","A2DLYBXZNSSJ4S","","","","{""Q0"":""Not bad""}","","","","","","","","","","","","","","","","","","","","","","",""
"3883.7000000476837","","image-slider-response","191","935672","0.0-189.0","A2DLYBXZNSSJ4S","","","","","-25","","","","","","","","","","","","","","","","","","","","","",""
"null","","image-button-response","192","940680","0.0-190.0","A2DLYBXZNSSJ4S","img_art/2.jpg","null","","","","","","","","","","","","","","","","","","","","","","","","",""
"2829","","image-button-response","193","943512","0.0-191.0","A2DLYBXZNSSJ4S","img_art/2.jpg","4","","","","","","","","","","","","","","","","","","","","","","","","",""
"682","","image-button-response","194","944199","0.0-192.0-0.0","A2DLYBXZNSSJ4S","img_art/2.jpg","3","","","","","","","","","","","","","","","","","","","","","","","","",""
"847","","image-button-response","195","945048","0.0-193.0-0.0","A2DLYBXZNSSJ4S","img_art/2.jpg","0","","","","","","","","","","","","","","","","","","","","","","","","",""
"null","","html-keyboard-response","196","946553","0.0-194.0","A2DLYBXZNSSJ4S","<p style=""font-size: 48px;"">+</p>","","","","","null","allTrialResponses","1500","1","21","img_art/2.jpg","-25","Not bad","Travis,Bryce,Victor,Joshua,Luke,Angel","I didn't like this it looked like a kindergardner painted it and the green was out of place.,-46,260,20","I love the colors in this.,29,20,20","It's interesting. The chunks of black here and there are nice,13,340,20","Looks like child's art.,-19,240,20","too abstract and confusing,-19,20,20","I think I'm put off by the clashing colors here. It feels discombobulated and sick.,-10,180,20","Luke","too abstract and confusing,-19,20,20","Joshua","Looks like child's art.,-19,240,20","Travis","I didn't like this it looked like a kindergardner painted it and the green was out of place.,-46,260,20","4"
"15738","","survey-text","197","962295","0.0-195.0-0.0","A2DLYBXZNSSJ4S","","","","{""Q0"":""Intresting one""}","","","","","","","","","","","","","","","","","","","","","","",""
"4545.700000047684","","image-slider-response","198","966842","0.0-196.0","A2DLYBXZNSSJ4S","","","","","18","","","","","","","","","","","","","","","","","","","","","",""
"null","","image-button-response","199","971853","0.0-197.0","A2DLYBXZNSSJ4S","img_art/3.jpg","null","","","","","","","","","","","","","","","","","","","","","","","","",""
"3107","","image-button-response","200","974962","0.0-198.0","A2DLYBXZNSSJ4S","img_art/3.jpg","4","","","","","","","","","","","","","","","","","","","","","","","","",""
"362","","image-button-response","201","975326","0.0-199.0-0.0","A2DLYBXZNSSJ4S","img_art/3.jpg","5","","","","","","","","","","","","","","","","","","","","","","","","",""
"470","","image-button-response","202","975799","0.0-200.0-0.0","A2DLYBXZNSSJ4S","img_art/3.jpg","3","","","","","","","","","","","","","","","","","","","","","","","","",""
"null","","html-keyboard-response","203","976801","0.0-201.0","A2DLYBXZNSSJ4S","<p style=""font-size: 48px;"">+</p>","","","","","null","allTrialResponses","1000","1","22","img_art/3.jpg","18","Intresting one","Travis,Robert,Stephen,Joshua,Luke,Christian","I hate this...just a scribble of red.,-50,260,20","I think of an angry child,-50,360,20","Don't see what the purpose is.,-31,140,20","Looks like a Basquiat but just not my cup of tea.,-29,240,20","it makes me feel really angry,-20,20,20","sorry do not understand,-26,140,20","Luke","it makes me feel really angry,-20,20,20","Christian","sorry do not understand,-26,140,20","Joshua","Looks like a Basquiat but just not my cup of tea.,-29,240,20","4"
"6194","","survey-text","204","982999","0.0-202.0-0.0","A2DLYBXZNSSJ4S","","","","{""Q0"":""no bad""}","","","","","","","","","","","","","","","","","","","","","","",""
"4035.300000190735","","image-slider-response","205","987036","0.0-203.0","A2DLYBXZNSSJ4S","","","","","-16","","","","","","","","","","","","","","","","","","","","","",""
"null","","image-button-response","206","992039","0.0-204.0","A2DLYBXZNSSJ4S","img_art/4.jpg","null","","","","","","","","","","","","","","","","","","","","","","","","",""
"1974","","image-button-response","207","994014","0.0-205.0","A2DLYBXZNSSJ4S","img_art/4.jpg","5","","","","","","","","","","","","","","","","","","","","","","","","",""
"400","","image-button-response","208","994416","0.0-206.0-0.0","A2DLYBXZNSSJ4S","img_art/4.jpg","4","","","","","","","","","","","","","","","","","","","","","","","","",""
"319","","image-button-response","209","994736","0.0-207.0-0.0","A2DLYBXZNSSJ4S","img_art/4.jpg","3","","","","","","","","","","","","","","","","","","","","","","","","",""
"null","","html-keyboard-response","210","996238","0.0-208.0","A2DLYBXZNSSJ4S","<p style=""font-size: 48px;"">+</p>","","","","","null","allTrialResponses","1500","1","23","img_art/4.jpg","-16","no bad","Zachary,Tyler,Lucas,Joshua,Luke,Christian","Not a huge fan of the color story, but it reminds me of a child finger-painting.,12,400,20","This is what makes suburban dads say, ""my 4-year-old can do that."",-49,320,20","Not bad at all.,20,380,20","looks very rudimentary and too simple.,-14,240,20","it looks like a simple finger painting, yet i liked the color choices,-12,20,20","no sorry i can't really understand,-18,140,20","Christian","no sorry i can't really understand,-18,140,20","Luke","it looks like a simple finger painting, yet i liked the color choices,-12,20,20","Joshua","looks very rudimentary and too simple.,-14,240,20","4"
"9907","","survey-text","211","1006150","0.0-209.0-0.0","A2DLYBXZNSSJ4S","","","","{""Q0"":""Looking great""}","","","","","","","","","","","","","","","","","","","","","","",""
"2794.7999999523163","","image-slider-response","212","1008946","0.0-210.0","A2DLYBXZNSSJ4S","","","","","20","","","","","","","","","","","","","","","","","","","","","",""
"null","","image-button-response","213","1013949","0.0-211.0","A2DLYBXZNSSJ4S","img_art/26.jpg","null","","","","","","","","","","","","","","","","","","","","","","","","",""
"3936","","image-button-response","214","1017887","0.0-212.0","A2DLYBXZNSSJ4S","img_art/26.jpg","4","","","","","","","","","","","","","","","","","","","","","","","","",""
"482","","image-button-response","215","1018370","0.0-213.0-0.0","A2DLYBXZNSSJ4S","img_art/26.jpg","5","","","","","","","","","","","","","","","","","","","","","","","","",""
"627","","image-button-response","216","1018999","0.0-214.0-0.0","A2DLYBXZNSSJ4S","img_art/26.jpg","1","","","","","","","","","","","","","","","","","","","","","","","","",""
"null","","html-keyboard-response","217","1019502","0.0-215.0","A2DLYBXZNSSJ4S","<p style=""font-size: 48px;"">+</p>","","","","","null","allTrialResponses","500","1","24","img_art/26.jpg","20","Looking great","Samuel,Spencer,Blake,Joshua,Luke,Christian","reminds me of a hometown,7,400,20","Really like it, a very nice neighborhood scene to me,42,120,20","bedroom in the outdoors. warm,9,280,20","This is boring.,-15,240,20","makes me happy and reminds me of a paris courtyard,29,20,20","love the ""lowkey"" vibrant colors that are colorful but at the same time greyscale,12,140,20","Luke","makes me happy and reminds me of a paris courtyard,29,20,20","Christian","love the ""lowkey"" vibrant colors that are colorful but at the same time greyscale,12,140,20","Spencer","Really like it, a very nice neighborhood scene to me,42,120,20","4"
"8800","","survey-text","218","1028306","0.0-216.0-0.0","A2DLYBXZNSSJ4S","","","","{""Q0"":""It's just okay""}","","","","","","","","","","","","","","","","","","","","","","",""
"2556.7999999523163","","image-slider-response","219","1030864","0.0-217.0","A2DLYBXZNSSJ4S","","","","","29","","","","","","","","","","","","","","","","","","","","","",""
"null","","image-button-response","220","1035868","0.0-218.0","A2DLYBXZNSSJ4S","img_art/1.jpg","null","","","","","","","","","","","","","","","","","","","","","","","","",""
"1878","","image-button-response","221","1037748","0.0-219.0","A2DLYBXZNSSJ4S","img_art/1.jpg","2","","","","","","","","","","","","","","","","","","","","","","","","",""
"429","","image-button-response","222","1038178","0.0-220.0-0.0","A2DLYBXZNSSJ4S","img_art/1.jpg","1","","","","","","","","","","","","","","","","","","","","","","","","",""
"318","","image-button-response","223","1038499","0.0-221.0-0.0","A2DLYBXZNSSJ4S","img_art/1.jpg","0","","","","","","","","","","","","","","","","","","","","","","","","",""
"null","","html-keyboard-response","224","1039001","0.0-222.0","A2DLYBXZNSSJ4S","<p style=""font-size: 48px;"">+</p>","","","","","null","allTrialResponses","500","1","25","img_art/1.jpg","29","It's just okay","Mark,Spencer,Patrick,Scott,Luke,Christian","It just doesn't speak to me.,0,80,20","Pretty intermeshing of colors, happy,32,120,20","I feel uneasy looking at this,-41,280,20","good colors and contrast,31,20,20","it is very colorful and makes me happy,44,20,20","bamboo boat in sunset,12,140,20","Patrick","I feel uneasy looking at this,-41,280,20","Spencer","Pretty intermeshing of colors, happy,32,120,20","Mark","It just doesn't speak to me.,0,80,20","4"
"8210","","survey-text","225","1047219","0.0-223.0-0.0","A2DLYBXZNSSJ4S","","","","{""Q0"":""table""}","","","","","","","","","","","","","","","","","","","","","","",""
"10373","","survey-text","226","1057593","0.0-224.0-0.0","A2DLYBXZNSSJ4S","","","","{""Q0"":""Not bad""}","","","","","","","","","","","","","","","","","","","","","","",""
"3554.7000000476837","","image-slider-response","227","1061150","0.0-225.0","A2DLYBXZNSSJ4S","","","","","32","","","","","","","","","","","","","","","","","","","","","",""
"null","","image-button-response","228","1066152","0.0-226.0","A2DLYBXZNSSJ4S","img_art/16.jpg","null","","","","","","","","","","","","","","","","","","","","","","","","",""
"2696","","image-button-response","229","1068849","0.0-227.0","A2DLYBXZNSSJ4S","img_art/16.jpg","3","","","","","","","","","","","","","","","","","","","","","","","","",""
"496","","image-button-response","230","1069346","0.0-228.0-0.0","A2DLYBXZNSSJ4S","img_art/16.jpg","4","","","","","","","","","","","","","","","","","","","","","","","","",""
"878","","image-button-response","231","1070226","0.0-229.0-0.0","A2DLYBXZNSSJ4S","img_art/16.jpg","5","","","","","","","","","","","","","","","","","","","","","","","","",""
"null","","html-keyboard-response","232","1070727","0.0-230.0","A2DLYBXZNSSJ4S","<p style=""font-size: 48px;"">+</p>","","","","","null","allTrialResponses","500","1","26","img_art/16.jpg","32","Not bad","Mark,Spencer,Patrick,Caleb,Kevin,Gregory","I think it's about child abuse. The teddy bear represents innocence and the dark shape is approaching it.,40,80,20","Know it is a piece relating to children and gun violence. Sad,-30,120,20","This painting is too random,-30,280,20","A strange collage made by a child. Do not like the colored face of the bear.,-29,40,20","Hmm i don't know what going on here.,1,320,20","Weird and funny,40,220,20","Caleb","A strange collage made by a child. Do not like the colored face of the bear.,-29,40,20","Kevin","Hmm i don't know what going on here.,1,320,20","Gregory","Weird and funny,40,220,20","4"
"6846","","survey-text","233","1077579","0.0-231.0-0.0","A2DLYBXZNSSJ4S","","","","{""Q0"":""just okay""}","","","","","","","","","","","","","","","","","","","","","","",""
"2707.2999999523163","","image-slider-response","234","1080288","0.0-232.0","A2DLYBXZNSSJ4S","","","","","26","","","","","","","","","","","","","","","","","","","","","",""
"null","","image-button-response","235","1085306","0.0-233.0","A2DLYBXZNSSJ4S","img_art/7.jpg","null","","","","","","","","","","","","","","","","","","","","","","","","",""
"1658","","image-button-response","236","1086966","0.0-234.0","A2DLYBXZNSSJ4S","img_art/7.jpg","1","","","","","","","","","","","","","","","","","","","","","","","","",""
"1746","","image-button-response","237","1088714","0.0-235.0-0.0","A2DLYBXZNSSJ4S","img_art/7.jpg","5","","","","","","","","","","","","","","","","","","","","","","","","",""
"318","","image-button-response","238","1089034","0.0-236.0-0.0","A2DLYBXZNSSJ4S","img_art/7.jpg","4","","","","","","","","","","","","","","","","","","","","","","","","",""
"null","","html-keyboard-response","239","1089537","0.0-237.0","A2DLYBXZNSSJ4S","<p style=""font-size: 48px;"">+</p>","","","","","null","allTrialResponses","500","1","27","img_art/7.jpg","26","just okay","Andrew,Ian,Edward,Caleb,Kevin,Gregory","It makes me think of new archaeology discoveries,15,160,20","This looks like a literal picture of the ground so I'm really not too sure about this one.,-42,260,20","It looks like maybe some seeds?,14,60,20","More saturated color, even more interpretations to have.,44,40,20","That a desert floor,16,320,20","Looks like a battle raging on,20,220,20","Ian","This looks like a literal picture of the ground so I'm really not too sure about this one.,-42,260,20","Gregory","Looks like a battle raging on,20,220,20","Kevin","That a desert floor,16,320,20","4"
"9024","","survey-text","240","1098566","0.0-238.0-0.0","A2DLYBXZNSSJ4S","","","","{""Q0"":""Really great one""}","","","","","","","","","","","","","","","","","","","","","","",""
"6098.399999856949","","image-slider-response","241","1104665","0.0-239.0","A2DLYBXZNSSJ4S","","","","","50","","","","","","","","","","","","","","","","","","","","","",""
"null","","image-button-response","242","1109673","0.0-240.0","A2DLYBXZNSSJ4S","img_art/19.jpg","null","","","","","","","","","","","","","","","","","","","","","","","","",""
"1352","","image-button-response","243","1111027","0.0-241.0","A2DLYBXZNSSJ4S","img_art/19.jpg","2","","","","","","","","","","","","","","","","","","","","","","","","",""
"461","","image-button-response","244","1111490","0.0-242.0-0.0","A2DLYBXZNSSJ4S","img_art/19.jpg","1","","","","","","","","","","","","","","","","","","","","","","","","",""
"752","","image-button-response","245","1112244","0.0-243.0-0.0","A2DLYBXZNSSJ4S","img_art/19.jpg","5","","","","","","","","","","","","","","","","","","","","","","","","",""
"null","","html-keyboard-response","246","1113745","0.0-244.0","A2DLYBXZNSSJ4S","<p style=""font-size: 48px;"">+</p>","","","","","null","allTrialResponses","1500","1","28","img_art/19.jpg","50","Really great one","Shawn,Ian,Devon,Anthony,Kevin,Gregory","The use of space isn't my favorite.,-20,100,20","It looks cool but at the time looks like it was done by a talented 5 year old.,13,260,20","this looks like a busy city lifestyle,24,400,20","Very, very ugly and sloppy,-31,200,20","Thats a lazy town,-8,320,20","Looks like a busy port,10,220,20","Devon","this looks like a busy city lifestyle,24,400,20","Ian","It looks cool but at the time looks like it was done by a talented 5 year old.,13,260,20","Gregory","Looks like a busy port,10,220,20","4"
"5989","","survey-text","247","1119740","0.0-245.0-0.0","A2DLYBXZNSSJ4S","","","","{""Q0"":""Nice one""}","","","","","","","","","","","","","","","","","","","","","","",""
"3176.399999856949","","image-slider-response","248","1122917","0.0-246.0","A2DLYBXZNSSJ4S","","","","","50","","","","","","","","","","","","","","","","","","","","","",""
"null","","image-button-response","249","1127931","0.0-247.0","A2DLYBXZNSSJ4S","img_art/18.jpg","null","","","","","","","","","","","","","","","","","","","","","","","","",""
"3752","","image-button-response","250","1131685","0.0-248.0","A2DLYBXZNSSJ4S","img_art/18.jpg","2","","","","","","","","","","","","","","","","","","","","","","","","",""
"524","","image-button-response","251","1132211","0.0-249.0-0.0","A2DLYBXZNSSJ4S","img_art/18.jpg","1","","","","","","","","","","","","","","","","","","","","","","","","",""
"410","","image-button-response","252","1132625","0.0-250.0-0.0","A2DLYBXZNSSJ4S","img_art/18.jpg","0","","","","","","","","","","","","","","","","","","","","","","","","",""
"null","","html-keyboard-response","253","1133126","0.0-251.0","A2DLYBXZNSSJ4S","<p style=""font-size: 48px;"">+</p>","","","","","null","allTrialResponses","500","1","29","img_art/18.jpg","50","Nice one","Justin,Ian,Devon,Nathaniel,Noah,Gregory","This is really interesting to look at. I like the colors and the spectral look.,27,280,20","This one raises some questions, there could be some sort of fight or battle going on.,11,260,20","I really like this one - there seems to be a story behind it,32,400,20","Looks like a jumbled mess. I prefer a clearer picture,-18,220,20","enjoy the juxtaposition of abstract with tangible elements & the use of color,10,260,20","Mash up of colors and don't see a grander picture,-10,220,20","Devon","I really like this one - there seems to be a story behind it,32,400,20","Ian","This one raises some questions, there could be some sort of fight or battle going on.,11,260,20","Justin","This is really interesting to look at. I like the colors and the spectral look.,27,280,20","4"
"14007","","survey-text","254","1147138","0.0-252.0-0.0","A2DLYBXZNSSJ4S","","","","{""Q0"":""intresting one""}","","","","","","","","","","","","","","","","","","","","","","",""
"4256.5","","image-slider-response","255","1151396","0.0-253.0","A2DLYBXZNSSJ4S","","","","","50","","","","","","","","","","","","","","","","","","","","","",""
"null","","image-button-response","256","1156399","0.0-254.0","A2DLYBXZNSSJ4S","img_art/17.jpg","null","","","","","","","","","","","","","","","","","","","","","","","","",""
"2107","","image-button-response","257","1158508","0.0-255.0","A2DLYBXZNSSJ4S","img_art/17.jpg","4","","","","","","","","","","","","","","","","","","","","","","","","",""
"1406","","image-button-response","258","1159917","0.0-256.0-0.0","A2DLYBXZNSSJ4S","img_art/17.jpg","1","","","","","","","","","","","","","","","","","","","","","","","","",""
"351","","image-button-response","259","1160269","0.0-257.0-0.0","A2DLYBXZNSSJ4S","img_art/17.jpg","2","","","","","","","","","","","","","","","","","","","","","","","","",""
"null","","html-keyboard-response","260","1161782","0.0-258.0","A2DLYBXZNSSJ4S","<p style=""font-size: 48px;"">+</p>","","","","","null","allTrialResponses","1500","1","30","img_art/17.jpg","50","intresting one","Justin,Ian,Devon,Jesus,Elijah,Trevor","I like the colors and the design.,20,280,20","It seems a little dark but it is very beautiful,28,260,20","i feel some sadness in this picture,25,400,20","Very fun textures,32,100,20","Very cool, makes me feel calm,43,80,20","I like how it looks like a tree. The colors are too muted though,12,280,20","Elijah","Very cool, makes me feel calm,43,80,20","Ian","It seems a little dark but it is very beautiful,28,260,20","Devon","i feel some sadness in this picture,25,400,20","4"
"3610","","image-button-response_instructions","261","1165397","0.0-259.0","A2DLYBXZNSSJ4S","","0","instructions","","","","","","","","","","","","","","","","","","","","","","","",""
"1616","","image-button-response","262","1167019","0.0-260.0","A2DLYBXZNSSJ4S","","0","","","","","","","","","","","","","","","","","","","","","","","","",""
