"rt","url","trial_type","trial_index","time_elapsed","internal_node_id","participant_id","stimulus","button_pressed","Name","responses","response","key_press","variableName","fixationTime","condition","trial","photo","subjectRating","subjectResponse","agentsNames","agent_1_Response","agent_2_Response","agent_3_Response","agent_4_Response","agent_5_Response","agent_6_Response","kept_1_name","kept_1_response","kept_2_name","kept_2_response","kept_3_name","kept_3_response","errorCounter"
"242094","external_page_harvard.html","external-html","0","242268","0.0-0.0","A2E0LU8V4EUX5C","","","","","","","","","","","","","","","","","","","","","","","","","","",""
"1173","","image-button-response","1","243443","0.0-1.0","A2E0LU8V4EUX5C","","0","","","","","","","","","","","","","","","","","","","","","","","","",""
"940","","image-button-response","2","244387","0.0-2.0-0.0","A2E0LU8V4EUX5C","","1","phone","","","","","","","","","","","","","","","","","","","","","","","",""
"7359","","survey-text","3","251747","0.0-3.0-0.0","A2E0LU8V4EUX5C","","","","{""Q0"":""A2E0LU8V4EUX5C""}","","","","","","","","","","","","","","","","","","","","","","",""
"2351","","image-button-response_instructions","4","254099","0.0-4.0","A2E0LU8V4EUX5C","","0","instructions","","","","","","","","","","","","","","","","","","","","","","","",""
"7871","","image-button-response_instructions","5","261971","0.0-5.0","A2E0LU8V4EUX5C","img_art/ins/popularity/ins1.png","0","instructions","","","","","","","","","","","","","","","","","","","","","","","",""
"4207","","image-button-response_instructions","6","266178","0.0-6.0","A2E0LU8V4EUX5C","img_art/ins/popularity/ins2.png","0","instructions","","","","","","","","","","","","","","","","","","","","","","","",""
"3047","","image-button-response_instructions","7","269226","0.0-7.0","A2E0LU8V4EUX5C","img_art/ins/popularity/ins2Extreme.png","0","instructions","","","","","","","","","","","","","","","","","","","","","","","",""
"7959","","image-button-response_instructions","8","277186","0.0-8.0","A2E0LU8V4EUX5C","img_art/ins/popularity/ins3KEEPpop.PNG","0","instructions","","","","","","","","","","","","","","","","","","","","","","","",""
"2375","","image-button-response_instructions","9","279562","0.0-9.0","A2E0LU8V4EUX5C","img_art/ins/popularity/ins3ANamepop.PNG","0","instructions","","","","","","","","","","","","","","","","","","","","","","","",""
"2287","","image-button-response_instructions","10","281850","0.0-10.0","A2E0LU8V4EUX5C","img_art/ins/popularity/ins3ARatingpop.png","0","instructions","","","","","","","","","","","","","","","","","","","","","","","",""
"3071","","image-button-response_instructions","11","284922","0.0-11.0","A2E0LU8V4EUX5C","img_art/ins/popularity/ins3ATextpop.png","0","instructions","","","","","","","","","","","","","","","","","","","","","","","",""
"3751","","image-button-response_instructions","12","288674","0.0-12.0","A2E0LU8V4EUX5C","img_art/ins/popularity/ins3ALikespop.png","0","instructions","","","","","","","","","","","","","","","","","","","","","","","",""
"11695","","image-button-response_instructions","13","300370","0.0-13.0","A2E0LU8V4EUX5C","img_art/ins/popularity/ins3KEEPpop.PNG","0","instructions","","","","","","","","","","","","","","","","","","","","","","","",""
"7647","","image-button-response_instructions","14","308018","0.0-14.0","A2E0LU8V4EUX5C","img_art/ins/popularity/ins3_5RED.png","0","instructions","","","","","","","","","","","","","","","","","","","","","","","",""
"4774","","image-button-response_instructions","15","312795","0.0-15.0","A2E0LU8V4EUX5C","img_art/ins/popularity/ins3KEEPpop.PNG","0","instructions","","","","","","","","","","","","","","","","","","","","","","","",""
"6487","","image-button-response_instructions","16","319282","0.0-16.0","A2E0LU8V4EUX5C","img_art/ins/popularity/ins4KEEPpop.PNG","0","instructions","","","","","","","","","","","","","","","","","","","","","","","",""
"3863","","image-button-response_instructions","17","323146","0.0-17.0","A2E0LU8V4EUX5C","img_art/ins/popularity/ins5KEEPpop.PNG","0","instructions","","","","","","","","","","","","","","","","","","","","","","","",""
"1535","","image-button-response_instructions","18","324682","0.0-18.0","A2E0LU8V4EUX5C","","0","instructions","","","","","","","","","","","","","","","","","","","","","","","",""
"10174","","survey-text","19","334874","0.0-19.0-0.0","A2E0LU8V4EUX5C","","","","{""Q0"":""but""}","","","","","","","","","","","","","","","","","","","","","","",""
"20671","","survey-text","20","355546","0.0-20.0-0.0","A2E0LU8V4EUX5C","","","","{""Q0"":""High energy but looks amateur like""}","","","","","","","","","","","","","","","","","","","","","","",""
"3758.5","","image-slider-response","21","359306","0.0-21.0","A2E0LU8V4EUX5C","","","","","-21","","","","","","","","","","","","","","","","","","","","","",""
"null","","image-button-response","22","364309","0.0-22.0","A2E0LU8V4EUX5C","img_art/ins/1.jpg","null","","","","","","","","","","","","","","","","","","","","","","","","",""
"5650","","image-button-response","23","369962","0.0-23.0","A2E0LU8V4EUX5C","img_art/ins/1.jpg","2","","","","","","","","","","","","","","","","","","","","","","","","",""
"2895","","image-button-response","24","372858","0.0-24.0-0.0","A2E0LU8V4EUX5C","img_art/ins/1.jpg","0","","","","","","","","","","","","","","","","","","","","","","","","",""
"3342","","image-button-response","25","376202","0.0-25.0-0.0","A2E0LU8V4EUX5C","img_art/ins/1.jpg","0","","","","","","","","","","","","","","","","","","","","","","","","",""
"3991","","image-button-response","26","386306","0.0-25.1-0.1","A2E0LU8V4EUX5C","img_art/ins/1.jpg","2","","","","","","","","","","","","","","","","","","","","","","","","",""
"1551","","image-button-response","27","392714","0.0-25.2-0.2","A2E0LU8V4EUX5C","img_art/ins/1.jpg","4","","","","","","","","","","","","","","","","","","","","","","","","",""
"null","","html-keyboard-response","28","394217","0.0-26.0","A2E0LU8V4EUX5C","<p style=""font-size: 48px;"">+</p>","","","","","null","allTrialResponses","1500","1","-2","img_art/ins/1.jpg","-21","High energy but looks amateur like","Adam,Alex,Ben,Carl,Daniel,Jack","Seems like doodles,-20,20,20","very creative work.,36,40,20","This color reminds me of poo,-46,60,20","very calming artwork,42,80,20","It looks like a murder scene.,-48,100,20","I like the sophisticated brushwork,40,120,20","Ben","This color reminds me of poo,-46,60,20","Adam","Seems like doodles,-20,20,20","Daniel","It looks like a murder scene.,-48,100,20","4"
"16378","","survey-text","29","410602","0.0-27.0-0.0","A2E0LU8V4EUX5C","","","","{""Q0"":""very box like""}","","","","","","","","","","","","","","","","","","","","","","",""
"3438.5","","image-slider-response","30","414042","0.0-28.0","A2E0LU8V4EUX5C","","","","","-24","","","","","","","","","","","","","","","","","","","","","",""
"null","","image-button-response","31","419045","0.0-29.0","A2E0LU8V4EUX5C","img_art/ins/2.jpg","null","","","","","","","","","","","","","","","","","","","","","","","","",""
"1723","","image-button-response","32","420770","0.0-30.0","A2E0LU8V4EUX5C","img_art/ins/2.jpg","5","","","","","","","","","","","","","","","","","","","","","","","","",""
"1686","","image-button-response","33","422458","0.0-31.0-0.0","A2E0LU8V4EUX5C","img_art/ins/2.jpg","2","","","","","","","","","","","","","","","","","","","","","","","","",""
"4806","","image-button-response","34","427266","0.0-32.0-0.0","A2E0LU8V4EUX5C","img_art/ins/2.jpg","3","","","","","","","","","","","","","","","","","","","","","","","","",""
"null","","html-keyboard-response","35","428768","0.0-33.0","A2E0LU8V4EUX5C","<p style=""font-size: 48px;"">+</p>","","","","","null","allTrialResponses","1500","1","-1","img_art/ins/2.jpg","-24","very box like","Adam,John,Ben,James,Daniel,Kyle","too much color,-18,20,20","love the texture of paint,48,160,20","meaningless painting,-45,60,20","looks too angry,-50,140,20","One of my pet peevs,-48,100,20","Idk, it is just annoying,-32,180,20","Kyle","Idk, it is just annoying,-32,180,20","Ben","meaningless painting,-45,60,20","James","looks too angry,-50,140,20","4"
"18371","","survey-text","36","447146","0.0-34.0-0.0","A2E0LU8V4EUX5C","","","","{""Q0"":""nice colors but meaningless""}","","","","","","","","","","","","","","","","","","","","","","",""
"2934.7000000011176","","image-slider-response","37","450082","0.0-35.0","A2E0LU8V4EUX5C","","","","","-6","","","","","","","","","","","","","","","","","","","","","",""
"2750","","image-button-response","38","455085","0.0-36.0","A2E0LU8V4EUX5C","img_art/ins/3.jpg","1","","","","","","","","","","","","","","","","","","","","","","","","",""
"1721","","image-button-response","39","456810","0.0-37.0","A2E0LU8V4EUX5C","img_art/ins/3.jpg","5","","","","","","","","","","","","","","","","","","","","","","","","",""
"1286","","image-button-response","40","458098","0.0-38.0-0.0","A2E0LU8V4EUX5C","img_art/ins/3.jpg","1","","","","","","","","","","","","","","","","","","","","","","","","",""
"3222","","image-button-response","41","461322","0.0-39.0-0.0","A2E0LU8V4EUX5C","img_art/ins/3.jpg","0","","","","","","","","","","","","","","","","","","","","","","","","",""
"null","","html-keyboard-response","42","461824","0.0-40.0","A2E0LU8V4EUX5C","<p style=""font-size: 48px;"">+</p>","","","","","null","allTrialResponses","500","1","0","img_art/ins/3.jpg","-6","nice colors but meaningless","Sam,Mike,Ben,James,Ron,Kyle","I can feel a rainy day from this painting,18,240,20","enjoy the different shades of blue,22,200,20","This thing gives me anxiety,-41,60,20","My worst nightmare,-42,140,20","It looks depressing,-26,220,20","It looks like a playground for bats,-36,180,20","Kyle","It looks like a playground for bats,-36,180,20","Mike","enjoy the different shades of blue,22,200,20","Sam","I can feel a rainy day from this painting,18,240,20","4"
"7727","","image-button-response_instructions","43","469554","0.0-41.0","A2E0LU8V4EUX5C","","0","instructions","","","","","","","","","","","","","","","","","","","","","","","",""
"12519","","survey-likert","44","482074","0.0-42.0-0.0","A2E0LU8V4EUX5C","","","","{""Q0"":"""",""Q1"":0,""Q2"":1}","","","","","","","","","","","","","","","","","","","","","","",""
"5065","","survey-text","45","487145","0.0-43.0-0.0","A2E0LU8V4EUX5C","","","","{""Q0"":""rock""}","","","","","","","","","","","","","","","","","","","","","","",""
"15743","","survey-text","46","502889","0.0-44.0-0.0","A2E0LU8V4EUX5C","","","","{""Q0"":""very box like complicated""}","","","","","","","","","","","","","","","","","","","","","","",""
"3366.800000000745","","image-slider-response","47","506258","0.0-45.0","A2E0LU8V4EUX5C","","","","","-20","","","","","","","","","","","","","","","","","","","","","",""
"3909","","image-button-response","48","511278","0.0-46.0","A2E0LU8V4EUX5C","img_art/12.jpg","1","","","","","","","","","","","","","","","","","","","","","","","","",""
"1112","","image-button-response","49","512394","0.0-47.0","A2E0LU8V4EUX5C","img_art/12.jpg","2","","","","","","","","","","","","","","","","","","","","","","","","",""
"3910","","image-button-response","50","516306","0.0-48.0-0.0","A2E0LU8V4EUX5C","img_art/12.jpg","3","","","","","","","","","","","","","","","","","","","","","","","","",""
"3574","","image-button-response","51","519882","0.0-49.0-0.0","A2E0LU8V4EUX5C","img_art/12.jpg","4","","","","","","","","","","","","","","","","","","","","","","","","",""
"null","","html-keyboard-response","52","520884","0.0-50.0","A2E0LU8V4EUX5C","<p style=""font-size: 48px;"">+</p>","","","","","null","allTrialResponses","1000","1","1","img_art/12.jpg","-20","very box like complicated","Jack,Thomas,Eric,Cody,Cole,Joseph","interesting, but feels like someone cut up a picture and pasted it together wrong. want to see the original,15,320,20","Very interesting. Makes me want to look at it for a long time.,16,220,20","I don't like the dark black with the bright colors, but this as a whole is nice.,25,100,20","Pretty but not a huge fan of the colors,20,180,20","Interesting colors. I really dont like modern art though,24,200,20","Yay! Lots of people, lots of lives.,25,220,20","Eric","I don't like the dark black with the bright colors, but this as a whole is nice.,25,100,20","Cody","Pretty but not a huge fan of the colors,20,180,20","Cole","Interesting colors. I really dont like modern art though,24,200,20","4"
"14023","","survey-text","53","534914","0.0-51.0-0.0","A2E0LU8V4EUX5C","","","","{""Q0"":""gibberish amateur like""}","","","","","","","","","","","","","","","","","","","","","","",""
"2838.7000000011176","","image-slider-response","54","537753","0.0-52.0","A2E0LU8V4EUX5C","","","","","-42","","","","","","","","","","","","","","","","","","","","","",""
"null","","image-button-response","55","542757","0.0-53.0","A2E0LU8V4EUX5C","img_art/4.jpg","null","","","","","","","","","","","","","","","","","","","","","","","","",""
"4689","","image-button-response","56","547450","0.0-54.0","A2E0LU8V4EUX5C","img_art/4.jpg","4","","","","","","","","","","","","","","","","","","","","","","","","",""
"1830","","image-button-response","57","549282","0.0-55.0-0.0","A2E0LU8V4EUX5C","img_art/4.jpg","5","","","","","","","","","","","","","","","","","","","","","","","","",""
"2478","","image-button-response","58","551762","0.0-56.0-0.0","A2E0LU8V4EUX5C","img_art/4.jpg","2","","","","","","","","","","","","","","","","","","","","","","","","",""
"null","","html-keyboard-response","59","552263","0.0-57.0","A2E0LU8V4EUX5C","<p style=""font-size: 48px;"">+</p>","","","","","null","allTrialResponses","500","1","2","img_art/4.jpg","-42","gibberish amateur like","Luke,Paul,Eric,Cody,Cole,Victor","it looks like a simple finger painting, yet i liked the color choices,-12,20,20","The dark yellow color makes me think of mustard, which I dislike,-27,300,20","This piece catches my eye, but it's strange to me.,10,100,20","Interesting but maybe a little creepy,0,180,20","Fingerpaint of a hand?,-30,200,20","Hate the color, and just do not get the point.,-13,340,20","Cole","Fingerpaint of a hand?,-30,200,20","Victor","Hate the color, and just do not get the point.,-13,340,20","Eric","This piece catches my eye, but it's strange to me.,10,100,20","4"
"18261","","survey-text","60","570530","0.0-58.0-0.0","A2E0LU8V4EUX5C","","","","{""Q0"":""modern art crap garbage""}","","","","","","","","","","","","","","","","","","","","","","",""
"3046.800000000745","","image-slider-response","61","573578","0.0-59.0","A2E0LU8V4EUX5C","","","","","-48","","","","","","","","","","","","","","","","","","","","","",""
"null","","image-button-response","62","578582","0.0-60.0","A2E0LU8V4EUX5C","img_art/1.jpg","null","","","","","","","","","","","","","","","","","","","","","","","","",""
"1433","","image-button-response","63","580018","0.0-61.0","A2E0LU8V4EUX5C","img_art/1.jpg","3","","","","","","","","","","","","","","","","","","","","","","","","",""
"3070","","image-button-response","64","583090","0.0-62.0-0.0","A2E0LU8V4EUX5C","img_art/1.jpg","4","","","","","","","","","","","","","","","","","","","","","","","","",""
"4918","","image-button-response","65","588010","0.0-63.0-0.0","A2E0LU8V4EUX5C","img_art/1.jpg","1","","","","","","","","","","","","","","","","","","","","","","","","",""
"null","","html-keyboard-response","66","588512","0.0-64.0","A2E0LU8V4EUX5C","<p style=""font-size: 48px;"">+</p>","","","","","null","allTrialResponses","500","1","3","img_art/1.jpg","-48","modern art crap garbage","Marcus,John,Eric,Jared,Cole,Victor","Like the colors very much, and this piece makes me feel peaceful.,29,60,20","Its okay,not great.,1,120,20","I like the way that the colors blend.,35,100,20","there isnt anything clear to look at,-2,400,20","I like the colors. But it doesnt look like anything,27,200,20","I like the colors and layers,25,340,20","Jared","there isnt anything clear to look at,-2,400,20","Cole","I like the colors. But it doesnt look like anything,27,200,20","John","Its okay,not great.,1,120,20","4"
"14025","","survey-text","67","602546","0.0-65.0-0.0","A2E0LU8V4EUX5C","","","","{""Q0"":""looks like skin eruptions""}","","","","","","","","","","","","","","","","","","","","","","",""
"3014.7999999988824","","image-slider-response","68","605562","0.0-66.0","A2E0LU8V4EUX5C","","","","","-28","","","","","","","","","","","","","","","","","","","","","",""
"2742","","image-button-response","69","610566","0.0-67.0","A2E0LU8V4EUX5C","img_art/7.jpg","1","","","","","","","","","","","","","","","","","","","","","","","","",""
"1209","","image-button-response","70","611778","0.0-68.0","A2E0LU8V4EUX5C","img_art/7.jpg","1","","","","","","","","","","","","","","","","","","","","","","","","",""
"1031","","image-button-response","71","612810","0.0-69.0-0.0","A2E0LU8V4EUX5C","img_art/7.jpg","0","","","","","","","","","","","","","","","","","","","","","","","","",""
"2687","","image-button-response","72","615499","0.0-70.0-0.0","A2E0LU8V4EUX5C","img_art/7.jpg","2","","","","","","","","","","","","","","","","","","","","","","","","",""
"null","","html-keyboard-response","73","617001","0.0-71.0","A2E0LU8V4EUX5C","<p style=""font-size: 48px;"">+</p>","","","","","null","allTrialResponses","1500","1","4","img_art/7.jpg","-28","looks like skin eruptions","Peter,John,Christopher,Jared,Cole,Ian","It's just like sand from the beach,2,320,20","It looks like someone took a picture of a muddy ground and called it art.,-41,120,20","i kind of like this, it looks like a photo of a planet's surface,16,160,20","it looks like a dog ran through some wet cement,-22,400,20","Are these ancient cave paintings?,-7,200,20","This looks like a literal picture of the ground so I'm really not too sure about this one.,-42,260,20","John","It looks like someone took a picture of a muddy ground and called it art.,-41,120,20","Peter","It's just like sand from the beach,2,320,20","Christopher","i kind of like this, it looks like a photo of a planet's surface,16,160,20","4"
"12687","","survey-text","74","629690","0.0-72.0-0.0","A2E0LU8V4EUX5C","","","","{""Q0"":""crap cut and paste""}","","","","","","","","","","","","","","","","","","","","","","",""
"3590.7999999988824","","image-slider-response","75","633282","0.0-73.0","A2E0LU8V4EUX5C","","","","","-50","","","","","","","","","","","","","","","","","","","","","",""
"2863","","image-button-response","76","638286","0.0-74.0","A2E0LU8V4EUX5C","img_art/16.jpg","0","","","","","","","","","","","","","","","","","","","","","","","","",""
"2993","","image-button-response","77","641282","0.0-75.0","A2E0LU8V4EUX5C","img_art/16.jpg","2","","","","","","","","","","","","","","","","","","","","","","","","",""
"2215","","image-button-response","78","643499","0.0-76.0-0.0","A2E0LU8V4EUX5C","img_art/16.jpg","5","","","","","","","","","","","","","","","","","","","","","","","","",""
"1990","","image-button-response","79","645490","0.0-77.0-0.0","A2E0LU8V4EUX5C","img_art/16.jpg","0","","","","","","","","","","","","","","","","","","","","","","","","",""
"null","","html-keyboard-response","80","645993","0.0-78.0","A2E0LU8V4EUX5C","<p style=""font-size: 48px;"">+</p>","","","","","null","allTrialResponses","500","1","5","img_art/16.jpg","-50","crap cut and paste","Peter,John,Christopher,Sean,Jose,Derek","It's a little unsettling,2,320,20","It creeps me out.,-50,120,20","i don't like the collage aspect,-25,160,20","my reaction is that the picture is creepy,-19,40,20","Super weird. Id like to know more about it,24,200,20","I can't figure out the meaning of this painting but it is pleasant to look at,40,360,20","Christopher","i don't like the collage aspect,-25,160,20","Derek","I can't figure out the meaning of this painting but it is pleasant to look at,40,360,20","Peter","It's a little unsettling,2,320,20","4"
"4394","","survey-text","81","650394","0.0-79.0-0.0","A2E0LU8V4EUX5C","","","","{""Q0"":""sky""}","","","","","","","","","","","","","","","","","","","","","","",""
"35894","","survey-text","82","686289","0.0-80.0-0.0","A2E0LU8V4EUX5C","","","","{""Q0"":""has potential too much amateur like though""}","","","","","","","","","","","","","","","","","","","","","","",""
"3230.7999999988824","","image-slider-response","83","689521","0.0-81.0","A2E0LU8V4EUX5C","","","","","-23","","","","","","","","","","","","","","","","","","","","","",""
"null","","image-button-response","84","694524","0.0-82.0","A2E0LU8V4EUX5C","img_art/28.jpg","null","","","","","","","","","","","","","","","","","","","","","","","","",""
"642","","image-button-response","85","695170","0.0-83.0","A2E0LU8V4EUX5C","img_art/28.jpg","1","","","","","","","","","","","","","","","","","","","","","","","","",""
"1111","","image-button-response","86","696282","0.0-84.0-0.0","A2E0LU8V4EUX5C","img_art/28.jpg","2","","","","","","","","","","","","","","","","","","","","","","","","",""
"1350","","image-button-response","87","697634","0.0-85.0-0.0","A2E0LU8V4EUX5C","img_art/28.jpg","0","","","","","","","","","","","","","","","","","","","","","","","","",""
"null","","html-keyboard-response","88","699135","0.0-86.0","A2E0LU8V4EUX5C","<p style=""font-size: 48px;"">+</p>","","","","","null","allTrialResponses","1500","1","6","img_art/28.jpg","-23","has potential too much amateur like though","Peter,Gregory,Christopher,Spencer,Tyler,Derek","The earthy colors smeared around looks like prison food tray,-17,320,20","Gloomy colors and picture,5,220,20","something about all the off-greys is pretty interesting,5,160,20","Too me it's a mish mash, true abstract,-37,120,20","It's okay. There is harmony and balance.,11,320,20","The colors are dull but there's some kind of nostalgic essence of this painting,15,360,20","Gregory","Gloomy colors and picture,5,220,20","Christopher","something about all the off-greys is pretty interesting,5,160,20","Peter","The earthy colors smeared around looks like prison food tray,-17,320,20","4"
"24681","","survey-text","89","723826","0.0-87.0-0.0","A2E0LU8V4EUX5C","","","","{""Q0"":""modern art is crap I'd rather see real art is my reaction""}","","","","","","","","","","","","","","","","","","","","","","",""
"3174.199999999255","","image-slider-response","90","727001","0.0-88.0","A2E0LU8V4EUX5C","","","","","-44","","","","","","","","","","","","","","","","","","","","","",""
"null","","image-button-response","91","732004","0.0-89.0","A2E0LU8V4EUX5C","img_art/11.jpg","null","","","","","","","","","","","","","","","","","","","","","","","","",""
"893","","image-button-response","92","732898","0.0-90.0","A2E0LU8V4EUX5C","img_art/11.jpg","0","","","","","","","","","","","","","","","","","","","","","","","","",""
"3911","","image-button-response","93","736810","0.0-91.0-0.0","A2E0LU8V4EUX5C","img_art/11.jpg","4","","","","","","","","","","","","","","","","","","","","","","","","",""
"1102","","image-button-response","94","737914","0.0-92.0-0.0","A2E0LU8V4EUX5C","img_art/11.jpg","5","","","","","","","","","","","","","","","","","","","","","","","","",""
"null","","html-keyboard-response","95","739415","0.0-93.0","A2E0LU8V4EUX5C","<p style=""font-size: 48px;"">+</p>","","","","","null","allTrialResponses","1500","1","7","img_art/11.jpg","-44","modern art is crap I'd rather see real art is my reaction","Peter,Gregory,Christopher,Lucas,Juan,Dustin","Smoggy, oily, industrial. Don't like,1,320,20","Looks like a cityscape,25,220,20","i like the gray tones with black lines and bits of color,23,160,20","Astounding, extraordinary.,25,380,20","It makes me think of a rainy day and I like the colors. Also like the wavy lines.,22,260,20","Dark and dreary. Makes me think of rain/water. I see grey clouds and high waves. Looks unsettling.,-20,20,20","Peter","Smoggy, oily, industrial. Don't like,1,320,20","Juan","It makes me think of a rainy day and I like the colors. Also like the wavy lines.,22,260,20","Dustin","Dark and dreary. Makes me think of rain/water. I see grey clouds and high waves. Looks unsettling.,-20,20,20","4"
"9339","","survey-text","96","748761","0.0-94.0-0.0","A2E0LU8V4EUX5C","","","","{""Q0"":""simple is okay""}","","","","","","","","","","","","","","","","","","","","","","",""
"2814.7999999988824","","image-slider-response","97","751578","0.0-95.0","A2E0LU8V4EUX5C","","","","","-6","","","","","","","","","","","","","","","","","","","","","",""
"null","","image-button-response","98","756581","0.0-96.0","A2E0LU8V4EUX5C","img_art/6.jpg","null","","","","","","","","","","","","","","","","","","","","","","","","",""
"3985","","image-button-response","99","760570","0.0-97.0","A2E0LU8V4EUX5C","img_art/6.jpg","4","","","","","","","","","","","","","","","","","","","","","","","","",""
"1294","","image-button-response","100","761866","0.0-98.0-0.0","A2E0LU8V4EUX5C","img_art/6.jpg","0","","","","","","","","","","","","","","","","","","","","","","","","",""
"2975","","image-button-response","101","764843","0.0-99.0-0.0","A2E0LU8V4EUX5C","img_art/6.jpg","1","","","","","","","","","","","","","","","","","","","","","","","","",""
"null","","html-keyboard-response","102","765344","0.0-100.0","A2E0LU8V4EUX5C","<p style=""font-size: 48px;"">+</p>","","","","","null","allTrialResponses","500","1","8","img_art/6.jpg","-6","simple is okay","Peter,Dalton,Richard,Luis,Juan,Dustin","Don't like the black space,2,320,20","it looks like a stick holding a wig on a cliff,21,300,20","simplistic but reminds me of a crow in a field,-10,340,20","I love the representation of death and life.,50,400,20","I don't like the colors and the dark shape at the top makes me think of a buzzard.,-28,260,20","I like the warmth of the orange. But, I feel like it's a partial view. I'm frustrated I can't see the entirety.,-20,20,20","Juan","I don't like the colors and the dark shape at the top makes me think of a buzzard.,-28,260,20","Peter","Don't like the black space,2,320,20","Dalton","it looks like a stick holding a wig on a cliff,21,300,20","4"
"12995","","survey-text","103","778345","0.0-101.0-0.0","A2E0LU8V4EUX5C","","","","{""Q0"":""very complicated not bad""}","","","","","","","","","","","","","","","","","","","","","","",""
"3406.800000000745","","image-slider-response","104","781753","0.0-102.0","A2E0LU8V4EUX5C","","","","","-4","","","","","","","","","","","","","","","","","","","","","",""
"null","","image-button-response","105","786756","0.0-103.0","A2E0LU8V4EUX5C","img_art/8.jpg","null","","","","","","","","","","","","","","","","","","","","","","","","",""
"3218","","image-button-response","106","789978","0.0-104.0","A2E0LU8V4EUX5C","img_art/8.jpg","4","","","","","","","","","","","","","","","","","","","","","","","","",""
"1878","","image-button-response","107","791858","0.0-105.0-0.0","A2E0LU8V4EUX5C","img_art/8.jpg","3","","","","","","","","","","","","","","","","","","","","","","","","",""
"5206","","image-button-response","108","797066","0.0-106.0-0.0","A2E0LU8V4EUX5C","img_art/8.jpg","5","","","","","","","","","","","","","","","","","","","","","","","","",""
"null","","html-keyboard-response","109","798068","0.0-107.0","A2E0LU8V4EUX5C","<p style=""font-size: 48px;"">+</p>","","","","","null","allTrialResponses","1000","1","9","img_art/8.jpg","-4","very complicated not bad","Peter,Dalton,Mark,Charles,Juan,Bryce","I see water and structures that resemble Ancient Rome,15,320,20","woman looking over a the community,1,300,20","The face makes me think its a statement of the almighty of big brother watching us. onfuCsion limits my enjoyment.,6,80,20","Feels very 90's but I like the doorway,15,100,20","I don't like the negative emotion this picture makes me feel. It's also too abstract.,-30,260,20","Its kinda like an optical illusion.,22,20,20","Juan","I don't like the negative emotion this picture makes me feel. It's also too abstract.,-30,260,20","Charles","Feels very 90's but I like the doorway,15,100,20","Bryce","Its kinda like an optical illusion.,22,20,20","4"
"10301","","survey-text","110","808378","0.0-108.0-0.0","A2E0LU8V4EUX5C","","","","{""Q0"":""splatter crap""}","","","","","","","","","","","","","","","","","","","","","","",""
"3070.89999999851","","image-slider-response","111","811450","0.0-109.0","A2E0LU8V4EUX5C","","","","","-44","","","","","","","","","","","","","","","","","","","","","",""
"null","","image-button-response","112","816453","0.0-110.0","A2E0LU8V4EUX5C","img_art/13.jpg","null","","","","","","","","","","","","","","","","","","","","","","","","",""
"1194","","image-button-response","113","817650","0.0-111.0","A2E0LU8V4EUX5C","img_art/13.jpg","0","","","","","","","","","","","","","","","","","","","","","","","","",""
"694","","image-button-response","114","818346","0.0-112.0-0.0","A2E0LU8V4EUX5C","img_art/13.jpg","1","","","","","","","","","","","","","","","","","","","","","","","","",""
"5798","","image-button-response","115","824146","0.0-113.0-0.0","A2E0LU8V4EUX5C","img_art/13.jpg","3","","","","","","","","","","","","","","","","","","","","","","","","",""
"null","","html-keyboard-response","116","825150","0.0-114.0","A2E0LU8V4EUX5C","<p style=""font-size: 48px;"">+</p>","","","","","null","allTrialResponses","1000","1","10","img_art/13.jpg","-44","splatter crap","Justin,Shane,Anthony,Charles,Juan,Bryce","Not really a fan of ""splash"" art.,-20,280,20","Rain drops on a window,35,80,20","I like the color scheme,41,200,20","It's like a pattern on a bus seat,10,100,20","I love the colors and the contrast between the different blues.,21,260,20","My favorite!,47,20,20","Justin","Not really a fan of ""splash"" art.,-20,280,20","Shane","Rain drops on a window,35,80,20","Charles","It's like a pattern on a bus seat,10,100,20","4"
"4373","","survey-text","117","829537","0.0-115.0-0.0","A2E0LU8V4EUX5C","","","","{""Q0"":""our""}","","","","","","","","","","","","","","","","","","","","","","",""
"23111","","survey-text","118","852650","0.0-116.0-0.0","A2E0LU8V4EUX5C","","","","{""Q0"":""complicated but over done""}","","","","","","","","","","","","","","","","","","","","","","",""
"3302.5999999996275","","image-slider-response","119","855954","0.0-117.0","A2E0LU8V4EUX5C","","","","","-20","","","","","","","","","","","","","","","","","","","","","",""
"null","","image-button-response","120","860957","0.0-118.0","A2E0LU8V4EUX5C","img_art/19.jpg","null","","","","","","","","","","","","","","","","","","","","","","","","",""
"1778","","image-button-response","121","862738","0.0-119.0","A2E0LU8V4EUX5C","img_art/19.jpg","4","","","","","","","","","","","","","","","","","","","","","","","","",""
"1142","","image-button-response","122","863882","0.0-120.0-0.0","A2E0LU8V4EUX5C","img_art/19.jpg","5","","","","","","","","","","","","","","","","","","","","","","","","",""
"1870","","image-button-response","123","865754","0.0-121.0-0.0","A2E0LU8V4EUX5C","img_art/19.jpg","2","","","","","","","","","","","","","","","","","","","","","","","","",""
"null","","html-keyboard-response","124","866755","0.0-122.0","A2E0LU8V4EUX5C","<p style=""font-size: 48px;"">+</p>","","","","","null","allTrialResponses","1000","1","11","img_art/19.jpg","-20","complicated but over done","Justin,Shane,Daniel,Charles,Joshua,Dakota","It looks too much of a rough sketch. Don't really enjoy looking at it.,-9,280,20","A day in a small city,45,80,20","Simple, scratchy lack of negative space.,-10,320,20","The blue makes it look like it has depth,11,100,20","Just don't like this one.,-9,240,20","confusion, scattered and diffuse,-4,280,20","Joshua","Just don't like this one.,-9,240,20","Dakota","confusion, scattered and diffuse,-4,280,20","Daniel","Simple, scratchy lack of negative space.,-10,320,20","4"
"16168","","survey-text","125","882930","0.0-123.0-0.0","A2E0LU8V4EUX5C","","","","{""Q0"":""not bad finally no more abstract crap""}","","","","","","","","","","","","","","","","","","","","","","",""
"5862.9000000003725","","image-slider-response","126","888794","0.0-124.0","A2E0LU8V4EUX5C","","","","","10","","","","","","","","","","","","","","","","","","","","","",""
"null","","image-button-response","127","893797","0.0-125.0","A2E0LU8V4EUX5C","img_art/24.jpg","null","","","","","","","","","","","","","","","","","","","","","","","","",""
"754","","image-button-response","128","894554","0.0-126.0","A2E0LU8V4EUX5C","img_art/24.jpg","0","","","","","","","","","","","","","","","","","","","","","","","","",""
"1390","","image-button-response","129","895946","0.0-127.0-0.0","A2E0LU8V4EUX5C","img_art/24.jpg","1","","","","","","","","","","","","","","","","","","","","","","","","",""
"7734","","image-button-response","130","903682","0.0-128.0-0.0","A2E0LU8V4EUX5C","img_art/24.jpg","3","","","","","","","","","","","","","","","","","","","","","","","","",""
"null","","html-keyboard-response","131","905184","0.0-129.0","A2E0LU8V4EUX5C","<p style=""font-size: 48px;"">+</p>","","","","","null","allTrialResponses","1500","1","12","img_art/24.jpg","10","not bad finally no more abstract crap","Austin,Benjamin,Daniel,Taylor,Joshua,Dakota","Evokes pleasant feelings,50,240,20","peaceful and calm yet joyous.,50,260,20","Classic palette lacks real world 3d construction,19,320,20","I actually like this one. You can tell what it is.,25,200,20","It's okay but don't love it.,7,240,20","chunky fresh color,27,280,20","Austin","Evokes pleasant feelings,50,240,20","Benjamin","peaceful and calm yet joyous.,50,260,20","Taylor","I actually like this one. You can tell what it is.,25,200,20","4"
"15997","","survey-text","132","921193","0.0-130.0-0.0","A2E0LU8V4EUX5C","","","","{""Q0"":""did a 10 year old draw this mess no talent artist""}","","","","","","","","","","","","","","","","","","","","","","",""
"2902.4000000003725","","image-slider-response","133","924097","0.0-131.0","A2E0LU8V4EUX5C","","","","","-34","","","","","","","","","","","","","","","","","","","","","",""
"null","","image-button-response","134","929100","0.0-132.0","A2E0LU8V4EUX5C","img_art/2.jpg","null","","","","","","","","","","","","","","","","","","","","","","","","",""
"188","","image-button-response","135","929290","0.0-133.0","A2E0LU8V4EUX5C","img_art/2.jpg","3","","","","","","","","","","","","","","","","","","","","","","","","",""
"4391","","image-button-response","136","933682","0.0-134.0-0.0","A2E0LU8V4EUX5C","img_art/2.jpg","4","","","","","","","","","","","","","","","","","","","","","","","","",""
"1974","","image-button-response","137","935657","0.0-135.0-0.0","A2E0LU8V4EUX5C","img_art/2.jpg","2","","","","","","","","","","","","","","","","","","","","","","","","",""
"null","","html-keyboard-response","138","937159","0.0-136.0","A2E0LU8V4EUX5C","<p style=""font-size: 48px;"">+</p>","","","","","null","allTrialResponses","1500","1","13","img_art/2.jpg","-34","did a 10 year old draw this mess no talent artist","Austin,Benjamin,Devin,Taylor,Matthew,Jonathan","Good color pallette,12,240,20","bright and happy,20,260,20","I don't really like this style,-5,380,20","Have now advanced from kindergarten to the first grade.,-5,200,20","I think I can make out a face in there.,25,120,20","It's a cool piece but honestly these color choices are the worst thing in the world,-31,140,20","Taylor","Have now advanced from kindergarten to the first grade.,-5,200,20","Matthew","I think I can make out a face in there.,25,120,20","Devin","I don't really like this style,-5,380,20","4"
"13439","","survey-text","139","950609","0.0-137.0-0.0","A2E0LU8V4EUX5C","","","","{""Q0"":""some talent not to bad""}","","","","","","","","","","","","","","","","","","","","","","",""
"3630.60000000149","","image-slider-response","140","954241","0.0-138.0","A2E0LU8V4EUX5C","","","","","3","","","","","","","","","","","","","","","","","","","","","",""
"null","","image-button-response","141","959244","0.0-139.0","A2E0LU8V4EUX5C","img_art/10.jpg","null","","","","","","","","","","","","","","","","","","","","","","","","",""
"1027","","image-button-response","142","960273","0.0-140.0","A2E0LU8V4EUX5C","img_art/10.jpg","4","","","","","","","","","","","","","","","","","","","","","","","","",""
"775","","image-button-response","143","961049","0.0-141.0-0.0","A2E0LU8V4EUX5C","img_art/10.jpg","3","","","","","","","","","","","","","","","","","","","","","","","","",""
"1335","","image-button-response","144","962386","0.0-142.0-0.0","A2E0LU8V4EUX5C","img_art/10.jpg","5","","","","","","","","","","","","","","","","","","","","","","","","",""
"null","","html-keyboard-response","145","962887","0.0-143.0","A2E0LU8V4EUX5C","<p style=""font-size: 48px;"">+</p>","","","","","null","allTrialResponses","500","1","14","img_art/10.jpg","3","some talent not to bad","Jorge,Adrian,Devin,Taylor,Matthew,Brendan","cultural with a symphony,40,180,20","Looks like a violin. Not a fan of the smudges and smears, but my initial reaction was positive.,11,60,20","Looks a bit as though someone ran over it?,-13,380,20","The roller coaster from hell !!!,-10,200,20","AWESOME VIOLIN!`,26,120,20","a blue whale on the sea,12,340,20","Matthew","AWESOME VIOLIN!`,26,120,20","Taylor","The roller coaster from hell !!!,-10,200,20","Brendan","a blue whale on the sea,12,340,20","4"
"16067","","survey-text","146","978961","0.0-144.0-0.0","A2E0LU8V4EUX5C","","","","{""Q0"":""splatter of squares garbage""}","","","","","","","","","","","","","","","","","","","","","","",""
"4326.60000000149","","image-slider-response","147","983289","0.0-145.0","A2E0LU8V4EUX5C","","","","","-28","","","","","","","","","","","","","","","","","","","","","",""
"null","","image-button-response","148","988292","0.0-146.0","A2E0LU8V4EUX5C","img_art/22.jpg","null","","","","","","","","","","","","","","","","","","","","","","","","",""
"2011","","image-button-response","149","990306","0.0-147.0","A2E0LU8V4EUX5C","img_art/22.jpg","5","","","","","","","","","","","","","","","","","","","","","","","","",""
"2175","","image-button-response","150","992482","0.0-148.0-0.0","A2E0LU8V4EUX5C","img_art/22.jpg","2","","","","","","","","","","","","","","","","","","","","","","","","",""
"3470","","image-button-response","151","995953","0.0-149.0-0.0","A2E0LU8V4EUX5C","img_art/22.jpg","0","","","","","","","","","","","","","","","","","","","","","","","","",""
"null","","html-keyboard-response","152","997455","0.0-150.0","A2E0LU8V4EUX5C","<p style=""font-size: 48px;"">+</p>","","","","","null","allTrialResponses","1500","1","15","img_art/22.jpg","-28","splatter of squares garbage","Isaiah,Cameron,Kevin,Taylor,Matthew,Brendan","The painting makes me feel a little sad.,12,300,20","Like this one, like a sunset,30,60,20","Looks hot where ever that is.,-8,320,20","Looks like the kind of art I would see at the doctor's office.,-5,200,20","Another servicable piece of abstract art?,20,120,20","its just ugly for me,-50,340,20","Brendan","its just ugly for me,-50,340,20","Kevin","Looks hot where ever that is.,-8,320,20","Isaiah","The painting makes me feel a little sad.,12,300,20","4"
"20697","","survey-text","153","1018161","0.0-151.0-0.0","A2E0LU8V4EUX5C","","","","{""Q0"":""course""}","","","","","","","","","","","","","","","","","","","","","","",""
"11711","","survey-text","154","1029873","0.0-152.0-0.0","A2E0LU8V4EUX5C","","","","{""Q0"":""stick figure nice green""}","","","","","","","","","","","","","","","","","","","","","","",""
"3654.9000000003725","","image-slider-response","155","1033529","0.0-153.0","A2E0LU8V4EUX5C","","","","","-11","","","","","","","","","","","","","","","","","","","","","",""
"null","","image-button-response","156","1038532","0.0-154.0","A2E0LU8V4EUX5C","img_art/25.jpg","null","","","","","","","","","","","","","","","","","","","","","","","","",""
"867","","image-button-response","157","1039401","0.0-155.0","A2E0LU8V4EUX5C","img_art/25.jpg","1","","","","","","","","","","","","","","","","","","","","","","","","",""
"1023","","image-button-response","158","1040425","0.0-156.0-0.0","A2E0LU8V4EUX5C","img_art/25.jpg","4","","","","","","","","","","","","","","","","","","","","","","","","",""
"4311","","image-button-response","159","1044738","0.0-157.0-0.0","A2E0LU8V4EUX5C","img_art/25.jpg","5","","","","","","","","","","","","","","","","","","","","","","","","",""
"null","","html-keyboard-response","160","1045740","0.0-158.0","A2E0LU8V4EUX5C","<p style=""font-size: 48px;"">+</p>","","","","","null","allTrialResponses","1000","1","16","img_art/25.jpg","-11","stick figure nice green","Isaiah,William,Kevin,Hunter,Alex,Brendan","I feel little to no emotion looking at this painting.,0,300,20","makes me think of a scary movie,-20,380,20","That on i find a bit creapy.,-19,320,20","do not like that color of green,-11,240,20","I can get behind this but only because I like the green. it reminds me of a graveyard,11,100,20","is this an ancient woman?,-16,340,20","William","makes me think of a scary movie,-20,380,20","Alex","I can get behind this but only because I like the green. it reminds me of a graveyard,11,100,20","Brendan","is this an ancient woman?,-16,340,20","4"
"10862","","survey-text","161","1056609","0.0-159.0-0.0","A2E0LU8V4EUX5C","","","","{""Q0"":""line work garbage no theme""}","","","","","","","","","","","","","","","","","","","","","","",""
"3190.7000000011176","","image-slider-response","162","1059801","0.0-160.0","A2E0LU8V4EUX5C","","","","","-26","","","","","","","","","","","","","","","","","","","","","",""
"null","","image-button-response","163","1064804","0.0-161.0","A2E0LU8V4EUX5C","img_art/30.jpg","null","","","","","","","","","","","","","","","","","","","","","","","","",""
"2034","","image-button-response","164","1066842","0.0-162.0","A2E0LU8V4EUX5C","img_art/30.jpg","4","","","","","","","","","","","","","","","","","","","","","","","","",""
"687","","image-button-response","165","1067530","0.0-163.0-0.0","A2E0LU8V4EUX5C","img_art/30.jpg","5","","","","","","","","","","","","","","","","","","","","","","","","",""
"942","","image-button-response","166","1068473","0.0-164.0-0.0","A2E0LU8V4EUX5C","img_art/30.jpg","3","","","","","","","","","","","","","","","","","","","","","","","","",""
"null","","html-keyboard-response","167","1069976","0.0-165.0","A2E0LU8V4EUX5C","<p style=""font-size: 48px;"">+</p>","","","","","null","allTrialResponses","1500","1","17","img_art/30.jpg","-26","line work garbage no theme","Timothy,William,Malik,Gabriel,Alex,Brendan","It's pleasent but otherwise unprovoking,8,240,20","to dark and dreary,-28,380,20","I can't parse any intention or emotion,-17,40,20","dont like this much at all,-30,160,20","Don't like it at all, looks like a someone smeared paint with their fingers,-25,100,20","i cant really get it,-35,340,20","Alex","Don't like it at all, looks like a someone smeared paint with their fingers,-25,100,20","Brendan","i cant really get it,-35,340,20","Gabriel","dont like this much at all,-30,160,20","4"
"13075","","survey-text","168","1083057","0.0-166.0-0.0","A2E0LU8V4EUX5C","","","","{""Q0"":""fifth grade art""}","","","","","","","","","","","","","","","","","","","","","","",""
"2846.800000000745","","image-slider-response","169","1085905","0.0-167.0","A2E0LU8V4EUX5C","","","","","-15","","","","","","","","","","","","","","","","","","","","","",""
"null","","image-button-response","170","1090907","0.0-168.0","A2E0LU8V4EUX5C","img_art/14.jpg","null","","","","","","","","","","","","","","","","","","","","","","","","",""
"788","","image-button-response","171","1091697","0.0-169.0","A2E0LU8V4EUX5C","img_art/14.jpg","5","","","","","","","","","","","","","","","","","","","","","","","","",""
"1247","","image-button-response","172","1092945","0.0-170.0-0.0","A2E0LU8V4EUX5C","img_art/14.jpg","0","","","","","","","","","","","","","","","","","","","","","","","","",""
"1559","","image-button-response","173","1094506","0.0-171.0-0.0","A2E0LU8V4EUX5C","img_art/14.jpg","0","","","","","","","","","","","","","","","","","","","","","","","","",""
"734","","image-button-response","174","1098786","0.0-171.1-0.1","A2E0LU8V4EUX5C","img_art/14.jpg","2","","","","","","","","","","","","","","","","","","","","","","","","",""
"null","","html-keyboard-response","175","1099287","0.0-172.0","A2E0LU8V4EUX5C","<p style=""font-size: 48px;"">+</p>","","","","","null","allTrialResponses","500","1","18","img_art/14.jpg","-15","fifth grade art","Nathaniel,Jason,Aaron,Gabriel,Alex,Brendan","Not quite the style I'd like, but it does have a certain air of emptiness.,12,220,20","Focal point is interesting,5,20,20","It reminds me of a tree in the desert.,15,20,20","i like this one!,23,160,20","Too abstract with annoying little details. Just draw a regular tree already,-6,100,20","it looks like a tree on desert,23,340,20","Brendan","it looks like a tree on desert,23,340,20","Nathaniel","Not quite the style I'd like, but it does have a certain air of emptiness.,12,220,20","Aaron","It reminds me of a tree in the desert.,15,20,20","6"
"14459","","survey-text","176","1113754","0.0-173.0-0.0","A2E0LU8V4EUX5C","","","","{""Q0"":""art by an 8th grader maybe""}","","","","","","","","","","","","","","","","","","","","","","",""
"2974.5999999996275","","image-slider-response","177","1116730","0.0-174.0","A2E0LU8V4EUX5C","","","","","-24","","","","","","","","","","","","","","","","","","","","","",""
"null","","image-button-response","178","1121732","0.0-175.0","A2E0LU8V4EUX5C","img_art/9.jpg","null","","","","","","","","","","","","","","","","","","","","","","","","",""
"589","","image-button-response","179","1122322","0.0-176.0","A2E0LU8V4EUX5C","img_art/9.jpg","4","","","","","","","","","","","","","","","","","","","","","","","","",""
"774","","image-button-response","180","1123098","0.0-177.0-0.0","A2E0LU8V4EUX5C","img_art/9.jpg","5","","","","","","","","","","","","","","","","","","","","","","","","",""
"3622","","image-button-response","181","1126722","0.0-178.0-0.0","A2E0LU8V4EUX5C","img_art/9.jpg","2","","","","","","","","","","","","","","","","","","","","","","","","",""
"null","","html-keyboard-response","182","1127225","0.0-179.0","A2E0LU8V4EUX5C","<p style=""font-size: 48px;"">+</p>","","","","","null","allTrialResponses","500","1","19","img_art/9.jpg","-24","art by an 8th grader maybe","Nathaniel,Garrett,Aaron,Kyle,Steven,Brendan","Not very enticing. No real substance other than a lady laying down,-35,220,20","This looks like someone sleeping in a bed, and I think the colors make it look interesting.,20,180,20","It looks like a child's crayon drawing.,-10,20,20","I like abstract art that looks that there is more than random brush strokes. This one looks the former,10,340,20","I just dont like it, no reaction from me at all,-50,160,20","not my type of art,-33,340,20","Steven","I just dont like it, no reaction from me at all,-50,160,20","Brendan","not my type of art,-33,340,20","Aaron","It looks like a child's crayon drawing.,-10,20,20","6"
"35504","","survey-text","183","1162737","0.0-180.0-0.0","A2E0LU8V4EUX5C","","","","{""Q0"":""more abstract garbage modern art sucks. where is michalengo""}","","","","","","","","","","","","","","","","","","","","","","",""
"2910.800000000745","","image-slider-response","184","1165649","0.0-181.0","A2E0LU8V4EUX5C","","","","","-20","","","","","","","","","","","","","","","","","","","","","",""
"null","","image-button-response","185","1170651","0.0-182.0","A2E0LU8V4EUX5C","img_art/15.jpg","null","","","","","","","","","","","","","","","","","","","","","","","","",""
"1381","","image-button-response","186","1172034","0.0-183.0","A2E0LU8V4EUX5C","img_art/15.jpg","5","","","","","","","","","","","","","","","","","","","","","","","","",""
"703","","image-button-response","187","1172738","0.0-184.0-0.0","A2E0LU8V4EUX5C","img_art/15.jpg","4","","","","","","","","","","","","","","","","","","","","","","","","",""
"1414","","image-button-response","188","1174153","0.0-185.0-0.0","A2E0LU8V4EUX5C","img_art/15.jpg","3","","","","","","","","","","","","","","","","","","","","","","","","",""
"null","","html-keyboard-response","189","1175655","0.0-186.0","A2E0LU8V4EUX5C","<p style=""font-size: 48px;"">+</p>","","","","","null","allTrialResponses","1500","1","20","img_art/15.jpg","-20","more abstract garbage modern art sucks. where is michalengo","Zachary,Grant,Aaron,Edward,Steven,Brendan","Reminds me of blue birds in a tree at night. I love nature.,40,400,20","This elicits no reaction in me.,0,200,20","I like how it's simple but beautiful.,40,20,20","Reminds me of lilacs,26,60,20","I'm just not into it,-5,160,20","some trees in the forest,15,340,20","Brendan","some trees in the forest,15,340,20","Steven","I'm just not into it,-5,160,20","Edward","Reminds me of lilacs,26,60,20","6"
"5720","","survey-text","190","1181385","0.0-187.0-0.0","A2E0LU8V4EUX5C","","","","{""Q0"":""we""}","","","","","","","","","","","","","","","","","","","","","","",""
"15191","","survey-text","191","1196577","0.0-188.0-0.0","A2E0LU8V4EUX5C","","","","{""Q0"":""a tree finally a real art piece""}","","","","","","","","","","","","","","","","","","","","","","",""
"3838.9000000003725","","image-slider-response","192","1200417","0.0-189.0","A2E0LU8V4EUX5C","","","","","7","","","","","","","","","","","","","","","","","","","","","",""
"null","","image-button-response","193","1205420","0.0-190.0","A2E0LU8V4EUX5C","img_art/17.jpg","null","","","","","","","","","","","","","","","","","","","","","","","","",""
"795","","image-button-response","194","1206218","0.0-191.0","A2E0LU8V4EUX5C","img_art/17.jpg","5","","","","","","","","","","","","","","","","","","","","","","","","",""
"1022","","image-button-response","195","1207241","0.0-192.0-0.0","A2E0LU8V4EUX5C","img_art/17.jpg","0","","","","","","","","","","","","","","","","","","","","","","","","",""
"1014","","image-button-response","196","1208257","0.0-193.0-0.0","A2E0LU8V4EUX5C","img_art/17.jpg","0","","","","","","","","","","","","","","","","","","","","","","","","",""
"871","","image-button-response","197","1211938","0.0-193.1-0.1","A2E0LU8V4EUX5C","img_art/17.jpg","1","","","","","","","","","","","","","","","","","","","","","","","","",""
"null","","html-keyboard-response","198","1212940","0.0-194.0","A2E0LU8V4EUX5C","<p style=""font-size: 48px;"">+</p>","","","","","null","allTrialResponses","1000","1","21","img_art/17.jpg","7","a tree finally a real art piece","Mason,Brett,Vincent,Edward,Steven,Brendan","Like this one, super creative, calming.,43,100,20","Looks like an explosion of pretty artwork,45,360,20","Another favorite a relaxing day with nature a day to take it all In,34,360,20","I love how soft it is,35,60,20","absolutely gorgeous, I feel solitude again, but the beauty is there also,50,160,20","colorful tree really cool,27,340,20","Brendan","colorful tree really cool,27,340,20","Mason","Like this one, super creative, calming.,43,100,20","Brett","Looks like an explosion of pretty artwork,45,360,20","8"
"14017","","survey-text","199","1226961","0.0-195.0-0.0","A2E0LU8V4EUX5C","","","","{""Q0"":""thought of a video game""}","","","","","","","","","","","","","","","","","","","","","","",""
"3166.699999999255","","image-slider-response","200","1230129","0.0-196.0","A2E0LU8V4EUX5C","","","","","-10","","","","","","","","","","","","","","","","","","","","","",""
"null","","image-button-response","201","1235132","0.0-197.0","A2E0LU8V4EUX5C","img_art/29.jpg","null","","","","","","","","","","","","","","","","","","","","","","","","",""
"1210","","image-button-response","202","1236345","0.0-198.0","A2E0LU8V4EUX5C","img_art/29.jpg","1","","","","","","","","","","","","","","","","","","","","","","","","",""
"991","","image-button-response","203","1237337","0.0-199.0-0.0","A2E0LU8V4EUX5C","img_art/29.jpg","3","","","","","","","","","","","","","","","","","","","","","","","","",""
"4119","","image-button-response","204","1241457","0.0-200.0-0.0","A2E0LU8V4EUX5C","img_art/29.jpg","2","","","","","","","","","","","","","","","","","","","","","","","","",""
"null","","html-keyboard-response","205","1242959","0.0-201.0","A2E0LU8V4EUX5C","<p style=""font-size: 48px;"">+</p>","","","","","null","allTrialResponses","1500","1","22","img_art/29.jpg","-10","thought of a video game","Mason,Brett,Alejandro,Jake,Chase,Brendan","easy, too abstract for me, don't get it.,-25,100,20","Reminds me of graffitti gone wrong,15,360,20","Reminiscent of Jackson Pollock with a hint of abstract structure with the bordering.,32,80,20","This is very gross and odd looking.,-8,360,20","This is ugly as fuck,-50,120,20","it looks like a prison,-33,340,20","Brett","Reminds me of graffitti gone wrong,15,360,20","Jake","This is very gross and odd looking.,-8,360,20","Alejandro","Reminiscent of Jackson Pollock with a hint of abstract structure with the bordering.,32,80,20","8"
"16291","","survey-text","206","1259257","0.0-202.0-0.0","A2E0LU8V4EUX5C","","","","{""Q0"":""not much talent here I think""}","","","","","","","","","","","","","","","","","","","","","","",""
"3198.89999999851","","image-slider-response","207","1262457","0.0-203.0","A2E0LU8V4EUX5C","","","","","-21","","","","","","","","","","","","","","","","","","","","","",""
"null","","image-button-response","208","1267460","0.0-204.0","A2E0LU8V4EUX5C","img_art/26.jpg","null","","","","","","","","","","","","","","","","","","","","","","","","",""
"690","","image-button-response","209","1268154","0.0-205.0","A2E0LU8V4EUX5C","img_art/26.jpg","1","","","","","","","","","","","","","","","","","","","","","","","","",""
"998","","image-button-response","210","1269153","0.0-206.0-0.0","A2E0LU8V4EUX5C","img_art/26.jpg","0","","","","","","","","","","","","","","","","","","","","","","","","",""
"4151","","image-button-response","211","1273305","0.0-207.0-0.0","A2E0LU8V4EUX5C","img_art/26.jpg","2","","","","","","","","","","","","","","","","","","","","","","","","",""
"null","","html-keyboard-response","212","1274807","0.0-208.0","A2E0LU8V4EUX5C","<p style=""font-size: 48px;"">+</p>","","","","","null","allTrialResponses","1500","1","23","img_art/26.jpg","-21","not much talent here I think","Kenneth,Brett,Alejandro,Jake,Nicholas,Bradley","Very subdued, but wouldn't give it a 2nd notice.,4,300,20","Picturesque little town,45,360,20","Do not like water colors at all,-50,80,20","It's not ugly but not beautiful at all.,-3,360,20","I like the colors and trees. Seems cheap vintage retail store art but i love it anyways,50,240,20","I like this. Looks like a city street and I can use my imagination to make it come alive.,15,300,20","Brett","Picturesque little town,45,360,20","Kenneth","Very subdued, but wouldn't give it a 2nd notice.,4,300,20","Alejandro","Do not like water colors at all,-50,80,20","8"
"9486","","survey-text","213","1284297","0.0-209.0-0.0","A2E0LU8V4EUX5C","","","","{""Q0"":""garbage no theme""}","","","","","","","","","","","","","","","","","","","","","","",""
"3582.5999999996275","","image-slider-response","214","1287881","0.0-210.0","A2E0LU8V4EUX5C","","","","","-36","","","","","","","","","","","","","","","","","","","","","",""
"null","","image-button-response","215","1292883","0.0-211.0","A2E0LU8V4EUX5C","img_art/27.jpg","null","","","","","","","","","","","","","","","","","","","","","","","","",""
"406","","image-button-response","216","1293289","0.0-212.0","A2E0LU8V4EUX5C","img_art/27.jpg","0","","","","","","","","","","","","","","","","","","","","","","","","",""
"1207","","image-button-response","217","1294497","0.0-213.0-0.0","A2E0LU8V4EUX5C","img_art/27.jpg","3","","","","","","","","","","","","","","","","","","","","","","","","",""
"2471","","image-button-response","218","1296969","0.0-214.0-0.0","A2E0LU8V4EUX5C","img_art/27.jpg","4","","","","","","","","","","","","","","","","","","","","","","","","",""
"null","","html-keyboard-response","219","1297971","0.0-215.0","A2E0LU8V4EUX5C","<p style=""font-size: 48px;"">+</p>","","","","","null","allTrialResponses","1000","1","24","img_art/27.jpg","-36","garbage no theme","Kenneth,Brett,Alejandro,Alexander,Tristan,Dylan","The green stick drawings or whatever they are ruin it for me.,-23,300,20","Soothing in the middle of some confusion,40,360,20","Muddied and directionless. Like someone dragged a brush across the paper for the sake of doing something.,-50,80,20","Messy field of various plants.,-5,120,20","The colors provide a complexity to the nearly child-like sketches.,5,300,20","This is ugly and looks like a child did this,-36,40,20","Kenneth","The green stick drawings or whatever they are ruin it for me.,-23,300,20","Alexander","Messy field of various plants.,-5,120,20","Tristan","The colors provide a complexity to the nearly child-like sketches.,5,300,20","8"
"11287","","survey-text","220","1309265","0.0-216.0-0.0","A2E0LU8V4EUX5C","","","","{""Q0"":""someone tortured""}","","","","","","","","","","","","","","","","","","","","","","",""
"2558.699999999255","","image-slider-response","221","1311825","0.0-217.0","A2E0LU8V4EUX5C","","","","","-10","","","","","","","","","","","","","","","","","","","","","",""
"null","","image-button-response","222","1316827","0.0-218.0","A2E0LU8V4EUX5C","img_art/18.jpg","null","","","","","","","","","","","","","","","","","","","","","","","","",""
"3700","","image-button-response","223","1320529","0.0-219.0","A2E0LU8V4EUX5C","img_art/18.jpg","1","","","","","","","","","","","","","","","","","","","","","","","","",""
"1598","","image-button-response","224","1322129","0.0-220.0-0.0","A2E0LU8V4EUX5C","img_art/18.jpg","3","","","","","","","","","","","","","","","","","","","","","","","","",""
"1502","","image-button-response","225","1323633","0.0-221.0-0.0","A2E0LU8V4EUX5C","img_art/18.jpg","0","","","","","","","","","","","","","","","","","","","","","","","","",""
"null","","html-keyboard-response","226","1324134","0.0-222.0","A2E0LU8V4EUX5C","<p style=""font-size: 48px;"">+</p>","","","","","null","allTrialResponses","500","1","25","img_art/18.jpg","-10","someone tortured","Kenneth,Devon,Nathan,Alexander,Tristan,Colton","It's interesting. I'm not sure how I feel about it, but i enjoy the ghostly apparitions.,10,300,20","I really like this one - there seems to be a story behind it,32,400,20","Doesn't really speak to me well but I can appreciate it,10,200,20","Ghostly sea adventure.,20,120,20","So much going on. Frightening and tumultous, brave and inspiring. I'd like to spend the rest of my life interpreting it.,30,300,20","reminds me of greek mythology,22,220,20","Devon","I really like this one - there seems to be a story behind it,32,400,20","Alexander","Ghostly sea adventure.,20,120,20","Kenneth","It's interesting. I'm not sure how I feel about it, but i enjoy the ghostly apparitions.,10,300,20","8"
"5497","","survey-text","227","1329649","0.0-223.0-0.0","A2E0LU8V4EUX5C","","","","{""Q0"":""table""}","","","","","","","","","","","","","","","","","","","","","","",""
"17295","","survey-text","228","1346945","0.0-224.0-0.0","A2E0LU8V4EUX5C","","","","{""Q0"":""weird but almost real art""}","","","","","","","","","","","","","","","","","","","","","","",""
"2566.699999999255","","image-slider-response","229","1349513","0.0-225.0","A2E0LU8V4EUX5C","","","","","-15","","","","","","","","","","","","","","","","","","","","","",""
"null","","image-button-response","230","1354516","0.0-226.0","A2E0LU8V4EUX5C","img_art/20.jpg","null","","","","","","","","","","","","","","","","","","","","","","","","",""
"147","","image-button-response","231","1354665","0.0-227.0","A2E0LU8V4EUX5C","img_art/20.jpg","1","","","","","","","","","","","","","","","","","","","","","","","","",""
"1127","","image-button-response","232","1355793","0.0-228.0-0.0","A2E0LU8V4EUX5C","img_art/20.jpg","3","","","","","","","","","","","","","","","","","","","","","","","","",""
"1191","","image-button-response","233","1356985","0.0-229.0-0.0","A2E0LU8V4EUX5C","img_art/20.jpg","2","","","","","","","","","","","","","","","","","","","","","","","","",""
"null","","html-keyboard-response","234","1357987","0.0-230.0","A2E0LU8V4EUX5C","<p style=""font-size: 48px;"">+</p>","","","","","null","allTrialResponses","1000","1","26","img_art/20.jpg","-15","weird but almost real art","Kenneth,Devon,Jesus,Alexander,Brian,Jordan","I want to like this more, but i wish it was more detailed. It's hard for me to see what it is.,5,300,20","i can feel the intensity in this,11,400,20","Shapes are fun to interpret,21,100,20","The beach and industry.,12,120,20","The colors are nice, and the shapes conjure the decay of the city in the face of natural entropy,19,380,20","A mountain vacation,46,160,20","Devon","i can feel the intensity in this,11,400,20","Alexander","The beach and industry.,12,120,20","Jesus","Shapes are fun to interpret,21,100,20","8"
"6454","","survey-text","235","1364449","0.0-231.0-0.0","A2E0LU8V4EUX5C","","","","{""Q0"":""simple crap""}","","","","","","","","","","","","","","","","","","","","","","",""
"2622.9000000003725","","image-slider-response","236","1367073","0.0-232.0","A2E0LU8V4EUX5C","","","","","-47","","","","","","","","","","","","","","","","","","","","","",""
"4847","","image-button-response","237","1372077","0.0-233.0","A2E0LU8V4EUX5C","img_art/5.jpg","1","","","","","","","","","","","","","","","","","","","","","","","","",""
"1345","","image-button-response","238","1373425","0.0-234.0","A2E0LU8V4EUX5C","img_art/5.jpg","1","","","","","","","","","","","","","","","","","","","","","","","","",""
"687","","image-button-response","239","1374113","0.0-235.0-0.0","A2E0LU8V4EUX5C","img_art/5.jpg","4","","","","","","","","","","","","","","","","","","","","","","","","",""
"760","","image-button-response","240","1374874","0.0-236.0-0.0","A2E0LU8V4EUX5C","img_art/5.jpg","2","","","","","","","","","","","","","","","","","","","","","","","","",""
"null","","html-keyboard-response","241","1375877","0.0-237.0","A2E0LU8V4EUX5C","<p style=""font-size: 48px;"">+</p>","","","","","null","allTrialResponses","1000","1","27","img_art/5.jpg","-47","simple crap","James,Devon,Jesus,Alexander,Adam,Brandon","Very bright and has colors you wouldn't think would go together,11,380,20","a bit confused about this picture,-9,400,20","Overpowering colors.,-26,100,20","Dull pyramid that says nothing.,7,120,20","Too loud. Dislike the bright yellow.,-5,40,20","Kindergarten art. I really don't like this style.,-50,320,20","Devon","a bit confused about this picture,-9,400,20","Adam","Too loud. Dislike the bright yellow.,-5,40,20","Jesus","Overpowering colors.,-26,100,20","8"
"10773","","survey-text","242","1386665","0.0-238.0-0.0","A2E0LU8V4EUX5C","","","","{""Q0"":""took lot to make is okay""}","","","","","","","","","","","","","","","","","","","","","","",""
"2998.800000000745","","image-slider-response","243","1389665","0.0-239.0","A2E0LU8V4EUX5C","","","","","2","","","","","","","","","","","","","","","","","","","","","",""
"null","","image-button-response","244","1394668","0.0-240.0","A2E0LU8V4EUX5C","img_art/23.jpg","null","","","","","","","","","","","","","","","","","","","","","","","","",""
"1578","","image-button-response","245","1396249","0.0-241.0","A2E0LU8V4EUX5C","img_art/23.jpg","0","","","","","","","","","","","","","","","","","","","","","","","","",""
"1702","","image-button-response","246","1397953","0.0-242.0-0.0","A2E0LU8V4EUX5C","img_art/23.jpg","4","","","","","","","","","","","","","","","","","","","","","","","","",""
"2590","","image-button-response","247","1400545","0.0-243.0-0.0","A2E0LU8V4EUX5C","img_art/23.jpg","2","","","","","","","","","","","","","","","","","","","","","","","","",""
"null","","html-keyboard-response","248","1401547","0.0-244.0","A2E0LU8V4EUX5C","<p style=""font-size: 48px;"">+</p>","","","","","null","allTrialResponses","1000","1","28","img_art/23.jpg","2","took lot to make is okay","Robert,Devon,Jesus,Antonio,Adam,Jesse","This makes me think of an orchestra playing a forth of july song,12,360,20","i cannot breath in this,-10,400,20","The usage of color is great, but not my style.,-15,100,20","Like the colors and made me feel happy,23,220,20","I like the color contrast, though I'm unable to tell what the white shapes are.,25,40,20","Makes me want to stare at it for hours. Like there is something deeper to find.,37,80,20","Robert","This makes me think of an orchestra playing a forth of july song,12,360,20","Adam","I like the color contrast, though I'm unable to tell what the white shapes are.,25,40,20","Jesus","The usage of color is great, but not my style.,-15,100,20","8"
"10718","","survey-text","249","1412273","0.0-245.0-0.0","A2E0LU8V4EUX5C","","","","{""Q0"":""garbage where is the can""}","","","","","","","","","","","","","","","","","","","","","","",""
"3006.800000000745","","image-slider-response","250","1415281","0.0-246.0","A2E0LU8V4EUX5C","","","","","-47","","","","","","","","","","","","","","","","","","","","","",""
"null","","image-button-response","251","1420283","0.0-247.0","A2E0LU8V4EUX5C","img_art/3.jpg","null","","","","","","","","","","","","","","","","","","","","","","","","",""
"461","","image-button-response","252","1420745","0.0-248.0","A2E0LU8V4EUX5C","img_art/3.jpg","4","","","","","","","","","","","","","","","","","","","","","","","","",""
"678","","image-button-response","253","1421425","0.0-249.0-0.0","A2E0LU8V4EUX5C","img_art/3.jpg","3","","","","","","","","","","","","","","","","","","","","","","","","",""
"1142","","image-button-response","254","1422569","0.0-250.0-0.0","A2E0LU8V4EUX5C","img_art/3.jpg","3","","","","","","","","","","","","","","","","","","","","","","","","",""
"927","","image-button-response","255","1428489","0.0-250.1-0.1","A2E0LU8V4EUX5C","img_art/3.jpg","0","","","","","","","","","","","","","","","","","","","","","","","","",""
"null","","html-keyboard-response","256","1429991","0.0-251.0","A2E0LU8V4EUX5C","<p style=""font-size: 48px;"">+</p>","","","","","null","allTrialResponses","1500","1","29","img_art/3.jpg","-47","garbage where is the can","Robert,Scott,Jesus,Christian,Adam,Connor","I think of an angry child,-50,360,20","I like that it's messy,14,20,20","I like the simplicity of it.,20,100,20","sorry do not understand,-26,140,20","Reminds me of a hot mess,-10,40,20","Shapes are interesting but color is overwhelming,5,240,20","Adam","Reminds me of a hot mess,-10,40,20","Christian","sorry do not understand,-26,140,20","Robert","I think of an angry child,-50,360,20","10"
"11241","","survey-text","257","1441241","0.0-252.0-0.0","A2E0LU8V4EUX5C","","","","{""Q0"":""average is okay""}","","","","","","","","","","","","","","","","","","","","","","",""
"3102.800000000745","","image-slider-response","258","1444345","0.0-253.0","A2E0LU8V4EUX5C","","","","","-6","","","","","","","","","","","","","","","","","","","","","",""
"null","","image-button-response","259","1449348","0.0-254.0","A2E0LU8V4EUX5C","img_art/21.jpg","null","","","","","","","","","","","","","","","","","","","","","","","","",""
"913","","image-button-response","260","1450265","0.0-255.0","A2E0LU8V4EUX5C","img_art/21.jpg","4","","","","","","","","","","","","","","","","","","","","","","","","",""
"1422","","image-button-response","261","1451689","0.0-256.0-0.0","A2E0LU8V4EUX5C","img_art/21.jpg","3","","","","","","","","","","","","","","","","","","","","","","","","",""
"1734","","image-button-response","262","1453425","0.0-257.0-0.0","A2E0LU8V4EUX5C","img_art/21.jpg","2","","","","","","","","","","","","","","","","","","","","","","","","",""
"null","","html-keyboard-response","263","1454426","0.0-258.0","A2E0LU8V4EUX5C","<p style=""font-size: 48px;"">+</p>","","","","","null","allTrialResponses","1000","1","30","img_art/21.jpg","-6","average is okay","Robert,Samuel,Bryan,Christian,Adam,Corey","A battle at sea, the red is a bomb exploding.,-31,360,20","feels like a wave coming into light,9,400,20","Like the colors, the cloudy, airy effects. Nice.,46,400,20","stormy with gold lining,0,140,20","I like color mix here,15,40,20","i like the colors and the blending,17,260,20","Adam","I like color mix here,15,40,20","Christian","stormy with gold lining,0,140,20","Bryan","Like the colors, the cloudy, airy effects. Nice.,46,400,20","10"
"2751","","image-button-response_instructions","264","1457193","0.0-259.0","A2E0LU8V4EUX5C","","0","instructions","","","","","","","","","","","","","","","","","","","","","","","",""
"1403","","image-button-response","265","1458601","0.0-260.0","A2E0LU8V4EUX5C","","0","","","","","","","","","","","","","","","","","","","","","","","","",""
