"rt","url","trial_type","trial_index","time_elapsed","internal_node_id","participant_id","stimulus","button_pressed","Name","responses","response","key_press","variableName","fixationTime","condition","trial","photo","subjectRating","subjectResponse","agentsNames","agent_1_Response","agent_2_Response","agent_3_Response","agent_4_Response","agent_5_Response","agent_6_Response","kept_1_name","kept_1_response","kept_2_name","kept_2_response","kept_3_name","kept_3_response","errorCounter"
"5666","external_page_harvard.html","external-html","0","6156","0.0-0.0","A2EH7IQCDH2Q5D","","","","","","","","","","","","","","","","","","","","","","","","","","",""
"1167","","image-button-response","1","7324","0.0-1.0","A2EH7IQCDH2Q5D","","1","","","","","","","","","","","","","","","","","","","","","","","","",""
"1537","","image-button-response","2","8868","0.0-2.0-0.0","A2EH7IQCDH2Q5D","","1","phone","","","","","","","","","","","","","","","","","","","","","","","",""
"2264","","survey-text","3","11132","0.0-3.0-0.0","A2EH7IQCDH2Q5D","","","","{""Q0"":""A2EH7IQCDH2Q5D""}","","","","","","","","","","","","","","","","","","","","","","",""
"3700","","image-button-response_instructions","4","14835","0.0-4.0","A2EH7IQCDH2Q5D","","0","instructions","","","","","","","","","","","","","","","","","","","","","","","",""
"7593","","image-button-response_instructions","5","22428","0.0-5.0","A2EH7IQCDH2Q5D","img_art/ins/popularity/ins1.png","0","instructions","","","","","","","","","","","","","","","","","","","","","","","",""
"3342","","image-button-response_instructions","6","25772","0.0-6.0","A2EH7IQCDH2Q5D","img_art/ins/popularity/ins2.png","0","instructions","","","","","","","","","","","","","","","","","","","","","","","",""
"2289","","image-button-response_instructions","7","28063","0.0-7.0","A2EH7IQCDH2Q5D","img_art/ins/popularity/ins2Extreme.png","0","instructions","","","","","","","","","","","","","","","","","","","","","","","",""
"9600","","image-button-response_instructions","8","37665","0.0-8.0","A2EH7IQCDH2Q5D","img_art/ins/popularity/ins3KEEPpop.PNG","0","instructions","","","","","","","","","","","","","","","","","","","","","","","",""
"3621","","image-button-response_instructions","9","41286","0.0-9.0","A2EH7IQCDH2Q5D","img_art/ins/popularity/ins3ANamepop.PNG","0","instructions","","","","","","","","","","","","","","","","","","","","","","","",""
"2371","","image-button-response_instructions","10","43658","0.0-10.0","A2EH7IQCDH2Q5D","img_art/ins/popularity/ins3ARatingpop.png","0","instructions","","","","","","","","","","","","","","","","","","","","","","","",""
"3681","","image-button-response_instructions","11","47341","0.0-11.0","A2EH7IQCDH2Q5D","img_art/ins/popularity/ins3ATextpop.png","0","instructions","","","","","","","","","","","","","","","","","","","","","","","",""
"2540","","image-button-response_instructions","12","49882","0.0-12.0","A2EH7IQCDH2Q5D","img_art/ins/popularity/ins3ALikespop.png","0","instructions","","","","","","","","","","","","","","","","","","","","","","","",""
"6841","","image-button-response_instructions","13","56724","0.0-13.0","A2EH7IQCDH2Q5D","img_art/ins/popularity/ins3KEEPpop.PNG","0","instructions","","","","","","","","","","","","","","","","","","","","","","","",""
"7291","","image-button-response_instructions","14","64016","0.0-14.0","A2EH7IQCDH2Q5D","img_art/ins/popularity/ins3_5RED.png","0","instructions","","","","","","","","","","","","","","","","","","","","","","","",""
"3761","","image-button-response_instructions","15","67778","0.0-15.0","A2EH7IQCDH2Q5D","img_art/ins/popularity/ins3KEEPpop.PNG","0","instructions","","","","","","","","","","","","","","","","","","","","","","","",""
"8421","","image-button-response_instructions","16","76200","0.0-16.0","A2EH7IQCDH2Q5D","img_art/ins/popularity/ins4KEEPpop.PNG","0","instructions","","","","","","","","","","","","","","","","","","","","","","","",""
"5791","","image-button-response_instructions","17","81993","0.0-17.0","A2EH7IQCDH2Q5D","img_art/ins/popularity/ins5KEEPpop.PNG","0","instructions","","","","","","","","","","","","","","","","","","","","","","","",""
"1920","","image-button-response_instructions","18","83914","0.0-18.0","A2EH7IQCDH2Q5D","","0","instructions","","","","","","","","","","","","","","","","","","","","","","","",""
"4034","","survey-text","19","87968","0.0-19.0-0.0","A2EH7IQCDH2Q5D","","","","{""Q0"":""but""}","","","","","","","","","","","","","","","","","","","","","","",""
"21999","","survey-text","20","109969","0.0-20.0-0.0","A2EH7IQCDH2Q5D","","","","{""Q0"":""it looks like chaotic mud made by a toddler""}","","","","","","","","","","","","","","","","","","","","","","",""
"3952.2999999523163","","image-slider-response","21","113923","0.0-21.0","A2EH7IQCDH2Q5D","","","","","-50","","","","","","","","","","","","","","","","","","","","","",""
"null","","image-button-response","22","118927","0.0-22.0","A2EH7IQCDH2Q5D","img_art/ins/1.jpg","null","","","","","","","","","","","","","","","","","","","","","","","","",""
"2147","","image-button-response","23","121077","0.0-23.0","A2EH7IQCDH2Q5D","img_art/ins/1.jpg","2","","","","","","","","","","","","","","","","","","","","","","","","",""
"1528","","image-button-response","24","122607","0.0-24.0-0.0","A2EH7IQCDH2Q5D","img_art/ins/1.jpg","3","","","","","","","","","","","","","","","","","","","","","","","","",""
"4469","","image-button-response","25","127079","0.0-25.0-0.0","A2EH7IQCDH2Q5D","img_art/ins/1.jpg","1","","","","","","","","","","","","","","","","","","","","","","","","",""
"null","","html-keyboard-response","26","128085","0.0-26.0","A2EH7IQCDH2Q5D","<p style=""font-size: 48px;"">+</p>","","","","","null","allTrialResponses","1000","1","-2","img_art/ins/1.jpg","-50","it looks like chaotic mud made by a toddler","Allison,Ashley,Beth,Dora,Erika,Jen","looks like a lot of things going on in the mist,20,20,20","I just don't get why these type of art would be popular,-32,40,20","This color reminds me of poo,-46,60,20","looks like what my niece in 3rd grade did this afternoon,-50,80,20","I like the sophisticated brushwork,40,100,20","It reminds me of a candy land dream I had,36,120,20","Beth","This color reminds me of poo,-46,60,20","Dora","looks like what my niece in 3rd grade did this afternoon,-50,80,20","Ashley","I just don't get why these type of art would be popular,-32,40,20","0"
"24240","","survey-text","27","152330","0.0-27.0-0.0","A2EH7IQCDH2Q5D","","","","{""Q0"":""the complex textures are amusing""}","","","","","","","","","","","","","","","","","","","","","","",""
"3713.699999809265","","image-slider-response","28","156046","0.0-28.0","A2EH7IQCDH2Q5D","","","","","9","","","","","","","","","","","","","","","","","","","","","",""
"4859","","image-button-response","29","161048","0.0-29.0","A2EH7IQCDH2Q5D","img_art/ins/2.jpg","4","","","","","","","","","","","","","","","","","","","","","","","","",""
"1620","","image-button-response","30","162670","0.0-30.0","A2EH7IQCDH2Q5D","img_art/ins/2.jpg","4","","","","","","","","","","","","","","","","","","","","","","","","",""
"5690","","image-button-response","31","168362","0.0-31.0-0.0","A2EH7IQCDH2Q5D","img_art/ins/2.jpg","0","","","","","","","","","","","","","","","","","","","","","","","","",""
"6659","","image-button-response","32","175023","0.0-32.0-0.0","A2EH7IQCDH2Q5D","img_art/ins/2.jpg","1","","","","","","","","","","","","","","","","","","","","","","","","",""
"null","","html-keyboard-response","33","176525","0.0-33.0","A2EH7IQCDH2Q5D","<p style=""font-size: 48px;"">+</p>","","","","","null","allTrialResponses","1500","1","-1","img_art/ins/2.jpg","9","the complex textures are amusing","Jenna,Ashley,Beth,Dora,Kara,Katie","One of my pet peevs,-48,140,20","Idk, it is just annoying,-32,40,20","meaningless painting,-45,60,20","looks too angry,-50,80,20","I like the blocks of color arrangements,30,160,20","too much color!,-28,180,20","Kara","I like the blocks of color arrangements,30,160,20","Jenna","One of my pet peevs,-48,140,20","Ashley","Idk, it is just annoying,-32,40,20","0"
"19711","","survey-text","34","196241","0.0-34.0-0.0","A2EH7IQCDH2Q5D","","","","{""Q0"":""reminds me of ice king from adventure time""}","","","","","","","","","","","","","","","","","","","","","","",""
"3401.899999856949","","image-slider-response","35","199645","0.0-35.0","A2EH7IQCDH2Q5D","","","","","13","","","","","","","","","","","","","","","","","","","","","",""
"4210","","image-button-response","36","204647","0.0-36.0","A2EH7IQCDH2Q5D","img_art/ins/3.jpg","4","","","","","","","","","","","","","","","","","","","","","","","","",""
"430","","image-button-response","37","205080","0.0-37.0","A2EH7IQCDH2Q5D","img_art/ins/3.jpg","3","","","","","","","","","","","","","","","","","","","","","","","","",""
"1111","","image-button-response","38","206192","0.0-38.0-0.0","A2EH7IQCDH2Q5D","img_art/ins/3.jpg","4","","","","","","","","","","","","","","","","","","","","","","","","",""
"3309","","image-button-response","39","209503","0.0-39.0-0.0","A2EH7IQCDH2Q5D","img_art/ins/3.jpg","1","","","","","","","","","","","","","","","","","","","","","","","","",""
"null","","html-keyboard-response","40","210506","0.0-40.0","A2EH7IQCDH2Q5D","<p style=""font-size: 48px;"">+</p>","","","","","null","allTrialResponses","1000","1","0","img_art/ins/3.jpg","13","reminds me of ice king from adventure time","Jenna,Ashley,Mary,Leslie,Kara,Rose","looks like a murder room,-35,140,20","It looks like a playground for bats,-36,40,20","I like the overlapping of brushes,41,220,20","It's an alright work,15,200,20","calming blue is very nice,36,160,20","My daily routine, it's depressing,-20,240,20","Leslie","It's an alright work,15,200,20","Kara","calming blue is very nice,36,160,20","Ashley","It looks like a playground for bats,-36,40,20","0"
"5597","","image-button-response_instructions","41","216105","0.0-41.0","A2EH7IQCDH2Q5D","","0","instructions","","","","","","","","","","","","","","","","","","","","","","","",""
"9276","","survey-likert","42","225384","0.0-42.0-0.0","A2EH7IQCDH2Q5D","","","","{""Q0"":"""",""Q1"":0,""Q2"":1}","","","","","","","","","","","","","","","","","","","","","","",""
"3848","","survey-text","43","229246","0.0-43.0-0.0","A2EH7IQCDH2Q5D","","","","{""Q0"":""rock""}","","","","","","","","","","","","","","","","","","","","","","",""
"37521","","survey-text","44","266768","0.0-44.0-0.0","A2EH7IQCDH2Q5D","","","","{""Q0"":""it is captivating and lets the imagination run wild""}","","","","","","","","","","","","","","","","","","","","","","",""
"2933","","image-slider-response","45","269703","0.0-45.0","A2EH7IQCDH2Q5D","","","","","38","","","","","","","","","","","","","","","","","","","","","",""
"null","","image-button-response","46","274722","0.0-46.0","A2EH7IQCDH2Q5D","img_art/13.jpg","null","","","","","","","","","","","","","","","","","","","","","","","","",""
"3682","","image-button-response","47","278405","0.0-47.0","A2EH7IQCDH2Q5D","img_art/13.jpg","3","","","","","","","","","","","","","","","","","","","","","","","","",""
"1401","","image-button-response","48","279807","0.0-48.0-0.0","A2EH7IQCDH2Q5D","img_art/13.jpg","0","","","","","","","","","","","","","","","","","","","","","","","","",""
"3510","","image-button-response","49","283318","0.0-49.0-0.0","A2EH7IQCDH2Q5D","img_art/13.jpg","1","","","","","","","","","","","","","","","","","","","","","","","","",""
"null","","html-keyboard-response","50","283821","0.0-50.0","A2EH7IQCDH2Q5D","<p style=""font-size: 48px;"">+</p>","","","","","null","allTrialResponses","500","1","1","img_art/13.jpg","38","it is captivating and lets the imagination run wild","Samantha,Ashley,Angelica,Kayla,Olivia,Haley","Nice colors. beautiful blue,50,140,20","AWESOME! Pollack but with more direction.,32,320,20","It's too violent looking and there's too much contrast between the white/black.,-21,280,20","Pleasing, happy, rainy.,12,180,20","eighties here we come,7,40,20","Nothing about this stands out to me,-10,220,20","Kayla","Pleasing, happy, rainy.,12,180,20","Samantha","Nice colors. beautiful blue,50,140,20","Ashley","AWESOME! Pollack but with more direction.,32,320,20","0"
"18612","","survey-text","51","302438","0.0-51.0-0.0","A2EH7IQCDH2Q5D","","","","{""Q0"":""a bit spooky and blurry""}","","","","","","","","","","","","","","","","","","","","","","",""
"3332.5","","image-slider-response","52","305772","0.0-52.0","A2EH7IQCDH2Q5D","","","","","2","","","","","","","","","","","","","","","","","","","","","",""
"null","","image-button-response","53","310775","0.0-53.0","A2EH7IQCDH2Q5D","img_art/20.jpg","null","","","","","","","","","","","","","","","","","","","","","","","","",""
"2768","","image-button-response","54","313545","0.0-54.0","A2EH7IQCDH2Q5D","img_art/20.jpg","3","","","","","","","","","","","","","","","","","","","","","","","","",""
"4020","","image-button-response","55","317567","0.0-55.0-0.0","A2EH7IQCDH2Q5D","img_art/20.jpg","4","","","","","","","","","","","","","","","","","","","","","","","","",""
"2170","","image-button-response","56","319739","0.0-56.0-0.0","A2EH7IQCDH2Q5D","img_art/20.jpg","1","","","","","","","","","","","","","","","","","","","","","","","","",""
"null","","html-keyboard-response","57","321241","0.0-57.0","A2EH7IQCDH2Q5D","<p style=""font-size: 48px;"">+</p>","","","","","null","allTrialResponses","1500","1","2","img_art/20.jpg","2","a bit spooky and blurry","Samantha,Ashley,Brianna,Kayla,Kimberly,Breanna","Use of white on foreground is too big and steals eyes away from rest of painting,2,140,20","Painting within a painting, abstract.,32,320,20","It looks like a motorcycle and I like cars and motorcycles,30,20,20","Something fell over and is burning, but it's kinda dope, you know?,14,180,20","Something bad has happened TO reality,-23,260,20","Makes me feel impressed,9,380,20","Kayla","Something fell over and is burning, but it's kinda dope, you know?,14,180,20","Kimberly","Something bad has happened TO reality,-23,260,20","Ashley","Painting within a painting, abstract.,32,320,20","0"
"18539","","survey-text","58","339783","0.0-58.0-0.0","A2EH7IQCDH2Q5D","","","","{""Q0"":""reminds me of chaotic sheet music""}","","","","","","","","","","","","","","","","","","","","","","",""
"3021.9000000953674","","image-slider-response","59","342807","0.0-59.0","A2EH7IQCDH2Q5D","","","","","12","","","","","","","","","","","","","","","","","","","","","",""
"3330","","image-button-response","60","347809","0.0-60.0","A2EH7IQCDH2Q5D","img_art/11.jpg","1","","","","","","","","","","","","","","","","","","","","","","","","",""
"500","","image-button-response","61","348311","0.0-61.0","A2EH7IQCDH2Q5D","img_art/11.jpg","1","","","","","","","","","","","","","","","","","","","","","","","","",""
"6899","","image-button-response","62","355212","0.0-62.0-0.0","A2EH7IQCDH2Q5D","img_art/11.jpg","4","","","","","","","","","","","","","","","","","","","","","","","","",""
"2199","","image-button-response","63","357414","0.0-63.0-0.0","A2EH7IQCDH2Q5D","img_art/11.jpg","3","","","","","","","","","","","","","","","","","","","","","","","","",""
"null","","html-keyboard-response","64","358917","0.0-64.0","A2EH7IQCDH2Q5D","<p style=""font-size: 48px;"">+</p>","","","","","null","allTrialResponses","1500","1","3","img_art/11.jpg","12","reminds me of chaotic sheet music","Abigail,Ashley,Savannah,Kayla,Kimberly,Danielle","Rainy highways in RI,20,20,20","Dark but bright, city but ocean, musical scales.,50,320,20","Not quite as abstract as I'd like- It's clearly a dingy city.,-18,200,20","I like that it could be train tracks, or telephone wires, etc. It's always a means of getting from a to b.,15,180,20","It's cables in a city,21,260,20","Reminds me of some of post-apocalyptic view of street lights or maybe a city,30,340,20","Ashley","Dark but bright, city but ocean, musical scales.,50,320,20","Kimberly","It's cables in a city,21,260,20","Kayla","I like that it could be train tracks, or telephone wires, etc. It's always a means of getting from a to b.,15,180,20","0"
"15868","","survey-text","65","374788","0.0-65.0-0.0","A2EH7IQCDH2Q5D","","","","{""Q0"":""an advertisement for spice bomb?""}","","","","","","","","","","","","","","","","","","","","","","",""
"3132.600000143051","","image-slider-response","66","377923","0.0-66.0","A2EH7IQCDH2Q5D","","","","","3","","","","","","","","","","","","","","","","","","","","","",""
"3317","","image-button-response","67","382928","0.0-67.0","A2EH7IQCDH2Q5D","img_art/1.jpg","4","","","","","","","","","","","","","","","","","","","","","","","","",""
"348","","image-button-response","68","383276","0.0-68.0","A2EH7IQCDH2Q5D","img_art/1.jpg","5","","","","","","","","","","","","","","","","","","","","","","","","",""
"3959","","image-button-response","69","387238","0.0-69.0-0.0","A2EH7IQCDH2Q5D","img_art/1.jpg","2","","","","","","","","","","","","","","","","","","","","","","","","",""
"3519","","image-button-response","70","390760","0.0-70.0-0.0","A2EH7IQCDH2Q5D","img_art/1.jpg","4","","","","","","","","","","","","","","","","","","","","","","","","",""
"null","","html-keyboard-response","71","391262","0.0-71.0","A2EH7IQCDH2Q5D","<p style=""font-size: 48px;"">+</p>","","","","","null","allTrialResponses","500","1","4","img_art/1.jpg","3","an advertisement for spice bomb?","Erika,Ashley,Shannon,Kayla,Kimberly,Brooke","Vague and directionless,-14,100,20","More passable, colorful, abstract.,13,320,20","I think that this picture has nice colors and its pleasing to the eyes.,20,220,20","Happy! Reminds me of hiking in tennesee.,18,180,20","It's like being out on a psychedelic lake,32,260,20","It's okay, colors remind me of autumn.,10,60,20","Brooke","It's okay, colors remind me of autumn.,10,60,20","Shannon","I think that this picture has nice colors and its pleasing to the eyes.,20,220,20","Kimberly","It's like being out on a psychedelic lake,32,260,20","0"
"18334","","survey-text","72","409600","0.0-72.0-0.0","A2EH7IQCDH2Q5D","","","","{""Q0"":""if a sea serpent and a leopard had a baby""}","","","","","","","","","","","","","","","","","","","","","","",""
"4244.300000190735","","image-slider-response","73","413846","0.0-73.0","A2EH7IQCDH2Q5D","","","","","16","","","","","","","","","","","","","","","","","","","","","",""
"2359","","image-button-response","74","418849","0.0-74.0","A2EH7IQCDH2Q5D","img_art/10.jpg","1","","","","","","","","","","","","","","","","","","","","","","","","",""
"730","","image-button-response","75","419581","0.0-75.0","A2EH7IQCDH2Q5D","img_art/10.jpg","1","","","","","","","","","","","","","","","","","","","","","","","","",""
"4229","","image-button-response","76","423813","0.0-76.0-0.0","A2EH7IQCDH2Q5D","img_art/10.jpg","3","","","","","","","","","","","","","","","","","","","","","","","","",""
"4931","","image-button-response","77","428746","0.0-77.0-0.0","A2EH7IQCDH2Q5D","img_art/10.jpg","0","","","","","","","","","","","","","","","","","","","","","","","","",""
"null","","html-keyboard-response","78","430248","0.0-78.0","A2EH7IQCDH2Q5D","<p style=""font-size: 48px;"">+</p>","","","","","null","allTrialResponses","1500","1","5","img_art/10.jpg","16","if a sea serpent and a leopard had a baby","Jasmine,Kelly,Shannon,Rebecca,Kimberly,Brooke","It's okay but not giving me the strongest reaction,6,340,20","I cant tell what this is supposed to be, but I enjoy the simplicity of it.,28,220,20","I can't tell what this picture is supposed to mean and I think the colors are lacking variety.,-42,220,20","gives a sense of a roller coaster unit splashed in water. it's not but i love it nevertheless,44,100,20","Also too all over the place, I don't see any pattern or anything that's supposed to stand out,-19,260,20","artistic cello piece?,30,60,20","Kelly","I cant tell what this is supposed to be, but I enjoy the simplicity of it.,28,220,20","Rebecca","gives a sense of a roller coaster unit splashed in water. it's not but i love it nevertheless,44,100,20","Jasmine","It's okay but not giving me the strongest reaction,6,340,20","0"
"4860","","survey-text","79","435119","0.0-79.0-0.0","A2EH7IQCDH2Q5D","","","","{""Q0"":""sky""}","","","","","","","","","","","","","","","","","","","","","","",""
"26339","","survey-text","80","461461","0.0-80.0-0.0","A2EH7IQCDH2Q5D","","","","{""Q0"":""this is a child's watercolor, did Timmy also paint the walls?""}","","","","","","","","","","","","","","","","","","","","","","",""
"2882.899999856949","","image-slider-response","81","464345","0.0-81.0","A2EH7IQCDH2Q5D","","","","","-39","","","","","","","","","","","","","","","","","","","","","",""
"4440","","image-button-response","82","469349","0.0-82.0","A2EH7IQCDH2Q5D","img_art/19.jpg","4","","","","","","","","","","","","","","","","","","","","","","","","",""
"808","","image-button-response","83","470159","0.0-83.0","A2EH7IQCDH2Q5D","img_art/19.jpg","4","","","","","","","","","","","","","","","","","","","","","","","","",""
"2379","","image-button-response","84","472540","0.0-84.0-0.0","A2EH7IQCDH2Q5D","img_art/19.jpg","2","","","","","","","","","","","","","","","","","","","","","","","","",""
"1191","","image-button-response","85","473732","0.0-85.0-0.0","A2EH7IQCDH2Q5D","img_art/19.jpg","1","","","","","","","","","","","","","","","","","","","","","","","","",""
"null","","html-keyboard-response","86","474235","0.0-86.0","A2EH7IQCDH2Q5D","<p style=""font-size: 48px;"">+</p>","","","","","null","allTrialResponses","500","1","6","img_art/19.jpg","-39","this is a child's watercolor, did Timmy also paint the walls?","Jasmine,Kelly,Vanessa,Rebecca,Chelsea,Mary","Just stirred a negative reaction. Don't really like it perhaps because of the structure?,-8,340,20","TOo much brown.,-24,220,20","Again, this is too abstract.,-10,380,20","interesting take on depth (reminds me of those 1000 piece puzzles),2,100,20","It is too busy.,-34,180,20","I interpret an outdoor scene. It's good because it makes me want to look longer.,22,180,20","Chelsea","It is too busy.,-34,180,20","Vanessa","Again, this is too abstract.,-10,380,20","Kelly","TOo much brown.,-24,220,20","0"
"18136","","survey-text","87","492377","0.0-87.0-0.0","A2EH7IQCDH2Q5D","","","","{""Q0"":""boring geometric, quite bland""}","","","","","","","","","","","","","","","","","","","","","","",""
"3251.2999999523163","","image-slider-response","88","495630","0.0-88.0","A2EH7IQCDH2Q5D","","","","","-18","","","","","","","","","","","","","","","","","","","","","",""
"3721","","image-button-response","89","500632","0.0-89.0","A2EH7IQCDH2Q5D","img_art/22.jpg","3","","","","","","","","","","","","","","","","","","","","","","","","",""
"533","","image-button-response","90","501168","0.0-90.0","A2EH7IQCDH2Q5D","img_art/22.jpg","3","","","","","","","","","","","","","","","","","","","","","","","","",""
"2388","","image-button-response","91","503559","0.0-91.0-0.0","A2EH7IQCDH2Q5D","img_art/22.jpg","4","","","","","","","","","","","","","","","","","","","","","","","","",""
"5421","","image-button-response","92","508980","0.0-92.0-0.0","A2EH7IQCDH2Q5D","img_art/22.jpg","0","","","","","","","","","","","","","","","","","","","","","","","","",""
"null","","html-keyboard-response","93","509483","0.0-93.0","A2EH7IQCDH2Q5D","<p style=""font-size: 48px;"">+</p>","","","","","null","allTrialResponses","500","1","7","img_art/22.jpg","-18","boring geometric, quite bland","Michaela,Kelly,Vanessa,Alicia,Chelsea,Morgan","I like the use of primary colors in an interesting way,29,260,20","I really enjoy the blended colors.,20,220,20","I don't like the colors or the way they've been arranged.,-20,380,20","Could be interpreted so many ways, bold. I like it.,29,120,20","The colors clash, and I don't know what is happening.,-23,180,20","Glowing city of many emotions.,10,380,20","Alicia","Could be interpreted so many ways, bold. I like it.,29,120,20","Chelsea","The colors clash, and I don't know what is happening.,-23,180,20","Michaela","I like the use of primary colors in an interesting way,29,260,20","0"
"20922","","survey-text","94","530408","0.0-94.0-0.0","A2EH7IQCDH2Q5D","","","","{""Q0"":""someone forgot to cut their fingernails for 50 years""}","","","","","","","","","","","","","","","","","","","","","","",""
"3161.5999999046326","","image-slider-response","95","533572","0.0-95.0","A2EH7IQCDH2Q5D","","","","","-50","","","","","","","","","","","","","","","","","","","","","",""
"1569","","image-button-response","96","538575","0.0-96.0","A2EH7IQCDH2Q5D","img_art/4.jpg","1","","","","","","","","","","","","","","","","","","","","","","","","",""
"463","","image-button-response","97","539040","0.0-97.0","A2EH7IQCDH2Q5D","img_art/4.jpg","1","","","","","","","","","","","","","","","","","","","","","","","","",""
"3171","","image-button-response","98","542213","0.0-98.0-0.0","A2EH7IQCDH2Q5D","img_art/4.jpg","4","","","","","","","","","","","","","","","","","","","","","","","","",""
"1260","","image-button-response","99","543475","0.0-99.0-0.0","A2EH7IQCDH2Q5D","img_art/4.jpg","3","","","","","","","","","","","","","","","","","","","","","","","","",""
"null","","html-keyboard-response","100","544976","0.0-100.0","A2EH7IQCDH2Q5D","<p style=""font-size: 48px;"">+</p>","","","","","null","allTrialResponses","1500","1","8","img_art/4.jpg","-50","someone forgot to cut their fingernails for 50 years","Michaela,Hailey,Erin,Alicia,Chelsea,Gabriela","It reminds me of something a kid would make for their parents,13,260,20","ugly puke yellow is cold and dark,-29,200,20","Seems simplistic,-8,120,20","ordinary, bland. unmoving.,-6,120,20","The colors remind me of McDonalds.,-41,180,20","The bold colors are exciting. It looks like a statue on someone's mantle.,18,140,20","Hailey","ugly puke yellow is cold and dark,-29,200,20","Chelsea","The colors remind me of McDonalds.,-41,180,20","Alicia","ordinary, bland. unmoving.,-6,120,20","0"
"19680","","survey-text","101","564660","0.0-101.0-0.0","A2EH7IQCDH2Q5D","","","","{""Q0"":""I like its beauty""}","","","","","","","","","","","","","","","","","","","","","","",""
"2782.699999809265","","image-slider-response","102","567445","0.0-102.0","A2EH7IQCDH2Q5D","","","","","33","","","","","","","","","","","","","","","","","","","","","",""
"4815","","image-button-response","103","572447","0.0-103.0","A2EH7IQCDH2Q5D","img_art/17.jpg","3","","","","","","","","","","","","","","","","","","","","","","","","",""
"643","","image-button-response","104","573092","0.0-104.0","A2EH7IQCDH2Q5D","img_art/17.jpg","3","","","","","","","","","","","","","","","","","","","","","","","","",""
"660","","image-button-response","105","573754","0.0-105.0-0.0","A2EH7IQCDH2Q5D","img_art/17.jpg","1","","","","","","","","","","","","","","","","","","","","","","","","",""
"1420","","image-button-response","106","575178","0.0-106.0-0.0","A2EH7IQCDH2Q5D","img_art/17.jpg","2","","","","","","","","","","","","","","","","","","","","","","","","",""
"null","","html-keyboard-response","107","576181","0.0-107.0","A2EH7IQCDH2Q5D","<p style=""font-size: 48px;"">+</p>","","","","","null","allTrialResponses","1000","1","9","img_art/17.jpg","33","I like its beauty","Bailey,Hailey,Erica,Alicia,Chelsea,Allison","I like the artistic sketching pattern.,24,360,20","soft and warm light colors are relaxing,12,200,20","Makes me warm and cozy just by looking at it,29,80,20","Like this one, super creative, calming.,43,120,20","The colors are soft.,32,180,20","Very washed out.,-10,140,20","Alicia","Like this one, super creative, calming.,43,120,20","Hailey","soft and warm light colors are relaxing,12,200,20","Erica","Makes me warm and cozy just by looking at it,29,80,20","0"
"21782","","survey-text","108","597968","0.0-108.0-0.0","A2EH7IQCDH2Q5D","","","","{""Q0"":""reminds me of some abstract art my grandma had in her kitchen""}","","","","","","","","","","","","","","","","","","","","","","",""
"3333.2999999523163","","image-slider-response","109","601303","0.0-109.0","A2EH7IQCDH2Q5D","","","","","8","","","","","","","","","","","","","","","","","","","","","",""
"null","","image-button-response","110","606305","0.0-110.0","A2EH7IQCDH2Q5D","img_art/14.jpg","null","","","","","","","","","","","","","","","","","","","","","","","","",""
"2908","","image-button-response","111","609215","0.0-111.0","A2EH7IQCDH2Q5D","img_art/14.jpg","4","","","","","","","","","","","","","","","","","","","","","","","","",""
"1759","","image-button-response","112","610976","0.0-112.0-0.0","A2EH7IQCDH2Q5D","img_art/14.jpg","1","","","","","","","","","","","","","","","","","","","","","","","","",""
"2610","","image-button-response","113","613589","0.0-113.0-0.0","A2EH7IQCDH2Q5D","img_art/14.jpg","2","","","","","","","","","","","","","","","","","","","","","","","","",""
"null","","html-keyboard-response","114","614090","0.0-114.0","A2EH7IQCDH2Q5D","<p style=""font-size: 48px;"">+</p>","","","","","null","allTrialResponses","500","1","10","img_art/14.jpg","8","reminds me of some abstract art my grandma had in her kitchen","Miranda,Hailey,Erica,Alicia,Angela,Christina","This just looks like a kids watercolor painting.,-30,320,20","fuzzy and confused. ok then well,16,200,20","positive colours, makes me to look at it and investigate what is going on,27,80,20","ok, gloomy though.,12,120,20","I like the colors and the shapes are interesting,11,260,20","has a tree look to it and it's colors are happy,9,240,20","Angela","I like the colors and the shapes are interesting,11,260,20","Hailey","fuzzy and confused. ok then well,16,200,20","Erica","positive colours, makes me to look at it and investigate what is going on,27,80,20","0"
"3361","","survey-text","115","617461","0.0-115.0-0.0","A2EH7IQCDH2Q5D","","","","{""Q0"":""our""}","","","","","","","","","","","","","","","","","","","","","","",""
"9434","","survey-text","116","626896","0.0-116.0-0.0","A2EH7IQCDH2Q5D","","","","{""Q0"":""ketchup massacre""}","","","","","","","","","","","","","","","","","","","","","","",""
"2882.5","","image-slider-response","117","629780","0.0-117.0","A2EH7IQCDH2Q5D","","","","","-46","","","","","","","","","","","","","","","","","","","","","",""
"4464","","image-button-response","118","634783","0.0-118.0","A2EH7IQCDH2Q5D","img_art/3.jpg","1","","","","","","","","","","","","","","","","","","","","","","","","",""
"683","","image-button-response","119","635468","0.0-119.0","A2EH7IQCDH2Q5D","img_art/3.jpg","1","","","","","","","","","","","","","","","","","","","","","","","","",""
"1071","","image-button-response","120","636541","0.0-120.0-0.0","A2EH7IQCDH2Q5D","img_art/3.jpg","2","","","","","","","","","","","","","","","","","","","","","","","","",""
"1069","","image-button-response","121","637613","0.0-121.0-0.0","A2EH7IQCDH2Q5D","img_art/3.jpg","5","","","","","","","","","","","","","","","","","","","","","","","","",""
"null","","html-keyboard-response","122","638614","0.0-122.0","A2EH7IQCDH2Q5D","<p style=""font-size: 48px;"">+</p>","","","","","null","allTrialResponses","1000","1","11","img_art/3.jpg","-46","ketchup massacre","Sydney,Hailey,Erica,Anna,Angela,Courtney","This piece makes me think it has a backstory or a reason which I like.,5,320,20","painted by a 2 year old. cold and boring,-30,200,20","Associates with blood and crime scene,-12,80,20","Definition of mediocre abstract art,-12,300,20","Like the colors and energy of this work.,10,260,20","That just looks like a mess..,-18,280,20","Hailey","painted by a 2 year old. cold and boring,-30,200,20","Erica","Associates with blood and crime scene,-12,80,20","Courtney","That just looks like a mess..,-18,280,20","0"
"8597","","survey-text","123","647217","0.0-123.0-0.0","A2EH7IQCDH2Q5D","","","","{""Q0"":""childs art""}","","","","","","","","","","","","","","","","","","","","","","",""
"3200.5999999046326","","image-slider-response","124","650420","0.0-124.0","A2EH7IQCDH2Q5D","","","","","-50","","","","","","","","","","","","","","","","","","","","","",""
"3030","","image-button-response","125","655423","0.0-125.0","A2EH7IQCDH2Q5D","img_art/27.jpg","3","","","","","","","","","","","","","","","","","","","","","","","","",""
"892","","image-button-response","126","656317","0.0-126.0","A2EH7IQCDH2Q5D","img_art/27.jpg","4","","","","","","","","","","","","","","","","","","","","","","","","",""
"1560","","image-button-response","127","657879","0.0-127.0-0.0","A2EH7IQCDH2Q5D","img_art/27.jpg","5","","","","","","","","","","","","","","","","","","","","","","","","",""
"1620","","image-button-response","128","659502","0.0-128.0-0.0","A2EH7IQCDH2Q5D","img_art/27.jpg","3","","","","","","","","","","","","","","","","","","","","","","","","",""
"null","","html-keyboard-response","129","660004","0.0-129.0","A2EH7IQCDH2Q5D","<p style=""font-size: 48px;"">+</p>","","","","","null","allTrialResponses","500","1","12","img_art/27.jpg","-50","childs art","Elizabeth,Hailey,Erica,Taylor,Katelyn,Courtney","Like the abstractness of this picture,20,20,20","fruity and sweet. warm and juicy,10,200,20","I like the pictures but it is a lot of going on,10,80,20","Reminds me of a town on fire,-15,340,20","Doesnt look like anything to me. Doesnt capture my attention.,-25,100,20","A fall mess going on here,2,280,20","Katelyn","Doesnt look like anything to me. Doesnt capture my attention.,-25,100,20","Courtney","A fall mess going on here,2,280,20","Taylor","Reminds me of a town on fire,-15,340,20","0"
"11197","","survey-text","130","671204","0.0-130.0-0.0","A2EH7IQCDH2Q5D","","","","{""Q0"":""could it be mud?""}","","","","","","","","","","","","","","","","","","","","","","",""
"2782.9000000953674","","image-slider-response","131","673988","0.0-131.0","A2EH7IQCDH2Q5D","","","","","-37","","","","","","","","","","","","","","","","","","","","","",""
"2382","","image-button-response","132","678991","0.0-132.0","A2EH7IQCDH2Q5D","img_art/28.jpg","4","","","","","","","","","","","","","","","","","","","","","","","","",""
"631","","image-button-response","133","679623","0.0-133.0","A2EH7IQCDH2Q5D","img_art/28.jpg","4","","","","","","","","","","","","","","","","","","","","","","","","",""
"1129","","image-button-response","134","680755","0.0-134.0-0.0","A2EH7IQCDH2Q5D","img_art/28.jpg","1","","","","","","","","","","","","","","","","","","","","","","","","",""
"780","","image-button-response","135","681536","0.0-135.0-0.0","A2EH7IQCDH2Q5D","img_art/28.jpg","0","","","","","","","","","","","","","","","","","","","","","","","","",""
"null","","html-keyboard-response","136","683039","0.0-136.0","A2EH7IQCDH2Q5D","<p style=""font-size: 48px;"">+</p>","","","","","null","allTrialResponses","1500","1","13","img_art/28.jpg","-37","could it be mud?","Mikayla,Claire,Crystal,Taylor,Katelyn,Courtney","It gives me weird vibes.,-25,300,20","not a fan of the colors or strokes used,-27,260,20","I like the flow and abstract nature of what seems to be humans,40,300,20","Doesn't give me an emotional response,0,340,20","Just all blurs together for me. No substance.,-23,100,20","Looks like some guys in s band playing at a busy park.,18,280,20","Katelyn","Just all blurs together for me. No substance.,-23,100,20","Claire","not a fan of the colors or strokes used,-27,260,20","Mikayla","It gives me weird vibes.,-25,300,20","0"
"23052","","survey-text","137","706097","0.0-137.0-0.0","A2EH7IQCDH2Q5D","","","","{""Q0"":""complexity that captures my interest""}","","","","","","","","","","","","","","","","","","","","","","",""
"3142","","image-slider-response","138","709240","0.0-138.0","A2EH7IQCDH2Q5D","","","","","29","","","","","","","","","","","","","","","","","","","","","",""
"2261","","image-button-response","139","714243","0.0-139.0","A2EH7IQCDH2Q5D","img_art/18.jpg","1","","","","","","","","","","","","","","","","","","","","","","","","",""
"1400","","image-button-response","140","715645","0.0-140.0","A2EH7IQCDH2Q5D","img_art/18.jpg","1","","","","","","","","","","","","","","","","","","","","","","","","",""
"4131","","image-button-response","141","719777","0.0-141.0-0.0","A2EH7IQCDH2Q5D","img_art/18.jpg","2","","","","","","","","","","","","","","","","","","","","","","","","",""
"1839","","image-button-response","142","721619","0.0-142.0-0.0","A2EH7IQCDH2Q5D","img_art/18.jpg","3","","","","","","","","","","","","","","","","","","","","","","","","",""
"null","","html-keyboard-response","143","723124","0.0-143.0","A2EH7IQCDH2Q5D","<p style=""font-size: 48px;"">+</p>","","","","","null","allTrialResponses","1500","1","14","img_art/18.jpg","29","complexity that captures my interest","Mikayla,Claire,Leah,Nicole,Katelyn,Brittany","Kinda boring. Not my favorite,-34,300,20","reminds me of greek mythology,22,260,20","I really like it, like hells drivers,43,360,20","There's danger in this painting and it's awesome,40,20,20","It reminds me of ghosts on a boat. Makes me nervous.,-27,100,20","This is really interesting to look at. I like the colors and the spectral look.,27,40,20","Claire","reminds me of greek mythology,22,260,20","Leah","I really like it, like hells drivers,43,360,20","Nicole","There's danger in this painting and it's awesome,40,20,20","0"
"12458","","survey-text","144","735592","0.0-144.0-0.0","A2EH7IQCDH2Q5D","","","","{""Q0"":""crayon chaos""}","","","","","","","","","","","","","","","","","","","","","","",""
"2653.300000190735","","image-slider-response","145","738246","0.0-145.0","A2EH7IQCDH2Q5D","","","","","-49","","","","","","","","","","","","","","","","","","","","","",""
"3061","","image-button-response","146","743248","0.0-146.0","A2EH7IQCDH2Q5D","img_art/9.jpg","4","","","","","","","","","","","","","","","","","","","","","","","","",""
"1541","","image-button-response","147","744791","0.0-147.0","A2EH7IQCDH2Q5D","img_art/9.jpg","4","","","","","","","","","","","","","","","","","","","","","","","","",""
"1520","","image-button-response","148","746313","0.0-148.0-0.0","A2EH7IQCDH2Q5D","img_art/9.jpg","5","","","","","","","","","","","","","","","","","","","","","","","","",""
"3620","","image-button-response","149","749935","0.0-149.0-0.0","A2EH7IQCDH2Q5D","img_art/9.jpg","0","","","","","","","","","","","","","","","","","","","","","","","","",""
"null","","html-keyboard-response","150","750437","0.0-150.0","A2EH7IQCDH2Q5D","<p style=""font-size: 48px;"">+</p>","","","","","null","allTrialResponses","500","1","15","img_art/9.jpg","-49","crayon chaos","Emily,Claire,Leah,Nicole,Alyssa,Hannah","Looks like a young child drew it.,-45,40,20","the colors are nice,6,260,20","Depressing to me, like a dark dream,-11,360,20","It's peaceful and relaxing,24,20,20","Unpleasant, alot of dark colors and strange lines,-26,160,20","Someone lying in bed?  Don't care for it.,-14,240,20","Alyssa","Unpleasant, alot of dark colors and strange lines,-26,160,20","Hannah","Someone lying in bed?  Don't care for it.,-14,240,20","Emily","Looks like a young child drew it.,-45,40,20","0"
"5272","","survey-text","151","755718","0.0-151.0-0.0","A2EH7IQCDH2Q5D","","","","{""Q0"":""course""}","","","","","","","","","","","","","","","","","","","","","","",""
"13214","","survey-text","152","768933","0.0-152.0-0.0","A2EH7IQCDH2Q5D","","","","{""Q0"":""scary ghost burning man""}","","","","","","","","","","","","","","","","","","","","","","",""
"5933.599999904633","","image-slider-response","153","774867","0.0-153.0","A2EH7IQCDH2Q5D","","","","","-19","","","","","","","","","","","","","","","","","","","","","",""
"4399","","image-button-response","154","779873","0.0-154.0","A2EH7IQCDH2Q5D","img_art/25.jpg","5","","","","","","","","","","","","","","","","","","","","","","","","",""
"718","","image-button-response","155","780592","0.0-155.0","A2EH7IQCDH2Q5D","img_art/25.jpg","5","","","","","","","","","","","","","","","","","","","","","","","","",""
"800","","image-button-response","156","781394","0.0-156.0-0.0","A2EH7IQCDH2Q5D","img_art/25.jpg","4","","","","","","","","","","","","","","","","","","","","","","","","",""
"2360","","image-button-response","157","783756","0.0-157.0-0.0","A2EH7IQCDH2Q5D","img_art/25.jpg","3","","","","","","","","","","","","","","","","","","","","","","","","",""
"null","","html-keyboard-response","158","784258","0.0-158.0","A2EH7IQCDH2Q5D","<p style=""font-size: 48px;"">+</p>","","","","","null","allTrialResponses","500","1","16","img_art/25.jpg","-19","scary ghost burning man","Emily,Makayla,Jacqueline,Briana,Alyssa,Hannah","Low skill not impressed.,-14,40,20","It's very mystical.,5,80,20","Not particularly interesting for me. The green color is strange mixed with this.,-11,300,20","Its scary. It looks like someone overlooking hell,-34,400,20","Dark silhouette against the murky background Illicites an ominous feeling. Don't really like it.,-20,160,20","Looks like a voodoo figure in a New Orleans cemetery at night.,-5,240,20","Hannah","Looks like a voodoo figure in a New Orleans cemetery at night.,-5,240,20","Alyssa","Dark silhouette against the murky background Illicites an ominous feeling. Don't really like it.,-20,160,20","Briana","Its scary. It looks like someone overlooking hell,-34,400,20","0"
"16346","","survey-text","159","800610","0.0-159.0-0.0","A2EH7IQCDH2Q5D","","","","{""Q0"":""the lone jalepeno jumping into a salsa bath""}","","","","","","","","","","","","","","","","","","","","","","",""
"3312.2999999523163","","image-slider-response","160","803924","0.0-160.0","A2EH7IQCDH2Q5D","","","","","-11","","","","","","","","","","","","","","","","","","","","","",""
"4370","","image-button-response","161","808927","0.0-161.0","A2EH7IQCDH2Q5D","img_art/6.jpg","1","","","","","","","","","","","","","","","","","","","","","","","","",""
"979","","image-button-response","162","809908","0.0-162.0","A2EH7IQCDH2Q5D","img_art/6.jpg","1","","","","","","","","","","","","","","","","","","","","","","","","",""
"1381","","image-button-response","163","811290","0.0-163.0-0.0","A2EH7IQCDH2Q5D","img_art/6.jpg","5","","","","","","","","","","","","","","","","","","","","","","","","",""
"6140","","image-button-response","164","817432","0.0-164.0-0.0","A2EH7IQCDH2Q5D","img_art/6.jpg","0","","","","","","","","","","","","","","","","","","","","","","","","",""
"null","","html-keyboard-response","165","818433","0.0-165.0","A2EH7IQCDH2Q5D","<p style=""font-size: 48px;"">+</p>","","","","","null","allTrialResponses","1000","1","17","img_art/6.jpg","-11","the lone jalepeno jumping into a salsa bath","Caitlin,Alexa,Sara,Briana,Alyssa,Hannah","A crow on one leg?,-10,80,20","Too basic for me,-20,40,20","It looks sad and scary at the same time,11,160,20","Close up peach? Hate it,-16,400,20","It makes me stop and think about what the artist is trying to say.It creates a feeling of solitude and tranqulity,30,160,20","Looks like a bird. It's fine.,7,240,20","Alexa","Too basic for me,-20,40,20","Hannah","Looks like a bird. It's fine.,7,240,20","Caitlin","A crow on one leg?,-10,80,20","0"
"15638","","survey-text","166","834076","0.0-166.0-0.0","A2EH7IQCDH2Q5D","","","","{""Q0"":""horror story chaos""}","","","","","","","","","","","","","","","","","","","","","","",""
"6638.5","","image-slider-response","167","840716","0.0-167.0","A2EH7IQCDH2Q5D","","","","","12","","","","","","","","","","","","","","","","","","","","","",""
"null","","image-button-response","168","845718","0.0-168.0","A2EH7IQCDH2Q5D","img_art/8.jpg","null","","","","","","","","","","","","","","","","","","","","","","","","",""
"1901","","image-button-response","169","847621","0.0-169.0","A2EH7IQCDH2Q5D","img_art/8.jpg","4","","","","","","","","","","","","","","","","","","","","","","","","",""
"2669","","image-button-response","170","850292","0.0-170.0-0.0","A2EH7IQCDH2Q5D","img_art/8.jpg","2","","","","","","","","","","","","","","","","","","","","","","","","",""
"1449","","image-button-response","171","851744","0.0-171.0-0.0","A2EH7IQCDH2Q5D","img_art/8.jpg","0","","","","","","","","","","","","","","","","","","","","","","","","",""
"null","","html-keyboard-response","172","852245","0.0-172.0","A2EH7IQCDH2Q5D","<p style=""font-size: 48px;"">+</p>","","","","","null","allTrialResponses","500","1","18","img_art/8.jpg","12","horror story chaos","Caitlin,Alexa,Natalie,Cynthia,Katie,Hannah","And I'll huff and I'll puff and I'll blow your town down!!,20,80,20","It's simply gorgeous. This artist is very talented,50,40,20","looks nice, like the details,25,400,20","New power in the community,22,320,20","I like the colors. But I don't like the faces, they look distraught. Faces and sharp shapes make me anxious,1,160,20","I don't understand it. Makes no sense to me.,5,240,20","Katie","I like the colors. But I don't like the faces, they look distraught. Faces and sharp shapes make me anxious,1,160,20","Natalie","looks nice, like the details,25,400,20","Caitlin","And I'll huff and I'll puff and I'll blow your town down!!,20,80,20","0"
"12046","","survey-text","173","864298","0.0-173.0-0.0","A2EH7IQCDH2Q5D","","","","{""Q0"":""a nice scenery""}","","","","","","","","","","","","","","","","","","","","","","",""
"4936.400000095367","","image-slider-response","174","869236","0.0-174.0","A2EH7IQCDH2Q5D","","","","","3","","","","","","","","","","","","","","","","","","","","","",""
"4330","","image-button-response","175","874238","0.0-175.0","A2EH7IQCDH2Q5D","img_art/24.jpg","0","","","","","","","","","","","","","","","","","","","","","","","","",""
"2672","","image-button-response","176","876912","0.0-176.0","A2EH7IQCDH2Q5D","img_art/24.jpg","0","","","","","","","","","","","","","","","","","","","","","","","","",""
"1730","","image-button-response","177","878644","0.0-177.0-0.0","A2EH7IQCDH2Q5D","img_art/24.jpg","5","","","","","","","","","","","","","","","","","","","","","","","","",""
"1251","","image-button-response","178","879896","0.0-178.0-0.0","A2EH7IQCDH2Q5D","img_art/24.jpg","2","","","","","","","","","","","","","","","","","","","","","","","","",""
"null","","html-keyboard-response","179","880398","0.0-179.0","A2EH7IQCDH2Q5D","<p style=""font-size: 48px;"">+</p>","","","","","null","allTrialResponses","500","1","19","img_art/24.jpg","3","a nice scenery","Caitlin,Amber,Natalie,Cheyenne,Katie,Rachel","I actually like this one. You can tell what it is.,25,80,20","peaceful and calm yet joyous.,50,200,20","I like the waterfall,22,400,20","I like how the colors mix in this one.,20,200,20","I see a waterfall, which is relaxing and peaceful!  I like the blue coloring,30,160,20","Looks like a beautiful stream rolling through terrain of rocks and flowers.,43,80,20","Caitlin","I actually like this one. You can tell what it is.,25,80,20","Rachel","Looks like a beautiful stream rolling through terrain of rocks and flowers.,43,80,20","Natalie","I like the waterfall,22,400,20","0"
"23062","","survey-text","180","903465","0.0-180.0-0.0","A2EH7IQCDH2Q5D","","","","{""Q0"":""seems a bit lazy and lazy chaotic""}","","","","","","","","","","","","","","","","","","","","","","",""
"5308.600000143051","","image-slider-response","181","908775","0.0-181.0","A2EH7IQCDH2Q5D","","","","","13","","","","","","","","","","","","","","","","","","","","","",""
"3631","","image-button-response","182","913777","0.0-182.0","A2EH7IQCDH2Q5D","img_art/26.jpg","3","","","","","","","","","","","","","","","","","","","","","","","","",""
"561","","image-button-response","183","914340","0.0-183.0","A2EH7IQCDH2Q5D","img_art/26.jpg","3","","","","","","","","","","","","","","","","","","","","","","","","",""
"940","","image-button-response","184","915281","0.0-184.0-0.0","A2EH7IQCDH2Q5D","img_art/26.jpg","2","","","","","","","","","","","","","","","","","","","","","","","","",""
"860","","image-button-response","185","916144","0.0-185.0-0.0","A2EH7IQCDH2Q5D","img_art/26.jpg","0","","","","","","","","","","","","","","","","","","","","","","","","",""
"null","","html-keyboard-response","186","917646","0.0-186.0","A2EH7IQCDH2Q5D","<p style=""font-size: 48px;"">+</p>","","","","","null","allTrialResponses","1500","1","20","img_art/26.jpg","13","seems a bit lazy and lazy chaotic","Caitlin,Laura,Natalie,Cassidy,Autumn,Rachel","At least it is a bit of scenery.,10,80,20","juvenile, faint and weak,-41,320,20","picture looks alright,1,400,20","the trees are cool,1,140,20","Murky, messy, kid like.,-45,340,20","Pretty trees and bushes around fancy brown stones. I like the soft nature.,20,80,20","Cassidy","the trees are cool,1,140,20","Natalie","picture looks alright,1,400,20","Caitlin","At least it is a bit of scenery.,10,80,20","0"
"3656","","survey-text","187","921316","0.0-187.0-0.0","A2EH7IQCDH2Q5D","","","","{""Q0"":""we""}","","","","","","","","","","","","","","","","","","","","","","",""
"36571","","survey-text","188","957887","0.0-188.0-0.0","A2EH7IQCDH2Q5D","","","","{""Q0"":""reminds me of crumb cake""}","","","","","","","","","","","","","","","","","","","","","","",""
"2972.7000000476837","","image-slider-response","189","960861","0.0-189.0","A2EH7IQCDH2Q5D","","","","","-35","","","","","","","","","","","","","","","","","","","","","",""
"4101","","image-button-response","190","965865","0.0-190.0","A2EH7IQCDH2Q5D","img_art/7.jpg","1","","","","","","","","","","","","","","","","","","","","","","","","",""
"771","","image-button-response","191","966638","0.0-191.0","A2EH7IQCDH2Q5D","img_art/7.jpg","1","","","","","","","","","","","","","","","","","","","","","","","","",""
"670","","image-button-response","192","967309","0.0-192.0-0.0","A2EH7IQCDH2Q5D","img_art/7.jpg","4","","","","","","","","","","","","","","","","","","","","","","","","",""
"689","","image-button-response","193","968001","0.0-193.0-0.0","A2EH7IQCDH2Q5D","img_art/7.jpg","2","","","","","","","","","","","","","","","","","","","","","","","","",""
"null","","html-keyboard-response","194","968503","0.0-194.0","A2EH7IQCDH2Q5D","<p style=""font-size: 48px;"">+</p>","","","","","null","allTrialResponses","500","1","21","img_art/7.jpg","-35","reminds me of crumb cake","Caitlin,Kaitlin,Natalie,Cassidy,Jordan,Andrea","Looks like a photo taken from the moon.,-6,80,20","I'm not too sure about this one,-10,60,20","does not look good,-42,400,20","I like the texture,12,140,20","looks like the surface of the moon.,1,20,20","Reminds me of mold. Repulsive.,-10,240,20","Kaitlin","I'm not too sure about this one,-10,60,20","Jordan","looks like the surface of the moon.,1,20,20","Natalie","does not look good,-42,400,20","0"
"85037","","survey-text","195","1053547","0.0-195.0-0.0","A2EH7IQCDH2Q5D","","","","{""Q0"":""ketchup in the mud, yawn""}","","","","","","","","","","","","","","","","","","","","","","",""
"2622","","image-slider-response","196","1056171","0.0-196.0","A2EH7IQCDH2Q5D","","","","","-38","","","","","","","","","","","","","","","","","","","","","",""
"null","","image-button-response","197","1061173","0.0-197.0","A2EH7IQCDH2Q5D","img_art/29.jpg","null","","","","","","","","","","","","","","","","","","","","","","","","",""
"645","","image-button-response","198","1061820","0.0-198.0","A2EH7IQCDH2Q5D","img_art/29.jpg","0","","","","","","","","","","","","","","","","","","","","","","","","",""
"2190","","image-button-response","199","1064012","0.0-199.0-0.0","A2EH7IQCDH2Q5D","img_art/29.jpg","4","","","","","","","","","","","","","","","","","","","","","","","","",""
"2060","","image-button-response","200","1066074","0.0-200.0-0.0","A2EH7IQCDH2Q5D","img_art/29.jpg","5","","","","","","","","","","","","","","","","","","","","","","","","",""
"null","","html-keyboard-response","201","1066577","0.0-201.0","A2EH7IQCDH2Q5D","<p style=""font-size: 48px;"">+</p>","","","","","null","allTrialResponses","500","1","22","img_art/29.jpg","-38","ketchup in the mud, yawn","Grace,Kaitlin,Natalie,Megan,Jordan,Kaitlyn","Doesn't do much for me. I like some of the colors but not much else.,-10,180,20","seems fun, looks like a battle zone,22,60,20","my response to the picture is that it looks so nice and cool and the details,34,400,20","Pinball meets a dark dream meets whale alien, drab,13,200,20","Yeah, I don't know. It's clearly a situation where art is the reject of something more,-27,20,20","I do not like the red x present in the picture,-6,80,20","Grace","Doesn't do much for me. I like some of the colors but not much else.,-10,180,20","Jordan","Yeah, I don't know. It's clearly a situation where art is the reject of something more,-27,20,20","Kaitlyn","I do not like the red x present in the picture,-6,80,20","0"
"17627","","survey-text","202","1084211","0.0-202.0-0.0","A2EH7IQCDH2Q5D","","","","{""Q0"":""waiter, there is soup on my painting!""}","","","","","","","","","","","","","","","","","","","","","","",""
"2451.5","","image-slider-response","203","1086665","0.0-203.0","A2EH7IQCDH2Q5D","","","","","-34","","","","","","","","","","","","","","","","","","","","","",""
"3137","","image-button-response","204","1091667","0.0-204.0","A2EH7IQCDH2Q5D","img_art/2.jpg","4","","","","","","","","","","","","","","","","","","","","","","","","",""
"865","","image-button-response","205","1092534","0.0-205.0","A2EH7IQCDH2Q5D","img_art/2.jpg","5","","","","","","","","","","","","","","","","","","","","","","","","",""
"2880","","image-button-response","206","1095416","0.0-206.0-0.0","A2EH7IQCDH2Q5D","img_art/2.jpg","1","","","","","","","","","","","","","","","","","","","","","","","","",""
"2129","","image-button-response","207","1097548","0.0-207.0-0.0","A2EH7IQCDH2Q5D","img_art/2.jpg","0","","","","","","","","","","","","","","","","","","","","","","","","",""
"null","","html-keyboard-response","208","1099049","0.0-208.0","A2EH7IQCDH2Q5D","<p style=""font-size: 48px;"">+</p>","","","","","null","allTrialResponses","1500","1","23","img_art/2.jpg","-34","waiter, there is soup on my painting!","Grace,Lauren,Diana,Kylie,Jordan,Kaitlyn","Like the colors but reminds me of a kids show done in cubism.,0,180,20","I feel that its too abstract for me to understand what I'm looking at.,-15,340,20","I think I see people sitting in lawn chairs in a circle watching an event. Not really sure so I rated it lower.,-35,380,20","Not very appealing,-5,300,20","I can't get past the fact that it looks like someone wearing a mask,-46,20,20","Too jumbled and disorienting,-13,80,20","Kaitlyn","Too jumbled and disorienting,-13,80,20","Lauren","I feel that its too abstract for me to understand what I'm looking at.,-15,340,20","Grace","Like the colors but reminds me of a kids show done in cubism.,0,180,20","0"
"18788","","survey-text","209","1117842","0.0-209.0-0.0","A2EH7IQCDH2Q5D","","","","{""Q0"":""is it a broom or a haystack""}","","","","","","","","","","","","","","","","","","","","","","",""
"6547.5","","image-slider-response","210","1124391","0.0-210.0","A2EH7IQCDH2Q5D","","","","","-30","","","","","","","","","","","","","","","","","","","","","",""
"3289","","image-button-response","211","1129395","0.0-211.0","A2EH7IQCDH2Q5D","img_art/5.jpg","4","","","","","","","","","","","","","","","","","","","","","","","","",""
"783","","image-button-response","212","1130180","0.0-212.0","A2EH7IQCDH2Q5D","img_art/5.jpg","0","","","","","","","","","","","","","","","","","","","","","","","","",""
"3956","","image-button-response","213","1134137","0.0-213.0-0.0","A2EH7IQCDH2Q5D","img_art/5.jpg","3","","","","","","","","","","","","","","","","","","","","","","","","",""
"3720","","image-button-response","214","1137860","0.0-214.0-0.0","A2EH7IQCDH2Q5D","img_art/5.jpg","4","","","","","","","","","","","","","","","","","","","","","","","","",""
"null","","html-keyboard-response","215","1138363","0.0-215.0","A2EH7IQCDH2Q5D","<p style=""font-size: 48px;"">+</p>","","","","","null","allTrialResponses","500","1","24","img_art/5.jpg","-30","is it a broom or a haystack","Grace,Lauren,Paige,Sarah,Gabrielle,Kaitlyn","Looks like a yellow plastic trash bag.,-42,180,20","I like the simplicity of the design, but I can't tell what the image is trying to depict.,10,340,20","I don't hate it but I can't relate to it,1,60,20","looks very childish,-35,180,20","looks like a 2nd grader did it,-50,160,20","Wish the background had been kept clean; distracts from main object,11,80,20","Grace","Looks like a yellow plastic trash bag.,-42,180,20","Sarah","looks very childish,-35,180,20","Gabrielle","looks like a 2nd grader did it,-50,160,20","0"
"17792","","survey-text","216","1156167","0.0-216.0-0.0","A2EH7IQCDH2Q5D","","","","{""Q0"":""looks like a stampede into hell""}","","","","","","","","","","","","","","","","","","","","","","",""
"3012","","image-slider-response","217","1159181","0.0-217.0","A2EH7IQCDH2Q5D","","","","","-14","","","","","","","","","","","","","","","","","","","","","",""
"null","","image-button-response","218","1164184","0.0-218.0","A2EH7IQCDH2Q5D","img_art/23.jpg","null","","","","","","","","","","","","","","","","","","","","","","","","",""
"40361","","image-button-response","219","1204547","0.0-219.0","A2EH7IQCDH2Q5D","img_art/23.jpg","4","","","","","","","","","","","","","","","","","","","","","","","","",""
"2271","","image-button-response","220","1206820","0.0-220.0-0.0","A2EH7IQCDH2Q5D","img_art/23.jpg","3","","","","","","","","","","","","","","","","","","","","","","","","",""
"3386","","image-button-response","221","1210208","0.0-221.0-0.0","A2EH7IQCDH2Q5D","img_art/23.jpg","0","","","","","","","","","","","","","","","","","","","","","","","","",""
"null","","html-keyboard-response","222","1211210","0.0-222.0","A2EH7IQCDH2Q5D","<p style=""font-size: 48px;"">+</p>","","","","","null","allTrialResponses","1000","1","25","img_art/23.jpg","-14","looks like a stampede into hell","Grace,Shelby,Heather,Sarah,Gabrielle,Emma","Looks like fireworks.,21,180,20","This feels so energized, i love it,50,240,20","illegible wording with a graffiti background,1,260,20","it's not uninteresting, but i'm not responding to it,-7,180,20","it's OK, but just OK, kind of interesting but I wouldn't spend money on it,4,160,20","Love the use of colors and light,50,60,20","Gabrielle","it's OK, but just OK, kind of interesting but I wouldn't spend money on it,4,160,20","Sarah","it's not uninteresting, but i'm not responding to it,-7,180,20","Grace","Looks like fireworks.,21,180,20","0"
"7420","","survey-text","223","1218639","0.0-223.0-0.0","A2EH7IQCDH2Q5D","","","","{""Q0"":""table""}","","","","","","","","","","","","","","","","","","","","","","",""
"26047","","survey-text","224","1244689","0.0-224.0-0.0","A2EH7IQCDH2Q5D","","","","{""Q0"":""reminds me of an odyssey  or sea invasion""}","","","","","","","","","","","","","","","","","","","","","","",""
"2701.800000190735","","image-slider-response","225","1247392","0.0-225.0","A2EH7IQCDH2Q5D","","","","","17","","","","","","","","","","","","","","","","","","","","","",""
"4639","","image-button-response","226","1252395","0.0-226.0","A2EH7IQCDH2Q5D","img_art/21.jpg","0","","","","","","","","","","","","","","","","","","","","","","","","",""
"607","","image-button-response","227","1253004","0.0-227.0","A2EH7IQCDH2Q5D","img_art/21.jpg","0","","","","","","","","","","","","","","","","","","","","","","","","",""
"2489","","image-button-response","228","1255496","0.0-228.0-0.0","A2EH7IQCDH2Q5D","img_art/21.jpg","5","","","","","","","","","","","","","","","","","","","","","","","","",""
"1600","","image-button-response","229","1257097","0.0-229.0-0.0","A2EH7IQCDH2Q5D","img_art/21.jpg","2","","","","","","","","","","","","","","","","","","","","","","","","",""
"null","","html-keyboard-response","230","1258100","0.0-230.0","A2EH7IQCDH2Q5D","<p style=""font-size: 48px;"">+</p>","","","","","null","allTrialResponses","1000","1","26","img_art/21.jpg","17","reminds me of an odyssey  or sea invasion","Grace,Amy,Katherine,Sarah,Gabrielle,Sierra","Like the colors, the cloudy, airy effects. Nice.,46,180,20","A landscape that leaves me inspired and hopeful.,20,220,20","I can't explain why this struck me as absolutely gorgeous. Like the clashing between 2 different worlds,43,120,20","I love the section of blues, the colors overall are really lovely,31,180,20","setting sun sky? nice colors and blending,14,160,20","i like the way the colors divide the canvas.,16,260,20","Grace","Like the colors, the cloudy, airy effects. Nice.,46,180,20","Sierra","i like the way the colors divide the canvas.,16,260,20","Katherine","I can't explain why this struck me as absolutely gorgeous. Like the clashing between 2 different worlds,43,120,20","0"
"30749","","survey-text","231","1288853","0.0-231.0-0.0","A2EH7IQCDH2Q5D","","","","{""Q0"":""waste of canvas, so muddy""}","","","","","","","","","","","","","","","","","","","","","","",""
"2842.4000000953674","","image-slider-response","232","1291698","0.0-232.0","A2EH7IQCDH2Q5D","","","","","-49","","","","","","","","","","","","","","","","","","","","","",""
"null","","image-button-response","233","1296699","0.0-233.0","A2EH7IQCDH2Q5D","img_art/30.jpg","null","","","","","","","","","","","","","","","","","","","","","","","","",""
"4202","","image-button-response","234","1300903","0.0-234.0","A2EH7IQCDH2Q5D","img_art/30.jpg","4","","","","","","","","","","","","","","","","","","","","","","","","",""
"1468","","image-button-response","235","1302374","0.0-235.0-0.0","A2EH7IQCDH2Q5D","img_art/30.jpg","1","","","","","","","","","","","","","","","","","","","","","","","","",""
"1040","","image-button-response","236","1303416","0.0-236.0-0.0","A2EH7IQCDH2Q5D","img_art/30.jpg","5","","","","","","","","","","","","","","","","","","","","","","","","",""
"null","","html-keyboard-response","237","1303918","0.0-237.0","A2EH7IQCDH2Q5D","<p style=""font-size: 48px;"">+</p>","","","","","null","allTrialResponses","500","1","27","img_art/30.jpg","-49","waste of canvas, so muddy","Grace,Michelle,Katherine,Jamie,Chloe,Sierra","A little too dull. Would've liked brighter colors. Also looks washed out.,1,180,20","Don't like it at all, looks like a someone smeared paint with their fingers,-25,280,20","For some reason I like the red in this one. Maybe it's the style of lines/blurs,46,120,20","Cool design and contrast of colors,30,320,20","Muddy, sloppy, unprofessional,-44,220,20","i dont like how the colors are mixed,-6,260,20","Chloe","Muddy, sloppy, unprofessional,-44,220,20","Michelle","Don't like it at all, looks like a someone smeared paint with their fingers,-25,280,20","Sierra","i dont like how the colors are mixed,-6,260,20","0"
"10654","","survey-text","238","1314579","0.0-238.0-0.0","A2EH7IQCDH2Q5D","","","","{""Q0"":""clown hellscape""}","","","","","","","","","","","","","","","","","","","","","","",""
"2431.9000000953674","","image-slider-response","239","1317013","0.0-239.0","A2EH7IQCDH2Q5D","","","","","-48","","","","","","","","","","","","","","","","","","","","","",""
"null","","image-button-response","240","1322021","0.0-240.0","A2EH7IQCDH2Q5D","img_art/16.jpg","null","","","","","","","","","","","","","","","","","","","","","","","","",""
"3674","","image-button-response","241","1325696","0.0-241.0","A2EH7IQCDH2Q5D","img_art/16.jpg","0","","","","","","","","","","","","","","","","","","","","","","","","",""
"2191","","image-button-response","242","1327889","0.0-242.0-0.0","A2EH7IQCDH2Q5D","img_art/16.jpg","5","","","","","","","","","","","","","","","","","","","","","","","","",""
"3692","","image-button-response","243","1331584","0.0-243.0-0.0","A2EH7IQCDH2Q5D","img_art/16.jpg","1","","","","","","","","","","","","","","","","","","","","","","","","",""
"null","","html-keyboard-response","244","1332585","0.0-244.0","A2EH7IQCDH2Q5D","<p style=""font-size: 48px;"">+</p>","","","","","null","allTrialResponses","1000","1","28","img_art/16.jpg","-48","clown hellscape","Molly,Michelle,Julia,Madeline,Chloe,Sierra","It's frightening.,30,340,20","I'm a fan of collage and of reminiscing about childhood so this was nice,10,280,20","I love the teddy bear,50,40,20","That bear looks unfitting!,-8,40,20","Fun but a little cheesy,15,220,20","it looks psychotic,-31,260,20","Molly","It's frightening.,30,340,20","Sierra","it looks psychotic,-31,260,20","Michelle","I'm a fan of collage and of reminiscing about childhood so this was nice,10,280,20","0"
"9298","","survey-text","245","1341894","0.0-245.0-0.0","A2EH7IQCDH2Q5D","","","","{""Q0"":""i like the weave""}","","","","","","","","","","","","","","","","","","","","","","",""
"3691.600000143051","","image-slider-response","246","1345587","0.0-246.0","A2EH7IQCDH2Q5D","","","","","16","","","","","","","","","","","","","","","","","","","","","",""
"2670","","image-button-response","247","1350588","0.0-247.0","A2EH7IQCDH2Q5D","img_art/12.jpg","4","","","","","","","","","","","","","","","","","","","","","","","","",""
"963","","image-button-response","248","1351553","0.0-248.0","A2EH7IQCDH2Q5D","img_art/12.jpg","4","","","","","","","","","","","","","","","","","","","","","","","","",""
"651","","image-button-response","249","1352206","0.0-249.0-0.0","A2EH7IQCDH2Q5D","img_art/12.jpg","0","","","","","","","","","","","","","","","","","","","","","","","","",""
"1250","","image-button-response","250","1353457","0.0-250.0-0.0","A2EH7IQCDH2Q5D","img_art/12.jpg","0","","","","","","","","","","","","","","","","","","","","","","","","",""
"851","","image-button-response","251","1356854","0.0-250.1-0.1","A2EH7IQCDH2Q5D","img_art/12.jpg","2","","","","","","","","","","","","","","","","","","","","","","","","",""
"null","","html-keyboard-response","252","1357858","0.0-251.0","A2EH7IQCDH2Q5D","<p style=""font-size: 48px;"">+</p>","","","","","null","allTrialResponses","1000","1","29","img_art/12.jpg","16","i like the weave","Molly,Michelle,Kathryn,Kelsey,Alexis,Sierra","Seems to be puzzles.,25,340,20","eww hate everything about this, looks like it belongs in a dentist's office,-14,280,20","This feels cosmopolitan. Like looking at a high rise apartment at night and seeing into everyone's windows.,20,140,20","dont like the squares,-16,240,20","I like the cubic feel.,11,100,20","i dont see the point.,-19,260,20","Alexis","I like the cubic feel.,11,100,20","Molly","Seems to be puzzles.,25,340,20","Kathryn","This feels cosmopolitan. Like looking at a high rise apartment at night and seeing into everyone's windows.,20,140,20","2"
"29378","","survey-text","253","1387243","0.0-252.0-0.0","A2EH7IQCDH2Q5D","","","","{""Q0"":""the contrast between the darkness and the light ""}","","","","","","","","","","","","","","","","","","","","","","",""
"3654.600000143051","","image-slider-response","254","1390899","0.0-253.0","A2EH7IQCDH2Q5D","","","","","20","","","","","","","","","","","","","","","","","","","","","",""
"3781","","image-button-response","255","1395903","0.0-254.0","A2EH7IQCDH2Q5D","img_art/15.jpg","1","","","","","","","","","","","","","","","","","","","","","","","","",""
"1301","","image-button-response","256","1397206","0.0-255.0","A2EH7IQCDH2Q5D","img_art/15.jpg","1","","","","","","","","","","","","","","","","","","","","","","","","",""
"1001","","image-button-response","257","1398208","0.0-256.0-0.0","A2EH7IQCDH2Q5D","img_art/15.jpg","4","","","","","","","","","","","","","","","","","","","","","","","","",""
"5929","","image-button-response","258","1404140","0.0-257.0-0.0","A2EH7IQCDH2Q5D","img_art/15.jpg","3","","","","","","","","","","","","","","","","","","","","","","","","",""
"null","","html-keyboard-response","259","1405142","0.0-258.0","A2EH7IQCDH2Q5D","<p style=""font-size: 48px;"">+</p>","","","","","null","allTrialResponses","1000","1","30","img_art/15.jpg","20","the contrast between the darkness and the light ","Molly,Alexandra,Kathryn,Isabella,Alexis,Marissa","I can't see the meaning of the painting.,-30,340,20","This is sort of ugly, but I do like the design.,10,60,20","This is looking at a forest from above. I can see water and some pathways throughout. Nature.,20,140,20","Too intense with the black dotting,-22,280,20","Not a fan of abstract, but the black is very striking,10,100,20","I am reminded of spring flowers swaying in the dark night's breeze,9,160,20","Alexandra","This is sort of ugly, but I do like the design.,10,60,20","Alexis","Not a fan of abstract, but the black is very striking,10,100,20","Isabella","Too intense with the black dotting,-22,280,20","2"
"2251","","image-button-response_instructions","260","1407401","0.0-259.0","A2EH7IQCDH2Q5D","","0","instructions","","","","","","","","","","","","","","","","","","","","","","","",""
"1196","","image-button-response","261","1408603","0.0-260.0","A2EH7IQCDH2Q5D","","0","","","","","","","","","","","","","","","","","","","","","","","","",""
