"rt","url","trial_type","trial_index","time_elapsed","internal_node_id","participant_id","stimulus","button_pressed","Name","responses","response","key_press","variableName","fixationTime","condition","trial","photo","subjectRating","subjectResponse","agentsNames","agent_1_Response","agent_2_Response","agent_3_Response","agent_4_Response","agent_5_Response","agent_6_Response","kept_1_name","kept_1_response","kept_2_name","kept_2_response","kept_3_name","kept_3_response","errorCounter"
"10686","external_page_harvard.html","external-html","0","11015","0.0-0.0","A2EKCMS8IKV57N","","","","","","","","","","","","","","","","","","","","","","","","","","",""
"1783","","image-button-response","1","12806","0.0-1.0","A2EKCMS8IKV57N","","0","","","","","","","","","","","","","","","","","","","","","","","","",""
"3295","","image-button-response","2","16119","0.0-2.0-0.0","A2EKCMS8IKV57N","","1","phone","","","","","","","","","","","","","","","","","","","","","","","",""
"4087","","survey-text","3","20212","0.0-3.0-0.0","A2EKCMS8IKV57N","","","","{""Q0"":""A2EKCMS8IKV57N""}","","","","","","","","","","","","","","","","","","","","","","",""
"12374","","image-button-response_instructions","4","32594","0.0-4.0","A2EKCMS8IKV57N","","0","instructions","","","","","","","","","","","","","","","","","","","","","","","",""
"18525","","image-button-response_instructions","5","51123","0.0-5.0","A2EKCMS8IKV57N","img_art/ins/popularity/ins1.png","0","instructions","","","","","","","","","","","","","","","","","","","","","","","",""
"8096","","image-button-response_instructions","6","59223","0.0-6.0","A2EKCMS8IKV57N","img_art/ins/popularity/ins2.png","0","instructions","","","","","","","","","","","","","","","","","","","","","","","",""
"9941","","image-button-response_instructions","7","69169","0.0-7.0","A2EKCMS8IKV57N","img_art/ins/popularity/ins2Extreme.png","0","instructions","","","","","","","","","","","","","","","","","","","","","","","",""
"13901","","image-button-response_instructions","8","83074","0.0-8.0","A2EKCMS8IKV57N","img_art/ins/popularity/ins3KEEPpop.PNG","0","instructions","","","","","","","","","","","","","","","","","","","","","","","",""
"2875","","image-button-response_instructions","9","85953","0.0-9.0","A2EKCMS8IKV57N","img_art/ins/popularity/ins3ANamepop.PNG","0","instructions","","","","","","","","","","","","","","","","","","","","","","","",""
"2888","","image-button-response_instructions","10","88845","0.0-10.0","A2EKCMS8IKV57N","img_art/ins/popularity/ins3ARatingpop.png","0","instructions","","","","","","","","","","","","","","","","","","","","","","","",""
"4001","","image-button-response_instructions","11","92850","0.0-11.0","A2EKCMS8IKV57N","img_art/ins/popularity/ins3ATextpop.png","0","instructions","","","","","","","","","","","","","","","","","","","","","","","",""
"19268","","image-button-response_instructions","12","112122","0.0-12.0","A2EKCMS8IKV57N","img_art/ins/popularity/ins3ALikespop.png","0","instructions","","","","","","","","","","","","","","","","","","","","","","","",""
"21179","","image-button-response_instructions","13","133305","0.0-13.0","A2EKCMS8IKV57N","img_art/ins/popularity/ins3KEEPpop.PNG","0","instructions","","","","","","","","","","","","","","","","","","","","","","","",""
"14070","","image-button-response_instructions","14","147378","0.0-14.0","A2EKCMS8IKV57N","img_art/ins/popularity/ins3_5RED.png","0","instructions","","","","","","","","","","","","","","","","","","","","","","","",""
"7029","","image-button-response_instructions","15","154410","0.0-15.0","A2EKCMS8IKV57N","img_art/ins/popularity/ins3KEEPpop.PNG","0","instructions","","","","","","","","","","","","","","","","","","","","","","","",""
"10439","","image-button-response_instructions","16","164851","0.0-16.0","A2EKCMS8IKV57N","img_art/ins/popularity/ins4KEEPpop.PNG","0","instructions","","","","","","","","","","","","","","","","","","","","","","","",""
"6702","","image-button-response_instructions","17","171555","0.0-17.0","A2EKCMS8IKV57N","img_art/ins/popularity/ins5KEEPpop.PNG","0","instructions","","","","","","","","","","","","","","","","","","","","","","","",""
"2101","","image-button-response_instructions","18","173659","0.0-18.0","A2EKCMS8IKV57N","","0","instructions","","","","","","","","","","","","","","","","","","","","","","","",""
"7426","","survey-text","19","181243","0.0-19.0-0.0","A2EKCMS8IKV57N","","","","{""Q0"":""but""}","","","","","","","","","","","","","","","","","","","","","","",""
"47247","","survey-text","20","228495","0.0-20.0-0.0","A2EKCMS8IKV57N","","","","{""Q0"":""drab colors and uninspiring""}","","","","","","","","","","","","","","","","","","","","","","",""
"3721.900000002235","","image-slider-response","21","232229","0.0-21.0","A2EKCMS8IKV57N","","","","","-39","","","","","","","","","","","","","","","","","","","","","",""
"null","","image-button-response","22","237238","0.0-22.0","A2EKCMS8IKV57N","img_art/ins/1.jpg","null","","","","","","","","","","","","","","","","","","","","","","","","",""
"10196","","image-button-response","23","247440","0.0-23.0","A2EKCMS8IKV57N","img_art/ins/1.jpg","0","","","","","","","","","","","","","","","","","","","","","","","","",""
"9854","","image-button-response","24","257307","0.0-24.0-0.0","A2EKCMS8IKV57N","img_art/ins/1.jpg","3","","","","","","","","","","","","","","","","","","","","","","","","",""
"7888","","image-button-response","25","265205","0.0-25.0-0.0","A2EKCMS8IKV57N","img_art/ins/1.jpg","5","","","","","","","","","","","","","","","","","","","","","","","","",""
"null","","html-keyboard-response","26","266713","0.0-26.0","A2EKCMS8IKV57N","<p style=""font-size: 48px;"">+</p>","","","","","null","allTrialResponses","1500","1","-2","img_art/ins/1.jpg","-39","drab colors and uninspiring","Adam,Alex,Ben,Carl,Daniel,Jack","Seems like doodles,-20,20,20","very creative work.,36,40,20","This color reminds me of poo,-46,60,20","very calming artwork,42,80,20","It looks like a murder scene.,-48,100,20","I like the sophisticated brushwork,40,120,20","Adam","Seems like doodles,-20,20,20","Carl","very calming artwork,42,80,20","Jack","I like the sophisticated brushwork,40,120,20","0"
"14262","","survey-text","27","280988","0.0-27.0-0.0","A2EKCMS8IKV57N","","","","{""Q0"":""colorful and interesting textures""}","","","","","","","","","","","","","","","","","","","","","","",""
"4750.79999999702","","image-slider-response","28","285745","0.0-28.0","A2EKCMS8IKV57N","","","","","16","","","","","","","","","","","","","","","","","","","","","",""
"null","","image-button-response","29","290753","0.0-29.0","A2EKCMS8IKV57N","img_art/ins/2.jpg","null","","","","","","","","","","","","","","","","","","","","","","","","",""
"2368","","image-button-response","30","293128","0.0-30.0","A2EKCMS8IKV57N","img_art/ins/2.jpg","3","","","","","","","","","","","","","","","","","","","","","","","","",""
"1339","","image-button-response","31","294477","0.0-31.0-0.0","A2EKCMS8IKV57N","img_art/ins/2.jpg","4","","","","","","","","","","","","","","","","","","","","","","","","",""
"7148","","image-button-response","32","301631","0.0-32.0-0.0","A2EKCMS8IKV57N","img_art/ins/2.jpg","0","","","","","","","","","","","","","","","","","","","","","","","","",""
"null","","html-keyboard-response","33","303136","0.0-33.0","A2EKCMS8IKV57N","<p style=""font-size: 48px;"">+</p>","","","","","null","allTrialResponses","1500","1","-1","img_art/ins/2.jpg","16","colorful and interesting textures","Adam,James,Kyle,Carl,John,Jack","too much color,-18,20,20","looks too angry,-50,140,20","Idk, it is just annoying,-32,180,20","I can feel the artist's passion in it,45,80,20","love the texture of paint,48,160,20","I would never be able to compose a sophisticated pallete like this,48,120,20","Carl","I can feel the artist's passion in it,45,80,20","John","love the texture of paint,48,160,20","Adam","too much color,-18,20,20","0"
"20542","","survey-text","34","323693","0.0-34.0-0.0","A2EKCMS8IKV57N","","","","{""Q0"":""interesting design with seemingly human figures""}","","","","","","","","","","","","","","","","","","","","","","",""
"3031","","image-slider-response","35","326729","0.0-35.0","A2EKCMS8IKV57N","","","","","35","","","","","","","","","","","","","","","","","","","","","",""
"null","","image-button-response","36","331736","0.0-36.0","A2EKCMS8IKV57N","img_art/ins/3.jpg","null","","","","","","","","","","","","","","","","","","","","","","","","",""
"3145","","image-button-response","37","334887","0.0-37.0","A2EKCMS8IKV57N","img_art/ins/3.jpg","1","","","","","","","","","","","","","","","","","","","","","","","","",""
"2739","","image-button-response","38","337633","0.0-38.0-0.0","A2EKCMS8IKV57N","img_art/ins/3.jpg","4","","","","","","","","","","","","","","","","","","","","","","","","",""
"9823","","image-button-response","39","347465","0.0-39.0-0.0","A2EKCMS8IKV57N","img_art/ins/3.jpg","0","","","","","","","","","","","","","","","","","","","","","","","","",""
"null","","html-keyboard-response","40","348969","0.0-40.0","A2EKCMS8IKV57N","<p style=""font-size: 48px;"">+</p>","","","","","null","allTrialResponses","1500","1","0","img_art/ins/3.jpg","35","interesting design with seemingly human figures","Adam,Mike,Ron,Carl,John,Sam","My daily routine, it's depressing,-20,20,20","enjoy the different shades of blue,22,200,20","It looks depressing,-26,220,20","It's an alright work,15,80,20","I like the overlapping of brushes,41,160,20","I can feel a rainy day from this painting,18,240,20","Mike","enjoy the different shades of blue,22,200,20","John","I like the overlapping of brushes,41,160,20","Adam","My daily routine, it's depressing,-20,20,20","0"
"7584","","image-button-response_instructions","41","356565","0.0-41.0","A2EKCMS8IKV57N","","0","instructions","","","","","","","","","","","","","","","","","","","","","","","",""
"15320","","survey-likert","42","371891","0.0-42.0-0.0","A2EKCMS8IKV57N","","","","{""Q0"":"""",""Q1"":0,""Q2"":1}","","","","","","","","","","","","","","","","","","","","","","",""
"6203","","survey-text","43","378110","0.0-43.0-0.0","A2EKCMS8IKV57N","","","","{""Q0"":""rock""}","","","","","","","","","","","","","","","","","","","","","","",""
"21372","","survey-text","44","399486","0.0-44.0-0.0","A2EKCMS8IKV57N","","","","{""Q0"":""seems like a desert""}","","","","","","","","","","","","","","","","","","","","","","",""
"3222.10000000149","","image-slider-response","45","402714","0.0-45.0","A2EKCMS8IKV57N","","","","","-7","","","","","","","","","","","","","","","","","","","","","",""
"4969","","image-button-response","46","407807","0.0-46.0","A2EKCMS8IKV57N","img_art/7.jpg","1","","","","","","","","","","","","","","","","","","","","","","","","",""
"5555","","image-button-response","47","413369","0.0-47.0","A2EKCMS8IKV57N","img_art/7.jpg","1","","","","","","","","","","","","","","","","","","","","","","","","",""
"4605","","image-button-response","48","417982","0.0-48.0-0.0","A2EKCMS8IKV57N","img_art/7.jpg","4","","","","","","","","","","","","","","","","","","","","","","","","",""
"3557","","image-button-response","49","421547","0.0-49.0-0.0","A2EKCMS8IKV57N","img_art/7.jpg","2","","","","","","","","","","","","","","","","","","","","","","","","",""
"null","","html-keyboard-response","50","423055","0.0-50.0","A2EKCMS8IKV57N","<p style=""font-size: 48px;"">+</p>","","","","","null","allTrialResponses","1500","1","1","img_art/7.jpg","-7","seems like a desert","Thomas,Luke,Tristan,Bryce,Trevor,David","Confusion, mild aversion,-36,220,20","reminds me of the desert,-20,20,20","Limited emotional reaction for me. No focus and highly abstract,-20,300,20","I love the texture.,20,20,20","looks like the surface of the moon,-28,280,20","I like how the image has a sense of history, since the style looks like it came from stone.,20,340,20","Luke","reminds me of the desert,-20,20,20","Trevor","looks like the surface of the moon,-28,280,20","Tristan","Limited emotional reaction for me. No focus and highly abstract,-20,300,20","0"
"22478","","survey-text","51","445544","0.0-51.0-0.0","A2EKCMS8IKV57N","","","","{""Q0"":""looks like clouds or visible air currents""}","","","","","","","","","","","","","","","","","","","","","","",""
"4009.39999999851","","image-slider-response","52","449559","0.0-52.0","A2EKCMS8IKV57N","","","","","27","","","","","","","","","","","","","","","","","","","","","",""
"4415","","image-button-response","53","454566","0.0-53.0","A2EKCMS8IKV57N","img_art/17.jpg","5","","","","","","","","","","","","","","","","","","","","","","","","",""
"5327","","image-button-response","54","459899","0.0-54.0","A2EKCMS8IKV57N","img_art/17.jpg","2","","","","","","","","","","","","","","","","","","","","","","","","",""
"3256","","image-button-response","55","463161","0.0-55.0-0.0","A2EKCMS8IKV57N","img_art/17.jpg","1","","","","","","","","","","","","","","","","","","","","","","","","",""
"5707","","image-button-response","56","468878","0.0-56.0-0.0","A2EKCMS8IKV57N","img_art/17.jpg","5","","","","","","","","","","","","","","","","","","","","","","","","",""
"null","","html-keyboard-response","57","469382","0.0-57.0","A2EKCMS8IKV57N","<p style=""font-size: 48px;"">+</p>","","","","","null","allTrialResponses","500","1","2","img_art/17.jpg","27","looks like clouds or visible air currents","Paul,Luke,Tristan,Logan,Trevor,Hunter","The colors remind me of a sunset and give a bittersweet feeling. It looks unfinished but not terrible.,6,300,20","it looks very intricate and colorful,50,20,20","peaceful. contemplative. balanced. old,10,300,20","similar to last one, still pretty cool but I liked arrangement of last one better,13,360,20","I like how it looks like a tree. The colors are too muted though,12,280,20","impressive attention to subtleties,15,240,20","Tristan","peaceful. contemplative. balanced. old,10,300,20","Luke","it looks very intricate and colorful,50,20,20","Hunter","impressive attention to subtleties,15,240,20","0"
"14770","","survey-text","58","484166","0.0-58.0-0.0","A2EKCMS8IKV57N","","","","{""Q0"":""drab colors and depressing""}","","","","","","","","","","","","","","","","","","","","","","",""
"6339.300000000745","","image-slider-response","59","490510","0.0-59.0","A2EKCMS8IKV57N","","","","","-35","","","","","","","","","","","","","","","","","","","","","",""
"null","","image-button-response","60","495518","0.0-60.0","A2EKCMS8IKV57N","img_art/12.jpg","null","","","","","","","","","","","","","","","","","","","","","","","","",""
"13988","","image-button-response","61","509512","0.0-61.0","A2EKCMS8IKV57N","img_art/12.jpg","1","","","","","","","","","","","","","","","","","","","","","","","","",""
"4404","","image-button-response","62","513923","0.0-62.0-0.0","A2EKCMS8IKV57N","img_art/12.jpg","3","","","","","","","","","","","","","","","","","","","","","","","","",""
"3056","","image-button-response","63","516987","0.0-63.0-0.0","A2EKCMS8IKV57N","img_art/12.jpg","4","","","","","","","","","","","","","","","","","","","","","","","","",""
"null","","html-keyboard-response","64","517491","0.0-64.0","A2EKCMS8IKV57N","<p style=""font-size: 48px;"">+</p>","","","","","null","allTrialResponses","500","1","3","img_art/12.jpg","-35","drab colors and depressing","Kenneth,Luke,Tristan,Alejandro,Grant,Hunter","It's pretty, I find it interesting to look at.,10,300,20","don't feel a lot but it seems very simple,-6,20,20","Quite lovely with depth and possibility.,21,300,20","I like the sectioned nature of the squares and curves. Not my favorite but still a good one.,27,80,20","This elicits no reaction in me.,0,200,20","reminds me of a dixie cup,3,240,20","Luke","don't feel a lot but it seems very simple,-6,20,20","Alejandro","I like the sectioned nature of the squares and curves. Not my favorite but still a good one.,27,80,20","Grant","This elicits no reaction in me.,0,200,20","0"
"12868","","survey-text","65","530370","0.0-65.0-0.0","A2EKCMS8IKV57N","","","","{""Q0"":""reminds me of telephone poles""}","","","","","","","","","","","","","","","","","","","","","","",""
"3142.599999997765","","image-slider-response","66","533518","0.0-66.0","A2EKCMS8IKV57N","","","","","9","","","","","","","","","","","","","","","","","","","","","",""
"4427","","image-button-response","67","538524","0.0-67.0","A2EKCMS8IKV57N","img_art/11.jpg","1","","","","","","","","","","","","","","","","","","","","","","","","",""
"447","","image-button-response","68","538976","0.0-68.0","A2EKCMS8IKV57N","img_art/11.jpg","1","","","","","","","","","","","","","","","","","","","","","","","","",""
"4693","","image-button-response","69","543680","0.0-69.0-0.0","A2EKCMS8IKV57N","img_art/11.jpg","3","","","","","","","","","","","","","","","","","","","","","","","","",""
"2871","","image-button-response","70","546561","0.0-70.0-0.0","A2EKCMS8IKV57N","img_art/11.jpg","5","","","","","","","","","","","","","","","","","","","","","","","","",""
"null","","html-keyboard-response","71","547565","0.0-71.0","A2EKCMS8IKV57N","<p style=""font-size: 48px;"">+</p>","","","","","null","allTrialResponses","1000","1","4","img_art/11.jpg","9","reminds me of telephone poles","Noah,Luke,Ryan,Alejandro,Grant,Brett","I enjoy the kandinsky-like general vibe, but the grey brings me down a bit,27,260,20","it reminds me of music,43,20,20","It makes me feel angry and overwhelmed,-29,380,20","Enjoyed the lines representing different paths that encompass different entities,20,80,20","This elicits no reaction in me.,0,200,20","This looks like a busy highway system along a suburban background,40,360,20","Luke","it reminds me of music,43,20,20","Alejandro","Enjoyed the lines representing different paths that encompass different entities,20,80,20","Brett","This looks like a busy highway system along a suburban background,40,360,20","0"
"12270","","survey-text","72","559849","0.0-72.0-0.0","A2EKCMS8IKV57N","","","","{""Q0"":""is this picasso""}","","","","","","","","","","","","","","","","","","","","","","",""
"4242.89999999851","","image-slider-response","73","564097","0.0-73.0","A2EKCMS8IKV57N","","","","","16","","","","","","","","","","","","","","","","","","","","","",""
"3414","","image-button-response","74","569103","0.0-74.0","A2EKCMS8IKV57N","img_art/28.jpg","2","","","","","","","","","","","","","","","","","","","","","","","","",""
"828","","image-button-response","75","569937","0.0-75.0","A2EKCMS8IKV57N","img_art/28.jpg","2","","","","","","","","","","","","","","","","","","","","","","","","",""
"6678","","image-button-response","76","576621","0.0-76.0-0.0","A2EKCMS8IKV57N","img_art/28.jpg","3","","","","","","","","","","","","","","","","","","","","","","","","",""
"3064","","image-button-response","77","579692","0.0-77.0-0.0","A2EKCMS8IKV57N","img_art/28.jpg","0","","","","","","","","","","","","","","","","","","","","","","","","",""
"null","","html-keyboard-response","78","580197","0.0-78.0","A2EKCMS8IKV57N","<p style=""font-size: 48px;"">+</p>","","","","","null","allTrialResponses","500","1","5","img_art/28.jpg","16","is this picasso","Malik,Luke,Jesus,Alejandro,Andrew,Brett","Invokes curiosity, I want to know it's story.,15,40,20","no clear colors or meaning to evoke emotions,-15,20,20","The muted tones aren't my favorite.,-10,100,20","I like the flow and abstract nature of what seems to be humans,40,80,20","Doesn't give me an emotional response,0,160,20","Overpopulated city,35,360,20","Jesus","The muted tones aren't my favorite.,-10,100,20","Alejandro","I like the flow and abstract nature of what seems to be humans,40,80,20","Malik","Invokes curiosity, I want to know it's story.,15,40,20","0"
"7942","","survey-text","79","588163","0.0-79.0-0.0","A2EKCMS8IKV57N","","","","{""Q0"":""sky""}","","","","","","","","","","","","","","","","","","","","","","",""
"18220","","survey-text","80","606388","0.0-80.0-0.0","A2EKCMS8IKV57N","","","","{""Q0"":""dreams of a child""}","","","","","","","","","","","","","","","","","","","","","","",""
"2883.7999999970198","","image-slider-response","81","609277","0.0-81.0","A2EKCMS8IKV57N","","","","","16","","","","","","","","","","","","","","","","","","","","","",""
"null","","image-button-response","82","614283","0.0-82.0","A2EKCMS8IKV57N","img_art/27.jpg","null","","","","","","","","","","","","","","","","","","","","","","","","",""
"5983","","image-button-response","83","620272","0.0-83.0","A2EKCMS8IKV57N","img_art/27.jpg","4","","","","","","","","","","","","","","","","","","","","","","","","",""
"5279","","image-button-response","84","625558","0.0-84.0-0.0","A2EKCMS8IKV57N","img_art/27.jpg","2","","","","","","","","","","","","","","","","","","","","","","","","",""
"3895","","image-button-response","85","629461","0.0-85.0-0.0","A2EKCMS8IKV57N","img_art/27.jpg","1","","","","","","","","","","","","","","","","","","","","","","","","",""
"null","","html-keyboard-response","86","629965","0.0-86.0","A2EKCMS8IKV57N","<p style=""font-size: 48px;"">+</p>","","","","","null","allTrialResponses","500","1","6","img_art/27.jpg","16","dreams of a child","Malik,Alex,Jesus,Alejandro,Jonathan,Victor","Nice color, but too vague,-12,40,20","very abstract, I don't understand it, but I like the bright, cheerful colors,14,100,20","The color palette isn't my taste,-24,100,20","Muddied and directionless. Like someone dragged a brush across the paper for the sake of doing something.,-50,80,20","Very cool colors and I like the contrast of lights and darks,30,140,20","doesn't look like any effort was put into this piece.,-19,340,20","Jonathan","Very cool colors and I like the contrast of lights and darks,30,140,20","Jesus","The color palette isn't my taste,-24,100,20","Alex","very abstract, I don't understand it, but I like the bright, cheerful colors,14,100,20","0"
"11912","","survey-text","87","641894","0.0-87.0-0.0","A2EKCMS8IKV57N","","","","{""Q0"":""colorful and curious""}","","","","","","","","","","","","","","","","","","","","","","",""
"9499","","image-slider-response","88","651398","0.0-88.0","A2EKCMS8IKV57N","","","","","10","","","","","","","","","","","","","","","","","","","","","",""
"4405","","image-button-response","89","656405","0.0-89.0","A2EKCMS8IKV57N","img_art/9.jpg","1","","","","","","","","","","","","","","","","","","","","","","","","",""
"1111","","image-button-response","90","657521","0.0-90.0","A2EKCMS8IKV57N","img_art/9.jpg","1","","","","","","","","","","","","","","","","","","","","","","","","",""
"6495","","image-button-response","91","664022","0.0-91.0-0.0","A2EKCMS8IKV57N","img_art/9.jpg","2","","","","","","","","","","","","","","","","","","","","","","","","",""
"2210","","image-button-response","92","666240","0.0-92.0-0.0","A2EKCMS8IKV57N","img_art/9.jpg","4","","","","","","","","","","","","","","","","","","","","","","","","",""
"null","","html-keyboard-response","93","667244","0.0-93.0","A2EKCMS8IKV57N","<p style=""font-size: 48px;"">+</p>","","","","","null","allTrialResponses","1000","1","7","img_art/9.jpg","10","colorful and curious","Juan,Alex,Jesus,Mitchell,Jonathan,Bradley","It's too abstract for my taste. I wish there were more definition.,-9,260,20","Alright, I can see a reclining lady, I'm just glad to be able to tell what's in the picture,5,100,20","I enjoy the design, but the colors look waxy,-7,100,20","Cozy, In her own world. feminine .,30,180,20","It's peaceful and relaxing,24,140,20","Yikes. I'm not sure what to make of this one.,-14,300,20","Alex","Alright, I can see a reclining lady, I'm just glad to be able to tell what's in the picture,5,100,20","Jesus","I enjoy the design, but the colors look waxy,-7,100,20","Jonathan","It's peaceful and relaxing,24,140,20","0"
"16036","","survey-text","94","683294","0.0-94.0-0.0","A2EKCMS8IKV57N","","","","{""Q0"":""a blurry industrial landscape""}","","","","","","","","","","","","","","","","","","","","","","",""
"3684","","image-slider-response","95","686983","0.0-95.0","A2EKCMS8IKV57N","","","","","10","","","","","","","","","","","","","","","","","","","","","",""
"null","","image-button-response","96","691991","0.0-96.0","A2EKCMS8IKV57N","img_art/20.jpg","null","","","","","","","","","","","","","","","","","","","","","","","","",""
"850","","image-button-response","97","692847","0.0-97.0","A2EKCMS8IKV57N","img_art/20.jpg","1","","","","","","","","","","","","","","","","","","","","","","","","",""
"3335","","image-button-response","98","696187","0.0-98.0-0.0","A2EKCMS8IKV57N","img_art/20.jpg","2","","","","","","","","","","","","","","","","","","","","","","","","",""
"5166","","image-button-response","99","701361","0.0-99.0-0.0","A2EKCMS8IKV57N","img_art/20.jpg","0","","","","","","","","","","","","","","","","","","","","","","","","",""
"null","","html-keyboard-response","100","702364","0.0-100.0","A2EKCMS8IKV57N","<p style=""font-size: 48px;"">+</p>","","","","","null","allTrialResponses","1000","1","8","img_art/20.jpg","10","a blurry industrial landscape","Mason,Alex,Jesus,Jacob,Jonathan,Cody","Very cool, and calming (again) Love it.,47,100,20","Reminds me of Dali for some reason, whom I don't like,-7,100,20","Shapes are fun to interpret,21,100,20","It looks painted really nicely.,5,340,20","This one feels scary in a bad way,-30,140,20","I like the distortion of the objects, good colors,20,180,20","Alex","Reminds me of Dali for some reason, whom I don't like,-7,100,20","Jesus","Shapes are fun to interpret,21,100,20","Mason","Very cool, and calming (again) Love it.,47,100,20","0"
"11661","","survey-text","101","714042","0.0-101.0-0.0","A2EKCMS8IKV57N","","","","{""Q0"":""lots to absorb here""}","","","","","","","","","","","","","","","","","","","","","","",""
"2896.099999997765","","image-slider-response","102","716943","0.0-102.0","A2EKCMS8IKV57N","","","","","40","","","","","","","","","","","","","","","","","","","","","",""
"null","","image-button-response","103","721950","0.0-103.0","A2EKCMS8IKV57N","img_art/8.jpg","null","","","","","","","","","","","","","","","","","","","","","","","","",""
"975","","image-button-response","104","722930","0.0-104.0","A2EKCMS8IKV57N","img_art/8.jpg","4","","","","","","","","","","","","","","","","","","","","","","","","",""
"4447","","image-button-response","105","727384","0.0-105.0-0.0","A2EKCMS8IKV57N","img_art/8.jpg","3","","","","","","","","","","","","","","","","","","","","","","","","",""
"7956","","image-button-response","106","735348","0.0-106.0-0.0","A2EKCMS8IKV57N","img_art/8.jpg","1","","","","","","","","","","","","","","","","","","","","","","","","",""
"null","","html-keyboard-response","107","735853","0.0-107.0","A2EKCMS8IKV57N","<p style=""font-size: 48px;"">+</p>","","","","","null","allTrialResponses","500","1","9","img_art/8.jpg","40","lots to absorb here","Mason,Alex,Jesus,Lucas,Jack,Evan","wow. blocky, angled, neat colors. The faces are what makes it. love it.,45,100,20","I appreciate the complexity of this piece but it's too cubist for me,3,100,20","The different shapes are fun to look for.,30,100,20","Different styles make this picture outstanding.,20,380,20","beautiful colors & details. love the surrealism & strange angle. the faces are interesting.,50,320,20","I can't tell if this is supposed to portray just city life or a town crumbling,-5,140,20","Jack","beautiful colors & details. love the surrealism & strange angle. the faces are interesting.,50,320,20","Lucas","Different styles make this picture outstanding.,20,380,20","Alex","I appreciate the complexity of this piece but it's too cubist for me,3,100,20","0"
"23310","","survey-text","108","759176","0.0-108.0-0.0","A2EKCMS8IKV57N","","","","{""Q0"":""I see a face and interesting colors""}","","","","","","","","","","","","","","","","","","","","","","",""
"2300.5","","image-slider-response","109","761482","0.0-109.0","A2EKCMS8IKV57N","","","","","6","","","","","","","","","","","","","","","","","","","","","",""
"null","","image-button-response","110","766492","0.0-110.0","A2EKCMS8IKV57N","img_art/2.jpg","null","","","","","","","","","","","","","","","","","","","","","","","","",""
"69226","","image-button-response","111","835724","0.0-111.0","A2EKCMS8IKV57N","img_art/2.jpg","2","","","","","","","","","","","","","","","","","","","","","","","","",""
"3536","","image-button-response","112","839268","0.0-112.0-0.0","A2EKCMS8IKV57N","img_art/2.jpg","4","","","","","","","","","","","","","","","","","","","","","","","","",""
"1881","","image-button-response","113","841158","0.0-113.0-0.0","A2EKCMS8IKV57N","img_art/2.jpg","5","","","","","","","","","","","","","","","","","","","","","","","","",""
"null","","html-keyboard-response","114","842662","0.0-114.0","A2EKCMS8IKV57N","<p style=""font-size: 48px;"">+</p>","","","","","null","allTrialResponses","1500","1","10","img_art/2.jpg","6","I see a face and interesting colors","Alexis,Alex,Adam,Lucas,Jack,Antonio","The people look blurred together,-21,140,20","Don't like the puke green color and also too abstact,-14,100,20","Hate the vomit green.,-31,40,20","Colorful, curious.,20,380,20","the colors are a bit odd, and the squiggly line at the top is distracting,0,320,20","Colors are drab and cause a sense of blandness,-28,220,20","Adam","Hate the vomit green.,-31,40,20","Jack","the colors are a bit odd, and the squiggly line at the top is distracting,0,320,20","Antonio","Colors are drab and cause a sense of blandness,-28,220,20","0"
"6993","","survey-text","115","849684","0.0-115.0-0.0","A2EKCMS8IKV57N","","","","{""Q0"":""our""}","","","","","","","","","","","","","","","","","","","","","","",""
"13407","","survey-text","116","863095","0.0-116.0-0.0","A2EKCMS8IKV57N","","","","{""Q0"":""a depressing drab room""}","","","","","","","","","","","","","","","","","","","","","","",""
"4324.199999999255","","image-slider-response","117","867425","0.0-117.0","A2EKCMS8IKV57N","","","","","-11","","","","","","","","","","","","","","","","","","","","","",""
"null","","image-button-response","118","872432","0.0-118.0","A2EKCMS8IKV57N","img_art/26.jpg","null","","","","","","","","","","","","","","","","","","","","","","","","",""
"1548","","image-button-response","119","873985","0.0-119.0","A2EKCMS8IKV57N","img_art/26.jpg","1","","","","","","","","","","","","","","","","","","","","","","","","",""
"3189","","image-button-response","120","877180","0.0-120.0-0.0","A2EKCMS8IKV57N","img_art/26.jpg","2","","","","","","","","","","","","","","","","","","","","","","","","",""
"1072","","image-button-response","121","878261","0.0-121.0-0.0","A2EKCMS8IKV57N","img_art/26.jpg","2","","","","","","","","","","","","","","","","","","","","","","","","",""
"8120","","image-button-response","122","890208","0.0-121.1-0.1","A2EKCMS8IKV57N","img_art/26.jpg","3","","","","","","","","","","","","","","","","","","","","","","","","",""
"null","","html-keyboard-response","123","891714","0.0-122.0","A2EKCMS8IKV57N","<p style=""font-size: 48px;"">+</p>","","","","","null","allTrialResponses","1500","1","11","img_art/26.jpg","-11","a depressing drab room","Christopher,Scott,Adam,Seth,Jack,Antonio","too hard to figure out if it's meant to be actual objects or impressions,-36,160,20","nothing really special, quite bland,1,20,20","pretty colors, but sketch style isn't for me,10,40,20","I'm not sure if this is the image of a furniture store or not.,-20,60,20","soft colors & brush work. very easy to look at. makes me happy.,50,320,20","Calming and relaxing,28,220,20","Scott","nothing really special, quite bland,1,20,20","Adam","pretty colors, but sketch style isn't for me,10,40,20","Seth","I'm not sure if this is the image of a furniture store or not.,-20,60,20","2"
"13697","","survey-text","124","905429","0.0-123.0-0.0","A2EKCMS8IKV57N","","","","{""Q0"":""colors and images are interesting""}","","","","","","","","","","","","","","","","","","","","","","",""
"8285.199999999255","","image-slider-response","125","913719","0.0-124.0","A2EKCMS8IKV57N","","","","","19","","","","","","","","","","","","","","","","","","","","","",""
"null","","image-button-response","126","918726","0.0-125.0","A2EKCMS8IKV57N","img_art/22.jpg","null","","","","","","","","","","","","","","","","","","","","","","","","",""
"1131","","image-button-response","127","919862","0.0-126.0","A2EKCMS8IKV57N","img_art/22.jpg","0","","","","","","","","","","","","","","","","","","","","","","","","",""
"4495","","image-button-response","128","924362","0.0-127.0-0.0","A2EKCMS8IKV57N","img_art/22.jpg","1","","","","","","","","","","","","","","","","","","","","","","","","",""
"7160","","image-button-response","129","931531","0.0-128.0-0.0","A2EKCMS8IKV57N","img_art/22.jpg","4","","","","","","","","","","","","","","","","","","","","","","","","",""
"null","","html-keyboard-response","130","932034","0.0-129.0","A2EKCMS8IKV57N","<p style=""font-size: 48px;"">+</p>","","","","","null","allTrialResponses","500","1","12","img_art/22.jpg","19","colors and images are interesting","Blake,Scott,Adam,Seth,Anthony,Brian","a lost balloon in outer space,12,280,20","really beautiful colors and contrast,30,20,20","Very generic mix of primary colors and shapes. Not a huge fan.,-10,40,20","I think the colors are beautiful they remind me of a sunset.,13,60,20","Colors are subdued yet vibrant,30,200,20","this is too generic,-27,380,20","Blake","a lost balloon in outer space,12,280,20","Scott","really beautiful colors and contrast,30,20,20","Anthony","Colors are subdued yet vibrant,30,200,20","2"
"20260","","survey-text","131","952309","0.0-130.0-0.0","A2EKCMS8IKV57N","","","","{""Q0"":""interesting depth in this piece""}","","","","","","","","","","","","","","","","","","","","","","",""
"4369.5","","image-slider-response","132","956684","0.0-131.0","A2EKCMS8IKV57N","","","","","11","","","","","","","","","","","","","","","","","","","","","",""
"null","","image-button-response","133","961694","0.0-132.0","A2EKCMS8IKV57N","img_art/29.jpg","null","","","","","","","","","","","","","","","","","","","","","","","","",""
"1512","","image-button-response","134","963212","0.0-133.0","A2EKCMS8IKV57N","img_art/29.jpg","5","","","","","","","","","","","","","","","","","","","","","","","","",""
"2186","","image-button-response","135","965404","0.0-134.0-0.0","A2EKCMS8IKV57N","img_art/29.jpg","0","","","","","","","","","","","","","","","","","","","","","","","","",""
"6329","","image-button-response","136","971739","0.0-135.0-0.0","A2EKCMS8IKV57N","img_art/29.jpg","2","","","","","","","","","","","","","","","","","","","","","","","","",""
"null","","html-keyboard-response","137","972243","0.0-136.0","A2EKCMS8IKV57N","<p style=""font-size: 48px;"">+</p>","","","","","null","allTrialResponses","500","1","13","img_art/29.jpg","11","interesting depth in this piece","Blake,Scott,Brandon,Joshua,Anthony,Austin","a hot fireplace with things to burn. warm,12,280,20","feels random and not thoughtout,-37,20,20","The black color is great, but I'm really not a fan of this hectic style,-40,320,20","I don't like the red X through it.,-20,240,20","Very interesting composition,41,200,20","Has a haunting feel to it,22,240,20","Austin","Has a haunting feel to it,22,240,20","Blake","a hot fireplace with things to burn. warm,12,280,20","Brandon","The black color is great, but I'm really not a fan of this hectic style,-40,320,20","2"
"26446","","survey-text","138","998705","0.0-137.0-0.0","A2EKCMS8IKV57N","","","","{""Q0"":""water and life imagery""}","","","","","","","","","","","","","","","","","","","","","","",""
"2356.199999999255","","image-slider-response","139","1001066","0.0-138.0","A2EKCMS8IKV57N","","","","","12","","","","","","","","","","","","","","","","","","","","","",""
"null","","image-button-response","140","1006073","0.0-139.0","A2EKCMS8IKV57N","img_art/13.jpg","null","","","","","","","","","","","","","","","","","","","","","","","","",""
"142","","image-button-response","141","1006220","0.0-140.0","A2EKCMS8IKV57N","img_art/13.jpg","1","","","","","","","","","","","","","","","","","","","","","","","","",""
"2199","","image-button-response","142","1008425","0.0-141.0-0.0","A2EKCMS8IKV57N","img_art/13.jpg","2","","","","","","","","","","","","","","","","","","","","","","","","",""
"6788","","image-button-response","143","1015221","0.0-142.0-0.0","A2EKCMS8IKV57N","img_art/13.jpg","3","","","","","","","","","","","","","","","","","","","","","","","","",""
"null","","html-keyboard-response","144","1015726","0.0-143.0","A2EKCMS8IKV57N","<p style=""font-size: 48px;"">+</p>","","","","","null","allTrialResponses","500","1","14","img_art/13.jpg","12","water and life imagery","Blake,Caleb,Brandon,Devon,Isaac,Austin","warm splash of salt water from ocean,16,280,20","Lots of depth and character.,30,40,20","Simple, but pleasing. The blue gradient is a favorite of mine,32,320,20","I like this picture. The choice of colors are good,31,400,20","The colors are okay but I don't like the shapes here.,-18,280,20","Love the splash of colors,50,240,20","Caleb","Lots of depth and character.,30,40,20","Brandon","Simple, but pleasing. The blue gradient is a favorite of mine,32,320,20","Devon","I like this picture. The choice of colors are good,31,400,20","2"
"16827","","survey-text","145","1032568","0.0-144.0-0.0","A2EKCMS8IKV57N","","","","{""Q0"":""interesting interpretation of a brrom""}","","","","","","","","","","","","","","","","","","","","","","",""
"3300.5","","image-slider-response","146","1035874","0.0-145.0","A2EKCMS8IKV57N","","","","","8","","","","","","","","","","","","","","","","","","","","","",""
"5001","","image-button-response","147","1040883","0.0-146.0","A2EKCMS8IKV57N","img_art/5.jpg","4","","","","","","","","","","","","","","","","","","","","","","","","",""
"1580","","image-button-response","148","1042469","0.0-147.0","A2EKCMS8IKV57N","img_art/5.jpg","4","","","","","","","","","","","","","","","","","","","","","","","","",""
"1985","","image-button-response","149","1044460","0.0-148.0-0.0","A2EKCMS8IKV57N","img_art/5.jpg","3","","","","","","","","","","","","","","","","","","","","","","","","",""
"5785","","image-button-response","150","1050253","0.0-149.0-0.0","A2EKCMS8IKV57N","img_art/5.jpg","0","","","","","","","","","","","","","","","","","","","","","","","","",""
"null","","html-keyboard-response","151","1050761","0.0-150.0","A2EKCMS8IKV57N","<p style=""font-size: 48px;"">+</p>","","","","","null","allTrialResponses","500","1","15","img_art/5.jpg","8","interesting interpretation of a brrom","Dustin,Caleb,Brandon,Devon,James,Aaron","I don't get it at all. But, maybe it is the top portion of a piece of fruit.,-50,20,20","Boring and appears low effort,-41,40,20","Kindergarten art. I really don't like this style.,-50,320,20","a bit confused about this picture,-9,400,20","Very bright and has colors you wouldn't think would go together,11,380,20","It's kind of boring.,-20,20,20","James","Very bright and has colors you wouldn't think would go together,11,380,20","Devon","a bit confused about this picture,-9,400,20","Dustin","I don't get it at all. But, maybe it is the top portion of a piece of fruit.,-50,20,20","2"
"9341","","survey-text","152","1060131","0.0-151.0-0.0","A2EKCMS8IKV57N","","","","{""Q0"":""course""}","","","","","","","","","","","","","","","","","","","","","","",""
"19548","","survey-text","153","1079684","0.0-152.0-0.0","A2EKCMS8IKV57N","","","","{""Q0"":""bird on a perch""}","","","","","","","","","","","","","","","","","","","","","","",""
"2524.900000002235","","image-slider-response","154","1082215","0.0-153.0","A2EKCMS8IKV57N","","","","","10","","","","","","","","","","","","","","","","","","","","","",""
"null","","image-button-response","155","1087222","0.0-154.0","A2EKCMS8IKV57N","img_art/6.jpg","null","","","","","","","","","","","","","","","","","","","","","","","","",""
"691","","image-button-response","156","1087919","0.0-155.0","A2EKCMS8IKV57N","img_art/6.jpg","1","","","","","","","","","","","","","","","","","","","","","","","","",""
"6206","","image-button-response","157","1094132","0.0-156.0-0.0","A2EKCMS8IKV57N","img_art/6.jpg","5","","","","","","","","","","","","","","","","","","","","","","","","",""
"1760","","image-button-response","158","1095903","0.0-157.0-0.0","A2EKCMS8IKV57N","img_art/6.jpg","2","","","","","","","","","","","","","","","","","","","","","","","","",""
"null","","html-keyboard-response","159","1096907","0.0-158.0","A2EKCMS8IKV57N","<p style=""font-size: 48px;"">+</p>","","","","","null","allTrialResponses","1000","1","16","img_art/6.jpg","10","bird on a perch","Dustin,Gabriel,Adrian,Devon,James,Tanner","I like the warmth of the orange. But, I feel like it's a partial view. I'm frustrated I can't see the entirety.,-20,20,20","its like a jalapeno,-28,160,20","Simple, warm, hopeful.,12,60,20","This one also confuses me a bit.,-19,400,20","Nice desert scene,10,380,20","loneliness, fragile, forever alone, a girl who's been there for eternity, only think tracking time is the length of her hair,9,180,20","Gabriel","its like a jalapeno,-28,160,20","Tanner","loneliness, fragile, forever alone, a girl who's been there for eternity, only think tracking time is the length of her hair,9,180,20","Adrian","Simple, warm, hopeful.,12,60,20","2"
"9857","","survey-text","160","1106781","0.0-159.0-0.0","A2EKCMS8IKV57N","","","","{""Q0"":""a melting guitar""}","","","","","","","","","","","","","","","","","","","","","","",""
"2539.60000000149","","image-slider-response","161","1109326","0.0-160.0","A2EKCMS8IKV57N","","","","","7","","","","","","","","","","","","","","","","","","","","","",""
"null","","image-button-response","162","1114332","0.0-161.0","A2EKCMS8IKV57N","img_art/10.jpg","null","","","","","","","","","","","","","","","","","","","","","","","","",""
"885","","image-button-response","163","1115222","0.0-162.0","A2EKCMS8IKV57N","img_art/10.jpg","1","","","","","","","","","","","","","","","","","","","","","","","","",""
"2898","","image-button-response","164","1118127","0.0-163.0-0.0","A2EKCMS8IKV57N","img_art/10.jpg","5","","","","","","","","","","","","","","","","","","","","","","","","",""
"1949","","image-button-response","165","1120084","0.0-164.0-0.0","A2EKCMS8IKV57N","img_art/10.jpg","2","","","","","","","","","","","","","","","","","","","","","","","","",""
"null","","html-keyboard-response","166","1121588","0.0-165.0","A2EKCMS8IKV57N","<p style=""font-size: 48px;"">+</p>","","","","","null","allTrialResponses","1500","1","17","img_art/10.jpg","7","a melting guitar","Luis,Gabriel,Adrian,Marcus,Nathaniel,Tanner","I love the dark and edgy nature of this,50,400,20","reminds me of a violin,9,160,20","Looks like a violin. Not a fan of the smudges and smears, but my initial reaction was positive.,11,60,20","This makes me think of a city, specifically London.,20,60,20","For black and white, this is pretty vibrant and cool. I like this.,39,220,20","music, serenity, love,33,180,20","Gabriel","reminds me of a violin,9,160,20","Tanner","music, serenity, love,33,180,20","Adrian","Looks like a violin. Not a fan of the smudges and smears, but my initial reaction was positive.,11,60,20","2"
"14609","","survey-text","167","1136216","0.0-166.0-0.0","A2EKCMS8IKV57N","","","","{""Q0"":""dancing and music imagery""}","","","","","","","","","","","","","","","","","","","","","","",""
"2615.099999997765","","image-slider-response","168","1138836","0.0-167.0","A2EKCMS8IKV57N","","","","","16","","","","","","","","","","","","","","","","","","","","","",""
"null","","image-button-response","169","1143843","0.0-168.0","A2EKCMS8IKV57N","img_art/23.jpg","null","","","","","","","","","","","","","","","","","","","","","","","","",""
"613","","image-button-response","170","1144462","0.0-169.0","A2EKCMS8IKV57N","img_art/23.jpg","3","","","","","","","","","","","","","","","","","","","","","","","","",""
"1782","","image-button-response","171","1146252","0.0-170.0-0.0","A2EKCMS8IKV57N","img_art/23.jpg","5","","","","","","","","","","","","","","","","","","","","","","","","",""
"3659","","image-button-response","172","1149918","0.0-171.0-0.0","A2EKCMS8IKV57N","img_art/23.jpg","0","","","","","","","","","","","","","","","","","","","","","","","","",""
"null","","html-keyboard-response","173","1150422","0.0-172.0","A2EKCMS8IKV57N","<p style=""font-size: 48px;"">+</p>","","","","","null","allTrialResponses","500","1","18","img_art/23.jpg","16","dancing and music imagery","Matthew,Gabriel,Adrian,Samuel,Christian,Tanner","A line dance, it's really strinkingly beautiful.,50,120,20","i think this ones okay,10,160,20","Too much contrasting colors together. I hate it.,-50,60,20","happiness in the universe,28,400,20","love the contrast (was this painted by a left-handed artist?),7,140,20","fsiries, happy, spiritual,16,180,20","Samuel","happiness in the universe,28,400,20","Tanner","fsiries, happy, spiritual,16,180,20","Matthew","A line dance, it's really strinkingly beautiful.,50,120,20","2"
"15039","","survey-text","174","1165476","0.0-173.0-0.0","A2EKCMS8IKV57N","","","","{""Q0"":""child and grandmother imagery""}","","","","","","","","","","","","","","","","","","","","","","",""
"2064.39999999851","","image-slider-response","175","1167546","0.0-174.0","A2EKCMS8IKV57N","","","","","12","","","","","","","","","","","","","","","","","","","","","",""
"null","","image-button-response","176","1172552","0.0-175.0","A2EKCMS8IKV57N","img_art/16.jpg","null","","","","","","","","","","","","","","","","","","","","","","","","",""
"726","","image-button-response","177","1173285","0.0-176.0","A2EKCMS8IKV57N","img_art/16.jpg","0","","","","","","","","","","","","","","","","","","","","","","","","",""
"11616","","image-button-response","178","1184907","0.0-177.0-0.0","A2EKCMS8IKV57N","img_art/16.jpg","2","","","","","","","","","","","","","","","","","","","","","","","","",""
"1668","","image-button-response","179","1186584","0.0-178.0-0.0","A2EKCMS8IKV57N","img_art/16.jpg","5","","","","","","","","","","","","","","","","","","","","","","","","",""
"null","","html-keyboard-response","180","1188087","0.0-179.0","A2EKCMS8IKV57N","<p style=""font-size: 48px;"">+</p>","","","","","null","allTrialResponses","1500","1","19","img_art/16.jpg","12","child and grandmother imagery","Matthew,Richard,Patrick,Samuel,Dalton,Tanner","A lot fo these could abstract or childrens work.,23,120,20","nonsense art, not really art,-44,340,20","This painting is too random,-30,280,20","childhood horror,3,400,20","lol i dont know how i feel about this.,1,300,20","sad. desth of childhood,-5,180,20","Matthew","A lot fo these could abstract or childrens work.,23,120,20","Patrick","This painting is too random,-30,280,20","Tanner","sad. desth of childhood,-5,180,20","2"
"12405","","survey-text","181","1200511","0.0-180.0-0.0","A2EKCMS8IKV57N","","","","{""Q0"":""art cleanup""}","","","","","","","","","","","","","","","","","","","","","","",""
"2749.300000000745","","image-slider-response","182","1203265","0.0-181.0","A2EKCMS8IKV57N","","","","","-13","","","","","","","","","","","","","","","","","","","","","",""
"null","","image-button-response","183","1208272","0.0-182.0","A2EKCMS8IKV57N","img_art/15.jpg","null","","","","","","","","","","","","","","","","","","","","","","","","",""
"626","","image-button-response","184","1208903","0.0-183.0","A2EKCMS8IKV57N","img_art/15.jpg","0","","","","","","","","","","","","","","","","","","","","","","","","",""
"4122","","image-button-response","185","1213033","0.0-184.0-0.0","A2EKCMS8IKV57N","img_art/15.jpg","5","","","","","","","","","","","","","","","","","","","","","","","","",""
"2331","","image-button-response","186","1215373","0.0-185.0-0.0","A2EKCMS8IKV57N","img_art/15.jpg","3","","","","","","","","","","","","","","","","","","","","","","","","",""
"null","","html-keyboard-response","187","1216879","0.0-186.0","A2EKCMS8IKV57N","<p style=""font-size: 48px;"">+</p>","","","","","null","allTrialResponses","1500","1","20","img_art/15.jpg","-13","art cleanup","Matthew,Eric,Patrick,Vincent,Shawn,Tanner","I think of birds, nature, levels of space.,18,120,20","This picture is too confusing for me. I wouldn't want to stare at it to figure it out.,-10,100,20","I don't like the black dots,-19,280,20","I like the colors and the different style This brings,7,360,20","Like the composition and lines,26,100,20","darkness, hatred, fear,-29,180,20","Matthew","I think of birds, nature, levels of space.,18,120,20","Tanner","darkness, hatred, fear,-29,180,20","Vincent","I like the colors and the different style This brings,7,360,20","2"
"4394","","survey-text","188","1221301","0.0-187.0-0.0","A2EKCMS8IKV57N","","","","{""Q0"":""we""}","","","","","","","","","","","","","","","","","","","","","","",""
"15262","","survey-text","189","1236567","0.0-188.0-0.0","A2EKCMS8IKV57N","","","","{""Q0"":""cubist music and sailing""}","","","","","","","","","","","","","","","","","","","","","","",""
"2918.5","","image-slider-response","190","1239490","0.0-189.0","A2EKCMS8IKV57N","","","","","19","","","","","","","","","","","","","","","","","","","","","",""
"3494","","image-button-response","191","1244499","0.0-190.0","A2EKCMS8IKV57N","img_art/18.jpg","0","","","","","","","","","","","","","","","","","","","","","","","","",""
"691","","image-button-response","192","1245196","0.0-191.0","A2EKCMS8IKV57N","img_art/18.jpg","0","","","","","","","","","","","","","","","","","","","","","","","","",""
"4563","","image-button-response","193","1249765","0.0-192.0-0.0","A2EKCMS8IKV57N","img_art/18.jpg","5","","","","","","","","","","","","","","","","","","","","","","","","",""
"4401","","image-button-response","194","1254174","0.0-193.0-0.0","A2EKCMS8IKV57N","img_art/18.jpg","1","","","","","","","","","","","","","","","","","","","","","","","","",""
"null","","html-keyboard-response","195","1255679","0.0-194.0","A2EKCMS8IKV57N","<p style=""font-size: 48px;"">+</p>","","","","","null","allTrialResponses","1500","1","21","img_art/18.jpg","19","cubist music and sailing","Matthew,Connor,Devin,Vincent,Sean,Tanner","Resembles a ship at sea, storm of activity.,28,120,20","See a weird horse,-22,240,20","Good concept but then scribbled on a bit?,15,380,20","Very conversational and can see many different looks and feels from this .,34,360,20","my response to the picture is a little bit of anxiety but I like the detail,16,40,20","pegssus going into battle,25,180,20","Matthew","Resembles a ship at sea, storm of activity.,28,120,20","Tanner","pegssus going into battle,25,180,20","Connor","See a weird horse,-22,240,20","2"
"13100","","survey-text","196","1268799","0.0-195.0-0.0","A2EKCMS8IKV57N","","","","{""Q0"":""an approaching storm""}","","","","","","","","","","","","","","","","","","","","","","",""
"2772.39999999851","","image-slider-response","197","1271577","0.0-196.0","A2EKCMS8IKV57N","","","","","24","","","","","","","","","","","","","","","","","","","","","",""
"null","","image-button-response","198","1276584","0.0-197.0","A2EKCMS8IKV57N","img_art/21.jpg","null","","","","","","","","","","","","","","","","","","","","","","","","",""
"1109","","image-button-response","199","1277697","0.0-198.0","A2EKCMS8IKV57N","img_art/21.jpg","0","","","","","","","","","","","","","","","","","","","","","","","","",""
"928","","image-button-response","200","1278632","0.0-199.0-0.0","A2EKCMS8IKV57N","img_art/21.jpg","1","","","","","","","","","","","","","","","","","","","","","","","","",""
"2512","","image-button-response","201","1281153","0.0-200.0-0.0","A2EKCMS8IKV57N","img_art/21.jpg","5","","","","","","","","","","","","","","","","","","","","","","","","",""
"null","","html-keyboard-response","202","1281656","0.0-201.0","A2EKCMS8IKV57N","<p style=""font-size: 48px;"">+</p>","","","","","null","allTrialResponses","500","1","22","img_art/21.jpg","24","an approaching storm","Matthew,Connor,Ian,Jordan,Stephen,Tanner","Disturbing, land meets ocean, lvoely really.,43,120,20","Love the colors and hue, ocean,38,240,20","This looks very interesting because something is happening but I can't tell what.,28,260,20","Beautiful colors, remind me of my yoga studio,50,160,20","Don't see anything special about it,-21,140,20","calm, ship at sea, sunset,16,180,20","Matthew","Disturbing, land meets ocean, lvoely really.,43,120,20","Connor","Love the colors and hue, ocean,38,240,20","Tanner","calm, ship at sea, sunset,16,180,20","2"
"14545","","survey-text","203","1296216","0.0-202.0-0.0","A2EKCMS8IKV57N","","","","{""Q0"":""simplistic strokes with texture""}","","","","","","","","","","","","","","","","","","","","","","",""
"2693.39999999851","","image-slider-response","204","1298915","0.0-203.0","A2EKCMS8IKV57N","","","","","-24","","","","","","","","","","","","","","","","","","","","","",""
"null","","image-button-response","205","1303925","0.0-204.0","A2EKCMS8IKV57N","img_art/30.jpg","null","","","","","","","","","","","","","","","","","","","","","","","","",""
"7012","","image-button-response","206","1310942","0.0-205.0","A2EKCMS8IKV57N","img_art/30.jpg","0","","","","","","","","","","","","","","","","","","","","","","","","",""
"4089","","image-button-response","207","1315036","0.0-206.0-0.0","A2EKCMS8IKV57N","img_art/30.jpg","3","","","","","","","","","","","","","","","","","","","","","","","","",""
"4360","","image-button-response","208","1319403","0.0-207.0-0.0","A2EKCMS8IKV57N","img_art/30.jpg","5","","","","","","","","","","","","","","","","","","","","","","","","",""
"null","","html-keyboard-response","209","1320906","0.0-208.0","A2EKCMS8IKV57N","<p style=""font-size: 48px;"">+</p>","","","","","null","allTrialResponses","1500","1","23","img_art/30.jpg","-24","simplistic strokes with texture","Matthew,Connor,Jeffrey,Tyler,Peter,Tanner","Decent abstract art, ncie colors.,23,120,20","Layers are interesting,22,240,20","calming and relaxing,14,40,20","Interesting brushstroke work, but not particularly memorable.,21,320,20","I feel nothing towards,-1,320,20","makes me think of a tunnel filled with graffiti,19,180,20","Matthew","Decent abstract art, ncie colors.,23,120,20","Tyler","Interesting brushstroke work, but not particularly memorable.,21,320,20","Tanner","makes me think of a tunnel filled with graffiti,19,180,20","2"
"19594","","survey-text","210","1340519","0.0-209.0-0.0","A2EKCMS8IKV57N","","","","{""Q0"":""scary spector""}","","","","","","","","","","","","","","","","","","","","","","",""
"2896.5","","image-slider-response","211","1343421","0.0-210.0","A2EKCMS8IKV57N","","","","","-17","","","","","","","","","","","","","","","","","","","","","",""
"null","","image-button-response","212","1348427","0.0-211.0","A2EKCMS8IKV57N","img_art/25.jpg","null","","","","","","","","","","","","","","","","","","","","","","","","",""
"963","","image-button-response","213","1349395","0.0-212.0","A2EKCMS8IKV57N","img_art/25.jpg","1","","","","","","","","","","","","","","","","","","","","","","","","",""
"871","","image-button-response","214","1350272","0.0-213.0-0.0","A2EKCMS8IKV57N","img_art/25.jpg","0","","","","","","","","","","","","","","","","","","","","","","","","",""
"2041","","image-button-response","215","1352320","0.0-214.0-0.0","A2EKCMS8IKV57N","img_art/25.jpg","5","","","","","","","","","","","","","","","","","","","","","","","","",""
"null","","html-keyboard-response","216","1352823","0.0-215.0","A2EKCMS8IKV57N","<p style=""font-size: 48px;"">+</p>","","","","","null","allTrialResponses","500","1","24","img_art/25.jpg","-17","scary spector","Matthew,Joseph,Cameron,Tyler,Kevin,Tanner","haunting, a lovely impression.,50,120,20","Ghosts are NOT my thing.,-13,220,20","Like the color, but what is that thing.,-10,60,20","Meh. Hardly abstract, though.,-40,320,20","That on i find a bit creapy.,-19,320,20","reminds me of the grim reaper,3,180,20","Joseph","Ghosts are NOT my thing.,-13,220,20","Matthew","haunting, a lovely impression.,50,120,20","Tanner","reminds me of the grim reaper,3,180,20","2"
"16825","","survey-text","217","1369668","0.0-216.0-0.0","A2EKCMS8IKV57N","","","","{""Q0"":""lots of interpretations here""}","","","","","","","","","","","","","","","","","","","","","","",""
"2604","","image-slider-response","218","1372277","0.0-217.0","A2EKCMS8IKV57N","","","","","-18","","","","","","","","","","","","","","","","","","","","","",""
"null","","image-button-response","219","1377282","0.0-218.0","A2EKCMS8IKV57N","img_art/3.jpg","null","","","","","","","","","","","","","","","","","","","","","","","","",""
"1323","","image-button-response","220","1378612","0.0-219.0","A2EKCMS8IKV57N","img_art/3.jpg","1","","","","","","","","","","","","","","","","","","","","","","","","",""
"3369","","image-button-response","221","1381988","0.0-220.0-0.0","A2EKCMS8IKV57N","img_art/3.jpg","5","","","","","","","","","","","","","","","","","","","","","","","","",""
"3637","","image-button-response","222","1385634","0.0-221.0-0.0","A2EKCMS8IKV57N","img_art/3.jpg","3","","","","","","","","","","","","","","","","","","","","","","","","",""
"null","","html-keyboard-response","223","1387137","0.0-222.0","A2EKCMS8IKV57N","<p style=""font-size: 48px;"">+</p>","","","","","null","allTrialResponses","1500","1","25","img_art/3.jpg","-18","lots of interpretations here","Matthew,Joseph,Jason,Corey,Alexander,Tanner","Reminds of John Lenonn's art a bit.,27,120,20","Really have no idea what I'm looking at.,1,220,20","Too much red; very bland,-26,20,20","seems distressing. a blood scene,-3,260,20","Somewhere between a child's art and a poorly drawn battle map.,8,120,20","anger, blood, death,-24,180,20","Joseph","Really have no idea what I'm looking at.,1,220,20","Tanner","anger, blood, death,-24,180,20","Corey","seems distressing. a blood scene,-3,260,20","2"
"5521","","survey-text","224","1392688","0.0-223.0-0.0","A2EKCMS8IKV57N","","","","{""Q0"":""table""}","","","","","","","","","","","","","","","","","","","","","","",""
"14439","","survey-text","225","1407131","0.0-224.0-0.0","A2EKCMS8IKV57N","","","","{""Q0"":""waterfall in the forest""}","","","","","","","","","","","","","","","","","","","","","","",""
"1974.5","","image-slider-response","226","1409110","0.0-225.0","A2EKCMS8IKV57N","","","","","8","","","","","","","","","","","","","","","","","","","","","",""
"null","","image-button-response","227","1414117","0.0-226.0","A2EKCMS8IKV57N","img_art/24.jpg","null","","","","","","","","","","","","","","","","","","","","","","","","",""
"434","","image-button-response","228","1414557","0.0-227.0","A2EKCMS8IKV57N","img_art/24.jpg","2","","","","","","","","","","","","","","","","","","","","","","","","",""
"3100","","image-button-response","229","1417663","0.0-228.0-0.0","A2EKCMS8IKV57N","img_art/24.jpg","0","","","","","","","","","","","","","","","","","","","","","","","","",""
"3085","","image-button-response","230","1420755","0.0-229.0-0.0","A2EKCMS8IKV57N","img_art/24.jpg","3","","","","","","","","","","","","","","","","","","","","","","","","",""
"null","","html-keyboard-response","231","1422258","0.0-230.0","A2EKCMS8IKV57N","<p style=""font-size: 48px;"">+</p>","","","","","null","allTrialResponses","1500","1","26","img_art/24.jpg","8","waterfall in the forest","Colton,Joseph,Daniel,Corey,Jared,Tanner","reminds me of a beautiful waterfall,50,220,20","It looks like a poor dead bunny in a field of flowers. I don't want the bunny to be dead.,-37,220,20","Classic palette lacks real world 3d construction,19,320,20","peaceful and serene but Im not the biggest landscape fan,4,260,20","i like that the water seems in motion,6,400,20","calm, nature, safe, happy place,,50,180,20","Daniel","Classic palette lacks real world 3d construction,19,320,20","Colton","reminds me of a beautiful waterfall,50,220,20","Corey","peaceful and serene but Im not the biggest landscape fan,4,260,20","2"
"13813","","survey-text","232","1436090","0.0-231.0-0.0","A2EKCMS8IKV57N","","","","{""Q0"":""leaving a city""}","","","","","","","","","","","","","","","","","","","","","","",""
"2670","","image-slider-response","233","1438766","0.0-232.0","A2EKCMS8IKV57N","","","","","-14","","","","","","","","","","","","","","","","","","","","","",""
"null","","image-button-response","234","1443772","0.0-233.0","A2EKCMS8IKV57N","img_art/19.jpg","null","","","","","","","","","","","","","","","","","","","","","","","","",""
"2449","","image-button-response","235","1446227","0.0-234.0","A2EKCMS8IKV57N","img_art/19.jpg","5","","","","","","","","","","","","","","","","","","","","","","","","",""
"3187","","image-button-response","236","1449422","0.0-235.0-0.0","A2EKCMS8IKV57N","img_art/19.jpg","2","","","","","","","","","","","","","","","","","","","","","","","","",""
"4672","","image-button-response","237","1454102","0.0-236.0-0.0","A2EKCMS8IKV57N","img_art/19.jpg","4","","","","","","","","","","","","","","","","","","","","","","","","",""
"null","","html-keyboard-response","238","1454606","0.0-237.0","A2EKCMS8IKV57N","<p style=""font-size: 48px;"">+</p>","","","","","null","allTrialResponses","500","1","27","img_art/19.jpg","-14","leaving a city","Colton,Dakota,Daniel,Corey,Mark,Zachary","way too much going on,-33,220,20","confusion, scattered and diffuse,-4,280,20","Simple, scratchy lack of negative space.,-10,320,20","i think it is ugly and hate the colors,-35,260,20","Feels like a cafe in Paris.,35,80,20","Reminds me of a busy town. Chaotic in nature.,-11,400,20","Zachary","Reminds me of a busy town. Chaotic in nature.,-11,400,20","Daniel","Simple, scratchy lack of negative space.,-10,320,20","Mark","Feels like a cafe in Paris.,35,80,20","2"
"7262","","survey-text","239","1461888","0.0-238.0-0.0","A2EKCMS8IKV57N","","","","{""Q0"":""a sinking ship""}","","","","","","","","","","","","","","","","","","","","","","",""
"2375.39999999851","","image-slider-response","240","1464270","0.0-239.0","A2EKCMS8IKV57N","","","","","14","","","","","","","","","","","","","","","","","","","","","",""
"null","","image-button-response","241","1469277","0.0-240.0","A2EKCMS8IKV57N","img_art/14.jpg","null","","","","","","","","","","","","","","","","","","","","","","","","",""
"2190","","image-button-response","242","1471473","0.0-241.0","A2EKCMS8IKV57N","img_art/14.jpg","3","","","","","","","","","","","","","","","","","","","","","","","","",""
"4324","","image-button-response","243","1475803","0.0-242.0-0.0","A2EKCMS8IKV57N","img_art/14.jpg","1","","","","","","","","","","","","","","","","","","","","","","","","",""
"1207","","image-button-response","244","1477019","0.0-243.0-0.0","A2EKCMS8IKV57N","img_art/14.jpg","0","","","","","","","","","","","","","","","","","","","","","","","","",""
"null","","html-keyboard-response","245","1478028","0.0-244.0","A2EKCMS8IKV57N","<p style=""font-size: 48px;"">+</p>","","","","","null","allTrialResponses","1000","1","28","img_art/14.jpg","14","a sinking ship","Carlos,Gregory,Daniel,Taylor,Mark,Zachary","The lighting feels like spring.,20,80,20","Not as cool as other tree looking paintings,-5,220,20","Baby's room palette with tree confusion in a more confused substrate.,-15,320,20","Are they blowing up a tree?,-5,200,20","Cute little plant.,15,80,20","Did not evoke much feeling except confusion. I am not sure what to make of this one.,-20,400,20","Taylor","Are they blowing up a tree?,-5,200,20","Gregory","Not as cool as other tree looking paintings,-5,220,20","Carlos","The lighting feels like spring.,20,80,20","2"
"11356","","survey-text","246","1489404","0.0-245.0-0.0","A2EKCMS8IKV57N","","","","{""Q0"":""smoke from a chimney""}","","","","","","","","","","","","","","","","","","","","","","",""
"2930.300000000745","","image-slider-response","247","1492339","0.0-246.0","A2EKCMS8IKV57N","","","","","-16","","","","","","","","","","","","","","","","","","","","","",""
"null","","image-button-response","248","1497345","0.0-247.0","A2EKCMS8IKV57N","img_art/4.jpg","null","","","","","","","","","","","","","","","","","","","","","","","","",""
"1594","","image-button-response","249","1498944","0.0-248.0","A2EKCMS8IKV57N","img_art/4.jpg","1","","","","","","","","","","","","","","","","","","","","","","","","",""
"1323","","image-button-response","250","1500273","0.0-249.0-0.0","A2EKCMS8IKV57N","img_art/4.jpg","0","","","","","","","","","","","","","","","","","","","","","","","","",""
"4459","","image-button-response","251","1504740","0.0-250.0-0.0","A2EKCMS8IKV57N","img_art/4.jpg","5","","","","","","","","","","","","","","","","","","","","","","","","",""
"null","","html-keyboard-response","252","1505244","0.0-251.0","A2EKCMS8IKV57N","<p style=""font-size: 48px;"">+</p>","","","","","null","allTrialResponses","500","1","29","img_art/4.jpg","-16","smoke from a chimney","Carlos,Gregory,Garrett,Taylor,Timothy,Jose","Movement. Snakes. Hair. The uncertainty makes my eye return.,21,80,20","Mustard yellow doesn't do it for me,-25,220,20","I think that this picture is too boring in terms of color and it looks ugly.,-41,180,20","They give out trophies now for fighting with brass knuckles?,-20,200,20","The colors feel a bit off to me,-10,240,20","I like how many different ways there are to interpret this.,27,200,20","Gregory","Mustard yellow doesn't do it for me,-25,220,20","Carlos","Movement. Snakes. Hair. The uncertainty makes my eye return.,21,80,20","Jose","I like how many different ways there are to interpret this.,27,200,20","2"
"11016","","survey-text","253","1516281","0.0-252.0-0.0","A2EKCMS8IKV57N","","","","{""Q0"":""random thoughts""}","","","","","","","","","","","","","","","","","","","","","","",""
"2276.699999999255","","image-slider-response","254","1518564","0.0-253.0","A2EKCMS8IKV57N","","","","","-38","","","","","","","","","","","","","","","","","","","","","",""
"null","","image-button-response","255","1523570","0.0-254.0","A2EKCMS8IKV57N","img_art/1.jpg","null","","","","","","","","","","","","","","","","","","","","","","","","",""
"963","","image-button-response","256","1524538","0.0-255.0","A2EKCMS8IKV57N","img_art/1.jpg","1","","","","","","","","","","","","","","","","","","","","","","","","",""
"5001","","image-button-response","257","1529546","0.0-256.0-0.0","A2EKCMS8IKV57N","img_art/1.jpg","5","","","","","","","","","","","","","","","","","","","","","","","","",""
"9013","","image-button-response","258","1538567","0.0-257.0-0.0","A2EKCMS8IKV57N","img_art/1.jpg","2","","","","","","","","","","","","","","","","","","","","","","","","",""
"null","","html-keyboard-response","259","1540070","0.0-258.0","A2EKCMS8IKV57N","<p style=""font-size: 48px;"">+</p>","","","","","null","allTrialResponses","1500","1","30","img_art/1.jpg","-38","random thoughts","Carlos,Gregory,Jorge,Brendan,Dylan,Jose","Colors are pleasant, but feels incredibly generic.,9,80,20","Looks like just a bunch of colors with no real point,-5,220,20","fishing on the lake surrounded by trees,42,180,20","a colorful piece of art,25,340,20","I love the warm colors of the art,32,40,20","Blurry but that's how emotions are a lot of the time.,27,200,20","Gregory","Looks like just a bunch of colors with no real point,-5,220,20","Jose","Blurry but that's how emotions are a lot of the time.,27,200,20","Jorge","fishing on the lake surrounded by trees,42,180,20","2"
"5146","","image-button-response_instructions","260","1545237","0.0-259.0","A2EKCMS8IKV57N","","0","instructions","","","","","","","","","","","","","","","","","","","","","","","",""
"1862","","image-button-response","261","1547116","0.0-260.0","A2EKCMS8IKV57N","","0","","","","","","","","","","","","","","","","","","","","","","","","",""
