"rt","url","trial_type","trial_index","time_elapsed","internal_node_id","participant_id","stimulus","button_pressed","Name","responses","response","key_press","variableName","fixationTime","condition","trial","photo","subjectRating","subjectResponse","agentsNames","agent_1_Response","agent_2_Response","agent_3_Response","agent_4_Response","agent_5_Response","agent_6_Response","kept_1_name","kept_1_response","kept_2_name","kept_2_response","kept_3_name","kept_3_response","errorCounter"
"23819","external_page_harvard.html","external-html","0","23859","0.0-0.0","A2G7N0X0PNX0EE","","","","","","","","","","","","","","","","","","","","","","","","","","",""
"1777","","image-button-response","1","25638","0.0-1.0","A2G7N0X0PNX0EE","","0","","","","","","","","","","","","","","","","","","","","","","","","",""
"1918","","image-button-response","2","27560","0.0-2.0-0.0","A2G7N0X0PNX0EE","","1","phone","","","","","","","","","","","","","","","","","","","","","","","",""
"4254","","survey-text","3","31816","0.0-3.0-0.0","A2G7N0X0PNX0EE","","","","{""Q0"":""A2G7N0X0PNX0EE""}","","","","","","","","","","","","","","","","","","","","","","",""
"8030","","image-button-response_instructions","4","39848","0.0-4.0","A2G7N0X0PNX0EE","","0","instructions","","","","","","","","","","","","","","","","","","","","","","","",""
"19244","","image-button-response_instructions","5","59092","0.0-5.0","A2G7N0X0PNX0EE","img_art/ins/popularity/ins1.png","0","instructions","","","","","","","","","","","","","","","","","","","","","","","",""
"11916","","image-button-response_instructions","6","71008","0.0-6.0","A2G7N0X0PNX0EE","img_art/ins/popularity/ins2.png","0","instructions","","","","","","","","","","","","","","","","","","","","","","","",""
"8117","","image-button-response_instructions","7","79126","0.0-7.0","A2G7N0X0PNX0EE","img_art/ins/popularity/ins2Extreme.png","0","instructions","","","","","","","","","","","","","","","","","","","","","","","",""
"18642","","image-button-response_instructions","8","97768","0.0-8.0","A2G7N0X0PNX0EE","img_art/ins/popularity/ins3KEEPpop.PNG","0","instructions","","","","","","","","","","","","","","","","","","","","","","","",""
"3387","","image-button-response_instructions","9","101156","0.0-9.0","A2G7N0X0PNX0EE","img_art/ins/popularity/ins3ANamepop.PNG","0","instructions","","","","","","","","","","","","","","","","","","","","","","","",""
"2952","","image-button-response_instructions","10","104108","0.0-10.0","A2G7N0X0PNX0EE","img_art/ins/popularity/ins3ARatingpop.png","0","instructions","","","","","","","","","","","","","","","","","","","","","","","",""
"5771","","image-button-response_instructions","11","109880","0.0-11.0","A2G7N0X0PNX0EE","img_art/ins/popularity/ins3ATextpop.png","0","instructions","","","","","","","","","","","","","","","","","","","","","","","",""
"4421","","image-button-response_instructions","12","114302","0.0-12.0","A2G7N0X0PNX0EE","img_art/ins/popularity/ins3ALikespop.png","0","instructions","","","","","","","","","","","","","","","","","","","","","","","",""
"10747","","image-button-response_instructions","13","125050","0.0-13.0","A2G7N0X0PNX0EE","img_art/ins/popularity/ins3KEEPpop.PNG","0","instructions","","","","","","","","","","","","","","","","","","","","","","","",""
"5227","","image-button-response_instructions","14","130278","0.0-14.0","A2G7N0X0PNX0EE","img_art/ins/popularity/ins3_5RED.png","0","instructions","","","","","","","","","","","","","","","","","","","","","","","",""
"5449","","image-button-response_instructions","15","135728","0.0-15.0","A2G7N0X0PNX0EE","img_art/ins/popularity/ins3KEEPpop.PNG","0","instructions","","","","","","","","","","","","","","","","","","","","","","","",""
"4173","","image-button-response_instructions","16","139902","0.0-16.0","A2G7N0X0PNX0EE","img_art/ins/popularity/ins4KEEPpop.PNG","0","instructions","","","","","","","","","","","","","","","","","","","","","","","",""
"4068","","image-button-response_instructions","17","143972","0.0-17.0","A2G7N0X0PNX0EE","img_art/ins/popularity/ins5KEEPpop.PNG","0","instructions","","","","","","","","","","","","","","","","","","","","","","","",""
"1353","","image-button-response_instructions","18","145326","0.0-18.0","A2G7N0X0PNX0EE","","0","instructions","","","","","","","","","","","","","","","","","","","","","","","",""
"4969","","survey-text","19","150314","0.0-19.0-0.0","A2G7N0X0PNX0EE","","","","{""Q0"":""but""}","","","","","","","","","","","","","","","","","","","","","","",""
"11956","","survey-text","20","162272","0.0-20.0-0.0","A2G7N0X0PNX0EE","","","","{""Q0"":""I have no idea what this is supposed to be or what it's supposed to represent""}","","","","","","","","","","","","","","","","","","","","","","",""
"5664.300000000745","","image-slider-response","21","167938","0.0-21.0","A2G7N0X0PNX0EE","","","","","-25","","","","","","","","","","","","","","","","","","","","","",""
"null","","image-button-response","22","172946","0.0-22.0","A2G7N0X0PNX0EE","img_art/ins/1.jpg","null","","","","","","","","","","","","","","","","","","","","","","","","",""
"3628","","image-button-response","23","176576","0.0-23.0","A2G7N0X0PNX0EE","img_art/ins/1.jpg","0","","","","","","","","","","","","","","","","","","","","","","","","",""
"1120","","image-button-response","24","177698","0.0-24.0-0.0","A2G7N0X0PNX0EE","img_art/ins/1.jpg","2","","","","","","","","","","","","","","","","","","","","","","","","",""
"2102","","image-button-response","25","179802","0.0-25.0-0.0","A2G7N0X0PNX0EE","img_art/ins/1.jpg","0","","","","","","","","","","","","","","","","","","","","","","","","",""
"4053","","image-button-response","26","187962","0.0-25.1-0.1","A2G7N0X0PNX0EE","img_art/ins/1.jpg","4","","","","","","","","","","","","","","","","","","","","","","","","",""
"null","","html-keyboard-response","27","189472","0.0-26.0","A2G7N0X0PNX0EE","<p style=""font-size: 48px;"">+</p>","","","","","null","allTrialResponses","1500","1","-2","img_art/ins/1.jpg","-25","I have no idea what this is supposed to be or what it's supposed to represent","Adam,Alex,Ben,Carl,Daniel,Jack","Seems like doodles,-20,20,20","very creative work.,36,40,20","This color reminds me of poo,-46,60,20","very calming artwork,42,80,20","It looks like a murder scene.,-48,100,20","I like the sophisticated brushwork,40,120,20","Adam","Seems like doodles,-20,20,20","Ben","This color reminds me of poo,-46,60,20","Daniel","It looks like a murder scene.,-48,100,20","2"
"14957","","survey-text","28","204439","0.0-27.0-0.0","A2G7N0X0PNX0EE","","","","{""Q0"":""This seems like abstract hipster nonsense""}","","","","","","","","","","","","","","","","","","","","","","",""
"3828.800000000745","","image-slider-response","29","208269","0.0-28.0","A2G7N0X0PNX0EE","","","","","-25","","","","","","","","","","","","","","","","","","","","","",""
"3366","","image-button-response","30","213277","0.0-29.0","A2G7N0X0PNX0EE","img_art/ins/2.jpg","2","","","","","","","","","","","","","","","","","","","","","","","","",""
"654","","image-button-response","31","213936","0.0-30.0","A2G7N0X0PNX0EE","img_art/ins/2.jpg","3","","","","","","","","","","","","","","","","","","","","","","","","",""
"971","","image-button-response","32","214908","0.0-31.0-0.0","A2G7N0X0PNX0EE","img_art/ins/2.jpg","5","","","","","","","","","","","","","","","","","","","","","","","","",""
"4158","","image-button-response","33","219068","0.0-32.0-0.0","A2G7N0X0PNX0EE","img_art/ins/2.jpg","2","","","","","","","","","","","","","","","","","","","","","","","","",""
"null","","html-keyboard-response","34","220069","0.0-33.0","A2G7N0X0PNX0EE","<p style=""font-size: 48px;"">+</p>","","","","","null","allTrialResponses","1000","1","-1","img_art/ins/2.jpg","-25","This seems like abstract hipster nonsense","Adam,John,Ben,James,Daniel,Kyle","too much color,-18,20,20","love the texture of paint,48,160,20","meaningless painting,-45,60,20","looks too angry,-50,140,20","One of my pet peevs,-48,100,20","Idk, it is just annoying,-32,180,20","James","looks too angry,-50,140,20","Kyle","Idk, it is just annoying,-32,180,20","Ben","meaningless painting,-45,60,20","2"
"17528","","survey-text","35","237607","0.0-34.0-0.0","A2G7N0X0PNX0EE","","","","{""Q0"":""I guess there are interesting blue hues to this work""}","","","","","","","","","","","","","","","","","","","","","","",""
"4676.800000000745","","image-slider-response","36","242285","0.0-35.0","A2G7N0X0PNX0EE","","","","","1","","","","","","","","","","","","","","","","","","","","","",""
"4982","","image-button-response","37","247288","0.0-36.0","A2G7N0X0PNX0EE","img_art/ins/3.jpg","1","","","","","","","","","","","","","","","","","","","","","","","","",""
"2502","","image-button-response","38","249792","0.0-37.0","A2G7N0X0PNX0EE","img_art/ins/3.jpg","1","","","","","","","","","","","","","","","","","","","","","","","","",""
"6978","","image-button-response","39","256772","0.0-38.0-0.0","A2G7N0X0PNX0EE","img_art/ins/3.jpg","0","","","","","","","","","","","","","","","","","","","","","","","","",""
"11221","","image-button-response","40","267994","0.0-39.0-0.0","A2G7N0X0PNX0EE","img_art/ins/3.jpg","5","","","","","","","","","","","","","","","","","","","","","","","","",""
"null","","html-keyboard-response","41","269508","0.0-40.0","A2G7N0X0PNX0EE","<p style=""font-size: 48px;"">+</p>","","","","","null","allTrialResponses","1500","1","0","img_art/ins/3.jpg","1","I guess there are interesting blue hues to this work","Sam,Mike,Ben,James,Ron,Kyle","I can feel a rainy day from this painting,18,240,20","enjoy the different shades of blue,22,200,20","This thing gives me anxiety,-41,60,20","My worst nightmare,-42,140,20","It looks depressing,-26,220,20","It looks like a playground for bats,-36,180,20","Mike","enjoy the different shades of blue,22,200,20","Sam","I can feel a rainy day from this painting,18,240,20","Kyle","It looks like a playground for bats,-36,180,20","2"
"6214","","image-button-response_instructions","42","275734","0.0-41.0","A2G7N0X0PNX0EE","","0","instructions","","","","","","","","","","","","","","","","","","","","","","","",""
"16769","","survey-likert","43","292504","0.0-42.0-0.0","A2G7N0X0PNX0EE","","","","{""Q0"":"""",""Q1"":0,""Q2"":1}","","","","","","","","","","","","","","","","","","","","","","",""
"3993","","survey-text","44","296502","0.0-43.0-0.0","A2G7N0X0PNX0EE","","","","{""Q0"":""rock""}","","","","","","","","","","","","","","","","","","","","","","",""
"16001","","survey-text","45","312503","0.0-44.0-0.0","A2G7N0X0PNX0EE","","","","{""Q0"":""This seems like a very detailed watercolor painting""}","","","","","","","","","","","","","","","","","","","","","","",""
"3262.800000000745","","image-slider-response","46","315768","0.0-45.0","A2G7N0X0PNX0EE","","","","","5","","","","","","","","","","","","","","","","","","","","","",""
"4146","","image-button-response","47","320789","0.0-46.0","A2G7N0X0PNX0EE","img_art/19.jpg","1","","","","","","","","","","","","","","","","","","","","","","","","",""
"727","","image-button-response","48","321520","0.0-47.0","A2G7N0X0PNX0EE","img_art/19.jpg","1","","","","","","","","","","","","","","","","","","","","","","","","",""
"3330","","image-button-response","49","324852","0.0-48.0-0.0","A2G7N0X0PNX0EE","img_art/19.jpg","5","","","","","","","","","","","","","","","","","","","","","","","","",""
"1884","","image-button-response","50","326738","0.0-49.0-0.0","A2G7N0X0PNX0EE","img_art/19.jpg","3","","","","","","","","","","","","","","","","","","","","","","","","",""
"null","","html-keyboard-response","51","327241","0.0-50.0","A2G7N0X0PNX0EE","<p style=""font-size: 48px;"">+</p>","","","","","null","allTrialResponses","500","1","1","img_art/19.jpg","5","This seems like a very detailed watercolor painting","Ryan,Gregory,Tyler,Jacob,Dylan,Devon","Its just a nice painting, nothing too special but nothing negative,25,380,20","Looks like a busy port,10,220,20","Seems unfinished and sloppy,-11,320,20","Vibrant and colorful,13,340,20","This photo has too much going on.,-19,40,20","this looks like a busy city lifestyle,24,400,20","Gregory","Looks like a busy port,10,220,20","Devon","this looks like a busy city lifestyle,24,400,20","Jacob","Vibrant and colorful,13,340,20","2"
"11543","","survey-text","52","338793","0.0-51.0-0.0","A2G7N0X0PNX0EE","","","","{""Q0"":""I can't really tell what I'm looking at. Is it a ship?""}","","","","","","","","","","","","","","","","","","","","","","",""
"6208.800000000745","","image-slider-response","53","345004","0.0-52.0","A2G7N0X0PNX0EE","","","","","-5","","","","","","","","","","","","","","","","","","","","","",""
"4612","","image-button-response","54","350007","0.0-53.0","A2G7N0X0PNX0EE","img_art/18.jpg","1","","","","","","","","","","","","","","","","","","","","","","","","",""
"468","","image-button-response","55","350480","0.0-54.0","A2G7N0X0PNX0EE","img_art/18.jpg","1","","","","","","","","","","","","","","","","","","","","","","","","",""
"6820","","image-button-response","56","357302","0.0-55.0-0.0","A2G7N0X0PNX0EE","img_art/18.jpg","4","","","","","","","","","","","","","","","","","","","","","","","","",""
"5786","","image-button-response","57","363090","0.0-56.0-0.0","A2G7N0X0PNX0EE","img_art/18.jpg","0","","","","","","","","","","","","","","","","","","","","","","","","",""
"null","","html-keyboard-response","58","364596","0.0-57.0","A2G7N0X0PNX0EE","<p style=""font-size: 48px;"">+</p>","","","","","null","allTrialResponses","1500","1","2","img_art/18.jpg","-5","I can't really tell what I'm looking at. Is it a ship?","Evan,Gregory,Luke,Jacob,Timothy,Devon","This brings to mind the four horsemen of the apocalypse,8,140,20","Mash up of colors and don't see a grander picture,-10,220,20","the harsh lines with the smooth lines makes me think of wild animals,20,20,20","I think this looks pretty cool, I can see what's kind of going on here.,22,340,20","This gives a very ominous feeling,-30,240,20","I really like this one - there seems to be a story behind it,32,400,20","Gregory","Mash up of colors and don't see a grander picture,-10,220,20","Timothy","This gives a very ominous feeling,-30,240,20","Evan","This brings to mind the four horsemen of the apocalypse,8,140,20","2"
"16033","","survey-text","59","380640","0.0-58.0-0.0","A2G7N0X0PNX0EE","","","","{""Q0"":""Too abstract for my tastes. Is it a bubble in a city?""}","","","","","","","","","","","","","","","","","","","","","","",""
"5888.70000000298","","image-slider-response","60","386530","0.0-59.0","A2G7N0X0PNX0EE","","","","","-10","","","","","","","","","","","","","","","","","","","","","",""
"null","","image-button-response","61","391535","0.0-60.0","A2G7N0X0PNX0EE","img_art/22.jpg","null","","","","","","","","","","","","","","","","","","","","","","","","",""
"2164","","image-button-response","62","393702","0.0-61.0","A2G7N0X0PNX0EE","img_art/22.jpg","2","","","","","","","","","","","","","","","","","","","","","","","","",""
"17172","","image-button-response","63","410876","0.0-62.0-0.0","A2G7N0X0PNX0EE","img_art/22.jpg","1","","","","","","","","","","","","","","","","","","","","","","","","",""
"4873","","image-button-response","64","415750","0.0-63.0-0.0","A2G7N0X0PNX0EE","img_art/22.jpg","0","","","","","","","","","","","","","","","","","","","","","","","","",""
"null","","html-keyboard-response","65","417257","0.0-64.0","A2G7N0X0PNX0EE","<p style=""font-size: 48px;"">+</p>","","","","","null","allTrialResponses","1500","1","3","img_art/22.jpg","-10","Too abstract for my tastes. Is it a bubble in a city?","Evan,Gregory,Kyle,Jack,Timothy,Anthony","I enjoy the vibrant colors,23,140,20","Like the mix of warm and cool colors,15,220,20","I appreciate the artistic effort but it's not for me,0,340,20","beautiful. love the bright colors & soft brush strokes, and the imprint of the key is genius.,50,320,20","This painting has a very nostalgic feel,20,240,20","Colors are subdued yet vibrant,30,200,20","Kyle","I appreciate the artistic effort but it's not for me,0,340,20","Gregory","Like the mix of warm and cool colors,15,220,20","Evan","I enjoy the vibrant colors,23,140,20","2"
"13227","","survey-text","66","430494","0.0-65.0-0.0","A2G7N0X0PNX0EE","","","","{""Q0"":""This looks like something a child scribbled on a piece of paper""}","","","","","","","","","","","","","","","","","","","","","","",""
"3184.400000002235","","image-slider-response","67","433679","0.0-66.0","A2G7N0X0PNX0EE","","","","","-33","","","","","","","","","","","","","","","","","","","","","",""
"null","","image-button-response","68","438692","0.0-67.0","A2G7N0X0PNX0EE","img_art/27.jpg","null","","","","","","","","","","","","","","","","","","","","","","","","",""
"863","","image-button-response","69","439562","0.0-68.0","A2G7N0X0PNX0EE","img_art/27.jpg","4","","","","","","","","","","","","","","","","","","","","","","","","",""
"3076","","image-button-response","70","442639","0.0-69.0-0.0","A2G7N0X0PNX0EE","img_art/27.jpg","0","","","","","","","","","","","","","","","","","","","","","","","","",""
"1702","","image-button-response","71","444344","0.0-70.0-0.0","A2G7N0X0PNX0EE","img_art/27.jpg","5","","","","","","","","","","","","","","","","","","","","","","","","",""
"null","","html-keyboard-response","72","445846","0.0-71.0","A2G7N0X0PNX0EE","<p style=""font-size: 48px;"">+</p>","","","","","null","allTrialResponses","1500","1","4","img_art/27.jpg","-33","This looks like something a child scribbled on a piece of paper","Evan,Gregory,Kyle,Derek,Patrick,Marcus","I am bothered by the green doodles,-20,140,20","Don't like the mix of green with the warmer colors,-15,220,20","I have no strong reactions to this,-1,340,20","I love the mood of this painting,30,360,20","Not cohesive design,-31,280,20","It's okay. Not really interesting to me.,-10,60,20","Patrick","Not cohesive design,-31,280,20","Evan","I am bothered by the green doodles,-20,140,20","Marcus","It's okay. Not really interesting to me.,-10,60,20","2"
"23761","","survey-text","73","469617","0.0-72.0-0.0","A2G7N0X0PNX0EE","","","","{""Q0"":""Looks like someone just flung paint at a wall with no real theme in mind""}","","","","","","","","","","","","","","","","","","","","","","",""
"2546.800000000745","","image-slider-response","74","472165","0.0-73.0","A2G7N0X0PNX0EE","","","","","-14","","","","","","","","","","","","","","","","","","","","","",""
"4583","","image-button-response","75","477168","0.0-74.0","A2G7N0X0PNX0EE","img_art/13.jpg","3","","","","","","","","","","","","","","","","","","","","","","","","",""
"786","","image-button-response","76","477958","0.0-75.0","A2G7N0X0PNX0EE","img_art/13.jpg","3","","","","","","","","","","","","","","","","","","","","","","","","",""
"7479","","image-button-response","77","485438","0.0-76.0-0.0","A2G7N0X0PNX0EE","img_art/13.jpg","5","","","","","","","","","","","","","","","","","","","","","","","","",""
"6338","","image-button-response","78","491778","0.0-77.0-0.0","A2G7N0X0PNX0EE","img_art/13.jpg","4","","","","","","","","","","","","","","","","","","","","","","","","",""
"null","","html-keyboard-response","79","493285","0.0-78.0","A2G7N0X0PNX0EE","<p style=""font-size: 48px;"">+</p>","","","","","null","allTrialResponses","1500","1","5","img_art/13.jpg","-14","Looks like someone just flung paint at a wall with no real theme in mind","Evan,Stephen,Malik,Steven,Patrick,Marcus","It reminds me of looking out the window on a stormy night at cars drive by,21,140,20","Like how realistic it looks.,33,140,20","Gorgeous contrast and color choice, very pleasing,50,40,20","It's just paint splatter, no real meaning to me,-50,160,20","I love the different blue shades,31,280,20","It's okay. Feels like a blander take on a Jackson Pollack,11,60,20","Steven","It's just paint splatter, no real meaning to me,-50,160,20","Marcus","It's okay. Feels like a blander take on a Jackson Pollack,11,60,20","Patrick","I love the different blue shades,31,280,20","2"
"3768","","survey-text","80","497072","0.0-79.0-0.0","A2G7N0X0PNX0EE","","","","{""Q0"":""sky""}","","","","","","","","","","","","","","","","","","","","","","",""
"15148","","survey-text","81","512222","0.0-80.0-0.0","A2G7N0X0PNX0EE","","","","{""Q0"":""Is it a tree? I can kind of make something out from the image""}","","","","","","","","","","","","","","","","","","","","","","",""
"2414.900000002235","","image-slider-response","82","514638","0.0-81.0","A2G7N0X0PNX0EE","","","","","3","","","","","","","","","","","","","","","","","","","","","",""
"null","","image-button-response","83","519655","0.0-82.0","A2G7N0X0PNX0EE","img_art/14.jpg","null","","","","","","","","","","","","","","","","","","","","","","","","",""
"1771","","image-button-response","84","521430","0.0-83.0","A2G7N0X0PNX0EE","img_art/14.jpg","3","","","","","","","","","","","","","","","","","","","","","","","","",""
"3952","","image-button-response","85","525384","0.0-84.0-0.0","A2G7N0X0PNX0EE","img_art/14.jpg","2","","","","","","","","","","","","","","","","","","","","","","","","",""
"3564","","image-button-response","86","528950","0.0-85.0-0.0","A2G7N0X0PNX0EE","img_art/14.jpg","5","","","","","","","","","","","","","","","","","","","","","","","","",""
"null","","html-keyboard-response","87","530453","0.0-86.0","A2G7N0X0PNX0EE","<p style=""font-size: 48px;"">+</p>","","","","","null","allTrialResponses","1500","1","6","img_art/14.jpg","3","Is it a tree? I can kind of make something out from the image","Logan,Jordan,Nathaniel,Steven,Patrick,Marcus","I dont really vibe with the grayish color palette,-7,360,20","Reminds me of art class,22,160,20","Not quite the style I'd like, but it does have a certain air of emptiness.,12,220,20","this one isn't bad, reminds me a tree that gives life, and people are waiting for someone new to be born,27,160,20","It uplifts my mood due to the color scheme,32,280,20","I like the colors and the shapes are interesting,11,60,20","Steven","this one isn't bad, reminds me a tree that gives life, and people are waiting for someone new to be born,27,160,20","Nathaniel","Not quite the style I'd like, but it does have a certain air of emptiness.,12,220,20","Marcus","I like the colors and the shapes are interesting,11,60,20","2"
"13666","","survey-text","88","544130","0.0-87.0-0.0","A2G7N0X0PNX0EE","","","","{""Q0"":""It just looks like an abstract mass""}","","","","","","","","","","","","","","","","","","","","","","",""
"2274.699999999255","","image-slider-response","89","546405","0.0-88.0","A2G7N0X0PNX0EE","","","","","-40","","","","","","","","","","","","","","","","","","","","","",""
"null","","image-button-response","90","551411","0.0-89.0","A2G7N0X0PNX0EE","img_art/2.jpg","null","","","","","","","","","","","","","","","","","","","","","","","","",""
"5430","","image-button-response","91","556843","0.0-90.0","A2G7N0X0PNX0EE","img_art/2.jpg","2","","","","","","","","","","","","","","","","","","","","","","","","",""
"841","","image-button-response","92","557685","0.0-91.0-0.0","A2G7N0X0PNX0EE","img_art/2.jpg","1","","","","","","","","","","","","","","","","","","","","","","","","",""
"6597","","image-button-response","93","564283","0.0-92.0-0.0","A2G7N0X0PNX0EE","img_art/2.jpg","0","","","","","","","","","","","","","","","","","","","","","","","","",""
"null","","html-keyboard-response","94","565288","0.0-93.0","A2G7N0X0PNX0EE","<p style=""font-size: 48px;"">+</p>","","","","","null","allTrialResponses","1000","1","7","img_art/2.jpg","-40","It just looks like an abstract mass","Blake,Devin,Nathaniel,Steven,Ian,Marcus","ugly green color and makes me sick,-29,280,20","I don't really like this style,-5,380,20","Too gloopy and unfocused,-38,220,20","I can't get past the fact that it looks like someone wearing a mask,-46,160,20","I don't really like this but at the same time it's cute. It looks like a little monster kid.,-9,260,20","Only like the blues and teals in this. The rest is unappealing.,-15,60,20","Nathaniel","Too gloopy and unfocused,-38,220,20","Devin","I don't really like this style,-5,380,20","Blake","ugly green color and makes me sick,-29,280,20","2"
"22342","","survey-text","95","587641","0.0-94.0-0.0","A2G7N0X0PNX0EE","","","","{""Q0"":""It's uninspired and meaningless""}","","","","","","","","","","","","","","","","","","","","","","",""
"3092.699999999255","","image-slider-response","96","590735","0.0-95.0","A2G7N0X0PNX0EE","","","","","-35","","","","","","","","","","","","","","","","","","","","","",""
"null","","image-button-response","97","595748","0.0-96.0","A2G7N0X0PNX0EE","img_art/30.jpg","null","","","","","","","","","","","","","","","","","","","","","","","","",""
"1045","","image-button-response","98","596795","0.0-97.0","A2G7N0X0PNX0EE","img_art/30.jpg","1","","","","","","","","","","","","","","","","","","","","","","","","",""
"2143","","image-button-response","99","598939","0.0-98.0-0.0","A2G7N0X0PNX0EE","img_art/30.jpg","4","","","","","","","","","","","","","","","","","","","","","","","","",""
"1761","","image-button-response","100","600701","0.0-99.0-0.0","A2G7N0X0PNX0EE","img_art/30.jpg","0","","","","","","","","","","","","","","","","","","","","","","","","",""
"null","","html-keyboard-response","101","601203","0.0-100.0","A2G7N0X0PNX0EE","<p style=""font-size: 48px;"">+</p>","","","","","null","allTrialResponses","500","1","8","img_art/30.jpg","-35","It's uninspired and meaningless","Blake,Devin,Nathaniel,Seth,Corey,Grant","snakes in the grass, I don't like it,-17,280,20","A bit haphazard looking and lacking in vision,2,380,20","No my favorite, but I do like the long strokes of color,11,220,20","I love the color contrast of the red against the blue.,9,60,20","I dont like the colors whatsoever,-15,260,20","The brush strokes are appealing, and make me want to look at this longer.,11,200,20","Devin","A bit haphazard looking and lacking in vision,2,380,20","Corey","I dont like the colors whatsoever,-15,260,20","Blake","snakes in the grass, I don't like it,-17,280,20","2"
"14368","","survey-text","102","615582","0.0-101.0-0.0","A2G7N0X0PNX0EE","","","","{""Q0"":""Looks like a truck collided with a space ship for some reason""}","","","","","","","","","","","","","","","","","","","","","","",""
"2794.800000000745","","image-slider-response","103","618378","0.0-102.0","A2G7N0X0PNX0EE","","","","","-3","","","","","","","","","","","","","","","","","","","","","",""
"null","","image-button-response","104","623387","0.0-103.0","A2G7N0X0PNX0EE","img_art/20.jpg","null","","","","","","","","","","","","","","","","","","","","","","","","",""
"2385","","image-button-response","105","625776","0.0-104.0","A2G7N0X0PNX0EE","img_art/20.jpg","1","","","","","","","","","","","","","","","","","","","","","","","","",""
"4866","","image-button-response","106","630644","0.0-105.0-0.0","A2G7N0X0PNX0EE","img_art/20.jpg","2","","","","","","","","","","","","","","","","","","","","","","","","",""
"5258","","image-button-response","107","635904","0.0-106.0-0.0","A2G7N0X0PNX0EE","img_art/20.jpg","3","","","","","","","","","","","","","","","","","","","","","","","","",""
"null","","html-keyboard-response","108","636906","0.0-107.0","A2G7N0X0PNX0EE","<p style=""font-size: 48px;"">+</p>","","","","","null","allTrialResponses","1000","1","9","img_art/20.jpg","-3","Looks like a truck collided with a space ship for some reason","Blake,Devin,Shawn,Charles,Corey,Tristan","reminds me of a dead animal in the west. ugly,-25,280,20","Looks somewhat dark and emotional,-10,380,20","Mood setting if a little dreary,20,100,20","Something bad has happened TO reality,-23,100,20","It seems to be a neutral cool toned art piece. Gives me alamo/desert vibes,2,260,20","Elements that are more defined are incongruous to the soft and melting nature of this painting,5,300,20","Devin","Looks somewhat dark and emotional,-10,380,20","Shawn","Mood setting if a little dreary,20,100,20","Charles","Something bad has happened TO reality,-23,100,20","2"
"14157","","survey-text","109","651074","0.0-108.0-0.0","A2G7N0X0PNX0EE","","","","{""Q0"":""Looks like a birds-eye view of a dirt track""}","","","","","","","","","","","","","","","","","","","","","","",""
"3246.800000000745","","image-slider-response","110","654322","0.0-109.0","A2G7N0X0PNX0EE","","","","","-19","","","","","","","","","","","","","","","","","","","","","",""
"null","","image-button-response","111","659327","0.0-110.0","A2G7N0X0PNX0EE","img_art/10.jpg","null","","","","","","","","","","","","","","","","","","","","","","","","",""
"3483","","image-button-response","112","662812","0.0-111.0","A2G7N0X0PNX0EE","img_art/10.jpg","1","","","","","","","","","","","","","","","","","","","","","","","","",""
"2140","","image-button-response","113","664954","0.0-112.0-0.0","A2G7N0X0PNX0EE","img_art/10.jpg","0","","","","","","","","","","","","","","","","","","","","","","","","",""
"2482","","image-button-response","114","667438","0.0-113.0-0.0","A2G7N0X0PNX0EE","img_art/10.jpg","3","","","","","","","","","","","","","","","","","","","","","","","","",""
"null","","html-keyboard-response","115","668958","0.0-114.0","A2G7N0X0PNX0EE","<p style=""font-size: 48px;"">+</p>","","","","","null","allTrialResponses","1500","1","10","img_art/10.jpg","-19","Looks like a birds-eye view of a dirt track","David,Devin,Shawn,Charles,Adam,Jeffrey","I can't really tell what this is suppose to represent, but overall I don't like the design.,-20,340,20","Looks a bit as though someone ran over it?,-13,380,20","Don't like the colorblock but the lines are nice,-20,100,20","Also too all over the place, I don't see any pattern or anything that's supposed to stand out,-19,100,20","I like the contrast,10,40,20","Relaxing; a lot of going on but colours make it easy to look at,20,40,20","Devin","Looks a bit as though someone ran over it?,-13,380,20","David","I can't really tell what this is suppose to represent, but overall I don't like the design.,-20,340,20","Charles","Also too all over the place, I don't see any pattern or anything that's supposed to stand out,-19,100,20","2"
"4176","","survey-text","116","673152","0.0-115.0-0.0","A2G7N0X0PNX0EE","","","","{""Q0"":""our""}","","","","","","","","","","","","","","","","","","","","","","",""
"30915","","survey-text","117","704068","0.0-116.0-0.0","A2G7N0X0PNX0EE","","","","{""Q0"":""Too abstract and meaningless to me. Maybe I'm just not suited for art""}","","","","","","","","","","","","","","","","","","","","","","",""
"3686.89999999851","","image-slider-response","118","707756","0.0-117.0","A2G7N0X0PNX0EE","","","","","-33","","","","","","","","","","","","","","","","","","","","","",""
"null","","image-button-response","119","712758","0.0-118.0","A2G7N0X0PNX0EE","img_art/21.jpg","null","","","","","","","","","","","","","","","","","","","","","","","","",""
"1379","","image-button-response","120","714140","0.0-119.0","A2G7N0X0PNX0EE","img_art/21.jpg","5","","","","","","","","","","","","","","","","","","","","","","","","",""
"1142","","image-button-response","121","715284","0.0-120.0-0.0","A2G7N0X0PNX0EE","img_art/21.jpg","3","","","","","","","","","","","","","","","","","","","","","","","","",""
"5184","","image-button-response","122","720470","0.0-121.0-0.0","A2G7N0X0PNX0EE","img_art/21.jpg","4","","","","","","","","","","","","","","","","","","","","","","","","",""
"null","","html-keyboard-response","123","721971","0.0-122.0","A2G7N0X0PNX0EE","<p style=""font-size: 48px;"">+</p>","","","","","null","allTrialResponses","1500","1","11","img_art/21.jpg","-33","Too abstract and meaningless to me. Maybe I'm just not suited for art","David,Devin,Gabriel,Charles,Edward,Bryce","I like how the piece has the possibility of depicting some type of story.,30,340,20","Evokes a strong colorful sense,8,380,20","i like watercolor,22,160,20","Another swathe of ocean,31,100,20","I love how vague it is but how you can imagine a story anyway, like clouds,45,60,20","Nothing exciting in this one.,-36,20,20","Bryce","Nothing exciting in this one.,-36,20,20","Charles","Another swathe of ocean,31,100,20","Edward","I love how vague it is but how you can imagine a story anyway, like clouds,45,60,20","2"
"16215","","survey-text","124","738197","0.0-123.0-0.0","A2G7N0X0PNX0EE","","","","{""Q0"":""I'm sure children could do a better job of depicting a person""}","","","","","","","","","","","","","","","","","","","","","","",""
"3524.800000000745","","image-slider-response","125","741723","0.0-124.0","A2G7N0X0PNX0EE","","","","","-37","","","","","","","","","","","","","","","","","","","","","",""
"null","","image-button-response","126","746725","0.0-125.0","A2G7N0X0PNX0EE","img_art/25.jpg","null","","","","","","","","","","","","","","","","","","","","","","","","",""
"3575","","image-button-response","127","750304","0.0-126.0","A2G7N0X0PNX0EE","img_art/25.jpg","3","","","","","","","","","","","","","","","","","","","","","","","","",""
"2070","","image-button-response","128","752376","0.0-127.0-0.0","A2G7N0X0PNX0EE","img_art/25.jpg","4","","","","","","","","","","","","","","","","","","","","","","","","",""
"1178","","image-button-response","129","753556","0.0-128.0-0.0","A2G7N0X0PNX0EE","img_art/25.jpg","5","","","","","","","","","","","","","","","","","","","","","","","","",""
"null","","html-keyboard-response","130","754057","0.0-129.0","A2G7N0X0PNX0EE","<p style=""font-size: 48px;"">+</p>","","","","","null","allTrialResponses","500","1","12","img_art/25.jpg","-37","I'm sure children could do a better job of depicting a person","Shane,Alexander,Benjamin,Charles,Edward,Bryce","I love the green and the figure is black but the green makes it pop,29,80,20","Ancient gods above you.,20,120,20","Regal. Reminds me of Egyptian art.,11,260,20","Cult-like, which to me makes it kind of creepy,-21,100,20","It looks like people worshipping a statue,33,60,20","I LOVE fhe scary skeleton.,28,20,20","Charles","Cult-like, which to me makes it kind of creepy,-21,100,20","Edward","It looks like people worshipping a statue,33,60,20","Bryce","I LOVE fhe scary skeleton.,28,20,20","2"
"14501","","survey-text","131","768565","0.0-130.0-0.0","A2G7N0X0PNX0EE","","","","{""Q0"":""Did someone just take a picture of the ground and try to pass it off as art?""}","","","","","","","","","","","","","","","","","","","","","","",""
"4437","","image-slider-response","132","773004","0.0-131.0","A2G7N0X0PNX0EE","","","","","-15","","","","","","","","","","","","","","","","","","","","","",""
"null","","image-button-response","133","778006","0.0-132.0","A2G7N0X0PNX0EE","img_art/7.jpg","null","","","","","","","","","","","","","","","","","","","","","","","","",""
"3718","","image-button-response","134","781728","0.0-133.0","A2G7N0X0PNX0EE","img_art/7.jpg","3","","","","","","","","","","","","","","","","","","","","","","","","",""
"1198","","image-button-response","135","782928","0.0-134.0-0.0","A2G7N0X0PNX0EE","img_art/7.jpg","1","","","","","","","","","","","","","","","","","","","","","","","","",""
"1588","","image-button-response","136","784518","0.0-135.0-0.0","A2G7N0X0PNX0EE","img_art/7.jpg","2","","","","","","","","","","","","","","","","","","","","","","","","",""
"null","","html-keyboard-response","137","786033","0.0-136.0","A2G7N0X0PNX0EE","<p style=""font-size: 48px;"">+</p>","","","","","null","allTrialResponses","1500","1","13","img_art/7.jpg","-15","Did someone just take a picture of the ground and try to pass it off as art?","Spencer,Brendan,Jonathan,Charles,Edward,Bryce","I love it, it looks like a landscape photograph in desert or rocky mountain,50,120,20","some rocks on a mars?,7,340,20","Looks like the surface of mars,29,140,20","Looks like a bad picture of a beach,-21,100,20","It looks like maybe some seeds?,14,60,20","I love the texture.,20,20,20","Charles","Looks like a bad picture of a beach,-21,100,20","Brendan","some rocks on a mars?,7,340,20","Jonathan","Looks like the surface of mars,29,140,20","2"
"13451","","survey-text","138","799496","0.0-137.0-0.0","A2G7N0X0PNX0EE","","","","{""Q0"":""Looks like a decent watercolor of an urban setting""}","","","","","","","","","","","","","","","","","","","","","","",""
"2106.60000000149","","image-slider-response","139","801604","0.0-138.0","A2G7N0X0PNX0EE","","","","","5","","","","","","","","","","","","","","","","","","","","","",""
"null","","image-button-response","140","806620","0.0-139.0","A2G7N0X0PNX0EE","img_art/26.jpg","null","","","","","","","","","","","","","","","","","","","","","","","","",""
"6123","","image-button-response","141","812746","0.0-140.0","A2G7N0X0PNX0EE","img_art/26.jpg","0","","","","","","","","","","","","","","","","","","","","","","","","",""
"2026","","image-button-response","142","814774","0.0-141.0-0.0","A2G7N0X0PNX0EE","img_art/26.jpg","1","","","","","","","","","","","","","","","","","","","","","","","","",""
"512","","image-button-response","143","815288","0.0-142.0-0.0","A2G7N0X0PNX0EE","img_art/26.jpg","2","","","","","","","","","","","","","","","","","","","","","","","","",""
"null","","html-keyboard-response","144","816799","0.0-143.0","A2G7N0X0PNX0EE","<p style=""font-size: 48px;"">+</p>","","","","","null","allTrialResponses","1500","1","14","img_art/26.jpg","5","Looks like a decent watercolor of an urban setting","Zachary,Brendan,Jonathan,Charles,Isaac,Cody","Pretty trees and bushes around fancy brown stones. I like the soft nature.,20,400,20","cool cozy town vibes,50,340,20","It's relaxing to look at but I wish it was just a little more defined,20,140,20","It looks like I'm staring out of the window of a nice house, but the house is mine,20,100,20","I wish it were more pastel but I think it is relaxing to look at.,30,280,20","Looks unfinished,-31,180,20","Zachary","Pretty trees and bushes around fancy brown stones. I like the soft nature.,20,400,20","Brendan","cool cozy town vibes,50,340,20","Jonathan","It's relaxing to look at but I wish it was just a little more defined,20,140,20","2"
"11398","","survey-text","145","828210","0.0-144.0-0.0","A2G7N0X0PNX0EE","","","","{""Q0"":""The plush bear looks out of place""}","","","","","","","","","","","","","","","","","","","","","","",""
"2376.800000000745","","image-slider-response","146","830588","0.0-145.0","A2G7N0X0PNX0EE","","","","","-3","","","","","","","","","","","","","","","","","","","","","",""
"null","","image-button-response","147","835590","0.0-146.0","A2G7N0X0PNX0EE","img_art/16.jpg","null","","","","","","","","","","","","","","","","","","","","","","","","",""
"5079","","image-button-response","148","840672","0.0-147.0","A2G7N0X0PNX0EE","img_art/16.jpg","1","","","","","","","","","","","","","","","","","","","","","","","","",""
"3972","","image-button-response","149","844646","0.0-148.0-0.0","A2G7N0X0PNX0EE","img_art/16.jpg","5","","","","","","","","","","","","","","","","","","","","","","","","",""
"816","","image-button-response","150","845464","0.0-149.0-0.0","A2G7N0X0PNX0EE","img_art/16.jpg","4","","","","","","","","","","","","","","","","","","","","","","","","",""
"null","","html-keyboard-response","151","846965","0.0-150.0","A2G7N0X0PNX0EE","<p style=""font-size: 48px;"">+</p>","","","","","null","allTrialResponses","1500","1","15","img_art/16.jpg","-3","The plush bear looks out of place","Zachary,Brendan,Jonathan,Elijah,John,Sean","Not pleasing to the eyes. I do like that the gun is broken though.,-28,400,20","cool teddy bear,50,340,20","It's a little anxiety inducing in a good way,16,140,20","The bear is terrifying,-50,80,20","It creeps me out.,-50,120,20","my reaction is that the picture is creepy,-19,40,20","Brendan","cool teddy bear,50,340,20","Sean","my reaction is that the picture is creepy,-19,40,20","John","It creeps me out.,-50,120,20","2"
"3894","","survey-text","152","850881","0.0-151.0-0.0","A2G7N0X0PNX0EE","","","","{""Q0"":""course""}","","","","","","","","","","","","","","","","","","","","","","",""
"12759","","survey-text","153","863641","0.0-152.0-0.0","A2G7N0X0PNX0EE","","","","{""Q0"":""Is it a waterfall? It looks interesting at least""}","","","","","","","","","","","","","","","","","","","","","","",""
"2412.599999997765","","image-slider-response","154","866055","0.0-153.0","A2G7N0X0PNX0EE","","","","","2","","","","","","","","","","","","","","","","","","","","","",""
"4425","","image-button-response","155","871057","0.0-154.0","A2G7N0X0PNX0EE","img_art/24.jpg","2","","","","","","","","","","","","","","","","","","","","","","","","",""
"131","","image-button-response","156","871190","0.0-155.0","A2G7N0X0PNX0EE","img_art/24.jpg","2","","","","","","","","","","","","","","","","","","","","","","","","",""
"2948","","image-button-response","157","874140","0.0-156.0-0.0","A2G7N0X0PNX0EE","img_art/24.jpg","3","","","","","","","","","","","","","","","","","","","","","","","","",""
"2400","","image-button-response","158","876542","0.0-157.0-0.0","A2G7N0X0PNX0EE","img_art/24.jpg","5","","","","","","","","","","","","","","","","","","","","","","","","",""
"null","","html-keyboard-response","159","877554","0.0-158.0","A2G7N0X0PNX0EE","<p style=""font-size: 48px;"">+</p>","","","","","null","allTrialResponses","1000","1","16","img_art/24.jpg","2","Is it a waterfall? It looks interesting at least","Victor,Brendan,Alex,Chase,John,Sean","I don't even know. It's just kind of meh,1,340,20","lovely forest vibes,36,340,20","Looks like a waterfall or a brook, the colors are very nice,15,100,20","This one isn't that abstract. It clearly looks like a waterfall.,31,120,20","Beautiful.Nice use of colors and invokes feelings of serene and peace,40,120,20","I like the waterfall,22,40,20","Alex","Looks like a waterfall or a brook, the colors are very nice,15,100,20","Chase","This one isn't that abstract. It clearly looks like a waterfall.,31,120,20","Sean","I like the waterfall,22,40,20","2"
"25327","","survey-text","160","902893","0.0-159.0-0.0","A2G7N0X0PNX0EE","","","","{""Q0"":""I thought it was an urban setting until I saw the face""}","","","","","","","","","","","","","","","","","","","","","","",""
"2442.89999999851","","image-slider-response","161","905337","0.0-160.0","A2G7N0X0PNX0EE","","","","","-9","","","","","","","","","","","","","","","","","","","","","",""
"null","","image-button-response","162","910347","0.0-161.0","A2G7N0X0PNX0EE","img_art/8.jpg","null","","","","","","","","","","","","","","","","","","","","","","","","",""
"1346","","image-button-response","163","911695","0.0-162.0","A2G7N0X0PNX0EE","img_art/8.jpg","0","","","","","","","","","","","","","","","","","","","","","","","","",""
"3697","","image-button-response","164","915393","0.0-163.0-0.0","A2G7N0X0PNX0EE","img_art/8.jpg","2","","","","","","","","","","","","","","","","","","","","","","","","",""
"11257","","image-button-response","165","926651","0.0-164.0-0.0","A2G7N0X0PNX0EE","img_art/8.jpg","5","","","","","","","","","","","","","","","","","","","","","","","","",""
"null","","html-keyboard-response","166","928154","0.0-165.0","A2G7N0X0PNX0EE","<p style=""font-size: 48px;"">+</p>","","","","","null","allTrialResponses","1500","1","17","img_art/8.jpg","-9","I thought it was an urban setting until I saw the face","Garrett,Aaron,Alex,Chase,Andrew,Sean","I like that it looks like a city and the way the shapes and colors are put together,40,180,20","The shapes and colors work well together.,40,20,20","I appreciate the complexity of this piece but it's too cubist for me,3,100,20","This is kind of neat. I really like how things are oriented and the shapes used.,18,120,20","Looks like it would be an interesting place to live,35,160,20","looks nice, like the details,25,40,20","Garrett","I like that it looks like a city and the way the shapes and colors are put together,40,180,20","Alex","I appreciate the complexity of this piece but it's too cubist for me,3,100,20","Sean","looks nice, like the details,25,40,20","2"
"13997","","survey-text","167","942163","0.0-166.0-0.0","A2G7N0X0PNX0EE","","","","{""Q0"":""Someone likes the color red a little too much""}","","","","","","","","","","","","","","","","","","","","","","",""
"2216.699999999255","","image-slider-response","168","944381","0.0-167.0","A2G7N0X0PNX0EE","","","","","-44","","","","","","","","","","","","","","","","","","","","","",""
"null","","image-button-response","169","949396","0.0-168.0","A2G7N0X0PNX0EE","img_art/3.jpg","null","","","","","","","","","","","","","","","","","","","","","","","","",""
"12475","","image-button-response","170","961873","0.0-169.0","A2G7N0X0PNX0EE","img_art/3.jpg","5","","","","","","","","","","","","","","","","","","","","","","","","",""
"6371","","image-button-response","171","968246","0.0-170.0-0.0","A2G7N0X0PNX0EE","img_art/3.jpg","1","","","","","","","","","","","","","","","","","","","","","","","","",""
"964","","image-button-response","172","969212","0.0-171.0-0.0","A2G7N0X0PNX0EE","img_art/3.jpg","3","","","","","","","","","","","","","","","","","","","","","","","","",""
"null","","html-keyboard-response","173","969732","0.0-172.0","A2G7N0X0PNX0EE","<p style=""font-size: 48px;"">+</p>","","","","","null","allTrialResponses","500","1","18","img_art/3.jpg","-44","Someone likes the color red a little too much","Garrett,Christopher,Alex,Noah,Joseph,Sean","I can't tell what this image is supposed to be it looks extremely ugly and color variety is boring.,-50,180,20","the red is impactful but the work overall doesn't say anything to me,-8,160,20","Ok, just a bunch of red lines and a grey smudge. Would pass this right by in a gallery,-12,100,20","I struggle to see the art,-20,260,20","Really have no idea what I'm looking at.,1,220,20","my response to the picture is a lot of red, danger,,-21,40,20","Sean","my response to the picture is a lot of red, danger,,-21,40,20","Christopher","the red is impactful but the work overall doesn't say anything to me,-8,160,20","Noah","I struggle to see the art,-20,260,20","2"
"22549","","survey-text","174","992294","0.0-173.0-0.0","A2G7N0X0PNX0EE","","","","{""Q0"":""I can't tell what I'm looking at here""}","","","","","","","","","","","","","","","","","","","","","","",""
"2526.89999999851","","image-slider-response","175","994822","0.0-174.0","A2G7N0X0PNX0EE","","","","","-46","","","","","","","","","","","","","","","","","","","","","",""
"4230","","image-button-response","176","999832","0.0-175.0","A2G7N0X0PNX0EE","img_art/4.jpg","2","","","","","","","","","","","","","","","","","","","","","","","","",""
"1598","","image-button-response","177","1001434","0.0-176.0","A2G7N0X0PNX0EE","img_art/4.jpg","2","","","","","","","","","","","","","","","","","","","","","","","","",""
"1702","","image-button-response","178","1003138","0.0-177.0-0.0","A2G7N0X0PNX0EE","img_art/4.jpg","5","","","","","","","","","","","","","","","","","","","","","","","","",""
"1948","","image-button-response","179","1005088","0.0-178.0-0.0","A2G7N0X0PNX0EE","img_art/4.jpg","1","","","","","","","","","","","","","","","","","","","","","","","","",""
"null","","html-keyboard-response","180","1006105","0.0-179.0","A2G7N0X0PNX0EE","<p style=""font-size: 48px;"">+</p>","","","","","null","allTrialResponses","1000","1","19","img_art/4.jpg","-46","I can't tell what I'm looking at here","Daniel,Christopher,Travis,Noah,Eric,Sean","Better version of a 7 year old who got lucky,-23,320,20","too many red/yellow shades, its impact without a reason,-27,160,20","I don't like this...a mustardy scibble.,-47,260,20","no strong feelings about this one,2,260,20","This piece catches my eye, but it's strange to me.,10,100,20","dont know what im looking at,1,40,20","Travis","I don't like this...a mustardy scibble.,-47,260,20","Sean","dont know what im looking at,1,40,20","Christopher","too many red/yellow shades, its impact without a reason,-27,160,20","2"
"11980","","survey-text","181","1018098","0.0-180.0-0.0","A2G7N0X0PNX0EE","","","","{""Q0"":""Is this supposed to represent something?""}","","","","","","","","","","","","","","","","","","","","","","",""
"2476.60000000149","","image-slider-response","182","1020575","0.0-181.0","A2G7N0X0PNX0EE","","","","","-46","","","","","","","","","","","","","","","","","","","","","",""
"4335","","image-button-response","183","1025579","0.0-182.0","A2G7N0X0PNX0EE","img_art/5.jpg","1","","","","","","","","","","","","","","","","","","","","","","","","",""
"382","","image-button-response","184","1025964","0.0-183.0","A2G7N0X0PNX0EE","img_art/5.jpg","1","","","","","","","","","","","","","","","","","","","","","","","","",""
"432","","image-button-response","185","1026398","0.0-184.0-0.0","A2G7N0X0PNX0EE","img_art/5.jpg","0","","","","","","","","","","","","","","","","","","","","","","","","",""
"546","","image-button-response","186","1026946","0.0-185.0-0.0","A2G7N0X0PNX0EE","img_art/5.jpg","2","","","","","","","","","","","","","","","","","","","","","","","","",""
"null","","html-keyboard-response","187","1027954","0.0-186.0","A2G7N0X0PNX0EE","<p style=""font-size: 48px;"">+</p>","","","","","null","allTrialResponses","1000","1","20","img_art/5.jpg","-46","Is this supposed to represent something?","Luis,Christopher,Travis,Cole,Michael,Sean","Very messy and not a lot of thought,-29,400,20","looks very childish,-35,160,20","This was awful and it looked like someone took minimul effort with it... no time at all.,-49,260,20","It looks like a poorly drawn pear,17,200,20","Complete garbage. Looks like a kid drew it.,-50,140,20","the picture looks ok,8,40,20","Christopher","looks very childish,-35,160,20","Luis","Very messy and not a lot of thought,-29,400,20","Travis","This was awful and it looked like someone took minimul effort with it... no time at all.,-49,260,20","2"
"2327","","survey-text","188","1030304","0.0-187.0-0.0","A2G7N0X0PNX0EE","","","","{""Q0"":""we""}","","","","","","","","","","","","","","","","","","","","","","",""
"10046","","survey-text","189","1040352","0.0-188.0-0.0","A2G7N0X0PNX0EE","","","","{""Q0"":""Looks a bit like a railway in a city""}","","","","","","","","","","","","","","","","","","","","","","",""
"2052.800000000745","","image-slider-response","190","1042406","0.0-189.0","A2G7N0X0PNX0EE","","","","","4","","","","","","","","","","","","","","","","","","","","","",""
"null","","image-button-response","191","1047423","0.0-190.0","A2G7N0X0PNX0EE","img_art/11.jpg","null","","","","","","","","","","","","","","","","","","","","","","","","",""
"3182","","image-button-response","192","1050608","0.0-191.0","A2G7N0X0PNX0EE","img_art/11.jpg","0","","","","","","","","","","","","","","","","","","","","","","","","",""
"2132","","image-button-response","193","1052742","0.0-192.0-0.0","A2G7N0X0PNX0EE","img_art/11.jpg","2","","","","","","","","","","","","","","","","","","","","","","","","",""
"930","","image-button-response","194","1053674","0.0-193.0-0.0","A2G7N0X0PNX0EE","img_art/11.jpg","5","","","","","","","","","","","","","","","","","","","","","","","","",""
"null","","html-keyboard-response","195","1054676","0.0-194.0","A2G7N0X0PNX0EE","<p style=""font-size: 48px;"">+</p>","","","","","null","allTrialResponses","1000","1","21","img_art/11.jpg","4","Looks a bit like a railway in a city","Luis,Christopher,Travis,Joshua,Austin,Juan","I love the city chaos from this,50,400,20","i like the gray tones with black lines and bits of color,23,160,20","I liked it it looked like an roller coasters at an amusment park.,16,260,20","Is interesting. Wouldn't bother me to have this hanging where I'd see it every day.,11,240,20","Very unique piece of art,50,240,20","It makes me think of a rainy day and I like the colors. Also like the wavy lines.,22,260,20","Luis","I love the city chaos from this,50,400,20","Travis","I liked it it looked like an roller coasters at an amusment park.,16,260,20","Juan","It makes me think of a rainy day and I like the colors. Also like the wavy lines.,22,260,20","2"
"22232","","survey-text","196","1076924","0.0-195.0-0.0","A2G7N0X0PNX0EE","","","","{""Q0"":""It looks like someone just dropped art supplies on the floor""}","","","","","","","","","","","","","","","","","","","","","","",""
"2371","","image-slider-response","197","1079296","0.0-196.0","A2G7N0X0PNX0EE","","","","","-26","","","","","","","","","","","","","","","","","","","","","",""
"null","","image-button-response","198","1084302","0.0-197.0","A2G7N0X0PNX0EE","img_art/29.jpg","null","","","","","","","","","","","","","","","","","","","","","","","","",""
"1485","","image-button-response","199","1085790","0.0-198.0","A2G7N0X0PNX0EE","img_art/29.jpg","3","","","","","","","","","","","","","","","","","","","","","","","","",""
"876","","image-button-response","200","1086668","0.0-199.0-0.0","A2G7N0X0PNX0EE","img_art/29.jpg","4","","","","","","","","","","","","","","","","","","","","","","","","",""
"844","","image-button-response","201","1087514","0.0-200.0-0.0","A2G7N0X0PNX0EE","img_art/29.jpg","5","","","","","","","","","","","","","","","","","","","","","","","","",""
"null","","html-keyboard-response","202","1088017","0.0-201.0","A2G7N0X0PNX0EE","<p style=""font-size: 48px;"">+</p>","","","","","null","allTrialResponses","500","1","22","img_art/29.jpg","-26","It looks like someone just dropped art supplies on the floor","Luis,Matthew,Travis,Kenneth,Antonio,Juan","I love the representation of a mess,50,400,20","It that an actual PAINTBUSH! Love it.,50,120,20","Neural...just a blackboard jungle.,3,260,20","Too much going on, and I don't like the colors. It looks like a crime scene.,-50,300,20","Depressing and with that big red x on it just makes me not like it.,-33,220,20","I hate the red x over everything, hate the black hate how hopeless this is.,-50,260,20","Kenneth","Too much going on, and I don't like the colors. It looks like a crime scene.,-50,300,20","Antonio","Depressing and with that big red x on it just makes me not like it.,-33,220,20","Juan","I hate the red x over everything, hate the black hate how hopeless this is.,-50,260,20","2"
"12569","","survey-text","203","1100600","0.0-202.0-0.0","A2G7N0X0PNX0EE","","","","{""Q0"":""What are the black dots supposed to represent?""}","","","","","","","","","","","","","","","","","","","","","","",""
"2102.800000000745","","image-slider-response","204","1102704","0.0-203.0","A2G7N0X0PNX0EE","","","","","-13","","","","","","","","","","","","","","","","","","","","","",""
"null","","image-button-response","205","1107715","0.0-204.0","A2G7N0X0PNX0EE","img_art/15.jpg","null","","","","","","","","","","","","","","","","","","","","","","","","",""
"2458","","image-button-response","206","1110176","0.0-205.0","A2G7N0X0PNX0EE","img_art/15.jpg","0","","","","","","","","","","","","","","","","","","","","","","","","",""
"1083","","image-button-response","207","1111260","0.0-206.0-0.0","A2G7N0X0PNX0EE","img_art/15.jpg","3","","","","","","","","","","","","","","","","","","","","","","","","",""
"1243","","image-button-response","208","1112505","0.0-207.0-0.0","A2G7N0X0PNX0EE","img_art/15.jpg","5","","","","","","","","","","","","","","","","","","","","","","","","",""
"null","","html-keyboard-response","209","1113507","0.0-208.0","A2G7N0X0PNX0EE","<p style=""font-size: 48px;"">+</p>","","","","","null","allTrialResponses","1000","1","23","img_art/15.jpg","-13","What are the black dots supposed to represent?","Ethan,Miguel,Adrian,Kenneth,Antonio,Juan","This piece gave me no emotion. It's ugly to me.,-38,120,20","Simple but not good,-34,160,20","Not a fan. This piece would only go with very specific decor in a modern home.,-35,60,20","I can't really make out what this is supposed to be.,-8,300,20","Makes me think of a bush and flowers and spring and happy warm times,25,220,20","I don't even know what's going on here. Again, this is too abstract.,-21,260,20","Ethan","This piece gave me no emotion. It's ugly to me.,-38,120,20","Kenneth","I can't really make out what this is supposed to be.,-8,300,20","Juan","I don't even know what's going on here. Again, this is too abstract.,-21,260,20","2"
"12488","","survey-text","210","1126000","0.0-209.0-0.0","A2G7N0X0PNX0EE","","","","{""Q0"":""It looks somewhat orderly due to the brush strokes""}","","","","","","","","","","","","","","","","","","","","","","",""
"3352.10000000149","","image-slider-response","211","1129354","0.0-210.0","A2G7N0X0PNX0EE","","","","","2","","","","","","","","","","","","","","","","","","","","","",""
"null","","image-button-response","212","1134356","0.0-211.0","A2G7N0X0PNX0EE","img_art/12.jpg","null","","","","","","","","","","","","","","","","","","","","","","","","",""
"3625","","image-button-response","213","1137984","0.0-212.0","A2G7N0X0PNX0EE","img_art/12.jpg","2","","","","","","","","","","","","","","","","","","","","","","","","",""
"908","","image-button-response","214","1138894","0.0-213.0-0.0","A2G7N0X0PNX0EE","img_art/12.jpg","5","","","","","","","","","","","","","","","","","","","","","","","","",""
"2640","","image-button-response","215","1141536","0.0-214.0-0.0","A2G7N0X0PNX0EE","img_art/12.jpg","0","","","","","","","","","","","","","","","","","","","","","","","","",""
"null","","html-keyboard-response","216","1142537","0.0-215.0","A2G7N0X0PNX0EE","<p style=""font-size: 48px;"">+</p>","","","","","null","allTrialResponses","1000","1","24","img_art/12.jpg","2","It looks somewhat orderly due to the brush strokes","Ethan,Mitchell,Jeremy,Kenneth,Trevor,Juan","The colors are ok. The piece reminds me of the 90s era, so I kinda like it!,-4,120,20","confused. stages of a persons life from beginning positive to ending negative.,-10,180,20","do not like it. Seems too busy,-10,60,20","It's pretty, I find it interesting to look at.,10,300,20","way too 90s/80s for me,-9,280,20","This is too abstract and the colors are too worn out.,-23,260,20","Jeremy","do not like it. Seems too busy,-10,60,20","Juan","This is too abstract and the colors are too worn out.,-23,260,20","Ethan","The colors are ok. The piece reminds me of the 90s era, so I kinda like it!,-4,120,20","2"
"14604","","survey-text","217","1157155","0.0-216.0-0.0","A2G7N0X0PNX0EE","","","","{""Q0"":""I like that it looks like a tree blooming in an urban environment""}","","","","","","","","","","","","","","","","","","","","","","",""
"2244.699999999255","","image-slider-response","218","1159401","0.0-217.0","A2G7N0X0PNX0EE","","","","","11","","","","","","","","","","","","","","","","","","","","","",""
"2507","","image-button-response","219","1164403","0.0-218.0","A2G7N0X0PNX0EE","img_art/17.jpg","1","","","","","","","","","","","","","","","","","","","","","","","","",""
"697","","image-button-response","220","1165103","0.0-219.0","A2G7N0X0PNX0EE","img_art/17.jpg","1","","","","","","","","","","","","","","","","","","","","","","","","",""
"9263","","image-button-response","221","1174368","0.0-220.0-0.0","A2G7N0X0PNX0EE","img_art/17.jpg","3","","","","","","","","","","","","","","","","","","","","","","","","",""
"2594","","image-button-response","222","1176963","0.0-221.0-0.0","A2G7N0X0PNX0EE","img_art/17.jpg","2","","","","","","","","","","","","","","","","","","","","","","","","",""
"null","","html-keyboard-response","223","1177965","0.0-222.0","A2G7N0X0PNX0EE","<p style=""font-size: 48px;"">+</p>","","","","","null","allTrialResponses","1000","1","25","img_art/17.jpg","11","I like that it looks like a tree blooming in an urban environment","Ethan,Carlos,Jeremy,Taylor,Angel,Juan","The colors are nice and soft but not very complimentary.,7,120,20","It feels like nature overtaking civilization.,21,80,20","very pretty. Makes me happy,45,60,20","Somewhat should trim the tree branches at the shopping mall.,10,200,20","Reminds me of the modern art museum in Rome. I didn't ""get"" many pieces, but had a positive cultural experience overall.,20,180,20","I want to know more about this picture and where it leads if you could get inside it.,27,260,20","Carlos","It feels like nature overtaking civilization.,21,80,20","Taylor","Somewhat should trim the tree branches at the shopping mall.,10,200,20","Jeremy","very pretty. Makes me happy,45,60,20","2"
"3190","","survey-text","224","1181177","0.0-223.0-0.0","A2G7N0X0PNX0EE","","","","{""Q0"":""table""}","","","","","","","","","","","","","","","","","","","","","","",""
"18073","","survey-text","225","1199251","0.0-224.0-0.0","A2G7N0X0PNX0EE","","","","{""Q0"":""Looks like people in motion in the midst of a chaotic event""}","","","","","","","","","","","","","","","","","","","","","","",""
"2906.89999999851","","image-slider-response","226","1202159","0.0-225.0","A2G7N0X0PNX0EE","","","","","2","","","","","","","","","","","","","","","","","","","","","",""
"4417","","image-button-response","227","1207162","0.0-226.0","A2G7N0X0PNX0EE","img_art/23.jpg","0","","","","","","","","","","","","","","","","","","","","","","","","",""
"573","","image-button-response","228","1207738","0.0-227.0","A2G7N0X0PNX0EE","img_art/23.jpg","0","","","","","","","","","","","","","","","","","","","","","","","","",""
"743","","image-button-response","229","1208482","0.0-228.0-0.0","A2G7N0X0PNX0EE","img_art/23.jpg","1","","","","","","","","","","","","","","","","","","","","","","","","",""
"4650","","image-button-response","230","1213134","0.0-229.0-0.0","A2G7N0X0PNX0EE","img_art/23.jpg","3","","","","","","","","","","","","","","","","","","","","","","","","",""
"null","","html-keyboard-response","231","1213635","0.0-230.0","A2G7N0X0PNX0EE","<p style=""font-size: 48px;"">+</p>","","","","","null","allTrialResponses","500","1","26","img_art/23.jpg","2","Looks like people in motion in the midst of a chaotic event","Brandon,Carlos,Jeremy,Taylor,Bradley,Nicholas","Pretty cool. I love the white, reminds me of people lined up.,28,320,20","It feels active and vibrant.,20,80,20","Does not incite any emotional response,1,60,20","SOME thought was put into this one.,5,200,20","I like the contrast and the bright colors in this one.,6,300,20","The more i look at it the more i like it  the dots of color and very interesting,50,240,20","Brandon","Pretty cool. I love the white, reminds me of people lined up.,28,320,20","Carlos","It feels active and vibrant.,20,80,20","Taylor","SOME thought was put into this one.,5,200,20","2"
"11270","","survey-text","232","1224920","0.0-231.0-0.0","A2G7N0X0PNX0EE","","","","{""Q0"":""Are those organs being depicted?""}","","","","","","","","","","","","","","","","","","","","","","",""
"3596.7999999970198","","image-slider-response","233","1228518","0.0-232.0","A2G7N0X0PNX0EE","","","","","-38","","","","","","","","","","","","","","","","","","","","","",""
"4267","","image-button-response","234","1233520","0.0-233.0","A2G7N0X0PNX0EE","img_art/28.jpg","2","","","","","","","","","","","","","","","","","","","","","","","","",""
"202","","image-button-response","235","1233726","0.0-234.0","A2G7N0X0PNX0EE","img_art/28.jpg","2","","","","","","","","","","","","","","","","","","","","","","","","",""
"3134","","image-button-response","236","1236862","0.0-235.0-0.0","A2G7N0X0PNX0EE","img_art/28.jpg","5","","","","","","","","","","","","","","","","","","","","","","","","",""
"5488","","image-button-response","237","1242352","0.0-236.0-0.0","A2G7N0X0PNX0EE","img_art/28.jpg","3","","","","","","","","","","","","","","","","","","","","","","","","",""
"null","","html-keyboard-response","238","1242854","0.0-237.0","A2G7N0X0PNX0EE","<p style=""font-size: 48px;"">+</p>","","","","","null","allTrialResponses","500","1","27","img_art/28.jpg","-38","Are those organs being depicted?","Brandon,Carlos,Jose,Taylor,Jared,Christian","Interesting. I like the ""old woman"" on the left. Lots of different entities to look at,21,320,20","Colors are pleasing, shapes are vaguely unpleasant. Kidneys at a smoky bar.,5,80,20","Eh it's just kinda brown and muddy and not very nice looking,-18,200,20","Bug meets bug in a dark alley.,-20,200,20","i like the colors and the shapes look like people,20,400,20","the color scheme is very well matched but i just didn't like it,-6,140,20","Jose","Eh it's just kinda brown and muddy and not very nice looking,-18,200,20","Christian","the color scheme is very well matched but i just didn't like it,-6,140,20","Taylor","Bug meets bug in a dark alley.,-20,200,20","2"
"13170","","survey-text","239","1256033","0.0-238.0-0.0","A2G7N0X0PNX0EE","","","","{""Q0"":""a leaf in a desert? is that the message here?""}","","","","","","","","","","","","","","","","","","","","","","",""
"2626.7999999970198","","image-slider-response","240","1258662","0.0-239.0","A2G7N0X0PNX0EE","","","","","-34","","","","","","","","","","","","","","","","","","","","","",""
"null","","image-button-response","241","1263664","0.0-240.0","A2G7N0X0PNX0EE","img_art/6.jpg","null","","","","","","","","","","","","","","","","","","","","","","","","",""
"3705","","image-button-response","242","1267374","0.0-241.0","A2G7N0X0PNX0EE","img_art/6.jpg","5","","","","","","","","","","","","","","","","","","","","","","","","",""
"4458","","image-button-response","243","1271834","0.0-242.0-0.0","A2G7N0X0PNX0EE","img_art/6.jpg","4","","","","","","","","","","","","","","","","","","","","","","","","",""
"1174","","image-button-response","244","1273010","0.0-243.0-0.0","A2G7N0X0PNX0EE","img_art/6.jpg","3","","","","","","","","","","","","","","","","","","","","","","","","",""
"null","","html-keyboard-response","245","1274011","0.0-244.0","A2G7N0X0PNX0EE","<p style=""font-size: 48px;"">+</p>","","","","","null","allTrialResponses","1000","1","28","img_art/6.jpg","-34","a leaf in a desert? is that the message here?","Nathan,Jason,Jose,Taylor,Dalton,Christian","Not a fan of anything in this,-43,200,20","I like the simplicity of the picture,30,20,20","This could be so many different things. I saw a bird first but then it looks like a needle going into skin,34,200,20","A crow on one leg?,-10,200,20","it looks like a stick holding a wig on a cliff,21,300,20","??????? fake floating leaf? headless bird,-28,140,20","Christian","??????? fake floating leaf? headless bird,-28,140,20","Dalton","it looks like a stick holding a wig on a cliff,21,300,20","Taylor","A crow on one leg?,-10,200,20","2"
"23224","","survey-text","246","1297260","0.0-245.0-0.0","A2G7N0X0PNX0EE","","","","{""Q0"":""someone can't even stay in the lines on their own painting""}","","","","","","","","","","","","","","","","","","","","","","",""
"3610.7999999970198","","image-slider-response","247","1300872","0.0-246.0","A2G7N0X0PNX0EE","","","","","-32","","","","","","","","","","","","","","","","","","","","","",""
"4614","","image-button-response","248","1305882","0.0-247.0","A2G7N0X0PNX0EE","img_art/9.jpg","0","","","","","","","","","","","","","","","","","","","","","","","","",""
"565","","image-button-response","249","1306450","0.0-248.0","A2G7N0X0PNX0EE","img_art/9.jpg","0","","","","","","","","","","","","","","","","","","","","","","","","",""
"3151","","image-button-response","250","1309602","0.0-249.0-0.0","A2G7N0X0PNX0EE","img_art/9.jpg","3","","","","","","","","","","","","","","","","","","","","","","","","",""
"912","","image-button-response","251","1310516","0.0-250.0-0.0","A2G7N0X0PNX0EE","img_art/9.jpg","5","","","","","","","","","","","","","","","","","","","","","","","","",""
"null","","html-keyboard-response","252","1311517","0.0-251.0","A2G7N0X0PNX0EE","<p style=""font-size: 48px;"">+</p>","","","","","null","allTrialResponses","1000","1","29","img_art/9.jpg","-32","someone can't even stay in the lines on their own painting","Thomas,Kevin,Justin,Taylor,Dalton,Christian","I don't like the picture, but it wouldn't surprise me if someone did,-20,220,20","This is a picture of a scary mans head sideways.,-24,320,20","It reminds me of an illustration for a fairy tale.,19,280,20","Caveman. Not for my walls.,-5,200,20","a mother in bed surrounded by emotions,1,300,20","love the color palette, but I'm gonna be honest, I don't really understand it,14,140,20","Thomas","I don't like the picture, but it wouldn't surprise me if someone did,-20,220,20","Taylor","Caveman. Not for my walls.,-5,200,20","Christian","love the color palette, but I'm gonna be honest, I don't really understand it,14,140,20","2"
"15285","","survey-text","253","1326820","0.0-252.0-0.0","A2G7N0X0PNX0EE","","","","{""Q0"":""I can't tell what I'm looking at here""}","","","","","","","","","","","","","","","","","","","","","","",""
"2198.89999999851","","image-slider-response","254","1329020","0.0-253.0","A2G7N0X0PNX0EE","","","","","-41","","","","","","","","","","","","","","","","","","","","","",""
"null","","image-button-response","255","1334023","0.0-254.0","A2G7N0X0PNX0EE","img_art/1.jpg","null","","","","","","","","","","","","","","","","","","","","","","","","",""
"3180","","image-button-response","256","1337206","0.0-255.0","A2G7N0X0PNX0EE","img_art/1.jpg","2","","","","","","","","","","","","","","","","","","","","","","","","",""
"698","","image-button-response","257","1337906","0.0-256.0-0.0","A2G7N0X0PNX0EE","img_art/1.jpg","1","","","","","","","","","","","","","","","","","","","","","","","","",""
"5142","","image-button-response","258","1343050","0.0-257.0-0.0","A2G7N0X0PNX0EE","img_art/1.jpg","4","","","","","","","","","","","","","","","","","","","","","","","","",""
"null","","html-keyboard-response","259","1344551","0.0-258.0","A2G7N0X0PNX0EE","<p style=""font-size: 48px;"">+</p>","","","","","null","allTrialResponses","1500","1","30","img_art/1.jpg","-41","I can't tell what I'm looking at here","Thomas,Caleb,Scott,Taylor,Alejandro,Christian","Pleasant, but a tad too monochromatic in some areas for my taste,7,220,20","Its simply okay.,3,40,20","good colors and contrast,31,20,20","Deja vu. Haven't I seen this one before? Not bad for those living in the backwoods.,10,200,20","Interesting color scheme but to bled to me,11,80,20","bamboo boat in sunset,12,140,20","Scott","good colors and contrast,31,20,20","Caleb","Its simply okay.,3,40,20","Alejandro","Interesting color scheme but to bled to me,11,80,20","2"
"3433","","image-button-response_instructions","260","1348002","0.0-259.0","A2G7N0X0PNX0EE","","0","instructions","","","","","","","","","","","","","","","","","","","","","","","",""
"1725","","image-button-response","261","1349732","0.0-260.0","A2G7N0X0PNX0EE","","0","","","","","","","","","","","","","","","","","","","","","","","","",""
