"rt","url","trial_type","trial_index","time_elapsed","internal_node_id","participant_id","stimulus","button_pressed","Name","responses","response","key_press","variableName","fixationTime","condition","trial","photo","subjectRating","subjectResponse","agentsNames","agent_1_Response","agent_2_Response","agent_3_Response","agent_4_Response","agent_5_Response","agent_6_Response","kept_1_name","kept_1_response","kept_2_name","kept_2_response","kept_3_name","kept_3_response","errorCounter"
"4297","external_page_harvard.html","external-html","0","4586","0.0-0.0","A2GIT09BQEUM9M","","","","","","","","","","","","","","","","","","","","","","","","","","",""
"1231","","image-button-response","1","5819","0.0-1.0","A2GIT09BQEUM9M","","1","","","","","","","","","","","","","","","","","","","","","","","","",""
"1638","","image-button-response","2","7468","0.0-2.0-0.0","A2GIT09BQEUM9M","","1","phone","","","","","","","","","","","","","","","","","","","","","","","",""
"9005","","survey-text","3","16476","0.0-3.0-0.0","A2GIT09BQEUM9M","","","","{""Q0"":""A2GIT09BQEUM9M""}","","","","","","","","","","","","","","","","","","","","","","",""
"4200","","image-button-response_instructions","4","20681","0.0-4.0","A2GIT09BQEUM9M","","0","instructions","","","","","","","","","","","","","","","","","","","","","","","",""
"13901","","image-button-response_instructions","5","34585","0.0-5.0","A2GIT09BQEUM9M","img_art/ins/popularity/ins1.png","0","instructions","","","","","","","","","","","","","","","","","","","","","","","",""
"7451","","image-button-response_instructions","6","42039","0.0-6.0","A2GIT09BQEUM9M","img_art/ins/popularity/ins2.png","0","instructions","","","","","","","","","","","","","","","","","","","","","","","",""
"19475","","image-button-response_instructions","7","61520","0.0-7.0","A2GIT09BQEUM9M","img_art/ins/popularity/ins2Extreme.png","0","instructions","","","","","","","","","","","","","","","","","","","","","","","",""
"7346","","image-button-response_instructions","8","68869","0.0-8.0","A2GIT09BQEUM9M","img_art/ins/popularity/ins3KEEPpop.PNG","0","instructions","","","","","","","","","","","","","","","","","","","","","","","",""
"5872","","image-button-response_instructions","9","74744","0.0-9.0","A2GIT09BQEUM9M","img_art/ins/popularity/ins3ANamepop.PNG","0","instructions","","","","","","","","","","","","","","","","","","","","","","","",""
"3355","","image-button-response_instructions","10","78101","0.0-10.0","A2GIT09BQEUM9M","img_art/ins/popularity/ins3ARatingpop.png","0","instructions","","","","","","","","","","","","","","","","","","","","","","","",""
"3722","","image-button-response_instructions","11","81825","0.0-11.0","A2GIT09BQEUM9M","img_art/ins/popularity/ins3ATextpop.png","0","instructions","","","","","","","","","","","","","","","","","","","","","","","",""
"6984","","image-button-response_instructions","12","88812","0.0-12.0","A2GIT09BQEUM9M","img_art/ins/popularity/ins3ALikespop.png","0","instructions","","","","","","","","","","","","","","","","","","","","","","","",""
"9758","","image-button-response_instructions","13","98573","0.0-13.0","A2GIT09BQEUM9M","img_art/ins/popularity/ins3KEEPpop.PNG","0","instructions","","","","","","","","","","","","","","","","","","","","","","","",""
"10579","","image-button-response_instructions","14","109155","0.0-14.0","A2GIT09BQEUM9M","img_art/ins/popularity/ins3_5RED.png","0","instructions","","","","","","","","","","","","","","","","","","","","","","","",""
"2938","","image-button-response_instructions","15","112096","0.0-15.0","A2GIT09BQEUM9M","img_art/ins/popularity/ins3KEEPpop.PNG","0","instructions","","","","","","","","","","","","","","","","","","","","","","","",""
"8194","","image-button-response_instructions","16","120293","0.0-16.0","A2GIT09BQEUM9M","img_art/ins/popularity/ins4KEEPpop.PNG","0","instructions","","","","","","","","","","","","","","","","","","","","","","","",""
"2078","","image-button-response_instructions","17","122374","0.0-17.0","A2GIT09BQEUM9M","img_art/ins/popularity/ins5KEEPpop.PNG","0","instructions","","","","","","","","","","","","","","","","","","","","","","","",""
"1662","","image-button-response_instructions","18","124038","0.0-18.0","A2GIT09BQEUM9M","","0","instructions","","","","","","","","","","","","","","","","","","","","","","","",""
"7554","","survey-text","19","131628","0.0-19.0-0.0","A2GIT09BQEUM9M","","","","{""Q0"":""but""}","","","","","","","","","","","","","","","","","","","","","","",""
"9725","","survey-text","20","141356","0.0-20.0-0.0","A2GIT09BQEUM9M","","","","{""Q0"":""it's ok but kind of boring.""}","","","","","","","","","","","","","","","","","","","","","","",""
"5428.699999999953","","image-slider-response","21","146789","0.0-21.0","A2GIT09BQEUM9M","","","","","-45","","","","","","","","","","","","","","","","","","","","","",""
"null","","image-button-response","22","151795","0.0-22.0","A2GIT09BQEUM9M","img_art/ins/1.jpg","null","","","","","","","","","","","","","","","","","","","","","","","","",""
"6064","","image-button-response","23","157863","0.0-23.0","A2GIT09BQEUM9M","img_art/ins/1.jpg","3","","","","","","","","","","","","","","","","","","","","","","","","",""
"7198","","image-button-response","24","165067","0.0-24.0-0.0","A2GIT09BQEUM9M","img_art/ins/1.jpg","1","","","","","","","","","","","","","","","","","","","","","","","","",""
"2504","","image-button-response","25","167579","0.0-25.0-0.0","A2GIT09BQEUM9M","img_art/ins/1.jpg","5","","","","","","","","","","","","","","","","","","","","","","","","",""
"null","","html-keyboard-response","26","168083","0.0-26.0","A2GIT09BQEUM9M","<p style=""font-size: 48px;"">+</p>","","","","","null","allTrialResponses","500","1","-2","img_art/ins/1.jpg","-45","it's ok but kind of boring.","Allison,Ashley,Beth,Dora,Erika,Jen","looks like a lot of things going on in the mist,20,20,20","I just don't get why these type of art would be popular,-32,40,20","This color reminds me of poo,-46,60,20","looks like what my niece in 3rd grade did this afternoon,-50,80,20","I like the sophisticated brushwork,40,100,20","It reminds me of a candy land dream I had,36,120,20","Dora","looks like what my niece in 3rd grade did this afternoon,-50,80,20","Ashley","I just don't get why these type of art would be popular,-32,40,20","Jen","It reminds me of a candy land dream I had,36,120,20","0"
"14019","","survey-text","27","182109","0.0-27.0-0.0","A2GIT09BQEUM9M","","","","{""Q0"":""it's bold and got my attention very quickly""}","","","","","","","","","","","","","","","","","","","","","","",""
"3260.1999999999534","","image-slider-response","28","185373","0.0-28.0","A2GIT09BQEUM9M","","","","","18","","","","","","","","","","","","","","","","","","","","","",""
"2164","","image-button-response","29","190377","0.0-29.0","A2GIT09BQEUM9M","img_art/ins/2.jpg","4","","","","","","","","","","","","","","","","","","","","","","","","",""
"826","","image-button-response","30","191208","0.0-30.0","A2GIT09BQEUM9M","img_art/ins/2.jpg","5","","","","","","","","","","","","","","","","","","","","","","","","",""
"809","","image-button-response","31","192022","0.0-31.0-0.0","A2GIT09BQEUM9M","img_art/ins/2.jpg","4","","","","","","","","","","","","","","","","","","","","","","","","",""
"5510","","image-button-response","32","197537","0.0-32.0-0.0","A2GIT09BQEUM9M","img_art/ins/2.jpg","3","","","","","","","","","","","","","","","","","","","","","","","","",""
"null","","html-keyboard-response","33","198540","0.0-33.0","A2GIT09BQEUM9M","<p style=""font-size: 48px;"">+</p>","","","","","null","allTrialResponses","1000","1","-1","img_art/ins/2.jpg","18","it's bold and got my attention very quickly","Jenna,Ashley,Katie,Dora,Kara,Jen","One of my pet peevs,-48,140,20","Idk, it is just annoying,-32,40,20","too much color!,-28,180,20","looks too angry,-50,80,20","I like the blocks of color arrangements,30,160,20","It reminds me of a fireplace,36,120,20","Jen","It reminds me of a fireplace,36,120,20","Kara","I like the blocks of color arrangements,30,160,20","Dora","looks too angry,-50,80,20","0"
"10134","","survey-text","34","208680","0.0-34.0-0.0","A2GIT09BQEUM9M","","","","{""Q0"":""it's calming.""}","","","","","","","","","","","","","","","","","","","","","","",""
"3454.8000000000466","","image-slider-response","35","212138","0.0-35.0","A2GIT09BQEUM9M","","","","","50","","","","","","","","","","","","","","","","","","","","","",""
"2574","","image-button-response","36","217142","0.0-36.0","A2GIT09BQEUM9M","img_art/ins/3.jpg","4","","","","","","","","","","","","","","","","","","","","","","","","",""
"898","","image-button-response","37","218043","0.0-37.0","A2GIT09BQEUM9M","img_art/ins/3.jpg","4","","","","","","","","","","","","","","","","","","","","","","","","",""
"2286","","image-button-response","38","220333","0.0-38.0-0.0","A2GIT09BQEUM9M","img_art/ins/3.jpg","5","","","","","","","","","","","","","","","","","","","","","","","","",""
"6937","","image-button-response","39","227274","0.0-39.0-0.0","A2GIT09BQEUM9M","img_art/ins/3.jpg","2","","","","","","","","","","","","","","","","","","","","","","","","",""
"null","","html-keyboard-response","40","228777","0.0-40.0","A2GIT09BQEUM9M","<p style=""font-size: 48px;"">+</p>","","","","","null","allTrialResponses","1500","1","0","img_art/ins/3.jpg","50","it's calming.","Leslie,Rose,Mary,Dora,Kara,Jen","It's an alright work,15,200,20","My daily routine, it's depressing,-20,240,20","I like the overlapping of brushes,41,220,20","My worst nightmare,-42,80,20","calming blue is very nice,36,160,20","I can feel a rainy day from this painting,18,120,20","Kara","calming blue is very nice,36,160,20","Jen","I can feel a rainy day from this painting,18,120,20","Mary","I like the overlapping of brushes,41,220,20","0"
"2815","","image-button-response_instructions","41","231598","0.0-41.0","A2GIT09BQEUM9M","","0","instructions","","","","","","","","","","","","","","","","","","","","","","","",""
"9924","","survey-likert","42","241525","0.0-42.0-0.0","A2GIT09BQEUM9M","","","","{""Q0"":"""",""Q1"":0,""Q2"":1}","","","","","","","","","","","","","","","","","","","","","","",""
"4440","","survey-text","43","245975","0.0-43.0-0.0","A2GIT09BQEUM9M","","","","{""Q0"":""rock""}","","","","","","","","","","","","","","","","","","","","","","",""
"24835","","survey-text","44","270813","0.0-44.0-0.0","A2GIT09BQEUM9M","","","","{""Q0"":""reminds me of people standing in a line dancing and playing music, like marti graw.""}","","","","","","","","","","","","","","","","","","","","","","",""
"3199.6999999999534","","image-slider-response","45","274016","0.0-45.0","A2GIT09BQEUM9M","","","","","14","","","","","","","","","","","","","","","","","","","","","",""
"null","","image-button-response","46","279059","0.0-46.0","A2GIT09BQEUM9M","img_art/23.jpg","null","","","","","","","","","","","","","","","","","","","","","","","","",""
"2399","","image-button-response","47","281461","0.0-47.0","A2GIT09BQEUM9M","img_art/23.jpg","5","","","","","","","","","","","","","","","","","","","","","","","","",""
"3988","","image-button-response","48","285453","0.0-48.0-0.0","A2GIT09BQEUM9M","img_art/23.jpg","0","","","","","","","","","","","","","","","","","","","","","","","","",""
"444","","image-button-response","49","285902","0.0-49.0-0.0","A2GIT09BQEUM9M","img_art/23.jpg","1","","","","","","","","","","","","","","","","","","","","","","","","",""
"null","","html-keyboard-response","50","286905","0.0-50.0","A2GIT09BQEUM9M","<p style=""font-size: 48px;"">+</p>","","","","","null","allTrialResponses","1000","1","1","img_art/23.jpg","14","reminds me of people standing in a line dancing and playing music, like marti graw.","Natalie,Autumn,Kaylee,Sabrina,Leah,Haley","so much detail .,31,400,20","Awesome abstraction love it.,30,340,20","i completely dont get it,-47,200,20","I dont like the chaos of this,-20,120,20","Interesting, want to look at it more to identify,25,360,20","Beautiful. Very detailed and colorful. I enjoy looking at it.,50,220,20","Haley","Beautiful. Very detailed and colorful. I enjoy looking at it.,50,220,20","Natalie","so much detail .,31,400,20","Autumn","Awesome abstraction love it.,30,340,20","0"
"20226","","survey-text","51","307139","0.0-51.0-0.0","A2GIT09BQEUM9M","","","","{""Q0"":""very different. kind of looks like a hand and I see a heart in it.""}","","","","","","","","","","","","","","","","","","","","","","",""
"4670.900000000023","","image-slider-response","52","311813","0.0-52.0","A2GIT09BQEUM9M","","","","","9","","","","","","","","","","","","","","","","","","","","","",""
"null","","image-button-response","53","316818","0.0-53.0","A2GIT09BQEUM9M","img_art/4.jpg","null","","","","","","","","","","","","","","","","","","","","","","","","",""
"5549","","image-button-response","54","322369","0.0-54.0","A2GIT09BQEUM9M","img_art/4.jpg","0","","","","","","","","","","","","","","","","","","","","","","","","",""
"2277","","image-button-response","55","324651","0.0-55.0-0.0","A2GIT09BQEUM9M","img_art/4.jpg","3","","","","","","","","","","","","","","","","","","","","","","","","",""
"1667","","image-button-response","56","326322","0.0-56.0-0.0","A2GIT09BQEUM9M","img_art/4.jpg","4","","","","","","","","","","","","","","","","","","","","","","","","",""
"null","","html-keyboard-response","57","326824","0.0-57.0","A2GIT09BQEUM9M","<p style=""font-size: 48px;"">+</p>","","","","","null","allTrialResponses","500","1","2","img_art/4.jpg","9","very different. kind of looks like a hand and I see a heart in it.","Natalie,Autumn,Jasmine,Erin,Monica,Haley","dont know what im looking at,1,400,20","I don't like murky colors.,-40,340,20","It's quite meh to me,0,340,20","Seems simplistic,-8,120,20","The dark yellow color makes me think of mustard, which I dislike,-27,360,20","This image doesn't invoke anything in me,-9,220,20","Natalie","dont know what im looking at,1,400,20","Erin","Seems simplistic,-8,120,20","Monica","The dark yellow color makes me think of mustard, which I dislike,-27,360,20","0"
"21731","","survey-text","58","348563","0.0-58.0-0.0","A2GIT09BQEUM9M","","","","{""Q0"":""reminds me of the aztec pics on the wall in the caves. very cool.""}","","","","","","","","","","","","","","","","","","","","","","",""
"3685.5999999999767","","image-slider-response","59","352252","0.0-59.0","A2GIT09BQEUM9M","","","","","39","","","","","","","","","","","","","","","","","","","","","",""
"null","","image-button-response","60","357256","0.0-60.0","A2GIT09BQEUM9M","img_art/12.jpg","null","","","","","","","","","","","","","","","","","","","","","","","","",""
"9556","","image-button-response","61","366815","0.0-61.0","A2GIT09BQEUM9M","img_art/12.jpg","1","","","","","","","","","","","","","","","","","","","","","","","","",""
"1969","","image-button-response","62","368789","0.0-62.0-0.0","A2GIT09BQEUM9M","img_art/12.jpg","2","","","","","","","","","","","","","","","","","","","","","","","","",""
"1947","","image-button-response","63","370740","0.0-63.0-0.0","A2GIT09BQEUM9M","img_art/12.jpg","4","","","","","","","","","","","","","","","","","","","","","","","","",""
"null","","html-keyboard-response","64","371743","0.0-64.0","A2GIT09BQEUM9M","<p style=""font-size: 48px;"">+</p>","","","","","null","allTrialResponses","1000","1","3","img_art/12.jpg","39","reminds me of the aztec pics on the wall in the caves. very cool.","Natalie,Dominique,Amy,Erin,Monica,Paige","my reaction is that the picture is wierd,-11,400,20","I have seen some like this before very popular and full of life,42,400,20","Quite lovely with depth and possibility.,21,220,20","City scape but palette is odd,4,120,20","Reminds me of collages we made in elementary school. I like the contrast of the colors from top to bottom,43,360,20","do not like it. Seems too busy,-10,60,20","Dominique","I have seen some like this before very popular and full of life,42,400,20","Amy","Quite lovely with depth and possibility.,21,220,20","Monica","Reminds me of collages we made in elementary school. I like the contrast of the colors from top to bottom,43,360,20","0"
"17660","","survey-text","65","389410","0.0-65.0-0.0","A2GIT09BQEUM9M","","","","{""Q0"":""seems musical and a little sad and dark.""}","","","","","","","","","","","","","","","","","","","","","","",""
"3996.4000000000233","","image-slider-response","66","393410","0.0-66.0","A2GIT09BQEUM9M","","","","","-5","","","","","","","","","","","","","","","","","","","","","",""
"null","","image-button-response","67","398414","0.0-67.0","A2GIT09BQEUM9M","img_art/10.jpg","null","","","","","","","","","","","","","","","","","","","","","","","","",""
"2089","","image-button-response","68","400507","0.0-68.0","A2GIT09BQEUM9M","img_art/10.jpg","2","","","","","","","","","","","","","","","","","","","","","","","","",""
"10688","","image-button-response","69","411201","0.0-69.0-0.0","A2GIT09BQEUM9M","img_art/10.jpg","5","","","","","","","","","","","","","","","","","","","","","","","","",""
"4752","","image-button-response","70","415958","0.0-70.0-0.0","A2GIT09BQEUM9M","img_art/10.jpg","1","","","","","","","","","","","","","","","","","","","","","","","","",""
"null","","html-keyboard-response","71","416462","0.0-71.0","A2GIT09BQEUM9M","<p style=""font-size: 48px;"">+</p>","","","","","null","allTrialResponses","500","1","4","img_art/10.jpg","-5","seems musical and a little sad and dark.","Kaitlin,Dominique,Amy,Gabriela,Monica,Jamie","awww... this looks very nice,32,60,20","A very conversational piece could be of many different ideas,38,400,20","Highly abstract and yet the shapes and colors provide an emotional accessibility for me.,20,220,20","It looks like a sea monster overtaking a ship,21,140,20","It doesn't look pleasing to the eye, it kind of looks like an animal but a dirty one,-38,360,20","Well done designs for being considered abstract,45,320,20","Amy","Highly abstract and yet the shapes and colors provide an emotional accessibility for me.,20,220,20","Jamie","Well done designs for being considered abstract,45,320,20","Dominique","A very conversational piece could be of many different ideas,38,400,20","0"
"13998","","survey-text","72","430467","0.0-72.0-0.0","A2GIT09BQEUM9M","","","","{""Q0"":""a nice little street on a content day.""}","","","","","","","","","","","","","","","","","","","","","","",""
"3408.29999999993","","image-slider-response","73","433879","0.0-73.0","A2GIT09BQEUM9M","","","","","50","","","","","","","","","","","","","","","","","","","","","",""
"3391","","image-button-response","74","438883","0.0-74.0","A2GIT09BQEUM9M","img_art/26.jpg","3","","","","","","","","","","","","","","","","","","","","","","","","",""
"1322","","image-button-response","75","440209","0.0-75.0","A2GIT09BQEUM9M","img_art/26.jpg","3","","","","","","","","","","","","","","","","","","","","","","","","",""
"2517","","image-button-response","76","442730","0.0-76.0-0.0","A2GIT09BQEUM9M","img_art/26.jpg","5","","","","","","","","","","","","","","","","","","","","","","","","",""
"6001","","image-button-response","77","448735","0.0-77.0-0.0","A2GIT09BQEUM9M","img_art/26.jpg","1","","","","","","","","","","","","","","","","","","","","","","","","",""
"null","","html-keyboard-response","78","449237","0.0-78.0","A2GIT09BQEUM9M","<p style=""font-size: 48px;"">+</p>","","","","","null","allTrialResponses","500","1","5","img_art/26.jpg","50","a nice little street on a content day.","Sarah,Dominique,Amy,Grace,Alexis,Jamie","too hard to figure out if it's meant to be actual objects or impressions,-36,180,20","Small town and home feel on A nice day.,28,400,20","The feeling that I am looking at the world through a dingy filter makes this unpleasant for me.,-20,220,20","Like the muted colors & the scene which seems to be serene.,14,180,20","Much too simple and without color for my taste,-33,100,20","Street corner on a sunny day,5,320,20","Grace","Like the muted colors & the scene which seems to be serene.,14,180,20","Jamie","Street corner on a sunny day,5,320,20","Dominique","Small town and home feel on A nice day.,28,400,20","0"
"4171","","survey-text","79","453422","0.0-79.0-0.0","A2GIT09BQEUM9M","","","","{""Q0"":""sky""}","","","","","","","","","","","","","","","","","","","","","","",""
"17855","","survey-text","80","471281","0.0-80.0-0.0","A2GIT09BQEUM9M","","","","{""Q0"":""just a bunch of different colors thrown together. ""}","","","","","","","","","","","","","","","","","","","","","","",""
"3842.3000000000466","","image-slider-response","81","475127","0.0-81.0","A2GIT09BQEUM9M","","","","","-50","","","","","","","","","","","","","","","","","","","","","",""
"null","","image-button-response","82","480131","0.0-82.0","A2GIT09BQEUM9M","img_art/2.jpg","null","","","","","","","","","","","","","","","","","","","","","","","","",""
"4426","","image-button-response","83","484561","0.0-83.0","A2GIT09BQEUM9M","img_art/2.jpg","5","","","","","","","","","","","","","","","","","","","","","","","","",""
"3005","","image-button-response","84","487570","0.0-84.0-0.0","A2GIT09BQEUM9M","img_art/2.jpg","0","","","","","","","","","","","","","","","","","","","","","","","","",""
"1133","","image-button-response","85","488706","0.0-85.0-0.0","A2GIT09BQEUM9M","img_art/2.jpg","0","","","","","","","","","","","","","","","","","","","","","","","","",""
"1065","","image-button-response","86","492745","0.0-85.1-0.1","A2GIT09BQEUM9M","img_art/2.jpg","0","","","","","","","","","","","","","","","","","","","","","","","","",""
"2117","","image-button-response","87","501403","0.0-85.2-0.2","A2GIT09BQEUM9M","img_art/2.jpg","2","","","","","","","","","","","","","","","","","","","","","","","","",""
"null","","html-keyboard-response","88","502406","0.0-86.0","A2GIT09BQEUM9M","<p style=""font-size: 48px;"">+</p>","","","","","null","allTrialResponses","1000","1","6","img_art/2.jpg","-50","just a bunch of different colors thrown together. ","Emily,Dominique,Elizabeth,Grace,Stephanie,Jamie","Random colors and shapes mashed together. Nothing artistic, but better than some of the other ones.,-37,40,20","This reminds me of a peaceful day out alone shopping and spending some me time,41,400,20","Good color pallette,12,20,20","Like the colors but reminds me of a kids show done in cubism.,0,180,20","The colors are what I like. It looks like a smiling face too.,32,300,20","Awful color coordination and design,-35,320,20","Jamie","Awful color coordination and design,-35,320,20","Emily","Random colors and shapes mashed together. Nothing artistic, but better than some of the other ones.,-37,40,20","Elizabeth","Good color pallette,12,20,20","4"
"10857","","survey-text","89","513272","0.0-87.0-0.0","A2GIT09BQEUM9M","","","","{""Q0"":""very drab. and boring.""}","","","","","","","","","","","","","","","","","","","","","","",""
"3130.100000000093","","image-slider-response","90","516406","0.0-88.0","A2GIT09BQEUM9M","","","","","-46","","","","","","","","","","","","","","","","","","","","","",""
"null","","image-button-response","91","521410","0.0-89.0","A2GIT09BQEUM9M","img_art/17.jpg","null","","","","","","","","","","","","","","","","","","","","","","","","",""
"7535","","image-button-response","92","528949","0.0-90.0","A2GIT09BQEUM9M","img_art/17.jpg","5","","","","","","","","","","","","","","","","","","","","","","","","",""
"2728","","image-button-response","93","531680","0.0-91.0-0.0","A2GIT09BQEUM9M","img_art/17.jpg","0","","","","","","","","","","","","","","","","","","","","","","","","",""
"1952","","image-button-response","94","533637","0.0-92.0-0.0","A2GIT09BQEUM9M","img_art/17.jpg","3","","","","","","","","","","","","","","","","","","","","","","","","",""
"null","","html-keyboard-response","95","534640","0.0-93.0","A2GIT09BQEUM9M","<p style=""font-size: 48px;"">+</p>","","","","","null","allTrialResponses","1000","1","7","img_art/17.jpg","-46","very drab. and boring.","Emily,Morgan,Elizabeth,Gabrielle,Megan,Jamie","There is better structure and direction in this one.,19,40,20","Tree of knowledge in a quiet school.,17,380,20","Has a unique vibe to it,50,20,20","nice composition and colors, fairy land,28,160,20","2 paintings in 1 with shared colors,5,200,20","Looks like some fantasy tree. Nice,30,320,20","Jamie","Looks like some fantasy tree. Nice,30,320,20","Emily","There is better structure and direction in this one.,19,40,20","Gabrielle","nice composition and colors, fairy land,28,160,20","4"
"8026","","survey-text","96","542673","0.0-94.0-0.0","A2GIT09BQEUM9M","","","","{""Q0"":""it's kind of cute.""}","","","","","","","","","","","","","","","","","","","","","","",""
"10943.899999999907","","image-slider-response","97","553620","0.0-95.0","A2GIT09BQEUM9M","","","","","-6","","","","","","","","","","","","","","","","","","","","","",""
"null","","image-button-response","98","558625","0.0-96.0","A2GIT09BQEUM9M","img_art/16.jpg","null","","","","","","","","","","","","","","","","","","","","","","","","",""
"2575","","image-button-response","99","561203","0.0-97.0","A2GIT09BQEUM9M","img_art/16.jpg","3","","","","","","","","","","","","","","","","","","","","","","","","",""
"3901","","image-button-response","100","565109","0.0-98.0-0.0","A2GIT09BQEUM9M","img_art/16.jpg","4","","","","","","","","","","","","","","","","","","","","","","","","",""
"5503","","image-button-response","101","570618","0.0-99.0-0.0","A2GIT09BQEUM9M","img_art/16.jpg","0","","","","","","","","","","","","","","","","","","","","","","","","",""
"null","","html-keyboard-response","102","571122","0.0-100.0","A2GIT09BQEUM9M","<p style=""font-size: 48px;"">+</p>","","","","","null","allTrialResponses","500","1","8","img_art/16.jpg","-6","it's kind of cute.","Emily,Angela,Samantha,Gabrielle,Katie,Jamie","Looks like a kid did itt and ti looks disturbing.,-45,40,20","Hate this, especially the jarring contrast of the super realistic teddybear face.,-50,260,20","Creepy teddybear,-50,140,20","nonsense art, not really art,-44,160,20","Upsetting and disturbing. Random bear and indistinguishable objects. None of it goes together. Too chaotic and random,-50,160,20","Weird and funny,40,320,20","Gabrielle","nonsense art, not really art,-44,160,20","Katie","Upsetting and disturbing. Random bear and indistinguishable objects. None of it goes together. Too chaotic and random,-50,160,20","Emily","Looks like a kid did itt and ti looks disturbing.,-45,40,20","4"
"10828","","survey-text","103","581958","0.0-101.0-0.0","A2GIT09BQEUM9M","","","","{""Q0"":""looks like a river flowing. ""}","","","","","","","","","","","","","","","","","","","","","","",""
"6735.59999999986","","image-slider-response","104","588698","0.0-102.0","A2GIT09BQEUM9M","","","","","5","","","","","","","","","","","","","","","","","","","","","",""
"null","","image-button-response","105","593702","0.0-103.0","A2GIT09BQEUM9M","img_art/24.jpg","null","","","","","","","","","","","","","","","","","","","","","","","","",""
"2591","","image-button-response","106","596297","0.0-104.0","A2GIT09BQEUM9M","img_art/24.jpg","0","","","","","","","","","","","","","","","","","","","","","","","","",""
"4305","","image-button-response","107","600605","0.0-105.0-0.0","A2GIT09BQEUM9M","img_art/24.jpg","2","","","","","","","","","","","","","","","","","","","","","","","","",""
"4800","","image-button-response","108","605409","0.0-106.0-0.0","A2GIT09BQEUM9M","img_art/24.jpg","4","","","","","","","","","","","","","","","","","","","","","","","","",""
"null","","html-keyboard-response","109","605912","0.0-107.0","A2GIT09BQEUM9M","<p style=""font-size: 48px;"">+</p>","","","","","null","allTrialResponses","500","1","9","img_art/24.jpg","5","looks like a river flowing. ","Emily,Alexa,Amanda,Gabrielle,Katie,Hannah","It's not super high uality  but there is some skill and talent in it I see.,15,40,20","I absolutely adore this painting. The colors, designs, everything. It's phenomenal,50,40,20","Beautiful,  peaceful,50,180,20","flowing water part is good, some of the rest is ok but dark,14,160,20","I see a waterfall, which is relaxing and peaceful!  I like the blue coloring,30,160,20","It's okay but don't love it.,7,240,20","Emily","It's not super high uality  but there is some skill and talent in it I see.,15,40,20","Amanda","Beautiful,  peaceful,50,180,20","Katie","I see a waterfall, which is relaxing and peaceful!  I like the blue coloring,30,160,20","4"
"11541","","survey-text","110","617462","0.0-108.0-0.0","A2GIT09BQEUM9M","","","","{""Q0"":""very weird.""}","","","","","","","","","","","","","","","","","","","","","","",""
"3160","","image-slider-response","111","620626","0.0-109.0","A2GIT09BQEUM9M","","","","","-32","","","","","","","","","","","","","","","","","","","","","",""
"2278","","image-button-response","112","625630","0.0-110.0","A2GIT09BQEUM9M","img_art/28.jpg","0","","","","","","","","","","","","","","","","","","","","","","","","",""
"826","","image-button-response","113","626460","0.0-111.0","A2GIT09BQEUM9M","img_art/28.jpg","0","","","","","","","","","","","","","","","","","","","","","","","","",""
"2897","","image-button-response","114","629361","0.0-112.0-0.0","A2GIT09BQEUM9M","img_art/28.jpg","2","","","","","","","","","","","","","","","","","","","","","","","","",""
"3176","","image-button-response","115","632541","0.0-113.0-0.0","A2GIT09BQEUM9M","img_art/28.jpg","5","","","","","","","","","","","","","","","","","","","","","","","","",""
"null","","html-keyboard-response","116","633544","0.0-114.0","A2GIT09BQEUM9M","<p style=""font-size: 48px;"">+</p>","","","","","null","allTrialResponses","1000","1","10","img_art/28.jpg","-32","very weird.","Emily,Chloe,Amanda,Crystal,Katie,Bailey","Incoherent ugly mess.,-50,40,20","Evocative but a little dreary.,20,220,20","Colors look too muddy for my liking,-33,180,20","I like the flow and abstract nature of what seems to be humans,40,300,20","Like the muted pink colors. However, the mood is sad because of the blurriness,22,160,20","Has an air of darkness to it, but no real substance besides the mouse-like thing.,-38,360,20","Emily","Incoherent ugly mess.,-50,40,20","Amanda","Colors look too muddy for my liking,-33,180,20","Bailey","Has an air of darkness to it, but no real substance besides the mouse-like thing.,-38,360,20","4"
"3292","","survey-text","117","636848","0.0-115.0-0.0","A2GIT09BQEUM9M","","","","{""Q0"":""our""}","","","","","","","","","","","","","","","","","","","","","","",""
"16413","","survey-text","118","653264","0.0-116.0-0.0","A2GIT09BQEUM9M","","","","{""Q0"":""reminds me of rocks on the moon's surface or on a beach.""}","","","","","","","","","","","","","","","","","","","","","","",""
"2844.5999999998603","","image-slider-response","119","656112","0.0-117.0","A2GIT09BQEUM9M","","","","","11","","","","","","","","","","","","","","","","","","","","","",""
"null","","image-button-response","120","661116","0.0-118.0","A2GIT09BQEUM9M","img_art/7.jpg","null","","","","","","","","","","","","","","","","","","","","","","","","",""
"1694","","image-button-response","121","662814","0.0-119.0","A2GIT09BQEUM9M","img_art/7.jpg","5","","","","","","","","","","","","","","","","","","","","","","","","",""
"5753","","image-button-response","122","668571","0.0-120.0-0.0","A2GIT09BQEUM9M","img_art/7.jpg","1","","","","","","","","","","","","","","","","","","","","","","","","",""
"4233","","image-button-response","123","672809","0.0-121.0-0.0","A2GIT09BQEUM9M","img_art/7.jpg","3","","","","","","","","","","","","","","","","","","","","","","","","",""
"null","","html-keyboard-response","124","674312","0.0-122.0","A2GIT09BQEUM9M","<p style=""font-size: 48px;"">+</p>","","","","","null","allTrialResponses","1500","1","11","img_art/7.jpg","11","reminds me of rocks on the moon's surface or on a beach.","Emily,Jordan,Amanda,Sydney,Alexandra,Bailey","Ugly. I don't like the colors or the scattering.,-50,40,20","looks like the surface of the moon.,1,20,20","I hate everything about this painting from the cors to it looking like a war,-50,180,20","This piece is really simple but the colors and texture work well together.,20,320,20","I do not like the boring colors in this.,-20,60,20","It gives off an alien-like vastness of space vibe which I like,9,360,20","Bailey","It gives off an alien-like vastness of space vibe which I like,9,360,20","Jordan","looks like the surface of the moon.,1,20,20","Sydney","This piece is really simple but the colors and texture work well together.,20,320,20","4"
"20668","","survey-text","125","694987","0.0-123.0-0.0","A2GIT09BQEUM9M","","","","{""Q0"":""vibing I get a cool vibe from it. something good.""}","","","","","","","","","","","","","","","","","","","","","","",""
"3880.9000000001397","","image-slider-response","126","698871","0.0-124.0","A2GIT09BQEUM9M","","","","","26","","","","","","","","","","","","","","","","","","","","","",""
"null","","image-button-response","127","703875","0.0-125.0","A2GIT09BQEUM9M","img_art/30.jpg","null","","","","","","","","","","","","","","","","","","","","","","","","",""
"1223","","image-button-response","128","705101","0.0-126.0","A2GIT09BQEUM9M","img_art/30.jpg","3","","","","","","","","","","","","","","","","","","","","","","","","",""
"3478","","image-button-response","129","708583","0.0-127.0-0.0","A2GIT09BQEUM9M","img_art/30.jpg","4","","","","","","","","","","","","","","","","","","","","","","","","",""
"667","","image-button-response","130","709254","0.0-128.0-0.0","A2GIT09BQEUM9M","img_art/30.jpg","0","","","","","","","","","","","","","","","","","","","","","","","","",""
"null","","html-keyboard-response","131","710757","0.0-129.0","A2GIT09BQEUM9M","<p style=""font-size: 48px;"">+</p>","","","","","null","allTrialResponses","1500","1","12","img_art/30.jpg","26","vibing I get a cool vibe from it. something good.","Molly,Jordan,Kylie,Sydney,Alexandria,Bailey","I like the way the artist has painted his work.,40,340,20","cant see the meaning behind it,-20,20,20","I can't figure this out,25,300,20","I love the colors, the style, and the uniqueness in this piece. I love everything.,50,320,20","the lines and colors look purposeful,18,80,20","No my favorite, but I do like the long strokes of color,11,360,20","Sydney","I love the colors, the style, and the uniqueness in this piece. I love everything.,50,320,20","Alexandria","the lines and colors look purposeful,18,80,20","Molly","I like the way the artist has painted his work.,40,340,20","4"
"23431","","survey-text","132","734199","0.0-130.0-0.0","A2GIT09BQEUM9M","","","","{""Q0"":""looks like an overcrowded city. not sure what the face is supposed to be, wind maybe.""}","","","","","","","","","","","","","","","","","","","","","","",""
"3154.399999999907","","image-slider-response","133","737356","0.0-131.0","A2GIT09BQEUM9M","","","","","-6","","","","","","","","","","","","","","","","","","","","","",""
"null","","image-button-response","134","742361","0.0-132.0","A2GIT09BQEUM9M","img_art/8.jpg","null","","","","","","","","","","","","","","","","","","","","","","","","",""
"4655","","image-button-response","135","747020","0.0-133.0","A2GIT09BQEUM9M","img_art/8.jpg","4","","","","","","","","","","","","","","","","","","","","","","","","",""
"1551","","image-button-response","136","748575","0.0-134.0-0.0","A2GIT09BQEUM9M","img_art/8.jpg","5","","","","","","","","","","","","","","","","","","","","","","","","",""
"1931","","image-button-response","137","750510","0.0-135.0-0.0","A2GIT09BQEUM9M","img_art/8.jpg","2","","","","","","","","","","","","","","","","","","","","","","","","",""
"null","","html-keyboard-response","138","752013","0.0-136.0","A2GIT09BQEUM9M","<p style=""font-size: 48px;"">+</p>","","","","","null","allTrialResponses","1500","1","13","img_art/8.jpg","-6","looks like an overcrowded city. not sure what the face is supposed to be, wind maybe.","Molly,Rachel,Laura,Sydney,Alexandria,Meghan","Different styles make this picture outstanding.,20,340,20","I like all of the faces that can be found in this piece. Interesting.,35,80,20","chaotic and disassembled,-8,320,20","I love the colors in this piece.,25,320,20","It is very colorful with a deeper meaning,25,80,20","the face is creepy,-49,220,20","Alexandria","It is very colorful with a deeper meaning,25,80,20","Meghan","the face is creepy,-49,220,20","Laura","chaotic and disassembled,-8,320,20","4"
"19003","","survey-text","139","771023","0.0-137.0-0.0","A2GIT09BQEUM9M","","","","{""Q0"":""looks kind of evil but on the water.""}","","","","","","","","","","","","","","","","","","","","","","",""
"3980.5","","image-slider-response","140","775007","0.0-138.0","A2GIT09BQEUM9M","","","","","-50","","","","","","","","","","","","","","","","","","","","","",""
"null","","image-button-response","141","780011","0.0-139.0","A2GIT09BQEUM9M","img_art/18.jpg","null","","","","","","","","","","","","","","","","","","","","","","","","",""
"2344","","image-button-response","142","782357","0.0-140.0","A2GIT09BQEUM9M","img_art/18.jpg","1","","","","","","","","","","","","","","","","","","","","","","","","",""
"1692","","image-button-response","143","784052","0.0-141.0-0.0","A2GIT09BQEUM9M","img_art/18.jpg","2","","","","","","","","","","","","","","","","","","","","","","","","",""
"6016","","image-button-response","144","790072","0.0-142.0-0.0","A2GIT09BQEUM9M","img_art/18.jpg","3","","","","","","","","","","","","","","","","","","","","","","","","",""
"null","","html-keyboard-response","145","791075","0.0-143.0","A2GIT09BQEUM9M","<p style=""font-size: 48px;"">+</p>","","","","","null","allTrialResponses","1000","1","14","img_art/18.jpg","-50","looks kind of evil but on the water.","Jacqueline,Diana,Laura,Margaret,Alexandria,Meghan","Kinda neat, looks like cavalry, or a knight.,15,300,20","This painting reminds me of the 4 horsemen of the apocalypse. It feels haunting.,31,380,20","afraid and anxious,21,320,20","reminds me of dying at sea in the 1700s,-8,100,20","the harsh lines with the smooth lines makes me think of wild animals,20,80,20","reminds me of sailors on a boat,17,220,20","Diana","This painting reminds me of the 4 horsemen of the apocalypse. It feels haunting.,31,380,20","Laura","afraid and anxious,21,320,20","Margaret","reminds me of dying at sea in the 1700s,-8,100,20","4"
"20392","","survey-text","146","811475","0.0-144.0-0.0","A2GIT09BQEUM9M","","","","{""Q0"":""that's different. don't know what else to say or what I'm even looking at. ""}","","","","","","","","","","","","","","","","","","","","","","",""
"4591.5","","image-slider-response","147","816070","0.0-145.0","A2GIT09BQEUM9M","","","","","-10","","","","","","","","","","","","","","","","","","","","","",""
"null","","image-button-response","148","821074","0.0-146.0","A2GIT09BQEUM9M","img_art/6.jpg","null","","","","","","","","","","","","","","","","","","","","","","","","",""
"5469","","image-button-response","149","826547","0.0-147.0","A2GIT09BQEUM9M","img_art/6.jpg","0","","","","","","","","","","","","","","","","","","","","","","","","",""
"3145","","image-button-response","150","829695","0.0-148.0-0.0","A2GIT09BQEUM9M","img_art/6.jpg","1","","","","","","","","","","","","","","","","","","","","","","","","",""
"3291","","image-button-response","151","832991","0.0-149.0-0.0","A2GIT09BQEUM9M","img_art/6.jpg","5","","","","","","","","","","","","","","","","","","","","","","","","",""
"null","","html-keyboard-response","152","833994","0.0-150.0","A2GIT09BQEUM9M","<p style=""font-size: 48px;"">+</p>","","","","","null","allTrialResponses","1000","1","15","img_art/6.jpg","-10","that's different. don't know what else to say or what I'm even looking at. ","Kristen,Diana,Laura,Margaret,Lindsey,Victoria","loneliness, fragile, forever alone, a girl who's been there for eternity, only think tracking time is the length of her hair,9,280,20","I love it. It reminds me of a bird sitting on a wall.,26,380,20","graceful and light,35,320,20","reminds me of a happy edgar allen poe poem,8,100,20","Simple, warm, hopeful.,12,400,20","makes me think of nature,30,400,20","Kristen","loneliness, fragile, forever alone, a girl who's been there for eternity, only think tracking time is the length of her hair,9,280,20","Diana","I love it. It reminds me of a bird sitting on a wall.,26,380,20","Victoria","makes me think of nature,30,400,20","4"
"4307","","survey-text","153","838313","0.0-151.0-0.0","A2GIT09BQEUM9M","","","","{""Q0"":""course""}","","","","","","","","","","","","","","","","","","","","","","",""
"20903","","survey-text","154","859219","0.0-152.0-0.0","A2GIT09BQEUM9M","","","","{""Q0"":""a bit out of the ordinary. looks like a man wandering around lost.""}","","","","","","","","","","","","","","","","","","","","","","",""
"3982.4000000001397","","image-slider-response","155","863205","0.0-153.0","A2GIT09BQEUM9M","","","","","-7","","","","","","","","","","","","","","","","","","","","","",""
"null","","image-button-response","156","868209","0.0-154.0","A2GIT09BQEUM9M","img_art/19.jpg","null","","","","","","","","","","","","","","","","","","","","","","","","",""
"881","","image-button-response","157","869092","0.0-155.0","A2GIT09BQEUM9M","img_art/19.jpg","0","","","","","","","","","","","","","","","","","","","","","","","","",""
"14899","","image-button-response","158","883994","0.0-156.0-0.0","A2GIT09BQEUM9M","img_art/19.jpg","2","","","","","","","","","","","","","","","","","","","","","","","","",""
"2417","","image-button-response","159","886416","0.0-157.0-0.0","A2GIT09BQEUM9M","img_art/19.jpg","4","","","","","","","","","","","","","","","","","","","","","","","","",""
"null","","html-keyboard-response","160","887919","0.0-158.0","A2GIT09BQEUM9M","<p style=""font-size: 48px;"">+</p>","","","","","null","allTrialResponses","1500","1","16","img_art/19.jpg","-7","a bit out of the ordinary. looks like a man wandering around lost.","Kristen,Diana,Kimberly,Madison,Brianna,Victoria","city, stress of urbanism, slightly panicked,2,280,20","I wasn't sure if I liked it or hated it. It oddly reminds me of a clothing store.,11,380,20","The blue makes it look like it has depth,11,260,20","Seems unfinished and sloppy,-11,60,20","I don't know what's going on, and I realise that I don't like it,-21,20,20","to much going on,-22,400,20","Kristen","city, stress of urbanism, slightly panicked,2,280,20","Kimberly","The blue makes it look like it has depth,11,260,20","Brianna","I don't know what's going on, and I realise that I don't like it,-21,20,20","4"
"10547","","survey-text","161","898475","0.0-159.0-0.0","A2GIT09BQEUM9M","","","","{""Q0"":""a woman asleep in the bed. ""}","","","","","","","","","","","","","","","","","","","","","","",""
"2611.8000000000466","","image-slider-response","162","901090","0.0-160.0","A2GIT09BQEUM9M","","","","","-17","","","","","","","","","","","","","","","","","","","","","",""
"2302","","image-button-response","163","906094","0.0-161.0","A2GIT09BQEUM9M","img_art/9.jpg","3","","","","","","","","","","","","","","","","","","","","","","","","",""
"631","","image-button-response","164","906729","0.0-162.0","A2GIT09BQEUM9M","img_art/9.jpg","3","","","","","","","","","","","","","","","","","","","","","","","","",""
"13009","","image-button-response","165","919742","0.0-163.0-0.0","A2GIT09BQEUM9M","img_art/9.jpg","1","","","","","","","","","","","","","","","","","","","","","","","","",""
"1472","","image-button-response","166","921219","0.0-164.0-0.0","A2GIT09BQEUM9M","img_art/9.jpg","5","","","","","","","","","","","","","","","","","","","","","","","","",""
"null","","html-keyboard-response","167","922722","0.0-165.0","A2GIT09BQEUM9M","<p style=""font-size: 48px;"">+</p>","","","","","null","allTrialResponses","1500","1","17","img_art/9.jpg","-17","a woman asleep in the bed. ","Kristen,Alyssa,Kimberly,Sierra,Brianna,Briana","sleep, calm, safe,12,280,20","Unpleasant, alot of dark colors and strange lines,-26,160,20","It's too all over the place,-37,260,20","it looks like a lady resting. it is soothing.,4,260,20","This has some of my favorite colors, and I like it,21,20,20","I see a foot. Idk colors are pleasant,12,400,20","Sierra","it looks like a lady resting. it is soothing.,4,260,20","Alyssa","Unpleasant, alot of dark colors and strange lines,-26,160,20","Briana","I see a foot. Idk colors are pleasant,12,400,20","4"
"7882","","survey-text","168","930611","0.0-166.0-0.0","A2GIT09BQEUM9M","","","","{""Q0"":""a mess.""}","","","","","","","","","","","","","","","","","","","","","","",""
"2716.9000000001397","","image-slider-response","169","933332","0.0-167.0","A2GIT09BQEUM9M","","","","","-50","","","","","","","","","","","","","","","","","","","","","",""
"3022","","image-button-response","170","938336","0.0-168.0","A2GIT09BQEUM9M","img_art/14.jpg","0","","","","","","","","","","","","","","","","","","","","","","","","",""
"841","","image-button-response","171","939182","0.0-169.0","A2GIT09BQEUM9M","img_art/14.jpg","0","","","","","","","","","","","","","","","","","","","","","","","","",""
"2255","","image-button-response","172","941441","0.0-170.0-0.0","A2GIT09BQEUM9M","img_art/14.jpg","4","","","","","","","","","","","","","","","","","","","","","","","","",""
"1969","","image-button-response","173","943414","0.0-171.0-0.0","A2GIT09BQEUM9M","img_art/14.jpg","5","","","","","","","","","","","","","","","","","","","","","","","","",""
"null","","html-keyboard-response","174","944416","0.0-172.0","A2GIT09BQEUM9M","<p style=""font-size: 48px;"">+</p>","","","","","null","allTrialResponses","1000","1","18","img_art/14.jpg","-50","a mess.","Julia,Alyssa,Caitlin,Sierra,Jennifer,Briana","I don't care for the style,-38,40,20","Beautiful tree,the use of water colors makes it soothing to look at,37,160,20","Are they blowing up a tree?,-5,80,20","it put me on edge.,-11,260,20","This piece is average compared to the others.,1,380,20","Simplistic. Looks like a child did it,14,400,20","Julia","I don't care for the style,-38,40,20","Jennifer","This piece is average compared to the others.,1,380,20","Briana","Simplistic. Looks like a child did it,14,400,20","4"
"10880","","survey-text","175","955305","0.0-173.0-0.0","A2GIT09BQEUM9M","","","","{""Q0"":""a train possibly ""}","","","","","","","","","","","","","","","","","","","","","","",""
"2773.6999999999534","","image-slider-response","176","958082","0.0-174.0","A2GIT09BQEUM9M","","","","","27","","","","","","","","","","","","","","","","","","","","","",""
"null","","image-button-response","177","963086","0.0-175.0","A2GIT09BQEUM9M","img_art/11.jpg","null","","","","","","","","","","","","","","","","","","","","","","","","",""
"3636","","image-button-response","178","966726","0.0-176.0","A2GIT09BQEUM9M","img_art/11.jpg","3","","","","","","","","","","","","","","","","","","","","","","","","",""
"4970","","image-button-response","179","971700","0.0-177.0-0.0","A2GIT09BQEUM9M","img_art/11.jpg","2","","","","","","","","","","","","","","","","","","","","","","","","",""
"2951","","image-button-response","180","974656","0.0-178.0-0.0","A2GIT09BQEUM9M","img_art/11.jpg","0","","","","","","","","","","","","","","","","","","","","","","","","",""
"null","","html-keyboard-response","181","975159","0.0-179.0","A2GIT09BQEUM9M","<p style=""font-size: 48px;"">+</p>","","","","","null","allTrialResponses","500","1","19","img_art/11.jpg","27","a train possibly ","Julia,Melissa,Anna,Courtney,Jennifer,Briana","this looks like a beautiful rainy day in a hellish urban mountain city,14,40,20","reminds me of home,5,240,20","It makes me think of a coastal sea town.,50,300,20","Thats a creepy old rollercoasters abandoned,-2,280,20","The narrow groups of lines in the center make me feel uneasy for some reason,-31,380,20","Grays arent my thing,-25,400,20","Courtney","Thats a creepy old rollercoasters abandoned,-2,280,20","Anna","It makes me think of a coastal sea town.,50,300,20","Julia","this looks like a beautiful rainy day in a hellish urban mountain city,14,40,20","4"
"17546","","survey-text","182","992714","0.0-180.0-0.0","A2GIT09BQEUM9M","","","","{""Q0"":""it looks like an old ink holder, holding the pen""}","","","","","","","","","","","","","","","","","","","","","","",""
"3362.600000000093","","image-slider-response","183","996080","0.0-181.0","A2GIT09BQEUM9M","","","","","4","","","","","","","","","","","","","","","","","","","","","",""
"null","","image-button-response","184","1001084","0.0-182.0","A2GIT09BQEUM9M","img_art/5.jpg","null","","","","","","","","","","","","","","","","","","","","","","","","",""
"2953","","image-button-response","185","1004040","0.0-183.0","A2GIT09BQEUM9M","img_art/5.jpg","1","","","","","","","","","","","","","","","","","","","","","","","","",""
"2504","","image-button-response","186","1006548","0.0-184.0-0.0","A2GIT09BQEUM9M","img_art/5.jpg","0","","","","","","","","","","","","","","","","","","","","","","","","",""
"7121","","image-button-response","187","1013673","0.0-185.0-0.0","A2GIT09BQEUM9M","img_art/5.jpg","4","","","","","","","","","","","","","","","","","","","","","","","","",""
"null","","html-keyboard-response","188","1014177","0.0-186.0","A2GIT09BQEUM9M","<p style=""font-size: 48px;"">+</p>","","","","","null","allTrialResponses","500","1","20","img_art/5.jpg","4","it looks like an old ink holder, holding the pen","Julia,Michaela,Anna,Courtney,Amber,Cynthia","I like this one but wish it had more context around it,18,40,20","Pretty simple, I'm not sure what it's supposed to mean,14,260,20","It's kind of boring.,-20,300,20","A rabbits head.,4,280,20","Missing something,-5,200,20","boring and unsure,-25,320,20","Michaela","Pretty simple, I'm not sure what it's supposed to mean,14,260,20","Julia","I like this one but wish it had more context around it,18,40,20","Amber","Missing something,-5,200,20","4"
"3426","","survey-text","189","1017624","0.0-187.0-0.0","A2GIT09BQEUM9M","","","","{""Q0"":""we""}","","","","","","","","","","","","","","","","","","","","","","",""
"11913","","survey-text","190","1029540","0.0-188.0-0.0","A2GIT09BQEUM9M","","","","{""Q0"":""beautiful. reminds me of rain. soothing.""}","","","","","","","","","","","","","","","","","","","","","","",""
"3065.899999999907","","image-slider-response","191","1032609","0.0-189.0","A2GIT09BQEUM9M","","","","","50","","","","","","","","","","","","","","","","","","","","","",""
"null","","image-button-response","192","1037613","0.0-190.0","A2GIT09BQEUM9M","img_art/13.jpg","null","","","","","","","","","","","","","","","","","","","","","","","","",""
"697","","image-button-response","193","1038313","0.0-191.0","A2GIT09BQEUM9M","img_art/13.jpg","1","","","","","","","","","","","","","","","","","","","","","","","","",""
"6749","","image-button-response","194","1045067","0.0-192.0-0.0","A2GIT09BQEUM9M","img_art/13.jpg","4","","","","","","","","","","","","","","","","","","","","","","","","",""
"4306","","image-button-response","195","1049377","0.0-193.0-0.0","A2GIT09BQEUM9M","img_art/13.jpg","2","","","","","","","","","","","","","","","","","","","","","","","","",""
"null","","html-keyboard-response","196","1050380","0.0-194.0","A2GIT09BQEUM9M","<p style=""font-size: 48px;"">+</p>","","","","","null","allTrialResponses","1000","1","21","img_art/13.jpg","50","beautiful. reminds me of rain. soothing.","Julia,Michaela,Andrea,Tiffany,Amber,Miranda","I don't really care for splatter paintings; the spectral colors underneath are nice.,-18,40,20","The colors are really pretty together,39,260,20","Raindrops on a window. Makes me feel like traveling.,31,240,20","The painting makes me feel awe and like I am very little. Like I am alone at the bottom of the ocean.,41,360,20","Reminds me of rain running down a window.,35,200,20","This looks like something that could be made off of windows paint, not a huge fan.,-30,320,20","Michaela","The colors are really pretty together,39,260,20","Amber","Reminds me of rain running down a window.,35,200,20","Andrea","Raindrops on a window. Makes me feel like traveling.,31,240,20","4"
"19513","","survey-text","197","1069903","0.0-195.0-0.0","A2GIT09BQEUM9M","","","","{""Q0"":""looks like he came up out of the grave and is bones.""}","","","","","","","","","","","","","","","","","","","","","","",""
"4132.399999999907","","image-slider-response","198","1074039","0.0-196.0","A2GIT09BQEUM9M","","","","","27","","","","","","","","","","","","","","","","","","","","","",""
"null","","image-button-response","199","1079043","0.0-197.0","A2GIT09BQEUM9M","img_art/25.jpg","null","","","","","","","","","","","","","","","","","","","","","","","","",""
"958","","image-button-response","200","1080004","0.0-198.0","A2GIT09BQEUM9M","img_art/25.jpg","2","","","","","","","","","","","","","","","","","","","","","","","","",""
"3383","","image-button-response","201","1083392","0.0-199.0-0.0","A2GIT09BQEUM9M","img_art/25.jpg","4","","","","","","","","","","","","","","","","","","","","","","","","",""
"1494","","image-button-response","202","1084891","0.0-200.0-0.0","A2GIT09BQEUM9M","img_art/25.jpg","5","","","","","","","","","","","","","","","","","","","","","","","","",""
"null","","html-keyboard-response","203","1085394","0.0-201.0","A2GIT09BQEUM9M","<p style=""font-size: 48px;"">+</p>","","","","","null","allTrialResponses","500","1","22","img_art/25.jpg","27","looks like he came up out of the grave and is bones.","Cheyenne,Michaela,Andrea,Angelica,Amber,Kelsey","It's nice but nothing special.,7,200,20","It looks like people worshipping a statue,33,260,20","Looks like Burning Man, dont care for the colors.,-5,240,20","This is strange and poorly done.,-2,280,20","Regal. Reminds me of Egyptian art.,11,200,20","quite unnerving,-15,240,20","Andrea","Looks like Burning Man, dont care for the colors.,-5,240,20","Amber","Regal. Reminds me of Egyptian art.,11,200,20","Kelsey","quite unnerving,-15,240,20","4"
"11703","","survey-text","204","1097106","0.0-202.0-0.0","A2GIT09BQEUM9M","","","","{""Q0"":""bloody. really bad feelings.""}","","","","","","","","","","","","","","","","","","","","","","",""
"3073.6999999999534","","image-slider-response","205","1100183","0.0-203.0","A2GIT09BQEUM9M","","","","","-12","","","","","","","","","","","","","","","","","","","","","",""
"null","","image-button-response","206","1105187","0.0-204.0","A2GIT09BQEUM9M","img_art/3.jpg","null","","","","","","","","","","","","","","","","","","","","","","","","",""
"1035","","image-button-response","207","1106225","0.0-205.0","A2GIT09BQEUM9M","img_art/3.jpg","4","","","","","","","","","","","","","","","","","","","","","","","","",""
"879","","image-button-response","208","1107107","0.0-206.0-0.0","A2GIT09BQEUM9M","img_art/3.jpg","0","","","","","","","","","","","","","","","","","","","","","","","","",""
"7679","","image-button-response","209","1114789","0.0-207.0-0.0","A2GIT09BQEUM9M","img_art/3.jpg","1","","","","","","","","","","","","","","","","","","","","","","","","",""
"null","","html-keyboard-response","210","1115792","0.0-208.0","A2GIT09BQEUM9M","<p style=""font-size: 48px;"">+</p>","","","","","null","allTrialResponses","1000","1","23","img_art/3.jpg","-12","bloody. really bad feelings.","Makayla,Ashley,Andrea,Brooke,Amber,Kelsey","Looks like blood scribbled on walls,-20,80,20","Reminds of John Lenonn's art a bit.,27,320,20","I don't feel anything, it seems childish.,-25,240,20","kid scribbled on the wall again,-35,60,20","seems to be a lot of angry scribble.,-20,200,20","just scribbles, not pleasing,-30,240,20","Amber","seems to be a lot of angry scribble.,-20,200,20","Makayla","Looks like blood scribbled on walls,-20,80,20","Ashley","Reminds of John Lenonn's art a bit.,27,320,20","4"
"18156","","survey-text","211","1133958","0.0-209.0-0.0","A2GIT09BQEUM9M","","","","{""Q0"":""I'm just lost on this one. no reaction.""}","","","","","","","","","","","","","","","","","","","","","","",""
"2588.5","","image-slider-response","212","1136550","0.0-210.0","A2GIT09BQEUM9M","","","","","-50","","","","","","","","","","","","","","","","","","","","","",""
"null","","image-button-response","213","1141553","0.0-211.0","A2GIT09BQEUM9M","img_art/27.jpg","null","","","","","","","","","","","","","","","","","","","","","","","","",""
"2125","","image-button-response","214","1143682","0.0-212.0","A2GIT09BQEUM9M","img_art/27.jpg","3","","","","","","","","","","","","","","","","","","","","","","","","",""
"2782","","image-button-response","215","1146468","0.0-213.0-0.0","A2GIT09BQEUM9M","img_art/27.jpg","5","","","","","","","","","","","","","","","","","","","","","","","","",""
"2764","","image-button-response","216","1149237","0.0-214.0-0.0","A2GIT09BQEUM9M","img_art/27.jpg","2","","","","","","","","","","","","","","","","","","","","","","","","",""
"null","","html-keyboard-response","217","1149740","0.0-215.0","A2GIT09BQEUM9M","<p style=""font-size: 48px;"">+</p>","","","","","null","allTrialResponses","500","1","24","img_art/27.jpg","-50","I'm just lost on this one. no reaction.","Makayla,Ashley,Kelly,Mackenzie,Amber,Rebecca","Calming sky , relaxing,23,80,20","Lots of activity, layers, imagination at work here.,29,320,20","The green stick drawings or whatever they are ruin it for me.,-23,220,20","The color palette isn't my taste,-24,20,20","I like the colors.,6,200,20","don't understand, the green induces confusion,1,100,20","Mackenzie","The color palette isn't my taste,-24,20,20","Rebecca","don't understand, the green induces confusion,1,100,20","Kelly","The green stick drawings or whatever they are ruin it for me.,-23,220,20","4"
"15110","","survey-text","218","1164858","0.0-216.0-0.0","A2GIT09BQEUM9M","","","","{""Q0"":""very cool. like a storm peering thru the clouds.""}","","","","","","","","","","","","","","","","","","","","","","",""
"9054.90000000014","","image-slider-response","219","1173916","0.0-217.0","A2GIT09BQEUM9M","","","","","0","","","","","","","","","","","","","","","","","","","","","",""
"4499","","image-button-response","220","1178920","0.0-218.0","A2GIT09BQEUM9M","img_art/21.jpg","0","","","","","","","","","","","","","","","","","","","","","","","","",""
"9005","","image-button-response","221","1187928","0.0-219.0","A2GIT09BQEUM9M","img_art/21.jpg","5","","","","","","","","","","","","","","","","","","","","","","","","",""
"1040","","image-button-response","222","1188972","0.0-220.0-0.0","A2GIT09BQEUM9M","img_art/21.jpg","2","","","","","","","","","","","","","","","","","","","","","","","","",""
"2465","","image-button-response","223","1191442","0.0-221.0-0.0","A2GIT09BQEUM9M","img_art/21.jpg","0","","","","","","","","","","","","","","","","","","","","","","","","",""
"null","","html-keyboard-response","224","1191945","0.0-222.0","A2GIT09BQEUM9M","<p style=""font-size: 48px;"">+</p>","","","","","null","allTrialResponses","500","1","25","img_art/21.jpg","0","very cool. like a storm peering thru the clouds.","Jenna,Michelle,Kelly,Mackenzie,Vanessa,Rebecca","beautiful. reminds me of a storm brewing over sea. i love the white dots.,45,360,20","The colors are very nice. I like the dots because they remind me of pearls,5,280,20","It actually reminded me of a place I've been to. So I had a positive reaction to it.,22,220,20","The shapes and colors are very interesting to look at.,41,20,20","The colors and softness work together to make something that's lovely.,42,380,20","stormy with gold lining,0,100,20","Rebecca","stormy with gold lining,0,100,20","Kelly","It actually reminded me of a place I've been to. So I had a positive reaction to it.,22,220,20","Jenna","beautiful. reminds me of a storm brewing over sea. i love the white dots.,45,360,20","4"
"4794","","survey-text","225","1196756","0.0-223.0-0.0","A2GIT09BQEUM9M","","","","{""Q0"":""table""}","","","","","","","","","","","","","","","","","","","","","","",""
"18324","","survey-text","226","1215083","0.0-224.0-0.0","A2GIT09BQEUM9M","","","","{""Q0"":""looks like someone is holding on to a ledge on a cliff.""}","","","","","","","","","","","","","","","","","","","","","","",""
"2534.4000000001397","","image-slider-response","227","1217621","0.0-225.0","A2GIT09BQEUM9M","","","","","28","","","","","","","","","","","","","","","","","","","","","",""
"null","","image-button-response","228","1222625","0.0-226.0","A2GIT09BQEUM9M","img_art/22.jpg","null","","","","","","","","","","","","","","","","","","","","","","","","",""
"2969","","image-button-response","229","1225597","0.0-227.0","A2GIT09BQEUM9M","img_art/22.jpg","0","","","","","","","","","","","","","","","","","","","","","","","","",""
"360","","image-button-response","230","1225961","0.0-228.0-0.0","A2GIT09BQEUM9M","img_art/22.jpg","1","","","","","","","","","","","","","","","","","","","","","","","","",""
"398","","image-button-response","231","1226364","0.0-229.0-0.0","A2GIT09BQEUM9M","img_art/22.jpg","2","","","","","","","","","","","","","","","","","","","","","","","","",""
"null","","html-keyboard-response","232","1227867","0.0-230.0","A2GIT09BQEUM9M","<p style=""font-size: 48px;"">+</p>","","","","","null","allTrialResponses","1500","1","26","img_art/22.jpg","28","looks like someone is holding on to a ledge on a cliff.","Jenna,Madeline,Kelly,Destiny,Cassandra,Rebecca","beautiful. love the bright colors & soft brush strokes, and the imprint of the key is genius.,50,360,20","I really like the colors here,3,40,20","I really enjoy the blended colors.,20,220,20","so boring. Wow you made some circles some squares very nice,-40,360,20","Don't like it...too much red,-17,120,20","colorful water (in front of castle?),17,100,20","Jenna","beautiful. love the bright colors & soft brush strokes, and the imprint of the key is genius.,50,360,20","Madeline","I really like the colors here,3,40,20","Kelly","I really enjoy the blended colors.,20,220,20","4"
"8876","","survey-text","233","1236752","0.0-231.0-0.0","A2GIT09BQEUM9M","","","","{""Q0"":""creepy house. ""}","","","","","","","","","","","","","","","","","","","","","","",""
"3084.3000000000466","","image-slider-response","234","1239839","0.0-232.0","A2GIT09BQEUM9M","","","","","24","","","","","","","","","","","","","","","","","","","","","",""
"null","","image-button-response","235","1244843","0.0-233.0","A2GIT09BQEUM9M","img_art/20.jpg","null","","","","","","","","","","","","","","","","","","","","","","","","",""
"153","","image-button-response","236","1244998","0.0-234.0","A2GIT09BQEUM9M","img_art/20.jpg","1","","","","","","","","","","","","","","","","","","","","","","","","",""
"4493","","image-button-response","237","1249495","0.0-235.0-0.0","A2GIT09BQEUM9M","img_art/20.jpg","2","","","","","","","","","","","","","","","","","","","","","","","","",""
"1753","","image-button-response","238","1251252","0.0-236.0-0.0","A2GIT09BQEUM9M","img_art/20.jpg","5","","","","","","","","","","","","","","","","","","","","","","","","",""
"null","","html-keyboard-response","239","1252254","0.0-237.0","A2GIT09BQEUM9M","<p style=""font-size: 48px;"">+</p>","","","","","null","allTrialResponses","1000","1","27","img_art/20.jpg","24","creepy house. ","Jenna,Madeline,Kelly,Savannah,Abigail,Sara","could look for hours. love the brush work. color choices look like a desert.,50,360,20","Looks somewhat dark and emotional,-10,40,20","I want to like this more, but i wish it was more detailed. It's hard for me to see what it is.,5,220,20","Lovely composition, colors, and message.,35,200,20","A mountain vacation,46,20,20","Looks calm but a bit dark,21,160,20","Madeline","Looks somewhat dark and emotional,-10,40,20","Kelly","I want to like this more, but i wish it was more detailed. It's hard for me to see what it is.,5,220,20","Sara","Looks calm but a bit dark,21,160,20","4"
"8634","","survey-text","240","1260898","0.0-238.0-0.0","A2GIT09BQEUM9M","","","","{""Q0"":""just blah.""}","","","","","","","","","","","","","","","","","","","","","","",""
"2851.8000000000466","","image-slider-response","241","1263753","0.0-239.0","A2GIT09BQEUM9M","","","","","-50","","","","","","","","","","","","","","","","","","","","","",""
"null","","image-button-response","242","1268758","0.0-240.0","A2GIT09BQEUM9M","img_art/1.jpg","null","","","","","","","","","","","","","","","","","","","","","","","","",""
"3536","","image-button-response","243","1272296","0.0-241.0","A2GIT09BQEUM9M","img_art/1.jpg","0","","","","","","","","","","","","","","","","","","","","","","","","",""
"1157","","image-button-response","244","1273457","0.0-242.0-0.0","A2GIT09BQEUM9M","img_art/1.jpg","4","","","","","","","","","","","","","","","","","","","","","","","","",""
"3215","","image-button-response","245","1276677","0.0-243.0-0.0","A2GIT09BQEUM9M","img_art/1.jpg","5","","","","","","","","","","","","","","","","","","","","","","","","",""
"null","","html-keyboard-response","246","1278179","0.0-244.0","A2GIT09BQEUM9M","<p style=""font-size: 48px;"">+</p>","","","","","null","allTrialResponses","1500","1","28","img_art/1.jpg","-50","just blah.","Hailey,Madeline,Kelly,Taylor,Catherine,Sara","colors that are fairly warm. its ok,8,200,20","Quite messy looking,-22,40,20","I love colorful photos and I like this one a lot.,25,220,20","Makes me think of a bad thunderstorm,11,340,20","confused,animal like brain fog,0,160,20","I feel uneasy looking at this,-41,160,20","Hailey","colors that are fairly warm. its ok,8,200,20","Catherine","confused,animal like brain fog,0,160,20","Sara","I feel uneasy looking at this,-41,160,20","4"
"21177","","survey-text","247","1299369","0.0-245.0-0.0","A2GIT09BQEUM9M","","","","{""Q0"":""not sure what it is but it reminds me of a peacock.""}","","","","","","","","","","","","","","","","","","","","","","",""
"2812.3000000000466","","image-slider-response","248","1302185","0.0-246.0","A2GIT09BQEUM9M","","","","","-23","","","","","","","","","","","","","","","","","","","","","",""
"1861","","image-button-response","249","1307189","0.0-247.0","A2GIT09BQEUM9M","img_art/15.jpg","0","","","","","","","","","","","","","","","","","","","","","","","","",""
"733","","image-button-response","250","1307926","0.0-248.0","A2GIT09BQEUM9M","img_art/15.jpg","0","","","","","","","","","","","","","","","","","","","","","","","","",""
"3727","","image-button-response","251","1311656","0.0-249.0-0.0","A2GIT09BQEUM9M","img_art/15.jpg","5","","","","","","","","","","","","","","","","","","","","","","","","",""
"970","","image-button-response","252","1312630","0.0-250.0-0.0","A2GIT09BQEUM9M","img_art/15.jpg","2","","","","","","","","","","","","","","","","","","","","","","","","",""
"null","","html-keyboard-response","253","1313132","0.0-251.0","A2GIT09BQEUM9M","<p style=""font-size: 48px;"">+</p>","","","","","null","allTrialResponses","500","1","29","img_art/15.jpg","-23","not sure what it is but it reminds me of a peacock.","Hailey,Kathryn,Danielle,Marissa,Catherine,Sara","ugly picture and don't like it,-22,200,20","This is looking at a forest from above. I can see water and some pathways throughout. Nature.,20,140,20","This is pretty nice, reminds me of dark peacock feathers, or perhaps a bush with berries in it?,15,340,20","I am reminded of spring flowers swaying in the dark night's breeze,9,160,20","ants on the ground playing with bubble gum. They may be thinking of how they can use it to build something,-30,160,20","I don't like the black dots,-19,160,20","Hailey","ugly picture and don't like it,-22,200,20","Sara","I don't like the black dots,-19,160,20","Danielle","This is pretty nice, reminds me of dark peacock feathers, or perhaps a bush with berries in it?,15,340,20","4"
"31717","","survey-text","254","1344860","0.0-252.0-0.0","A2GIT09BQEUM9M","","","","{""Q0"":""feel like I'm looking down and somebody was working hard and then somebody else Xed it all out.""}","","","","","","","","","","","","","","","","","","","","","","",""
"7570.399999999907","","image-slider-response","255","1352433","0.0-253.0","A2GIT09BQEUM9M","","","","","-11","","","","","","","","","","","","","","","","","","","","","",""
"null","","image-button-response","256","1357438","0.0-254.0","A2GIT09BQEUM9M","img_art/29.jpg","null","","","","","","","","","","","","","","","","","","","","","","","","",""
"1793","","image-button-response","257","1359233","0.0-255.0","A2GIT09BQEUM9M","img_art/29.jpg","3","","","","","","","","","","","","","","","","","","","","","","","","",""
"6464","","image-button-response","258","1365701","0.0-256.0-0.0","A2GIT09BQEUM9M","img_art/29.jpg","2","","","","","","","","","","","","","","","","","","","","","","","","",""
"367","","image-button-response","259","1366073","0.0-257.0-0.0","A2GIT09BQEUM9M","img_art/29.jpg","1","","","","","","","","","","","","","","","","","","","","","","","","",""
"null","","html-keyboard-response","260","1367075","0.0-258.0","A2GIT09BQEUM9M","<p style=""font-size: 48px;"">+</p>","","","","","null","allTrialResponses","1000","1","30","img_art/29.jpg","-11","feel like I'm looking down and somebody was working hard and then somebody else Xed it all out.","Hailey,Olivia,Danielle,Brittany,Sophia,Sara","a hot fireplace with things to burn. warm,12,200,20","too challenging to comprehend,-28,40,20","Quite ugly in my opinion,-30,340,20","It looks likes there's a lot going on, but they don't fit together.,2,40,20","It's creative. It's just not my thing.,-32,280,20","I don't like the black,-50,160,20","Brittany","It looks likes there's a lot going on, but they don't fit together.,2,40,20","Danielle","Quite ugly in my opinion,-30,340,20","Olivia","too challenging to comprehend,-28,40,20","4"
"3210","","image-button-response_instructions","261","1370295","0.0-259.0","A2GIT09BQEUM9M","","0","instructions","","","","","","","","","","","","","","","","","","","","","","","",""
"1253","","image-button-response","262","1371557","0.0-260.0","A2GIT09BQEUM9M","","0","","","","","","","","","","","","","","","","","","","","","","","","",""
