"rt","url","trial_type","trial_index","time_elapsed","internal_node_id","participant_id","stimulus","button_pressed","Name","responses","response","key_press","variableName","fixationTime","condition","trial","photo","subjectRating","subjectResponse","agentsNames","agent_1_Response","agent_2_Response","agent_3_Response","agent_4_Response","agent_5_Response","agent_6_Response","kept_1_name","kept_1_response","kept_2_name","kept_2_response","kept_3_name","kept_3_response","errorCounter"
"33066","external_page_harvard.html","external-html","0","33185","0.0-0.0","A2H1QUGX0SOUMH","","","","","","","","","","","","","","","","","","","","","","","","","","",""
"4376","","image-button-response","1","37563","0.0-1.0","A2H1QUGX0SOUMH","","0","","","","","","","","","","","","","","","","","","","","","","","","",""
"6614","","image-button-response","2","44184","0.0-2.0-0.0","A2H1QUGX0SOUMH","","1","phone","","","","","","","","","","","","","","","","","","","","","","","",""
"5384","","survey-text","3","49570","0.0-3.0-0.0","A2H1QUGX0SOUMH","","","","{""Q0"":""A2H1QUGX0SOUMH""}","","","","","","","","","","","","","","","","","","","","","","",""
"13565","","image-button-response_instructions","4","63139","0.0-4.0","A2H1QUGX0SOUMH","","0","instructions","","","","","","","","","","","","","","","","","","","","","","","",""
"14954","","image-button-response_instructions","5","78094","0.0-5.0","A2H1QUGX0SOUMH","img_art/ins/popularity/ins1.png","0","instructions","","","","","","","","","","","","","","","","","","","","","","","",""
"8510","","image-button-response_instructions","6","86606","0.0-6.0","A2H1QUGX0SOUMH","img_art/ins/popularity/ins2.png","0","instructions","","","","","","","","","","","","","","","","","","","","","","","",""
"6964","","image-button-response_instructions","7","93572","0.0-7.0","A2H1QUGX0SOUMH","img_art/ins/popularity/ins2Extreme.png","0","instructions","","","","","","","","","","","","","","","","","","","","","","","",""
"12749","","image-button-response_instructions","8","106322","0.0-8.0","A2H1QUGX0SOUMH","img_art/ins/popularity/ins3KEEPpop.PNG","0","instructions","","","","","","","","","","","","","","","","","","","","","","","",""
"4578","","image-button-response_instructions","9","110902","0.0-9.0","A2H1QUGX0SOUMH","img_art/ins/popularity/ins3ANamepop.PNG","0","instructions","","","","","","","","","","","","","","","","","","","","","","","",""
"5487","","image-button-response_instructions","10","116390","0.0-10.0","A2H1QUGX0SOUMH","img_art/ins/popularity/ins3ARatingpop.png","0","instructions","","","","","","","","","","","","","","","","","","","","","","","",""
"3346","","image-button-response_instructions","11","119737","0.0-11.0","A2H1QUGX0SOUMH","img_art/ins/popularity/ins3ATextpop.png","0","instructions","","","","","","","","","","","","","","","","","","","","","","","",""
"6312","","image-button-response_instructions","12","126050","0.0-12.0","A2H1QUGX0SOUMH","img_art/ins/popularity/ins3ALikespop.png","0","instructions","","","","","","","","","","","","","","","","","","","","","","","",""
"17455","","image-button-response_instructions","13","143506","0.0-13.0","A2H1QUGX0SOUMH","img_art/ins/popularity/ins3KEEPpop.PNG","0","instructions","","","","","","","","","","","","","","","","","","","","","","","",""
"9739","","image-button-response_instructions","14","153246","0.0-14.0","A2H1QUGX0SOUMH","img_art/ins/popularity/ins3_5RED.png","0","instructions","","","","","","","","","","","","","","","","","","","","","","","",""
"3918","","image-button-response_instructions","15","157166","0.0-15.0","A2H1QUGX0SOUMH","img_art/ins/popularity/ins3KEEPpop.PNG","0","instructions","","","","","","","","","","","","","","","","","","","","","","","",""
"8022","","image-button-response_instructions","16","165190","0.0-16.0","A2H1QUGX0SOUMH","img_art/ins/popularity/ins4KEEPpop.PNG","0","instructions","","","","","","","","","","","","","","","","","","","","","","","",""
"8244","","image-button-response_instructions","17","173434","0.0-17.0","A2H1QUGX0SOUMH","img_art/ins/popularity/ins5KEEPpop.PNG","0","instructions","","","","","","","","","","","","","","","","","","","","","","","",""
"1595","","image-button-response_instructions","18","175031","0.0-18.0","A2H1QUGX0SOUMH","","0","instructions","","","","","","","","","","","","","","","","","","","","","","","",""
"10134","","survey-text","19","185194","0.0-19.0-0.0","A2H1QUGX0SOUMH","","","","{""Q0"":""but""}","","","","","","","","","","","","","","","","","","","","","","",""
"32362","","survey-text","20","217559","0.0-20.0-0.0","A2H1QUGX0SOUMH","","","","{""Q0"":""Feels like being carried down a waterfall.""}","","","","","","","","","","","","","","","","","","","","","","",""
"7244.5","","image-slider-response","21","224807","0.0-21.0","A2H1QUGX0SOUMH","","","","","21","","","","","","","","","","","","","","","","","","","","","",""
"null","","image-button-response","22","229813","0.0-22.0","A2H1QUGX0SOUMH","img_art/ins/1.jpg","null","","","","","","","","","","","","","","","","","","","","","","","","",""
"6566","","image-button-response","23","236383","0.0-23.0","A2H1QUGX0SOUMH","img_art/ins/1.jpg","5","","","","","","","","","","","","","","","","","","","","","","","","",""
"6893","","image-button-response","24","243279","0.0-24.0-0.0","A2H1QUGX0SOUMH","img_art/ins/1.jpg","1","","","","","","","","","","","","","","","","","","","","","","","","",""
"733","","image-button-response","25","244015","0.0-25.0-0.0","A2H1QUGX0SOUMH","img_art/ins/1.jpg","3","","","","","","","","","","","","","","","","","","","","","","","","",""
"null","","html-keyboard-response","26","245517","0.0-26.0","A2H1QUGX0SOUMH","<p style=""font-size: 48px;"">+</p>","","","","","null","allTrialResponses","1500","1","-2","img_art/ins/1.jpg","21","Feels like being carried down a waterfall.","Adam,Alex,Ben,Carl,Daniel,Jack","Seems like doodles,-20,20,20","very creative work.,36,40,20","This color reminds me of poo,-46,60,20","very calming artwork,42,80,20","It looks like a murder scene.,-48,100,20","I like the sophisticated brushwork,40,120,20","Jack","I like the sophisticated brushwork,40,120,20","Alex","very creative work.,36,40,20","Carl","very calming artwork,42,80,20","0"
"18939","","survey-text","27","264466","0.0-27.0-0.0","A2H1QUGX0SOUMH","","","","{""Q0"":""Interesting use of color and texture.""}","","","","","","","","","","","","","","","","","","","","","","",""
"8145.299999952316","","image-slider-response","28","272614","0.0-28.0","A2H1QUGX0SOUMH","","","","","34","","","","","","","","","","","","","","","","","","","","","",""
"4291","","image-button-response","29","277617","0.0-29.0","A2H1QUGX0SOUMH","img_art/ins/2.jpg","3","","","","","","","","","","","","","","","","","","","","","","","","",""
"960","","image-button-response","30","278582","0.0-30.0","A2H1QUGX0SOUMH","img_art/ins/2.jpg","3","","","","","","","","","","","","","","","","","","","","","","","","",""
"1174","","image-button-response","31","279758","0.0-31.0-0.0","A2H1QUGX0SOUMH","img_art/ins/2.jpg","4","","","","","","","","","","","","","","","","","","","","","","","","",""
"11149","","image-button-response","32","290910","0.0-32.0-0.0","A2H1QUGX0SOUMH","img_art/ins/2.jpg","5","","","","","","","","","","","","","","","","","","","","","","","","",""
"null","","html-keyboard-response","33","292414","0.0-33.0","A2H1QUGX0SOUMH","<p style=""font-size: 48px;"">+</p>","","","","","null","allTrialResponses","1500","1","-1","img_art/ins/2.jpg","34","Interesting use of color and texture.","James,Alex,Kyle,Carl,John,Jack","looks too angry,-50,140,20","I like the blocks of color arrangements,30,40,20","Idk, it is just annoying,-32,180,20","I can feel the artist's passion in it,45,80,20","love the texture of paint,48,160,20","I would never be able to compose a sophisticated pallete like this,48,120,20","Carl","I can feel the artist's passion in it,45,80,20","John","love the texture of paint,48,160,20","Jack","I would never be able to compose a sophisticated pallete like this,48,120,20","0"
"43057","","survey-text","34","335483","0.0-34.0-0.0","A2H1QUGX0SOUMH","","","","{""Q0"":""Looks Japanese influenced, like birds in the mist.""}","","","","","","","","","","","","","","","","","","","","","","",""
"4922.200000047684","","image-slider-response","35","340407","0.0-35.0","A2H1QUGX0SOUMH","","","","","33","","","","","","","","","","","","","","","","","","","","","",""
"null","","image-button-response","36","345410","0.0-36.0","A2H1QUGX0SOUMH","img_art/ins/3.jpg","null","","","","","","","","","","","","","","","","","","","","","","","","",""
"3024","","image-button-response","37","348434","0.0-37.0","A2H1QUGX0SOUMH","img_art/ins/3.jpg","1","","","","","","","","","","","","","","","","","","","","","","","","",""
"3321","","image-button-response","38","351759","0.0-38.0-0.0","A2H1QUGX0SOUMH","img_art/ins/3.jpg","5","","","","","","","","","","","","","","","","","","","","","","","","",""
"18446","","image-button-response","39","370206","0.0-39.0-0.0","A2H1QUGX0SOUMH","img_art/ins/3.jpg","4","","","","","","","","","","","","","","","","","","","","","","","","",""
"null","","html-keyboard-response","40","371709","0.0-40.0","A2H1QUGX0SOUMH","<p style=""font-size: 48px;"">+</p>","","","","","null","allTrialResponses","1500","1","0","img_art/ins/3.jpg","33","Looks Japanese influenced, like birds in the mist.","Mike,Sam,Ron,Carl,John,Jack","enjoy the different shades of blue,22,200,20","I can feel a rainy day from this painting,18,240,20","It looks depressing,-26,220,20","It's an alright work,15,80,20","I like the overlapping of brushes,41,160,20","I feel connected to the artist,40,120,20","Sam","I can feel a rainy day from this painting,18,240,20","Jack","I feel connected to the artist,40,120,20","John","I like the overlapping of brushes,41,160,20","0"
"12200","","image-button-response_instructions","41","383913","0.0-41.0","A2H1QUGX0SOUMH","","0","instructions","","","","","","","","","","","","","","","","","","","","","","","",""
"21875","","survey-likert","42","405791","0.0-42.0-0.0","A2H1QUGX0SOUMH","","","","{""Q0"":"""",""Q1"":0,""Q2"":1}","","","","","","","","","","","","","","","","","","","","","","",""
"7582","","survey-text","43","413382","0.0-43.0-0.0","A2H1QUGX0SOUMH","","","","{""Q0"":""rock""}","","","","","","","","","","","","","","","","","","","","","","",""
"51974","","survey-text","44","465359","0.0-44.0-0.0","A2H1QUGX0SOUMH","","","","{""Q0"":""Looks disjointed, like one painting was pasted on top of another one.""}","","","","","","","","","","","","","","","","","","","","","","",""
"4704.700000047684","","image-slider-response","45","470065","0.0-45.0","A2H1QUGX0SOUMH","","","","","-17","","","","","","","","","","","","","","","","","","","","","",""
"null","","image-button-response","46","475099","0.0-46.0","A2H1QUGX0SOUMH","img_art/24.jpg","null","","","","","","","","","","","","","","","","","","","","","","","","",""
"3335","","image-button-response","47","478438","0.0-47.0","A2H1QUGX0SOUMH","img_art/24.jpg","3","","","","","","","","","","","","","","","","","","","","","","","","",""
"20385","","image-button-response","48","498826","0.0-48.0-0.0","A2H1QUGX0SOUMH","img_art/24.jpg","5","","","","","","","","","","","","","","","","","","","","","","","","",""
"13460","","image-button-response","49","512290","0.0-49.0-0.0","A2H1QUGX0SOUMH","img_art/24.jpg","1","","","","","","","","","","","","","","","","","","","","","","","","",""
"null","","html-keyboard-response","50","513293","0.0-50.0","A2H1QUGX0SOUMH","<p style=""font-size: 48px;"">+</p>","","","","","null","allTrialResponses","1000","1","1","img_art/24.jpg","-17","Looks disjointed, like one painting was pasted on top of another one.","Caleb,Thomas,Anthony,Hunter,Robert,Benjamin","This is gorgeous. Strong, saturated colors and clear meaning.,50,40,20","Beautiful colors and texture,20,220,20","This piece resembles a waterfall surrounded by trees.,21,200,20","feels overdone, but still executed well,0,240,20","A beautiful waterfall in the springtime.,40,360,20","peaceful and calm yet joyous.,50,260,20","Hunter","feels overdone, but still executed well,0,240,20","Benjamin","peaceful and calm yet joyous.,50,260,20","Thomas","Beautiful colors and texture,20,220,20","0"
"17000","","survey-text","51","530298","0.0-51.0-0.0","A2H1QUGX0SOUMH","","","","{""Q0"":""Appears to be unfinished.""}","","","","","","","","","","","","","","","","","","","","","","",""
"4425.100000023842","","image-slider-response","52","534725","0.0-52.0","A2H1QUGX0SOUMH","","","","","-10","","","","","","","","","","","","","","","","","","","","","",""
"null","","image-button-response","53","539729","0.0-53.0","A2H1QUGX0SOUMH","img_art/15.jpg","null","","","","","","","","","","","","","","","","","","","","","","","","",""
"2827","","image-button-response","54","542558","0.0-54.0","A2H1QUGX0SOUMH","img_art/15.jpg","0","","","","","","","","","","","","","","","","","","","","","","","","",""
"6838","","image-button-response","55","549398","0.0-55.0-0.0","A2H1QUGX0SOUMH","img_art/15.jpg","0","","","","","","","","","","","","","","","","","","","","","","","","",""
"17991","","image-button-response","56","574922","0.0-55.1-0.1","A2H1QUGX0SOUMH","img_art/15.jpg","5","","","","","","","","","","","","","","","","","","","","","","","","",""
"3074","","image-button-response","57","577998","0.0-56.0-0.0","A2H1QUGX0SOUMH","img_art/15.jpg","2","","","","","","","","","","","","","","","","","","","","","","","","",""
"null","","html-keyboard-response","58","579500","0.0-57.0","A2H1QUGX0SOUMH","<p style=""font-size: 48px;"">+</p>","","","","","null","allTrialResponses","1500","1","2","img_art/15.jpg","-10","Appears to be unfinished.","Bradley,Thomas,Marcus,Hunter,Richard,Benjamin","I feel like there's ski jumping going on here.,2,300,20","Interesting, and I don't dislike it.,9,220,20","Interesting, but don't really like it. Gloomy.,-10,60,20","reminds me of birds in trees,14,240,20","dark and provoking,-50,340,20","Reminds me of blueberry bushes.,7,260,20","Bradley","I feel like there's ski jumping going on here.,2,300,20","Benjamin","Reminds me of blueberry bushes.,7,260,20","Marcus","Interesting, but don't really like it. Gloomy.,-10,60,20","2"
"33464","","survey-text","59","612977","0.0-58.0-0.0","A2H1QUGX0SOUMH","","","","{""Q0"":""Engaging cubist perspective.""}","","","","","","","","","","","","","","","","","","","","","","",""
"4389.5","","image-slider-response","60","617368","0.0-59.0","A2H1QUGX0SOUMH","","","","","23","","","","","","","","","","","","","","","","","","","","","",""
"null","","image-button-response","61","622372","0.0-60.0","A2H1QUGX0SOUMH","img_art/8.jpg","null","","","","","","","","","","","","","","","","","","","","","","","","",""
"4566","","image-button-response","62","626942","0.0-61.0","A2H1QUGX0SOUMH","img_art/8.jpg","3","","","","","","","","","","","","","","","","","","","","","","","","",""
"3721","","image-button-response","63","630666","0.0-62.0-0.0","A2H1QUGX0SOUMH","img_art/8.jpg","5","","","","","","","","","","","","","","","","","","","","","","","","",""
"9001","","image-button-response","64","639669","0.0-63.0-0.0","A2H1QUGX0SOUMH","img_art/8.jpg","0","","","","","","","","","","","","","","","","","","","","","","","","",""
"null","","html-keyboard-response","65","640672","0.0-64.0","A2H1QUGX0SOUMH","<p style=""font-size: 48px;"">+</p>","","","","","null","allTrialResponses","1000","1","3","img_art/8.jpg","23","Engaging cubist perspective.","Bradley,Alexis,Marcus,Jacob,Cameron,Benjamin","Interesting but it has a bit of a dark feel to it.,6,300,20","I like that it sort of looks like a cityscape,9,140,20","Like the colors and the energy, but the face feels jarring to me,13,60,20","Very cool! I like this piece,9,340,20","what's going on here. looks like scary town.,-25,60,20","Very colorful. Looks like the hustle and bustle of a city.,11,260,20","Jacob","Very cool! I like this piece,9,340,20","Benjamin","Very colorful. Looks like the hustle and bustle of a city.,11,260,20","Bradley","Interesting but it has a bit of a dark feel to it.,6,300,20","2"
"49814","","survey-text","66","690493","0.0-65.0-0.0","A2H1QUGX0SOUMH","","","","{""Q0"":""Abstract colors and shapes are pleasingly perplexing. ""}","","","","","","","","","","","","","","","","","","","","","","",""
"3297","","image-slider-response","67","693793","0.0-66.0","A2H1QUGX0SOUMH","","","","","9","","","","","","","","","","","","","","","","","","","","","",""
"null","","image-button-response","68","698796","0.0-67.0","A2H1QUGX0SOUMH","img_art/27.jpg","null","","","","","","","","","","","","","","","","","","","","","","","","",""
"8015","","image-button-response","69","706817","0.0-68.0","A2H1QUGX0SOUMH","img_art/27.jpg","2","","","","","","","","","","","","","","","","","","","","","","","","",""
"10125","","image-button-response","70","716945","0.0-69.0-0.0","A2H1QUGX0SOUMH","img_art/27.jpg","3","","","","","","","","","","","","","","","","","","","","","","","","",""
"1741","","image-button-response","71","718689","0.0-70.0-0.0","A2H1QUGX0SOUMH","img_art/27.jpg","5","","","","","","","","","","","","","","","","","","","","","","","","",""
"null","","html-keyboard-response","72","720192","0.0-71.0","A2H1QUGX0SOUMH","<p style=""font-size: 48px;"">+</p>","","","","","null","allTrialResponses","1500","1","4","img_art/27.jpg","9","Abstract colors and shapes are pleasingly perplexing. ","Bradley,Cody,Devon,Jacob,Taylor,Benjamin","Yikes. I think I made this in kindergarten.,-20,300,20","Not sure how I feel about this. Messy, even for art. But good colors.,0,180,20","this reminds me of simpler time,31,400,20","Don't get the point of this piece that much, but it doesn't bug me,1,340,20","Looks like a child added his own interpretation with a black marker.,-5,200,20","I like the colors.,6,260,20","Devon","this reminds me of simpler time,31,400,20","Jacob","Don't get the point of this piece that much, but it doesn't bug me,1,340,20","Benjamin","I like the colors.,6,260,20","2"
"22666","","survey-text","73","742870","0.0-72.0-0.0","A2H1QUGX0SOUMH","","","","{""Q0"":""Collage doesn't come together for me.""}","","","","","","","","","","","","","","","","","","","","","","",""
"3949.1999999284744","","image-slider-response","74","746821","0.0-73.0","A2H1QUGX0SOUMH","","","","","-15","","","","","","","","","","","","","","","","","","","","","",""
"4785","","image-button-response","75","751825","0.0-74.0","A2H1QUGX0SOUMH","img_art/16.jpg","1","","","","","","","","","","","","","","","","","","","","","","","","",""
"10776","","image-button-response","76","762606","0.0-75.0","A2H1QUGX0SOUMH","img_art/16.jpg","2","","","","","","","","","","","","","","","","","","","","","","","","",""
"13045","","image-button-response","77","775653","0.0-76.0-0.0","A2H1QUGX0SOUMH","img_art/16.jpg","4","","","","","","","","","","","","","","","","","","","","","","","","",""
"7609","","image-button-response","78","783265","0.0-77.0-0.0","A2H1QUGX0SOUMH","img_art/16.jpg","1","","","","","","","","","","","","","","","","","","","","","","","","",""
"null","","html-keyboard-response","79","784767","0.0-78.0","A2H1QUGX0SOUMH","<p style=""font-size: 48px;"">+</p>","","","","","null","allTrialResponses","1500","1","5","img_art/16.jpg","-15","Collage doesn't come together for me.","Andrew,Kevin,Devon,Jacob,Corey,Benjamin","It just makes me feel uncomfortable,-25,160,20","Hmm i don't know what going on here.,1,320,20","The teddy bear looks really scared,-30,400,20","Cool but the bear creeps me out?,8,340,20","i like how it incorporates mixed visual art with the photo of the bear and the drawings,30,260,20","Don't like the teddy bear. It takes away from the painting.,-39,260,20","Devon","The teddy bear looks really scared,-30,400,20","Corey","i like how it incorporates mixed visual art with the photo of the bear and the drawings,30,260,20","Kevin","Hmm i don't know what going on here.,1,320,20","2"
"6417","","survey-text","80","791209","0.0-79.0-0.0","A2H1QUGX0SOUMH","","","","{""Q0"":""sky""}","","","","","","","","","","","","","","","","","","","","","","",""
"87882","","survey-text","81","879093","0.0-80.0-0.0","A2H1QUGX0SOUMH","","","","{""Q0"":""Takes awhile for the subject matter to emerge, then the painting comes alive.""}","","","","","","","","","","","","","","","","","","","","","","",""
"5336.899999976158","","image-slider-response","82","884431","0.0-81.0","A2H1QUGX0SOUMH","","","","","20","","","","","","","","","","","","","","","","","","","","","",""
"null","","image-button-response","83","889446","0.0-82.0","A2H1QUGX0SOUMH","img_art/9.jpg","null","","","","","","","","","","","","","","","","","","","","","","","","",""
"6811","","image-button-response","84","896261","0.0-83.0","A2H1QUGX0SOUMH","img_art/9.jpg","3","","","","","","","","","","","","","","","","","","","","","","","","",""
"934","","image-button-response","85","897197","0.0-84.0-0.0","A2H1QUGX0SOUMH","img_art/9.jpg","4","","","","","","","","","","","","","","","","","","","","","","","","",""
"32858","","image-button-response","86","930057","0.0-85.0-0.0","A2H1QUGX0SOUMH","img_art/9.jpg","5","","","","","","","","","","","","","","","","","","","","","","","","",""
"null","","html-keyboard-response","87","931062","0.0-86.0","A2H1QUGX0SOUMH","<p style=""font-size: 48px;"">+</p>","","","","","null","allTrialResponses","1000","1","6","img_art/9.jpg","20","Takes awhile for the subject matter to emerge, then the painting comes alive.","Brendan,Kevin,Devon,Alejandro,Corey,Stephen","not my type of art,-33,340,20","This is a picture of a scary mans head sideways.,-24,320,20","this looks to be a child nightmare,-10,400,20","Evokes triumph of a mountain over powering a drowning sea,24,80,20","keeps me interested. like the colors,17,260,20","Too much going on, don't know what the focus is,-11,140,20","Alejandro","Evokes triumph of a mountain over powering a drowning sea,24,80,20","Corey","keeps me interested. like the colors,17,260,20","Stephen","Too much going on, don't know what the focus is,-11,140,20","2"
"55960","","survey-text","88","987037","0.0-87.0-0.0","A2H1QUGX0SOUMH","","","","{""Q0"":""Abstract colors and shapes are pleasant, but not compelling.""}","","","","","","","","","","","","","","","","","","","","","","",""
"5094.399999976158","","image-slider-response","89","992133","0.0-88.0","A2H1QUGX0SOUMH","","","","","-4","","","","","","","","","","","","","","","","","","","","","",""
"null","","image-button-response","90","997138","0.0-89.0","A2H1QUGX0SOUMH","img_art/1.jpg","null","","","","","","","","","","","","","","","","","","","","","","","","",""
"7720","","image-button-response","91","1004861","0.0-90.0","A2H1QUGX0SOUMH","img_art/1.jpg","2","","","","","","","","","","","","","","","","","","","","","","","","",""
"8378","","image-button-response","92","1013241","0.0-91.0-0.0","A2H1QUGX0SOUMH","img_art/1.jpg","5","","","","","","","","","","","","","","","","","","","","","","","","",""
"16938","","image-button-response","93","1030180","0.0-92.0-0.0","A2H1QUGX0SOUMH","img_art/1.jpg","1","","","","","","","","","","","","","","","","","","","","","","","","",""
"null","","html-keyboard-response","94","1031682","0.0-93.0","A2H1QUGX0SOUMH","<p style=""font-size: 48px;"">+</p>","","","","","null","allTrialResponses","1500","1","7","img_art/1.jpg","-4","Abstract colors and shapes are pleasant, but not compelling.","Steven,Angel,Nathaniel,Alejandro,Corey,Stephen","It's fine, but its like something you'd see in the restroom of a cheap restaurant,10,160,20","For some reason this makes me want to go ice skating. It's whimsical and free but also very smooth.,20,180,20","A bit of a smokey mess, but it does have an air of mystery I like,7,220,20","Interesting color scheme but to bled to me,11,80,20","basic reminds me of something a school would have on the wall,-7,260,20","Nothing really going on but good color choices.,-3,140,20","Nathaniel","A bit of a smokey mess, but it does have an air of mystery I like,7,220,20","Stephen","Nothing really going on but good color choices.,-3,140,20","Angel","For some reason this makes me want to go ice skating. It's whimsical and free but also very smooth.,20,180,20","2"
"40006","","survey-text","95","1071693","0.0-94.0-0.0","A2H1QUGX0SOUMH","","","","{""Q0"":""High energy abstraction grabs my attention.""}","","","","","","","","","","","","","","","","","","","","","","",""
"5049.5","","image-slider-response","96","1076744","0.0-95.0","A2H1QUGX0SOUMH","","","","","19","","","","","","","","","","","","","","","","","","","","","",""
"null","","image-button-response","97","1081761","0.0-96.0","A2H1QUGX0SOUMH","img_art/30.jpg","null","","","","","","","","","","","","","","","","","","","","","","","","",""
"785","","image-button-response","98","1082550","0.0-97.0","A2H1QUGX0SOUMH","img_art/30.jpg","3","","","","","","","","","","","","","","","","","","","","","","","","",""
"5325","","image-button-response","99","1087876","0.0-98.0-0.0","A2H1QUGX0SOUMH","img_art/30.jpg","2","","","","","","","","","","","","","","","","","","","","","","","","",""
"3877","","image-button-response","100","1091757","0.0-99.0-0.0","A2H1QUGX0SOUMH","img_art/30.jpg","1","","","","","","","","","","","","","","","","","","","","","","","","",""
"null","","html-keyboard-response","101","1093259","0.0-100.0","A2H1QUGX0SOUMH","<p style=""font-size: 48px;"">+</p>","","","","","null","allTrialResponses","1500","1","8","img_art/30.jpg","19","High energy abstraction grabs my attention.","Malik,Angel,Nathaniel,Jeremy,Joshua,Stephen","I can't parse any intention or emotion,-17,40,20","It's like a child's art piece: carefree and not trying to conform to anything.,10,180,20","No my favorite, but I do like the long strokes of color,11,220,20","Happy. Makes me think of childhood finger painting,49,60,20","It's just all right.,5,240,20","A bit too dark for my liking,-10,140,20","Jeremy","Happy. Makes me think of childhood finger painting,49,60,20","Nathaniel","No my favorite, but I do like the long strokes of color,11,220,20","Angel","It's like a child's art piece: carefree and not trying to conform to anything.,10,180,20","2"
"66034","","survey-text","102","1159300","0.0-101.0-0.0","A2H1QUGX0SOUMH","","","","{""Q0"":""Interesting sparse use of watercolor doesn't quite come together.""}","","","","","","","","","","","","","","","","","","","","","","",""
"5117.5","","image-slider-response","103","1164420","0.0-102.0","A2H1QUGX0SOUMH","","","","","3","","","","","","","","","","","","","","","","","","","","","",""
"null","","image-button-response","104","1169423","0.0-103.0","A2H1QUGX0SOUMH","img_art/26.jpg","null","","","","","","","","","","","","","","","","","","","","","","","","",""
"826","","image-button-response","105","1170252","0.0-104.0","A2H1QUGX0SOUMH","img_art/26.jpg","4","","","","","","","","","","","","","","","","","","","","","","","","",""
"7773","","image-button-response","106","1178028","0.0-105.0-0.0","A2H1QUGX0SOUMH","img_art/26.jpg","0","","","","","","","","","","","","","","","","","","","","","","","","",""
"6309","","image-button-response","107","1184340","0.0-106.0-0.0","A2H1QUGX0SOUMH","img_art/26.jpg","0","","","","","","","","","","","","","","","","","","","","","","","","",""
"823","","image-button-response","108","1206976","0.0-106.1-0.1","A2H1QUGX0SOUMH","img_art/26.jpg","3","","","","","","","","","","","","","","","","","","","","","","","","",""
"null","","html-keyboard-response","109","1208479","0.0-107.0","A2H1QUGX0SOUMH","<p style=""font-size: 48px;"">+</p>","","","","","null","allTrialResponses","1500","1","9","img_art/26.jpg","3","Interesting sparse use of watercolor doesn't quite come together.","Jesus,Angel,Nathaniel,Jeremy,Noah,Jorge","Very interesting to look at, I like the shapes, textures and colors.,30,100,20","This piece feels pretty chill like it's just a normal day in the city.,10,180,20","Too blocky and unfocused. It's like the inside of a house, and the outside.,-24,220,20","somewhat happy, like being outside on a nice day,30,60,20","fairly neutral, really,8,260,20","dull and boring,-6,180,20","Noah","fairly neutral, really,8,260,20","Jesus","Very interesting to look at, I like the shapes, textures and colors.,30,100,20","Jeremy","somewhat happy, like being outside on a nice day,30,60,20","4"
"42922","","survey-text","110","1251412","0.0-108.0-0.0","A2H1QUGX0SOUMH","","","","{""Q0"":""The shapes and colors grabbed me by the lapels.""}","","","","","","","","","","","","","","","","","","","","","","",""
"3809.899999976158","","image-slider-response","111","1255224","0.0-109.0","A2H1QUGX0SOUMH","","","","","15","","","","","","","","","","","","","","","","","","","","","",""
"4730","","image-button-response","112","1260227","0.0-110.0","A2H1QUGX0SOUMH","img_art/20.jpg","0","","","","","","","","","","","","","","","","","","","","","","","","",""
"482","","image-button-response","113","1260712","0.0-111.0","A2H1QUGX0SOUMH","img_art/20.jpg","0","","","","","","","","","","","","","","","","","","","","","","","","",""
"4042","","image-button-response","114","1264756","0.0-112.0-0.0","A2H1QUGX0SOUMH","img_art/20.jpg","2","","","","","","","","","","","","","","","","","","","","","","","","",""
"6509","","image-button-response","115","1271269","0.0-113.0-0.0","A2H1QUGX0SOUMH","img_art/20.jpg","3","","","","","","","","","","","","","","","","","","","","","","","","",""
"null","","html-keyboard-response","116","1272273","0.0-114.0","A2H1QUGX0SOUMH","<p style=""font-size: 48px;"">+</p>","","","","","null","allTrialResponses","1000","1","10","img_art/20.jpg","15","The shapes and colors grabbed me by the lapels.","Jesus,Scott,Justin,Jeremy,Noah,Cole","Shapes are fun to interpret,21,100,20","feels distorted and uncomfortable,-41,20,20","The colors and the scene depicted is interesting.,13,280,20","scared. makes me feel alone or abandoned,-11,60,20","just feels generic,-18,260,20","Someone trying to be dali,-15,200,20","Jesus","Shapes are fun to interpret,21,100,20","Justin","The colors and the scene depicted is interesting.,13,280,20","Jeremy","scared. makes me feel alone or abandoned,-11,60,20","4"
"10836","","survey-text","117","1283140","0.0-115.0-0.0","A2H1QUGX0SOUMH","","","","{""Q0"":""our""}","","","","","","","","","","","","","","","","","","","","","","",""
"32911","","survey-text","118","1316052","0.0-116.0-0.0","A2H1QUGX0SOUMH","","","","{""Q0"":""Gorgeous abstract expressionism jumps right out at you.""}","","","","","","","","","","","","","","","","","","","","","","",""
"4081.2000000476837","","image-slider-response","119","1320136","0.0-117.0","A2H1QUGX0SOUMH","","","","","28","","","","","","","","","","","","","","","","","","","","","",""
"3610","","image-button-response","120","1325140","0.0-118.0","A2H1QUGX0SOUMH","img_art/13.jpg","4","","","","","","","","","","","","","","","","","","","","","","","","",""
"751","","image-button-response","121","1325897","0.0-119.0","A2H1QUGX0SOUMH","img_art/13.jpg","0","","","","","","","","","","","","","","","","","","","","","","","","",""
"8184","","image-button-response","122","1334084","0.0-120.0-0.0","A2H1QUGX0SOUMH","img_art/13.jpg","5","","","","","","","","","","","","","","","","","","","","","","","","",""
"868","","image-button-response","123","1334956","0.0-121.0-0.0","A2H1QUGX0SOUMH","img_art/13.jpg","4","","","","","","","","","","","","","","","","","","","","","","","","",""
"null","","html-keyboard-response","124","1335959","0.0-122.0","A2H1QUGX0SOUMH","<p style=""font-size: 48px;"">+</p>","","","","","null","allTrialResponses","1000","1","11","img_art/13.jpg","28","Gorgeous abstract expressionism jumps right out at you.","Jesus,Christian,Justin,Jeremy,William,Carlos","I enjoy the cool colors mixed together,31,100,20","love the style but not very novel,9,140,20","Not really a fan of ""splash"" art.,-20,280,20","Pleased. I like to combination of colors,17,60,20","reminds me of rain,36,380,20","Rain on a cold window.,22,80,20","Jesus","I enjoy the cool colors mixed together,31,100,20","Carlos","Rain on a cold window.,22,80,20","William","reminds me of rain,36,380,20","4"
"36976","","survey-text","125","1372952","0.0-123.0-0.0","A2H1QUGX0SOUMH","","","","{""Q0"":""I can hear a Bach cello concerto.""}","","","","","","","","","","","","","","","","","","","","","","",""
"2920.7999999523163","","image-slider-response","126","1375875","0.0-124.0","A2H1QUGX0SOUMH","","","","","19","","","","","","","","","","","","","","","","","","","","","",""
"3721","","image-button-response","127","1380879","0.0-125.0","A2H1QUGX0SOUMH","img_art/10.jpg","0","","","","","","","","","","","","","","","","","","","","","","","","",""
"2656","","image-button-response","128","1383540","0.0-126.0","A2H1QUGX0SOUMH","img_art/10.jpg","4","","","","","","","","","","","","","","","","","","","","","","","","",""
"7553","","image-button-response","129","1391095","0.0-127.0-0.0","A2H1QUGX0SOUMH","img_art/10.jpg","1","","","","","","","","","","","","","","","","","","","","","","","","",""
"2873","","image-button-response","130","1393972","0.0-128.0-0.0","A2H1QUGX0SOUMH","img_art/10.jpg","0","","","","","","","","","","","","","","","","","","","","","","","","",""
"null","","html-keyboard-response","131","1394474","0.0-129.0","A2H1QUGX0SOUMH","<p style=""font-size: 48px;"">+</p>","","","","","null","allTrialResponses","500","1","12","img_art/10.jpg","19","I can hear a Bach cello concerto.","Jesus,Tristan,Miguel,Ethan,William,Carlos","The design is very fluid and fun to interpret,35,100,20","Highly abstract and yet the shapes and colors provide an emotional accessibility for me.,20,300,20","It just looks like a dirty stain.,-38,160,20","The flow of lines is off. There are curvy and straight angry lines. It's not flattering at all.,-27,120,20","absolutely beautiful piece of art,49,380,20","The colors and shapes are soothing but also disconcerting.,21,80,20","William","absolutely beautiful piece of art,49,380,20","Tristan","Highly abstract and yet the shapes and colors provide an emotional accessibility for me.,20,300,20","Jesus","The design is very fluid and fun to interpret,35,100,20","4"
"33442","","survey-text","132","1427920","0.0-130.0-0.0","A2H1QUGX0SOUMH","","","","{""Q0"":""Simple yet ambiguous.""}","","","","","","","","","","","","","","","","","","","","","","",""
"2753","","image-slider-response","133","1430675","0.0-131.0","A2H1QUGX0SOUMH","","","","","9","","","","","","","","","","","","","","","","","","","","","",""
"null","","image-button-response","134","1435684","0.0-132.0","A2H1QUGX0SOUMH","img_art/14.jpg","null","","","","","","","","","","","","","","","","","","","","","","","","",""
"125","","image-button-response","135","1435811","0.0-133.0","A2H1QUGX0SOUMH","img_art/14.jpg","0","","","","","","","","","","","","","","","","","","","","","","","","",""
"8958","","image-button-response","136","1444771","0.0-134.0-0.0","A2H1QUGX0SOUMH","img_art/14.jpg","2","","","","","","","","","","","","","","","","","","","","","","","","",""
"4029","","image-button-response","137","1448803","0.0-135.0-0.0","A2H1QUGX0SOUMH","img_art/14.jpg","1","","","","","","","","","","","","","","","","","","","","","","","","",""
"null","","html-keyboard-response","138","1449306","0.0-136.0","A2H1QUGX0SOUMH","<p style=""font-size: 48px;"">+</p>","","","","","null","allTrialResponses","500","1","13","img_art/14.jpg","9","Simple yet ambiguous.","Jesus,Tristan,Jeffrey,Daniel,William,Bryce","I like the combination of colors and textures.,35,100,20","In others I might say the colors are garish. Here it works perfectly. The balance is wondrous and unlimiting.,25,300,20","positive colours, makes me to look at it and investigate what is going on,27,40,20","Baby's room palette with tree confusion in a more confused substrate.,-15,320,20","calming to look at,37,380,20","The red looks like blood and im not a huge fan,15,20,20","Jesus","I like the combination of colors and textures.,35,100,20","Jeffrey","positive colours, makes me to look at it and investigate what is going on,27,40,20","Tristan","In others I might say the colors are garish. Here it works perfectly. The balance is wondrous and unlimiting.,25,300,20","4"
"36332","","survey-text","139","1485644","0.0-137.0-0.0","A2H1QUGX0SOUMH","","","","{""Q0"":""High energy depiction of people in transport.""}","","","","","","","","","","","","","","","","","","","","","","",""
"2897.2000000476837","","image-slider-response","140","1488543","0.0-138.0","A2H1QUGX0SOUMH","","","","","21","","","","","","","","","","","","","","","","","","","","","",""
"null","","image-button-response","141","1493548","0.0-139.0","A2H1QUGX0SOUMH","img_art/11.jpg","null","","","","","","","","","","","","","","","","","","","","","","","","",""
"1688","","image-button-response","142","1495240","0.0-140.0","A2H1QUGX0SOUMH","img_art/11.jpg","1","","","","","","","","","","","","","","","","","","","","","","","","",""
"6135","","image-button-response","143","1501376","0.0-141.0-0.0","A2H1QUGX0SOUMH","img_art/11.jpg","3","","","","","","","","","","","","","","","","","","","","","","","","",""
"2754","","image-button-response","144","1504132","0.0-142.0-0.0","A2H1QUGX0SOUMH","img_art/11.jpg","0","","","","","","","","","","","","","","","","","","","","","","","","",""
"null","","html-keyboard-response","145","1504635","0.0-143.0","A2H1QUGX0SOUMH","<p style=""font-size: 48px;"">+</p>","","","","","null","allTrialResponses","500","1","14","img_art/11.jpg","21","High energy depiction of people in transport.","Jesus,Tristan,Jeffrey,Nicholas,Bryan,Eric","The different textures and colors make this pleasing to look at.,30,100,20","Simple and complex. Hopeful yet dark. I love this,35,300,20","a lot of dark colours,-8,40,20","Love the colors and flow,50,240,20","Rainy asian city scape.,31,400,20","I don't like the gloomy color, but it reminds me of a city which I like.,35,100,20","Tristan","Simple and complex. Hopeful yet dark. I love this,35,300,20","Nicholas","Love the colors and flow,50,240,20","Jesus","The different textures and colors make this pleasing to look at.,30,100,20","4"
"53063","","survey-text","146","1557715","0.0-144.0-0.0","A2H1QUGX0SOUMH","","","","{""Q0"":""Curiously dark suggestions of objects draws you in.""}","","","","","","","","","","","","","","","","","","","","","","",""
"3857.600000023842","","image-slider-response","147","1561575","0.0-145.0","A2H1QUGX0SOUMH","","","","","8","","","","","","","","","","","","","","","","","","","","","",""
"3819","","image-button-response","148","1566579","0.0-146.0","A2H1QUGX0SOUMH","img_art/18.jpg","4","","","","","","","","","","","","","","","","","","","","","","","","",""
"4550","","image-button-response","149","1571132","0.0-147.0","A2H1QUGX0SOUMH","img_art/18.jpg","4","","","","","","","","","","","","","","","","","","","","","","","","",""
"9364","","image-button-response","150","1580499","0.0-148.0-0.0","A2H1QUGX0SOUMH","img_art/18.jpg","1","","","","","","","","","","","","","","","","","","","","","","","","",""
"2702","","image-button-response","151","1583203","0.0-149.0-0.0","A2H1QUGX0SOUMH","img_art/18.jpg","0","","","","","","","","","","","","","","","","","","","","","","","","",""
"null","","html-keyboard-response","152","1584206","0.0-150.0","A2H1QUGX0SOUMH","<p style=""font-size: 48px;"">+</p>","","","","","null","allTrialResponses","1000","1","15","img_art/18.jpg","8","Curiously dark suggestions of objects draws you in.","Jesus,Tristan,Mason,Nicholas,Brian,Kenneth","The shapes are very fun to interpret,30,100,20","So much going on. Frightening and tumultous, brave and inspiring. I'd like to spend the rest of my life interpreting it.,30,300,20","Skeletons, death, bleak colors, still kinda like it.,16,100,20","Id love to see this piece closer. So much extra details hidden it it.,50,240,20","Very classy, I feel like it's the apocalypse.,25,380,20","It's interesting. I'm not sure how I feel about it, but i enjoy the ghostly apparitions.,10,300,20","Brian","Very classy, I feel like it's the apocalypse.,25,380,20","Tristan","So much going on. Frightening and tumultous, brave and inspiring. I'd like to spend the rest of my life interpreting it.,30,300,20","Jesus","The shapes are very fun to interpret,30,100,20","4"
"8431","","survey-text","153","1592663","0.0-151.0-0.0","A2H1QUGX0SOUMH","","","","{""Q0"":""course""}","","","","","","","","","","","","","","","","","","","","","","",""
"32242","","survey-text","154","1624907","0.0-152.0-0.0","A2H1QUGX0SOUMH","","","","{""Q0"":""Abstraction just beyond the grasp of categorization. ""}","","","","","","","","","","","","","","","","","","","","","","",""
"3433.899999976158","","image-slider-response","155","1628343","0.0-153.0","A2H1QUGX0SOUMH","","","","","9","","","","","","","","","","","","","","","","","","","","","",""
"null","","image-button-response","156","1633346","0.0-154.0","A2H1QUGX0SOUMH","img_art/21.jpg","null","","","","","","","","","","","","","","","","","","","","","","","","",""
"1474","","image-button-response","157","1634823","0.0-155.0","A2H1QUGX0SOUMH","img_art/21.jpg","1","","","","","","","","","","","","","","","","","","","","","","","","",""
"9201","","image-button-response","158","1644027","0.0-156.0-0.0","A2H1QUGX0SOUMH","img_art/21.jpg","3","","","","","","","","","","","","","","","","","","","","","","","","",""
"6261","","image-button-response","159","1650291","0.0-157.0-0.0","A2H1QUGX0SOUMH","img_art/21.jpg","0","","","","","","","","","","","","","","","","","","","","","","","","",""
"null","","html-keyboard-response","160","1651794","0.0-158.0","A2H1QUGX0SOUMH","<p style=""font-size: 48px;"">+</p>","","","","","null","allTrialResponses","1500","1","16","img_art/21.jpg","9","Abstraction just beyond the grasp of categorization. ","Jesus,Tristan,Luis,Mark,Brian,Brett","The shapes and colors are very interesting to look at.,41,100,20","A landscape that leaves me inspired and hopeful.,20,300,20","I like the representation of love and hate in this,43,400,20","It feels like a day at sea but the pink is slightly jarring and holding my eye.,26,80,20","there's not enough fine detail in this one,-27,380,20","Makes me think of a battleship targeting a beautiful mountainside,0,360,20","Tristan","A landscape that leaves me inspired and hopeful.,20,300,20","Mark","It feels like a day at sea but the pink is slightly jarring and holding my eye.,26,80,20","Jesus","The shapes and colors are very interesting to look at.,41,100,20","4"
"55964","","survey-text","161","1707775","0.0-159.0-0.0","A2H1QUGX0SOUMH","","","","{""Q0"":""It's a bird! No, it's a plane! No, it's not Superman.""}","","","","","","","","","","","","","","","","","","","","","","",""
"4573.600000023842","","image-slider-response","162","1712351","0.0-160.0","A2H1QUGX0SOUMH","","","","","-12","","","","","","","","","","","","","","","","","","","","","",""
"null","","image-button-response","163","1717354","0.0-161.0","A2H1QUGX0SOUMH","img_art/6.jpg","null","","","","","","","","","","","","","","","","","","","","","","","","",""
"18270","","image-button-response","164","1735627","0.0-162.0","A2H1QUGX0SOUMH","img_art/6.jpg","0","","","","","","","","","","","","","","","","","","","","","","","","",""
"2979","","image-button-response","165","1738608","0.0-163.0-0.0","A2H1QUGX0SOUMH","img_art/6.jpg","3","","","","","","","","","","","","","","","","","","","","","","","","",""
"4744","","image-button-response","166","1743355","0.0-164.0-0.0","A2H1QUGX0SOUMH","img_art/6.jpg","5","","","","","","","","","","","","","","","","","","","","","","","","",""
"null","","html-keyboard-response","167","1743858","0.0-165.0","A2H1QUGX0SOUMH","<p style=""font-size: 48px;"">+</p>","","","","","null","allTrialResponses","500","1","17","img_art/6.jpg","-12","It's a bird! No, it's a plane! No, it's not Superman.","Jesus,Tristan,Peter,Mark,Juan,Tanner","I enjoy the color contrast.,20,100,20","Lack of context makes this painting 1-d for me. The headless bird is mysterious and indecipherable.,-10,300,20","Don't like the black space,2,320,20","So forlorn, and beauty amid desolation.,25,80,20","I don't like the colors and the dark shape at the top makes me think of a buzzard.,-28,260,20","loneliness, fragile, forever alone, a girl who's been there for eternity, only think tracking time is the length of her hair,9,180,20","Jesus","I enjoy the color contrast.,20,100,20","Mark","So forlorn, and beauty amid desolation.,25,80,20","Tanner","loneliness, fragile, forever alone, a girl who's been there for eternity, only think tracking time is the length of her hair,9,180,20","4"
"33207","","survey-text","168","1777079","0.0-166.0-0.0","A2H1QUGX0SOUMH","","","","{""Q0"":""Flat cubism makes for engaging design.""}","","","","","","","","","","","","","","","","","","","","","","",""
"4286.100000023842","","image-slider-response","169","1781367","0.0-167.0","A2H1QUGX0SOUMH","","","","","10","","","","","","","","","","","","","","","","","","","","","",""
"2843","","image-button-response","170","1786371","0.0-168.0","A2H1QUGX0SOUMH","img_art/12.jpg","4","","","","","","","","","","","","","","","","","","","","","","","","",""
"5205","","image-button-response","171","1791579","0.0-169.0","A2H1QUGX0SOUMH","img_art/12.jpg","2","","","","","","","","","","","","","","","","","","","","","","","","",""
"3442","","image-button-response","172","1795023","0.0-170.0-0.0","A2H1QUGX0SOUMH","img_art/12.jpg","1","","","","","","","","","","","","","","","","","","","","","","","","",""
"1250","","image-button-response","173","1796275","0.0-171.0-0.0","A2H1QUGX0SOUMH","img_art/12.jpg","4","","","","","","","","","","","","","","","","","","","","","","","","",""
"null","","html-keyboard-response","174","1797779","0.0-172.0","A2H1QUGX0SOUMH","<p style=""font-size: 48px;"">+</p>","","","","","null","allTrialResponses","1500","1","18","img_art/12.jpg","10","Flat cubism makes for engaging design.","Jesus,Matthew,Antonio,Mark,Jason,Tanner","I like the color scheme.,10,100,20","It's boxy, cubist immpressionism? Very ncie.,32,120,20","I like the colors in both sections, brights compared to neutrals. Each block has a different view. I think of the future,11,220,20","It just feels like a jigsaw puzzle,-4,80,20","The shapes present in the picture make it very interesting,17,20,20","stressful, upsetting,-10,180,20","Antonio","I like the colors in both sections, brights compared to neutrals. Each block has a different view. I think of the future,11,220,20","Matthew","It's boxy, cubist immpressionism? Very ncie.,32,120,20","Jason","The shapes present in the picture make it very interesting,17,20,20","4"
"44772","","survey-text","175","1842563","0.0-173.0-0.0","A2H1QUGX0SOUMH","","","","{""Q0"":""Ruthlessly simple composition left the station without me.""}","","","","","","","","","","","","","","","","","","","","","","",""
"3673.5","","image-slider-response","176","1846238","0.0-174.0","A2H1QUGX0SOUMH","","","","","-8","","","","","","","","","","","","","","","","","","","","","",""
"null","","image-button-response","177","1851242","0.0-175.0","A2H1QUGX0SOUMH","img_art/5.jpg","null","","","","","","","","","","","","","","","","","","","","","","","","",""
"3878","","image-button-response","178","1855123","0.0-176.0","A2H1QUGX0SOUMH","img_art/5.jpg","3","","","","","","","","","","","","","","","","","","","","","","","","",""
"4278","","image-button-response","179","1859403","0.0-177.0-0.0","A2H1QUGX0SOUMH","img_art/5.jpg","1","","","","","","","","","","","","","","","","","","","","","","","","",""
"8666","","image-button-response","180","1868071","0.0-178.0-0.0","A2H1QUGX0SOUMH","img_art/5.jpg","0","","","","","","","","","","","","","","","","","","","","","","","","",""
"null","","html-keyboard-response","181","1869075","0.0-179.0","A2H1QUGX0SOUMH","<p style=""font-size: 48px;"">+</p>","","","","","null","allTrialResponses","1000","1","19","img_art/5.jpg","-8","Ruthlessly simple composition left the station without me.","Tyler,Matthew,Antonio,Ian,Jason,Charles","Bright and luminous,31,320,20","I like the simple shapes and colors.,23,120,20","Too much angular things happening, makes me think of stabbing something which makes me uncomfortable,-50,220,20","This either looks like a bell or aliens finishing the pyramids,-34,260,20","Wish the background had been kept clean; distracts from main object,11,20,20","It feels positive and kind of uplifting,24,100,20","Ian","This either looks like a bell or aliens finishing the pyramids,-34,260,20","Matthew","I like the simple shapes and colors.,23,120,20","Tyler","Bright and luminous,31,320,20","4"
"51302","","survey-text","182","1920399","0.0-180.0-0.0","A2H1QUGX0SOUMH","","","","{""Q0"":""Something almost emerges from the background, like a thought before it bubbles up to consciousness. ""}","","","","","","","","","","","","","","","","","","","","","","",""
"4841.600000023842","","image-slider-response","183","1925243","0.0-181.0","A2H1QUGX0SOUMH","","","","","21","","","","","","","","","","","","","","","","","","","","","",""
"null","","image-button-response","184","1930246","0.0-182.0","A2H1QUGX0SOUMH","img_art/29.jpg","null","","","","","","","","","","","","","","","","","","","","","","","","",""
"1267","","image-button-response","185","1931515","0.0-183.0","A2H1QUGX0SOUMH","img_art/29.jpg","3","","","","","","","","","","","","","","","","","","","","","","","","",""
"8994","","image-button-response","186","1940511","0.0-184.0-0.0","A2H1QUGX0SOUMH","img_art/29.jpg","1","","","","","","","","","","","","","","","","","","","","","","","","",""
"15597","","image-button-response","187","1956111","0.0-185.0-0.0","A2H1QUGX0SOUMH","img_art/29.jpg","4","","","","","","","","","","","","","","","","","","","","","","","","",""
"null","","html-keyboard-response","188","1956614","0.0-186.0","A2H1QUGX0SOUMH","<p style=""font-size: 48px;"">+</p>","","","","","null","allTrialResponses","500","1","20","img_art/29.jpg","21","Something almost emerges from the background, like a thought before it bubbles up to consciousness. ","Tyler,Matthew,Zachary,Ian,David,Chase","Well if the artist themself is crossing it out, why should I pay any mind?,-30,320,20","It that an actual PAINTBUSH! Love it.,50,120,20","It looks like someone did not like their art and drew an x over it.,-32,400,20","This feels chaotic and I like the energy that it gives off.,21,260,20","Don't really like the red x. It gives the impression that this a discarded piece.,-10,340,20","This is ugly as fuck,-50,120,20","Ian","This feels chaotic and I like the energy that it gives off.,21,260,20","Matthew","It that an actual PAINTBUSH! Love it.,50,120,20","David","Don't really like the red x. It gives the impression that this a discarded piece.,-10,340,20","4"
"3930","","survey-text","189","1960570","0.0-187.0-0.0","A2H1QUGX0SOUMH","","","","{""Q0"":""we""}","","","","","","","","","","","","","","","","","","","","","","",""
"22331","","survey-text","190","1982902","0.0-188.0-0.0","A2H1QUGX0SOUMH","","","","{""Q0"":""A chorus line amidst the static. ""}","","","","","","","","","","","","","","","","","","","","","","",""
"2761.899999976158","","image-slider-response","191","1985666","0.0-189.0","A2H1QUGX0SOUMH","","","","","12","","","","","","","","","","","","","","","","","","","","","",""
"4015","","image-button-response","192","1990669","0.0-190.0","A2H1QUGX0SOUMH","img_art/23.jpg","4","","","","","","","","","","","","","","","","","","","","","","","","",""
"4054","","image-button-response","193","1994727","0.0-191.0","A2H1QUGX0SOUMH","img_art/23.jpg","3","","","","","","","","","","","","","","","","","","","","","","","","",""
"801","","image-button-response","194","1995530","0.0-192.0-0.0","A2H1QUGX0SOUMH","img_art/23.jpg","4","","","","","","","","","","","","","","","","","","","","","","","","",""
"7055","","image-button-response","195","2002588","0.0-193.0-0.0","A2H1QUGX0SOUMH","img_art/23.jpg","1","","","","","","","","","","","","","","","","","","","","","","","","",""
"null","","html-keyboard-response","196","2003092","0.0-194.0","A2H1QUGX0SOUMH","<p style=""font-size: 48px;"">+</p>","","","","","null","allTrialResponses","500","1","21","img_art/23.jpg","12","A chorus line amidst the static. ","Adam,Matthew,Blake,Ian,David,Joseph","I like the color contrast, though I'm unable to tell what the white shapes are.,25,40,20","A line dance, it's really strinkingly beautiful.,50,120,20","cold and dark feeling,-27,280,20","It's very colorful and different, the white looks like people dancing,26,260,20","I like the symmetrical design and how it portrays the liveliness of a musical environment.,30,340,20","Like a wound that has been sutured. Pain, but also healing.,5,220,20","Ian","It's very colorful and different, the white looks like people dancing,26,260,20","David","I like the symmetrical design and how it portrays the liveliness of a musical environment.,30,340,20","Matthew","A line dance, it's really strinkingly beautiful.,50,120,20","4"
"57502","","survey-text","197","2060607","0.0-195.0-0.0","A2H1QUGX0SOUMH","","","","{""Q0"":""Paris, turn of the century? Love the use of watercolor to soften the edges.""}","","","","","","","","","","","","","","","","","","","","","","",""
"3473.399999976158","","image-slider-response","198","2064083","0.0-196.0","A2H1QUGX0SOUMH","","","","","17","","","","","","","","","","","","","","","","","","","","","",""
"null","","image-button-response","199","2069086","0.0-197.0","A2H1QUGX0SOUMH","img_art/19.jpg","null","","","","","","","","","","","","","","","","","","","","","","","","",""
"723","","image-button-response","200","2069811","0.0-198.0","A2H1QUGX0SOUMH","img_art/19.jpg","0","","","","","","","","","","","","","","","","","","","","","","","","",""
"7027","","image-button-response","201","2076839","0.0-199.0-0.0","A2H1QUGX0SOUMH","img_art/19.jpg","5","","","","","","","","","","","","","","","","","","","","","","","","",""
"4016","","image-button-response","202","2080859","0.0-200.0-0.0","A2H1QUGX0SOUMH","img_art/19.jpg","3","","","","","","","","","","","","","","","","","","","","","","","","",""
"null","","html-keyboard-response","203","2081862","0.0-201.0","A2H1QUGX0SOUMH","<p style=""font-size: 48px;"">+</p>","","","","","null","allTrialResponses","1000","1","22","img_art/19.jpg","17","Paris, turn of the century? Love the use of watercolor to soften the edges.","Elijah,Matthew,Grant,Ian,David,Dakota","The details are amazing,36,80,20","someone at the beach maybe?,27,120,20","It's a cute city scene, but nothing special.,10,200,20","It looks cool but at the time looks like it was done by a talented 5 year old.,13,260,20","The image doesn't really invoke any emotions strongly.,0,340,20","confusion, scattered and diffuse,-4,280,20","Elijah","The details are amazing,36,80,20","Dakota","confusion, scattered and diffuse,-4,280,20","Ian","It looks cool but at the time looks like it was done by a talented 5 year old.,13,260,20","4"
"23062","","survey-text","204","2104946","0.0-202.0-0.0","A2H1QUGX0SOUMH","","","","{""Q0"":""African shaman casts a spell.""}","","","","","","","","","","","","","","","","","","","","","","",""
"3241.1999999284744","","image-slider-response","205","2108190","0.0-203.0","A2H1QUGX0SOUMH","","","","","16","","","","","","","","","","","","","","","","","","","","","",""
"null","","image-button-response","206","2113198","0.0-204.0","A2H1QUGX0SOUMH","img_art/25.jpg","null","","","","","","","","","","","","","","","","","","","","","","","","",""
"421","","image-button-response","207","2113622","0.0-205.0","A2H1QUGX0SOUMH","img_art/25.jpg","0","","","","","","","","","","","","","","","","","","","","","","","","",""
"2922","","image-button-response","208","2116546","0.0-206.0-0.0","A2H1QUGX0SOUMH","img_art/25.jpg","1","","","","","","","","","","","","","","","","","","","","","","","","",""
"1037","","image-button-response","209","2117586","0.0-207.0-0.0","A2H1QUGX0SOUMH","img_art/25.jpg","0","","","","","","","","","","","","","","","","","","","","","","","","",""
"657","","image-button-response","210","2126152","0.0-207.1-0.1","A2H1QUGX0SOUMH","img_art/25.jpg","3","","","","","","","","","","","","","","","","","","","","","","","","",""
"null","","html-keyboard-response","211","2126656","0.0-208.0","A2H1QUGX0SOUMH","<p style=""font-size: 48px;"">+</p>","","","","","null","allTrialResponses","500","1","23","img_art/25.jpg","16","African shaman casts a spell.","Elijah,Brandon,Dalton,Ian,Colton,Dakota","Makes me feel intrigued,13,80,20","Reminds me of cave drawings,21,320,20","This reminds me of royalty and servants.,32,300,20","This looks cool but I don't really care for it. Some sort or religious figure?,16,260,20","the colors are pretty,11,220,20","I think of death,-28,280,20","Elijah","Makes me feel intrigued,13,80,20","Brandon","Reminds me of cave drawings,21,320,20","Ian","This looks cool but I don't really care for it. Some sort or religious figure?,16,260,20","6"
"52551","","survey-text","212","2179219","0.0-209.0-0.0","A2H1QUGX0SOUMH","","","","{""Q0"":""Flat jumble of color doesn't grab me.""}","","","","","","","","","","","","","","","","","","","","","","",""
"3160.7999999523163","","image-slider-response","213","2182382","0.0-210.0","A2H1QUGX0SOUMH","","","","","-17","","","","","","","","","","","","","","","","","","","","","",""
"2931","","image-button-response","214","2187386","0.0-211.0","A2H1QUGX0SOUMH","img_art/2.jpg","4","","","","","","","","","","","","","","","","","","","","","","","","",""
"11465","","image-button-response","215","2198854","0.0-212.0","A2H1QUGX0SOUMH","img_art/2.jpg","2","","","","","","","","","","","","","","","","","","","","","","","","",""
"1889","","image-button-response","216","2200746","0.0-213.0-0.0","A2H1QUGX0SOUMH","img_art/2.jpg","0","","","","","","","","","","","","","","","","","","","","","","","","",""
"1893","","image-button-response","217","2202642","0.0-214.0-0.0","A2H1QUGX0SOUMH","img_art/2.jpg","4","","","","","","","","","","","","","","","","","","","","","","","","",""
"null","","html-keyboard-response","218","2203645","0.0-215.0","A2H1QUGX0SOUMH","<p style=""font-size: 48px;"">+</p>","","","","","null","allTrialResponses","1000","1","24","img_art/2.jpg","-17","Flat jumble of color doesn't grab me.","Elijah,Brandon,Jose,Ian,Michael,Isaiah","It's just a splash of paint on a canvas,-31,80,20","Do not like this type of abstract work,-50,320,20","The color combo is kind of ugly but there's something charming about it still,17,200,20","I don't really like this but at the same time it's cute. It looks like a little monster kid.,-9,260,20","Random colors and shapes mashed together. Nothing artistic, but better than some of the other ones.,-37,140,20","I feel claustrophobic. I'm looking at a busy shop, but the simple shapes and continuous colors make it hectic.,-8,300,20","Jose","The color combo is kind of ugly but there's something charming about it still,17,200,20","Elijah","It's just a splash of paint on a canvas,-31,80,20","Michael","Random colors and shapes mashed together. Nothing artistic, but better than some of the other ones.,-37,140,20","6"
"38558","","survey-text","219","2242218","0.0-216.0-0.0","A2H1QUGX0SOUMH","","","","{""Q0"":""Oddly haunting, as if depiction the patio of a ghost.""}","","","","","","","","","","","","","","","","","","","","","","",""
"3441.7000000476837","","image-slider-response","220","2245661","0.0-217.0","A2H1QUGX0SOUMH","","","","","19","","","","","","","","","","","","","","","","","","","","","",""
"4294","","image-button-response","221","2250665","0.0-218.0","A2H1QUGX0SOUMH","img_art/17.jpg","4","","","","","","","","","","","","","","","","","","","","","","","","",""
"6386","","image-button-response","222","2257054","0.0-219.0","A2H1QUGX0SOUMH","img_art/17.jpg","0","","","","","","","","","","","","","","","","","","","","","","","","",""
"5094","","image-button-response","223","2262151","0.0-220.0-0.0","A2H1QUGX0SOUMH","img_art/17.jpg","4","","","","","","","","","","","","","","","","","","","","","","","","",""
"6111","","image-button-response","224","2268267","0.0-221.0-0.0","A2H1QUGX0SOUMH","img_art/17.jpg","3","","","","","","","","","","","","","","","","","","","","","","","","",""
"null","","html-keyboard-response","225","2269769","0.0-222.0","A2H1QUGX0SOUMH","<p style=""font-size: 48px;"">+</p>","","","","","null","allTrialResponses","1500","1","25","img_art/17.jpg","19","Oddly haunting, as if depiction the patio of a ghost.","Elijah,Gabriel,Jose,Timothy,Michael,Jake","Very cool, makes me feel calm,43,80,20","this ones alright,10,160,20","Looks like a weird blurry heaven again! I dig,32,200,20","This feels like creativity and limitlessness,30,240,20","There is better structure and direction in this one.,19,140,20","This could have been good but was poorly done.,-5,360,20","Elijah","Very cool, makes me feel calm,43,80,20","Michael","There is better structure and direction in this one.,19,140,20","Timothy","This feels like creativity and limitlessness,30,240,20","6"
"5895","","survey-text","226","2275698","0.0-223.0-0.0","A2H1QUGX0SOUMH","","","","{""Q0"":""table""}","","","","","","","","","","","","","","","","","","","","","","",""
"39989","","survey-text","227","2315690","0.0-224.0-0.0","A2H1QUGX0SOUMH","","","","{""Q0"":""Images appear slowly, like cold syrup out of the bottle.""}","","","","","","","","","","","","","","","","","","","","","","",""
"5029.899999976158","","image-slider-response","228","2320722","0.0-225.0","A2H1QUGX0SOUMH","","","","","13","","","","","","","","","","","","","","","","","","","","","",""
"4789","","image-button-response","229","2325728","0.0-226.0","A2H1QUGX0SOUMH","img_art/28.jpg","3","","","","","","","","","","","","","","","","","","","","","","","","",""
"9473","","image-button-response","230","2335215","0.0-227.0","A2H1QUGX0SOUMH","img_art/28.jpg","3","","","","","","","","","","","","","","","","","","","","","","","","",""
"9445","","image-button-response","231","2344662","0.0-228.0-0.0","A2H1QUGX0SOUMH","img_art/28.jpg","0","","","","","","","","","","","","","","","","","","","","","","","","",""
"1826","","image-button-response","232","2346490","0.0-229.0-0.0","A2H1QUGX0SOUMH","img_art/28.jpg","1","","","","","","","","","","","","","","","","","","","","","","","","",""
"null","","html-keyboard-response","233","2347992","0.0-230.0","A2H1QUGX0SOUMH","<p style=""font-size: 48px;"">+</p>","","","","","null","allTrialResponses","1500","1","26","img_art/28.jpg","13","Images appear slowly, like cold syrup out of the bottle.","Elijah,Jesse,Jonathan,Timothy,Michael,Luke","The colors are depressing,-5,80,20","Just all blurs together for me. No substance.,-23,80,20","The lack of color variance leaves it looking ugly even if I like the brush strokes,-10,140,20","This one gives me an uneasy feeling,-10,240,20","Incoherent ugly mess.,-50,140,20","no clear colors or meaning to evoke emotions,-15,20,20","Timothy","This one gives me an uneasy feeling,-10,240,20","Elijah","The colors are depressing,-5,80,20","Jesse","Just all blurs together for me. No substance.,-23,80,20","6"
"18181","","survey-text","234","2366190","0.0-231.0-0.0","A2H1QUGX0SOUMH","","","","{""Q0"":""Ya gotta hand it to the artist.""}","","","","","","","","","","","","","","","","","","","","","","",""
"3625.1999999284744","","image-slider-response","235","2369817","0.0-232.0","A2H1QUGX0SOUMH","","","","","-10","","","","","","","","","","","","","","","","","","","","","",""
"null","","image-button-response","236","2374823","0.0-233.0","A2H1QUGX0SOUMH","img_art/4.jpg","null","","","","","","","","","","","","","","","","","","","","","","","","",""
"8442","","image-button-response","237","2383270","0.0-234.0","A2H1QUGX0SOUMH","img_art/4.jpg","0","","","","","","","","","","","","","","","","","","","","","","","","",""
"6247","","image-button-response","238","2389519","0.0-235.0-0.0","A2H1QUGX0SOUMH","img_art/4.jpg","5","","","","","","","","","","","","","","","","","","","","","","","","",""
"1905","","image-button-response","239","2391426","0.0-236.0-0.0","A2H1QUGX0SOUMH","img_art/4.jpg","4","","","","","","","","","","","","","","","","","","","","","","","","",""
"null","","html-keyboard-response","240","2392928","0.0-237.0","A2H1QUGX0SOUMH","<p style=""font-size: 48px;"">+</p>","","","","","null","allTrialResponses","1500","1","27","img_art/4.jpg","-10","Ya gotta hand it to the artist.","Elijah,Jesse,Logan,Timothy,Ryan,Connor","Looks like a hand, not very impressed,-22,80,20","I like the warmth in the colors. Its reassuring.,9,80,20","it looks like a preschooler just dragged his fingers around,-36,360,20","The colors feel a bit off to me,-10,240,20","Looks like an abstract version of the Scream painting,-50,380,20","Seems simplistic,-8,240,20","Elijah","Looks like a hand, not very impressed,-22,80,20","Connor","Seems simplistic,-8,240,20","Ryan","Looks like an abstract version of the Scream painting,-50,380,20","6"
"60126","","survey-text","241","2453074","0.0-238.0-0.0","A2H1QUGX0SOUMH","","","","{""Q0"":""Compelling juxtaposition of action figures embedded in plaster.""}","","","","","","","","","","","","","","","","","","","","","","",""
"3456.600000023842","","image-slider-response","242","2456533","0.0-239.0","A2H1QUGX0SOUMH","","","","","23","","","","","","","","","","","","","","","","","","","","","",""
"null","","image-button-response","243","2461537","0.0-240.0","A2H1QUGX0SOUMH","img_art/7.jpg","null","","","","","","","","","","","","","","","","","","","","","","","","",""
"4693","","image-button-response","244","2466234","0.0-241.0","A2H1QUGX0SOUMH","img_art/7.jpg","2","","","","","","","","","","","","","","","","","","","","","","","","",""
"6397","","image-button-response","245","2472645","0.0-242.0-0.0","A2H1QUGX0SOUMH","img_art/7.jpg","4","","","","","","","","","","","","","","","","","","","","","","","","",""
"9833","","image-button-response","246","2482482","0.0-243.0-0.0","A2H1QUGX0SOUMH","img_art/7.jpg","5","","","","","","","","","","","","","","","","","","","","","","","","",""
"null","","html-keyboard-response","247","2483484","0.0-244.0","A2H1QUGX0SOUMH","<p style=""font-size: 48px;"">+</p>","","","","","null","allTrialResponses","1000","1","28","img_art/7.jpg","23","Compelling juxtaposition of action figures embedded in plaster.","Elijah,Jordan,Edward,Adrian,Ryan,Connor","Not highly impressed,-5,80,20","Looks like a skin disease,-31,160,20","It looks like maybe some seeds?,14,60,20","It's dirty. I don't mind the colors so much as the way they are put together in this dirty-looking pattern.,-41,60,20","I hate everything about this painting from the cors to it looking like a war,-50,380,20","Color is bland and looks damaged,-37,240,20","Edward","It looks like maybe some seeds?,14,60,20","Ryan","I hate everything about this painting from the cors to it looking like a war,-50,380,20","Connor","Color is bland and looks damaged,-37,240,20","6"
"26435","","survey-text","248","2509941","0.0-245.0-0.0","A2H1QUGX0SOUMH","","","","{""Q0"":""Looks like the artist finally ran out of red pigment.""}","","","","","","","","","","","","","","","","","","","","","","",""
"3465.4000000953674","","image-slider-response","249","2513409","0.0-246.0","A2H1QUGX0SOUMH","","","","","-10","","","","","","","","","","","","","","","","","","","","","",""
"null","","image-button-response","250","2518412","0.0-247.0","A2H1QUGX0SOUMH","img_art/3.jpg","null","","","","","","","","","","","","","","","","","","","","","","","","",""
"7736","","image-button-response","251","2526150","0.0-248.0","A2H1QUGX0SOUMH","img_art/3.jpg","2","","","","","","","","","","","","","","","","","","","","","","","","",""
"4804","","image-button-response","252","2530957","0.0-249.0-0.0","A2H1QUGX0SOUMH","img_art/3.jpg","5","","","","","","","","","","","","","","","","","","","","","","","","",""
"3505","","image-button-response","253","2534465","0.0-250.0-0.0","A2H1QUGX0SOUMH","img_art/3.jpg","4","","","","","","","","","","","","","","","","","","","","","","","","",""
"null","","html-keyboard-response","254","2534969","0.0-251.0","A2H1QUGX0SOUMH","<p style=""font-size: 48px;"">+</p>","","","","","null","allTrialResponses","500","1","29","img_art/3.jpg","-10","Looks like the artist finally ran out of red pigment.","Lucas,Alex,Edward,Paul,Ryan,Connor","Mysterious, remarkable.,30,380,20","Ok, just a bunch of red lines and a grey smudge. Would pass this right by in a gallery,-12,100,20","It looks like someone took a red sharpie and just scribbled angrily,-20,60,20","It looks like random scribbles by a child and not appealing,-38,300,20","Looks like someone threw blood at a wall,-50,380,20","Shapes are interesting but color is overwhelming,5,240,20","Edward","It looks like someone took a red sharpie and just scribbled angrily,-20,60,20","Connor","Shapes are interesting but color is overwhelming,5,240,20","Ryan","Looks like someone threw blood at a wall,-50,380,20","6"
"46808","","survey-text","255","2581794","0.0-252.0-0.0","A2H1QUGX0SOUMH","","","","{""Q0"":""Bubble has the key to the door in this abstract/surreal colorscape.""}","","","","","","","","","","","","","","","","","","","","","","",""
"3449.2000000476837","","image-slider-response","256","2585245","0.0-253.0","A2H1QUGX0SOUMH","","","","","11","","","","","","","","","","","","","","","","","","","","","",""
"null","","image-button-response","257","2590251","0.0-254.0","A2H1QUGX0SOUMH","img_art/22.jpg","null","","","","","","","","","","","","","","","","","","","","","","","","",""
"2430","","image-button-response","258","2592686","0.0-255.0","A2H1QUGX0SOUMH","img_art/22.jpg","0","","","","","","","","","","","","","","","","","","","","","","","","",""
"4726","","image-button-response","259","2597414","0.0-256.0-0.0","A2H1QUGX0SOUMH","img_art/22.jpg","2","","","","","","","","","","","","","","","","","","","","","","","","",""
"54144","","image-button-response","260","2651561","0.0-257.0-0.0","A2H1QUGX0SOUMH","img_art/22.jpg","1","","","","","","","","","","","","","","","","","","","","","","","","",""
"null","","html-keyboard-response","261","2652063","0.0-258.0","A2H1QUGX0SOUMH","<p style=""font-size: 48px;"">+</p>","","","","","null","allTrialResponses","500","1","30","img_art/22.jpg","11","Bubble has the key to the door in this abstract/surreal colorscape.","Kyle,Dylan,Edward,Trevor,Ryan,Connor","I appreciate the artistic effort but it's not for me,0,340,20","The colors in this picture are nice.,32,40,20","I like the use of primary colors in an interesting way,29,60,20","i like the colors but it looks too 80s for me,7,280,20","Very generic, seen many times before,-43,380,20","Seems dated with geometic forms,-20,240,20","Kyle","I appreciate the artistic effort but it's not for me,0,340,20","Edward","I like the use of primary colors in an interesting way,29,60,20","Dylan","The colors in this picture are nice.,32,40,20","6"
"10777","","image-button-response_instructions","262","2662861","0.0-259.0","A2H1QUGX0SOUMH","","0","instructions","","","","","","","","","","","","","","","","","","","","","","","",""
"3480","","image-button-response","263","2666348","0.0-260.0","A2H1QUGX0SOUMH","","0","","","","","","","","","","","","","","","","","","","","","","","","",""
