"rt","url","trial_type","trial_index","time_elapsed","internal_node_id","participant_id","stimulus","button_pressed","Name","responses","response","key_press","variableName","fixationTime","condition","trial","photo","subjectRating","subjectResponse","agentsNames","agent_1_Response","agent_2_Response","agent_3_Response","agent_4_Response","agent_5_Response","agent_6_Response","kept_1_name","kept_1_response","kept_2_name","kept_2_response","kept_3_name","kept_3_response","errorCounter"
"8055","external_page_harvard.html","external-html","0","8207","0.0-0.0","A2I43BDUPAM00C","","","","","","","","","","","","","","","","","","","","","","","","","","",""
"1754","","image-button-response","1","9964","0.0-1.0","A2I43BDUPAM00C","","1","","","","","","","","","","","","","","","","","","","","","","","","",""
"1433","","image-button-response","2","11404","0.0-2.0-0.0","A2I43BDUPAM00C","","1","phone","","","","","","","","","","","","","","","","","","","","","","","",""
"3034","","survey-text","3","14440","0.0-3.0-0.0","A2I43BDUPAM00C","","","","{""Q0"":""A2I43BDUPAM00C""}","","","","","","","","","","","","","","","","","","","","","","",""
"6013","","image-button-response_instructions","4","20456","0.0-4.0","A2I43BDUPAM00C","","0","instructions","","","","","","","","","","","","","","","","","","","","","","","",""
"12385","","image-button-response_instructions","5","32843","0.0-5.0","A2I43BDUPAM00C","img_art/ins/popularity/ins1.png","0","instructions","","","","","","","","","","","","","","","","","","","","","","","",""
"3542","","image-button-response_instructions","6","36386","0.0-6.0","A2I43BDUPAM00C","img_art/ins/popularity/ins2.png","0","instructions","","","","","","","","","","","","","","","","","","","","","","","",""
"6172","","image-button-response_instructions","7","42561","0.0-7.0","A2I43BDUPAM00C","img_art/ins/popularity/ins2Extreme.png","0","instructions","","","","","","","","","","","","","","","","","","","","","","","",""
"4519","","image-button-response_instructions","8","47082","0.0-8.0","A2I43BDUPAM00C","img_art/ins/popularity/ins3KEEPpop.PNG","0","instructions","","","","","","","","","","","","","","","","","","","","","","","",""
"5851","","image-button-response_instructions","9","52935","0.0-9.0","A2I43BDUPAM00C","img_art/ins/popularity/ins3ANamepop.PNG","0","instructions","","","","","","","","","","","","","","","","","","","","","","","",""
"4063","","image-button-response_instructions","10","57000","0.0-10.0","A2I43BDUPAM00C","img_art/ins/popularity/ins3ARatingpop.png","0","instructions","","","","","","","","","","","","","","","","","","","","","","","",""
"4054","","image-button-response_instructions","11","61056","0.0-11.0","A2I43BDUPAM00C","img_art/ins/popularity/ins3ATextpop.png","0","instructions","","","","","","","","","","","","","","","","","","","","","","","",""
"9129","","image-button-response_instructions","12","70186","0.0-12.0","A2I43BDUPAM00C","img_art/ins/popularity/ins3ALikespop.png","0","instructions","","","","","","","","","","","","","","","","","","","","","","","",""
"63712","","image-button-response_instructions","13","133900","0.0-13.0","A2I43BDUPAM00C","img_art/ins/popularity/ins3KEEPpop.PNG","0","instructions","","","","","","","","","","","","","","","","","","","","","","","",""
"10037","","image-button-response_instructions","14","143939","0.0-14.0","A2I43BDUPAM00C","img_art/ins/popularity/ins3_5RED.png","0","instructions","","","","","","","","","","","","","","","","","","","","","","","",""
"3182","","image-button-response_instructions","15","147123","0.0-15.0","A2I43BDUPAM00C","img_art/ins/popularity/ins3KEEPpop.PNG","0","instructions","","","","","","","","","","","","","","","","","","","","","","","",""
"8343","","image-button-response_instructions","16","155467","0.0-16.0","A2I43BDUPAM00C","img_art/ins/popularity/ins4KEEPpop.PNG","0","instructions","","","","","","","","","","","","","","","","","","","","","","","",""
"4870","","image-button-response_instructions","17","160339","0.0-17.0","A2I43BDUPAM00C","img_art/ins/popularity/ins5KEEPpop.PNG","0","instructions","","","","","","","","","","","","","","","","","","","","","","","",""
"2739","","image-button-response_instructions","18","163079","0.0-18.0","A2I43BDUPAM00C","","0","instructions","","","","","","","","","","","","","","","","","","","","","","","",""
"4475","","survey-text","19","167595","0.0-19.0-0.0","A2I43BDUPAM00C","","","","{""Q0"":""but""}","","","","","","","","","","","","","","","","","","","","","","",""
"20129","","survey-text","20","187727","0.0-20.0-0.0","A2I43BDUPAM00C","","","","{""Q0"":""these soft colors are calming""}","","","","","","","","","","","","","","","","","","","","","","",""
"3983.5999999996275","","image-slider-response","21","191713","0.0-21.0","A2I43BDUPAM00C","","","","","12","","","","","","","","","","","","","","","","","","","","","",""
"null","","image-button-response","22","196731","0.0-22.0","A2I43BDUPAM00C","img_art/ins/1.jpg","null","","","","","","","","","","","","","","","","","","","","","","","","",""
"10573","","image-button-response","23","207308","0.0-23.0","A2I43BDUPAM00C","img_art/ins/1.jpg","4","","","","","","","","","","","","","","","","","","","","","","","","",""
"860","","image-button-response","24","208173","0.0-24.0-0.0","A2I43BDUPAM00C","img_art/ins/1.jpg","5","","","","","","","","","","","","","","","","","","","","","","","","",""
"1788","","image-button-response","25","209964","0.0-25.0-0.0","A2I43BDUPAM00C","img_art/ins/1.jpg","0","","","","","","","","","","","","","","","","","","","","","","","","",""
"null","","html-keyboard-response","26","210981","0.0-26.0","A2I43BDUPAM00C","<p style=""font-size: 48px;"">+</p>","","","","","null","allTrialResponses","1000","1","-2","img_art/ins/1.jpg","12","these soft colors are calming","Allison,Ashley,Beth,Dora,Erika,Jen","looks like a lot of things going on in the mist,20,20,20","I just don't get why these type of art would be popular,-32,40,20","This color reminds me of poo,-46,60,20","looks like what my niece in 3rd grade did this afternoon,-50,80,20","I like the sophisticated brushwork,40,100,20","It reminds me of a candy land dream I had,36,120,20","Erika","I like the sophisticated brushwork,40,100,20","Jen","It reminds me of a candy land dream I had,36,120,20","Allison","looks like a lot of things going on in the mist,20,20,20","0"
"28460","","survey-text","27","239451","0.0-27.0-0.0","A2I43BDUPAM00C","","","","{""Q0"":""bold colors and heavy textures really draw me in.""}","","","","","","","","","","","","","","","","","","","","","","",""
"3203.4000000003725","","image-slider-response","28","242657","0.0-28.0","A2I43BDUPAM00C","","","","","30","","","","","","","","","","","","","","","","","","","","","",""
"null","","image-button-response","29","247672","0.0-29.0","A2I43BDUPAM00C","img_art/ins/2.jpg","null","","","","","","","","","","","","","","","","","","","","","","","","",""
"5867","","image-button-response","30","253543","0.0-30.0","A2I43BDUPAM00C","img_art/ins/2.jpg","1","","","","","","","","","","","","","","","","","","","","","","","","",""
"752","","image-button-response","31","254299","0.0-31.0-0.0","A2I43BDUPAM00C","img_art/ins/2.jpg","4","","","","","","","","","","","","","","","","","","","","","","","","",""
"454","","image-button-response","32","254756","0.0-32.0-0.0","A2I43BDUPAM00C","img_art/ins/2.jpg","5","","","","","","","","","","","","","","","","","","","","","","","","",""
"null","","html-keyboard-response","33","255770","0.0-33.0","A2I43BDUPAM00C","<p style=""font-size: 48px;"">+</p>","","","","","null","allTrialResponses","1000","1","-1","img_art/ins/2.jpg","30","bold colors and heavy textures really draw me in.","Allison,Kara,Katie,Jenna,Erika,Jen","I don't have strong feelings about this,10,20,20","I like the blocks of color arrangements,30,160,20","too much color!,-28,180,20","One of my pet peevs,-48,140,20","I would never be able to compose a sophisticated pallete like this,48,100,20","It reminds me of a fireplace,36,120,20","Kara","I like the blocks of color arrangements,30,160,20","Erika","I would never be able to compose a sophisticated pallete like this,48,100,20","Jen","It reminds me of a fireplace,36,120,20","0"
"13878","","survey-text","34","269655","0.0-34.0-0.0","A2I43BDUPAM00C","","","","{""Q0"":""this feels icy cold, and bold""}","","","","","","","","","","","","","","","","","","","","","","",""
"3502.199999999255","","image-slider-response","35","273159","0.0-35.0","A2I43BDUPAM00C","","","","","15","","","","","","","","","","","","","","","","","","","","","",""
"null","","image-button-response","36","278171","0.0-36.0","A2I43BDUPAM00C","img_art/ins/3.jpg","null","","","","","","","","","","","","","","","","","","","","","","","","",""
"15442","","image-button-response","37","293616","0.0-37.0","A2I43BDUPAM00C","img_art/ins/3.jpg","0","","","","","","","","","","","","","","","","","","","","","","","","",""
"4683","","image-button-response","38","298302","0.0-38.0-0.0","A2I43BDUPAM00C","img_art/ins/3.jpg","5","","","","","","","","","","","","","","","","","","","","","","","","",""
"3827","","image-button-response","39","302132","0.0-39.0-0.0","A2I43BDUPAM00C","img_art/ins/3.jpg","4","","","","","","","","","","","","","","","","","","","","","","","","",""
"null","","html-keyboard-response","40","303138","0.0-40.0","A2I43BDUPAM00C","<p style=""font-size: 48px;"">+</p>","","","","","null","allTrialResponses","1000","1","0","img_art/ins/3.jpg","15","this feels icy cold, and bold","Mary,Kara,Rose,Leslie,Erika,Jen","I like the overlapping of brushes,41,220,20","calming blue is very nice,36,160,20","My daily routine, it's depressing,-20,240,20","It's an alright work,15,200,20","I feel connected to the artist,40,100,20","I can feel a rainy day from this painting,18,120,20","Mary","I like the overlapping of brushes,41,220,20","Jen","I can feel a rainy day from this painting,18,120,20","Erika","I feel connected to the artist,40,100,20","0"
"5325","","image-button-response_instructions","41","308475","0.0-41.0","A2I43BDUPAM00C","","0","instructions","","","","","","","","","","","","","","","","","","","","","","","",""
"9260","","survey-likert","42","317737","0.0-42.0-0.0","A2I43BDUPAM00C","","","","{""Q0"":"""",""Q1"":0,""Q2"":1}","","","","","","","","","","","","","","","","","","","","","","",""
"3887","","survey-text","43","321637","0.0-43.0-0.0","A2I43BDUPAM00C","","","","{""Q0"":""rock""}","","","","","","","","","","","","","","","","","","","","","","",""
"17404","","survey-text","44","339043","0.0-44.0-0.0","A2I43BDUPAM00C","","","","{""Q0"":""dreamy, colorful, and chaotic, but I like it.""}","","","","","","","","","","","","","","","","","","","","","","",""
"3991.7000000011176","","image-slider-response","45","343037","0.0-45.0","A2I43BDUPAM00C","","","","","6","","","","","","","","","","","","","","","","","","","","","",""
"null","","image-button-response","46","348091","0.0-46.0","A2I43BDUPAM00C","img_art/8.jpg","null","","","","","","","","","","","","","","","","","","","","","","","","",""
"12504","","image-button-response","47","360600","0.0-47.0","A2I43BDUPAM00C","img_art/8.jpg","5","","","","","","","","","","","","","","","","","","","","","","","","",""
"5180","","image-button-response","48","365784","0.0-48.0-0.0","A2I43BDUPAM00C","img_art/8.jpg","3","","","","","","","","","","","","","","","","","","","","","","","","",""
"4723","","image-button-response","49","370510","0.0-49.0-0.0","A2I43BDUPAM00C","img_art/8.jpg","4","","","","","","","","","","","","","","","","","","","","","","","","",""
"null","","html-keyboard-response","50","372013","0.0-50.0","A2I43BDUPAM00C","<p style=""font-size: 48px;"">+</p>","","","","","null","allTrialResponses","1500","1","1","img_art/8.jpg","6","dreamy, colorful, and chaotic, but I like it.","Julia,Leah,Melissa,Leslie,Erika,Jacqueline","it's a little too classical for my tastes,-25,40,20","Nice formats, I just don't like it much,-16,360,20","crisp shapes, find more things the longer you look,17,240,20","The stylized faces remind me of German expressionism in a very good way.,40,380,20","Striking, but not my taste,20,100,20","This is kind of neat. I really like how things are oriented and the shapes used.,18,300,20","Jacqueline","This is kind of neat. I really like how things are oriented and the shapes used.,18,300,20","Leslie","The stylized faces remind me of German expressionism in a very good way.,40,380,20","Erika","Striking, but not my taste,20,100,20","0"
"20678","","survey-text","51","392701","0.0-51.0-0.0","A2I43BDUPAM00C","","","","{""Q0"":""I like the simplicity and washed color""}","","","","","","","","","","","","","","","","","","","","","","",""
"3166.199999999255","","image-slider-response","52","395870","0.0-52.0","A2I43BDUPAM00C","","","","","12","","","","","","","","","","","","","","","","","","","","","",""
"null","","image-button-response","53","400891","0.0-53.0","A2I43BDUPAM00C","img_art/25.jpg","null","","","","","","","","","","","","","","","","","","","","","","","","",""
"21233","","image-button-response","54","422128","0.0-54.0","A2I43BDUPAM00C","img_art/25.jpg","0","","","","","","","","","","","","","","","","","","","","","","","","",""
"2012","","image-button-response","55","424143","0.0-55.0-0.0","A2I43BDUPAM00C","img_art/25.jpg","2","","","","","","","","","","","","","","","","","","","","","","","","",""
"8849","","image-button-response","56","432995","0.0-56.0-0.0","A2I43BDUPAM00C","img_art/25.jpg","5","","","","","","","","","","","","","","","","","","","","","","","","",""
"null","","html-keyboard-response","57","434500","0.0-57.0","A2I43BDUPAM00C","<p style=""font-size: 48px;"">+</p>","","","","","null","allTrialResponses","1500","1","2","img_art/25.jpg","12","I like the simplicity and washed color","Bailey,Morgan,Alyssa,Leslie,Erika,Jacqueline","I love the background color and it's creepy...but cool.,30,360,20","Ancient gods above you.,20,380,20","Dark silhouette against the murky background Illicites an ominous feeling. Don't really like it.,-20,160,20","I feel like I'm looking at something larger than myself.,30,380,20","Very cryptic and ancient,36,100,20","Not particularly interesting for me. The green color is strange mixed with this.,-11,300,20","Bailey","I love the background color and it's creepy...but cool.,30,360,20","Alyssa","Dark silhouette against the murky background Illicites an ominous feeling. Don't really like it.,-20,160,20","Jacqueline","Not particularly interesting for me. The green color is strange mixed with this.,-11,300,20","0"
"14569","","survey-text","58","449078","0.0-58.0-0.0","A2I43BDUPAM00C","","","","{""Q0"":""not my favorite, but nice brush work""}","","","","","","","","","","","","","","","","","","","","","","",""
"5266.199999999255","","image-slider-response","59","454347","0.0-59.0","A2I43BDUPAM00C","","","","","-22","","","","","","","","","","","","","","","","","","","","","",""
"null","","image-button-response","60","459361","0.0-60.0","A2I43BDUPAM00C","img_art/29.jpg","null","","","","","","","","","","","","","","","","","","","","","","","","",""
"3772","","image-button-response","61","463137","0.0-61.0","A2I43BDUPAM00C","img_art/29.jpg","2","","","","","","","","","","","","","","","","","","","","","","","","",""
"6652","","image-button-response","62","469793","0.0-62.0-0.0","A2I43BDUPAM00C","img_art/29.jpg","3","","","","","","","","","","","","","","","","","","","","","","","","",""
"4621","","image-button-response","63","474417","0.0-63.0-0.0","A2I43BDUPAM00C","img_art/29.jpg","5","","","","","","","","","","","","","","","","","","","","","","","","",""
"null","","html-keyboard-response","64","474931","0.0-64.0","A2I43BDUPAM00C","<p style=""font-size: 48px;"">+</p>","","","","","null","allTrialResponses","500","1","3","img_art/29.jpg","-22","not my favorite, but nice brush work","Bailey,Michelle,Alyssa,Allison,Amanda,Jacqueline","Giant messy blob. Looks like it tries to be edgy, but fails.,-40,360,20","The texture really stands out, this is an interesting composition,6,280,20","Its interesting although doesnt illicit any strong emotions from me,10,160,20","Flash is too strong. Dislike the colors,-5,140,20","Once again, very modern, activists will love,27,180,20","This is ugly as fuck,-50,300,20","Alyssa","Its interesting although doesnt illicit any strong emotions from me,10,160,20","Allison","Flash is too strong. Dislike the colors,-5,140,20","Jacqueline","This is ugly as fuck,-50,300,20","0"
"16487","","survey-text","65","491428","0.0-65.0-0.0","A2I43BDUPAM00C","","","","{""Q0"":""soft earthy colors are nice, subject not my favorite""}","","","","","","","","","","","","","","","","","","","","","","",""
"5873.9000000003725","","image-slider-response","66","497304","0.0-66.0","A2I43BDUPAM00C","","","","","2","","","","","","","","","","","","","","","","","","","","","",""
"null","","image-button-response","67","502311","0.0-67.0","A2I43BDUPAM00C","img_art/19.jpg","null","","","","","","","","","","","","","","","","","","","","","","","","",""
"9877","","image-button-response","68","512191","0.0-68.0","A2I43BDUPAM00C","img_art/19.jpg","2","","","","","","","","","","","","","","","","","","","","","","","","",""
"5631","","image-button-response","69","517827","0.0-69.0-0.0","A2I43BDUPAM00C","img_art/19.jpg","4","","","","","","","","","","","","","","","","","","","","","","","","",""
"3803","","image-button-response","70","521632","0.0-70.0-0.0","A2I43BDUPAM00C","img_art/19.jpg","0","","","","","","","","","","","","","","","","","","","","","","","","",""
"null","","html-keyboard-response","71","522650","0.0-71.0","A2I43BDUPAM00C","<p style=""font-size: 48px;"">+</p>","","","","","null","allTrialResponses","1000","1","4","img_art/19.jpg","2","soft earthy colors are nice, subject not my favorite","Brittany,Kristen,Alyssa,Allison,Crystal,Jacqueline","It looks too much of a rough sketch. Don't really enjoy looking at it.,-9,40,20","city, stress of urbanism, slightly panicked,2,280,20","There's alot of elements to it bordering on clutter and chaotic,-20,160,20","Messy mix of colors.,-5,140,20","It is an interesting piece but there are too many muted tones,22,300,20","This is just a mess.,-30,300,20","Alyssa","There's alot of elements to it bordering on clutter and chaotic,-20,160,20","Crystal","It is an interesting piece but there are too many muted tones,22,300,20","Brittany","It looks too much of a rough sketch. Don't really enjoy looking at it.,-9,40,20","0"
"13056","","survey-text","72","535716","0.0-72.0-0.0","A2I43BDUPAM00C","","","","{""Q0"":""reminds me of a cityscape sunset""}","","","","","","","","","","","","","","","","","","","","","","",""
"3074.300000000745","","image-slider-response","73","538793","0.0-73.0","A2I43BDUPAM00C","","","","","6","","","","","","","","","","","","","","","","","","","","","",""
"null","","image-button-response","74","543797","0.0-74.0","A2I43BDUPAM00C","img_art/22.jpg","null","","","","","","","","","","","","","","","","","","","","","","","","",""
"5004","","image-button-response","75","548805","0.0-75.0","A2I43BDUPAM00C","img_art/22.jpg","0","","","","","","","","","","","","","","","","","","","","","","","","",""
"1416","","image-button-response","76","550223","0.0-76.0-0.0","A2I43BDUPAM00C","img_art/22.jpg","0","","","","","","","","","","","","","","","","","","","","","","","","",""
"4880","","image-button-response","77","558334","0.0-76.1-0.1","A2I43BDUPAM00C","img_art/22.jpg","4","","","","","","","","","","","","","","","","","","","","","","","","",""
"1125","","image-button-response","78","559463","0.0-77.0-0.0","A2I43BDUPAM00C","img_art/22.jpg","5","","","","","","","","","","","","","","","","","","","","","","","","",""
"null","","html-keyboard-response","79","560979","0.0-78.0","A2I43BDUPAM00C","<p style=""font-size: 48px;"">+</p>","","","","","null","allTrialResponses","1500","1","5","img_art/22.jpg","6","reminds me of a cityscape sunset","Brittany,Sydney,Alyssa,Natalie,Crystal,Mackenzie","It reminds me of sunsets and dusks.,22,40,20","I don't normally like bright colors, but I like them in this. Don't like the random black paint.,30,320,20","Its okay,it doesnt make me feel any sort of strong emotion,1,160,20","my reaction is that the picture is confusion,-9,400,20","Beautiful use of chalk or pastels. Love the abstract nature.,35,300,20","Different shapes within the image make it interesting to look at,20,20,20","Brittany","It reminds me of sunsets and dusks.,22,40,20","Crystal","Beautiful use of chalk or pastels. Love the abstract nature.,35,300,20","Mackenzie","Different shapes within the image make it interesting to look at,20,20,20","2"
"4898","","survey-text","80","565894","0.0-79.0-0.0","A2I43BDUPAM00C","","","","{""Q0"":""sky""}","","","","","","","","","","","","","","","","","","","","","","",""
"17151","","survey-text","81","583046","0.0-80.0-0.0","A2I43BDUPAM00C","","","","{""Q0"":""i like the white contrast and the colorful dots""}","","","","","","","","","","","","","","","","","","","","","","",""
"2690.10000000149","","image-slider-response","82","585740","0.0-81.0","A2I43BDUPAM00C","","","","","15","","","","","","","","","","","","","","","","","","","","","",""
"3983","","image-button-response","83","590749","0.0-82.0","A2I43BDUPAM00C","img_art/23.jpg","4","","","","","","","","","","","","","","","","","","","","","","","","",""
"911","","image-button-response","84","591664","0.0-83.0","A2I43BDUPAM00C","img_art/23.jpg","4","","","","","","","","","","","","","","","","","","","","","","","","",""
"4786","","image-button-response","85","596453","0.0-84.0-0.0","A2I43BDUPAM00C","img_art/23.jpg","0","","","","","","","","","","","","","","","","","","","","","","","","",""
"3711","","image-button-response","86","600167","0.0-85.0-0.0","A2I43BDUPAM00C","img_art/23.jpg","1","","","","","","","","","","","","","","","","","","","","","","","","",""
"null","","html-keyboard-response","87","601179","0.0-86.0","A2I43BDUPAM00C","<p style=""font-size: 48px;"">+</p>","","","","","null","allTrialResponses","1000","1","6","img_art/23.jpg","15","i like the white contrast and the colorful dots","Brittany,Rachel,Brooke,Shannon,Crystal,Mackenzie","The white paint through the middle really draws the eye.,30,40,20","Vivid colors and the white in the middle looks like people dancing.,31,80,20","looks like those paper chain things.,0,60,20","I really like the way all the colors look, I think this is a pretty picture.,40,220,20","I love the funky colors accompanied by perhaps dancing silhouettes. I love the white against the chaotic surroundings.,50,300,20","The usage of color is great, but not my style.,-15,20,20","Crystal","I love the funky colors accompanied by perhaps dancing silhouettes. I love the white against the chaotic surroundings.,50,300,20","Brittany","The white paint through the middle really draws the eye.,30,40,20","Rachel","Vivid colors and the white in the middle looks like people dancing.,31,80,20","2"
"12293","","survey-text","88","613481","0.0-87.0-0.0","A2I43BDUPAM00C","","","","{""Q0"":""this looks soft and introspective""}","","","","","","","","","","","","","","","","","","","","","","",""
"3515.300000000745","","image-slider-response","89","616999","0.0-88.0","A2I43BDUPAM00C","","","","","3","","","","","","","","","","","","","","","","","","","","","",""
"null","","image-button-response","90","622011","0.0-89.0","A2I43BDUPAM00C","img_art/17.jpg","null","","","","","","","","","","","","","","","","","","","","","","","","",""
"12517","","image-button-response","91","634531","0.0-90.0","A2I43BDUPAM00C","img_art/17.jpg","1","","","","","","","","","","","","","","","","","","","","","","","","",""
"6225","","image-button-response","92","640760","0.0-91.0-0.0","A2I43BDUPAM00C","img_art/17.jpg","5","","","","","","","","","","","","","","","","","","","","","","","","",""
"1966","","image-button-response","93","642730","0.0-92.0-0.0","A2I43BDUPAM00C","img_art/17.jpg","3","","","","","","","","","","","","","","","","","","","","","","","","",""
"null","","html-keyboard-response","94","644241","0.0-93.0","A2I43BDUPAM00C","<p style=""font-size: 48px;"">+</p>","","","","","null","allTrialResponses","1500","1","7","img_art/17.jpg","3","this looks soft and introspective","Brittany,Rachel,Alexandria,Mariah,Crystal,Laura","I like the colors and the design.,20,40,20","Reminds me of a beautiful tree growing in a courtyard. I like the light and airy technique used.,34,80,20","it looks very intricate and colorful,50,80,20","It feels like nature overtaking civilization.,21,140,20","Embodies beauty and complexity and in simplicity as well,50,300,20","home - reminds me of fond memories of the Barnes Museum courtyard (looks just like it),30,320,20","Rachel","Reminds me of a beautiful tree growing in a courtyard. I like the light and airy technique used.,34,80,20","Laura","home - reminds me of fond memories of the Barnes Museum courtyard (looks just like it),30,320,20","Mariah","It feels like nature overtaking civilization.,21,140,20","2"
"22118","","survey-text","95","666371","0.0-94.0-0.0","A2I43BDUPAM00C","","","","{""Q0"":""I love the contrasting colors with soft cloud like swaths""}","","","","","","","","","","","","","","","","","","","","","","",""
"2915.2999999988824","","image-slider-response","96","669288","0.0-95.0","A2I43BDUPAM00C","","","","","37","","","","","","","","","","","","","","","","","","","","","",""
"null","","image-button-response","97","674296","0.0-96.0","A2I43BDUPAM00C","img_art/21.jpg","null","","","","","","","","","","","","","","","","","","","","","","","","",""
"5561","","image-button-response","98","679861","0.0-97.0","A2I43BDUPAM00C","img_art/21.jpg","1","","","","","","","","","","","","","","","","","","","","","","","","",""
"614","","image-button-response","99","680477","0.0-98.0-0.0","A2I43BDUPAM00C","img_art/21.jpg","2","","","","","","","","","","","","","","","","","","","","","","","","",""
"7782","","image-button-response","100","688263","0.0-99.0-0.0","A2I43BDUPAM00C","img_art/21.jpg","5","","","","","","","","","","","","","","","","","","","","","","","","",""
"null","","html-keyboard-response","101","688767","0.0-100.0","A2I43BDUPAM00C","<p style=""font-size: 48px;"">+</p>","","","","","null","allTrialResponses","500","1","8","img_art/21.jpg","37","I love the contrasting colors with soft cloud like swaths","Hannah,Rachel,Sarah,Mariah,Marissa,Laura","Boring colors and look. Too much 1980s.,-20,240,20","Looks like a body of water during a sunset. I like this piece.,21,80,20","I love the section of blues, the colors overall are really lovely,31,180,20","Motion, the light marks in the lower right corner are very appealing.,15,140,20","I feel confused,-18,160,20","a serene, calm and eloquent storm,9,320,20","Rachel","Looks like a body of water during a sunset. I like this piece.,21,80,20","Sarah","I love the section of blues, the colors overall are really lovely,31,180,20","Laura","a serene, calm and eloquent storm,9,320,20","2"
"15096","","survey-text","102","703872","0.0-101.0-0.0","A2I43BDUPAM00C","","","","{""Q0"":""this looks a bit crazy and excited.""}","","","","","","","","","","","","","","","","","","","","","","",""
"3413.699999999255","","image-slider-response","103","707288","0.0-102.0","A2I43BDUPAM00C","","","","","-5","","","","","","","","","","","","","","","","","","","","","",""
"null","","image-button-response","104","712300","0.0-103.0","A2I43BDUPAM00C","img_art/9.jpg","null","","","","","","","","","","","","","","","","","","","","","","","","",""
"6470","","image-button-response","105","718773","0.0-104.0","A2I43BDUPAM00C","img_art/9.jpg","3","","","","","","","","","","","","","","","","","","","","","","","","",""
"6535","","image-button-response","106","725311","0.0-105.0-0.0","A2I43BDUPAM00C","img_art/9.jpg","2","","","","","","","","","","","","","","","","","","","","","","","","",""
"9248","","image-button-response","107","734562","0.0-106.0-0.0","A2I43BDUPAM00C","img_art/9.jpg","4","","","","","","","","","","","","","","","","","","","","","","","","",""
"null","","html-keyboard-response","108","735067","0.0-107.0","A2I43BDUPAM00C","<p style=""font-size: 48px;"">+</p>","","","","","null","allTrialResponses","500","1","9","img_art/9.jpg","-5","this looks a bit crazy and excited.","Sara,Rachel,Sarah,Amy,Amber,Laura","Spiral patterns are not my thing,-30,160,20","It looks like a lady taking a peaceful nap on a blanket in the grass.,41,80,20","I really like the color balance but the image is odd,-5,180,20","The busyness and harsh nature of the lines in this painting  mute my emotional response.,-10,220,20","looks like sleeping beauty in a garden,10,200,20","autopsy, morgue, dead corpses - don't like the flesh tones,-43,320,20","Amy","The busyness and harsh nature of the lines in this painting  mute my emotional response.,-10,220,20","Sarah","I really like the color balance but the image is odd,-5,180,20","Amber","looks like sleeping beauty in a garden,10,200,20","2"
"17441","","survey-text","109","752517","0.0-108.0-0.0","A2I43BDUPAM00C","","","","{""Q0"":""very strange collage, not my bag""}","","","","","","","","","","","","","","","","","","","","","","",""
"3125.60000000149","","image-slider-response","110","755645","0.0-109.0","A2I43BDUPAM00C","","","","","-43","","","","","","","","","","","","","","","","","","","","","",""
"null","","image-button-response","111","760651","0.0-110.0","A2I43BDUPAM00C","img_art/16.jpg","null","","","","","","","","","","","","","","","","","","","","","","","","",""
"2807","","image-button-response","112","763461","0.0-111.0","A2I43BDUPAM00C","img_art/16.jpg","2","","","","","","","","","","","","","","","","","","","","","","","","",""
"4681","","image-button-response","113","768145","0.0-112.0-0.0","A2I43BDUPAM00C","img_art/16.jpg","4","","","","","","","","","","","","","","","","","","","","","","","","",""
"3616","","image-button-response","114","771765","0.0-113.0-0.0","A2I43BDUPAM00C","img_art/16.jpg","3","","","","","","","","","","","","","","","","","","","","","","","","",""
"null","","html-keyboard-response","115","772271","0.0-114.0","A2I43BDUPAM00C","<p style=""font-size: 48px;"">+</p>","","","","","null","allTrialResponses","500","1","10","img_art/16.jpg","-43","very strange collage, not my bag","Sierra,Alexa,Sarah,Amy,Amber,Cynthia","it looks psychotic,-31,260,20","I can't figure out the meaning of this painting but it is pleasant to look at,40,40,20","i don't like the collage aspect,-25,180,20","visceral and a little disturbing.,10,220,20","Don't like the teddy bear. It takes away from the painting.,-39,200,20","Dreamy and chaotic,-9,320,20","Sarah","i don't like the collage aspect,-25,180,20","Amber","Don't like the teddy bear. It takes away from the painting.,-39,200,20","Amy","visceral and a little disturbing.,10,220,20","2"
"3576","","survey-text","116","775868","0.0-115.0-0.0","A2I43BDUPAM00C","","","","{""Q0"":""our""}","","","","","","","","","","","","","","","","","","","","","","",""
"17437","","survey-text","117","793306","0.0-116.0-0.0","A2I43BDUPAM00C","","","","{""Q0"":""I love the patches of color, interesting shapes too.""}","","","","","","","","","","","","","","","","","","","","","","",""
"2746.0999999996275","","image-slider-response","118","796055","0.0-117.0","A2I43BDUPAM00C","","","","","18","","","","","","","","","","","","","","","","","","","","","",""
"null","","image-button-response","119","801061","0.0-118.0","A2I43BDUPAM00C","img_art/28.jpg","null","","","","","","","","","","","","","","","","","","","","","","","","",""
"3303","","image-button-response","120","804369","0.0-119.0","A2I43BDUPAM00C","img_art/28.jpg","3","","","","","","","","","","","","","","","","","","","","","","","","",""
"4950","","image-button-response","121","809321","0.0-120.0-0.0","A2I43BDUPAM00C","img_art/28.jpg","2","","","","","","","","","","","","","","","","","","","","","","","","",""
"1903","","image-button-response","122","811227","0.0-121.0-0.0","A2I43BDUPAM00C","img_art/28.jpg","1","","","","","","","","","","","","","","","","","","","","","","","","",""
"null","","html-keyboard-response","123","812229","0.0-122.0","A2I43BDUPAM00C","<p style=""font-size: 48px;"">+</p>","","","","","null","allTrialResponses","1000","1","11","img_art/28.jpg","18","I love the patches of color, interesting shapes too.","Samantha,Heather,Sarah,Amy,Amber,Cheyenne","Interesting and weird. Perfect conversational piece,33,140,20","not sure what i feel but it makes me feel uncomfortable,1,260,20","something about all the off-greys is pretty interesting,5,180,20","Contemplative and a little dark. The muted colors and subject create a sense of mystery.,15,220,20","Colors are too dull.,-30,200,20","Good use of shapes.,7,200,20","Amy","Contemplative and a little dark. The muted colors and subject create a sense of mystery.,15,220,20","Sarah","something about all the off-greys is pretty interesting,5,180,20","Heather","not sure what i feel but it makes me feel uncomfortable,1,260,20","2"
"12312","","survey-text","124","824545","0.0-123.0-0.0","A2I43BDUPAM00C","","","","{""Q0"":""bright and weird for sure.""}","","","","","","","","","","","","","","","","","","","","","","",""
"3624.300000000745","","image-slider-response","125","828172","0.0-124.0","A2I43BDUPAM00C","","","","","3","","","","","","","","","","","","","","","","","","","","","",""
"null","","image-button-response","126","833180","0.0-125.0","A2I43BDUPAM00C","img_art/4.jpg","null","","","","","","","","","","","","","","","","","","","","","","","","",""
"5100","","image-button-response","127","838285","0.0-126.0","A2I43BDUPAM00C","img_art/4.jpg","2","","","","","","","","","","","","","","","","","","","","","","","","",""
"5420","","image-button-response","128","843709","0.0-127.0-0.0","A2I43BDUPAM00C","img_art/4.jpg","4","","","","","","","","","","","","","","","","","","","","","","","","",""
"2500","","image-button-response","129","846214","0.0-128.0-0.0","A2I43BDUPAM00C","img_art/4.jpg","1","","","","","","","","","","","","","","","","","","","","","","","","",""
"null","","html-keyboard-response","130","847719","0.0-129.0","A2I43BDUPAM00C","<p style=""font-size: 48px;"">+</p>","","","","","null","allTrialResponses","1500","1","12","img_art/4.jpg","3","bright and weird for sure.","Taylor,Heather,Sarah,Amy,Sabrina,Alexandra","Reminds me of a first place trophy,30,340,20","looks like an award from an award show.,22,260,20","too many red/yellow shades, its impact without a reason,-27,180,20","disturbing and uncomfortable.,10,220,20","Its just not giving the vibe i should be finding,-31,120,20","This artwork looks like a child did it,-41,60,20","Sarah","too many red/yellow shades, its impact without a reason,-27,180,20","Sabrina","Its just not giving the vibe i should be finding,-31,120,20","Heather","looks like an award from an award show.,22,260,20","2"
"27592","","survey-text","131","875322","0.0-130.0-0.0","A2I43BDUPAM00C","","","","{""Q0"":""I like the textures and colors, looks like an archeological dig""}","","","","","","","","","","","","","","","","","","","","","","",""
"3010.5","","image-slider-response","132","878334","0.0-131.0","A2I43BDUPAM00C","","","","","16","","","","","","","","","","","","","","","","","","","","","",""
"null","","image-button-response","133","883344","0.0-132.0","A2I43BDUPAM00C","img_art/7.jpg","null","","","","","","","","","","","","","","","","","","","","","","","","",""
"20653","","image-button-response","134","904001","0.0-133.0","A2I43BDUPAM00C","img_art/7.jpg","2","","","","","","","","","","","","","","","","","","","","","","","","",""
"5197","","image-button-response","135","909200","0.0-134.0-0.0","A2I43BDUPAM00C","img_art/7.jpg","3","","","","","","","","","","","","","","","","","","","","","","","","",""
"752","","image-button-response","136","909956","0.0-135.0-0.0","A2I43BDUPAM00C","img_art/7.jpg","0","","","","","","","","","","","","","","","","","","","","","","","","",""
"null","","html-keyboard-response","137","911458","0.0-136.0","A2I43BDUPAM00C","<p style=""font-size: 48px;"">+</p>","","","","","null","allTrialResponses","1500","1","13","img_art/7.jpg","16","I like the textures and colors, looks like an archeological dig","Olivia,Heather,Sarah,Madison,Sabrina,Jennifer","looking down on earth,19,40,20","i dont like it. it looks like rocks,-40,260,20","i kind of like this, it looks like a photo of a planet's surface,16,180,20","Is this a painting, really? Very compelling if so, the texture work is incredible.,15,60,20","Not getting the vibe i would like from this,-30,120,20","Very, very dull compared to the other paintings,-36,380,20","Sarah","i kind of like this, it looks like a photo of a planet's surface,16,180,20","Madison","Is this a painting, really? Very compelling if so, the texture work is incredible.,15,60,20","Olivia","looking down on earth,19,40,20","2"
"18733","","survey-text","138","930202","0.0-137.0-0.0","A2I43BDUPAM00C","","","","{""Q0"":""This looks like birds in a tree, very dark and ominous ""}","","","","","","","","","","","","","","","","","","","","","","",""
"2503.7000000011176","","image-slider-response","139","932708","0.0-138.0","A2I43BDUPAM00C","","","","","11","","","","","","","","","","","","","","","","","","","","","",""
"null","","image-button-response","140","937719","0.0-139.0","A2I43BDUPAM00C","img_art/15.jpg","null","","","","","","","","","","","","","","","","","","","","","","","","",""
"7046","","image-button-response","141","944769","0.0-140.0","A2I43BDUPAM00C","img_art/15.jpg","4","","","","","","","","","","","","","","","","","","","","","","","","",""
"2096","","image-button-response","142","946869","0.0-141.0-0.0","A2I43BDUPAM00C","img_art/15.jpg","1","","","","","","","","","","","","","","","","","","","","","","","","",""
"6178","","image-button-response","143","953050","0.0-142.0-0.0","A2I43BDUPAM00C","img_art/15.jpg","5","","","","","","","","","","","","","","","","","","","","","","","","",""
"null","","html-keyboard-response","144","954054","0.0-143.0","A2I43BDUPAM00C","<p style=""font-size: 48px;"">+</p>","","","","","null","allTrialResponses","1000","1","14","img_art/15.jpg","11","This looks like birds in a tree, very dark and ominous ","Olivia,Kaylee,Sarah,Madison,Madeline,Jenna","Black reminds me of darkness,-18,40,20","some trees in the forest,15,200,20","this is really pretty! i like the pops of blue in all the black,26,180,20","I am starting to feel description fatigue. This would be pleasant enough in a doctor's office waiting room.,15,60,20","Simple but needs some more detail somehow,-3,40,20","interesting technique. the blue is very pretty,18,360,20","Madeline","Simple but needs some more detail somehow,-3,40,20","Kaylee","some trees in the forest,15,200,20","Jenna","interesting technique. the blue is very pretty,18,360,20","2"
"21994","","survey-text","145","976056","0.0-144.0-0.0","A2I43BDUPAM00C","","","","{""Q0"":""I enjoy the blues and greens with the red accents. nice color blocks.""}","","","","","","","","","","","","","","","","","","","","","","",""
"3414","","image-slider-response","146","979472","0.0-145.0","A2I43BDUPAM00C","","","","","19","","","","","","","","","","","","","","","","","","","","","",""
"null","","image-button-response","147","984479","0.0-146.0","A2I43BDUPAM00C","img_art/2.jpg","null","","","","","","","","","","","","","","","","","","","","","","","","",""
"7781","","image-button-response","148","992262","0.0-147.0","A2I43BDUPAM00C","img_art/2.jpg","0","","","","","","","","","","","","","","","","","","","","","","","","",""
"7329","","image-button-response","149","999595","0.0-148.0-0.0","A2I43BDUPAM00C","img_art/2.jpg","5","","","","","","","","","","","","","","","","","","","","","","","","",""
"2168","","image-button-response","150","1001767","0.0-149.0-0.0","A2I43BDUPAM00C","img_art/2.jpg","3","","","","","","","","","","","","","","","","","","","","","","","","",""
"null","","html-keyboard-response","151","1002770","0.0-150.0","A2I43BDUPAM00C","<p style=""font-size: 48px;"">+</p>","","","","","null","allTrialResponses","1000","1","15","img_art/2.jpg","19","I enjoy the blues and greens with the red accents. nice color blocks.","Andrea,Kaylee,Katelyn,Ashley,Madeline,Jenna","It feels like a party and Moulin Rouge.,20,240,20","its ugly af to be honest,-50,200,20","Looks childish and i dont like the texture,-25,100,20","I think I can make out a face in there.,25,320,20","I don't really like this style,-5,40,20","the colors are a bit odd, and the squiggly line at the top is distracting,0,360,20","Andrea","It feels like a party and Moulin Rouge.,20,240,20","Jenna","the colors are a bit odd, and the squiggly line at the top is distracting,0,360,20","Ashley","I think I can make out a face in there.,25,320,20","2"
"5428","","survey-text","152","1008218","0.0-151.0-0.0","A2I43BDUPAM00C","","","","{""Q0"":""course""}","","","","","","","","","","","","","","","","","","","","","","",""
"18637","","survey-text","153","1026858","0.0-152.0-0.0","A2I43BDUPAM00C","","","","{""Q0"":""This has some thought put into it, I enjoy the composition and colors.""}","","","","","","","","","","","","","","","","","","","","","","",""
"3149.39999999851","","image-slider-response","154","1030010","0.0-153.0","A2I43BDUPAM00C","","","","","39","","","","","","","","","","","","","","","","","","","","","",""
"null","","image-button-response","155","1035016","0.0-154.0","A2I43BDUPAM00C","img_art/13.jpg","null","","","","","","","","","","","","","","","","","","","","","","","","",""
"2962","","image-button-response","156","1037982","0.0-155.0","A2I43BDUPAM00C","img_art/13.jpg","3","","","","","","","","","","","","","","","","","","","","","","","","",""
"2418","","image-button-response","157","1040403","0.0-156.0-0.0","A2I43BDUPAM00C","img_art/13.jpg","5","","","","","","","","","","","","","","","","","","","","","","","","",""
"1256","","image-button-response","158","1041662","0.0-157.0-0.0","A2I43BDUPAM00C","img_art/13.jpg","0","","","","","","","","","","","","","","","","","","","","","","","","",""
"null","","html-keyboard-response","159","1043169","0.0-158.0","A2I43BDUPAM00C","<p style=""font-size: 48px;"">+</p>","","","","","null","allTrialResponses","1500","1","16","img_art/13.jpg","39","This has some thought put into it, I enjoy the composition and colors.","Andrea,Haley,Claire,Ashley,Mikayla,Jenna","Raindrops on a window. Makes me feel like traveling.,31,240,20","Nothing about this stands out to me,-10,220,20","love the colors and splatters,44,260,20","AWESOME! Pollack but with more direction.,32,320,20","My favorite!,47,300,20","exciting & chaotic. love the colors.,50,360,20","Ashley","AWESOME! Pollack but with more direction.,32,320,20","Jenna","exciting & chaotic. love the colors.,50,360,20","Andrea","Raindrops on a window. Makes me feel like traveling.,31,240,20","2"
"16580","","survey-text","160","1059760","0.0-159.0-0.0","A2I43BDUPAM00C","","","","{""Q0"":""strange to look at, the lines look like demonic waves.""}","","","","","","","","","","","","","","","","","","","","","","",""
"2457.2000000011176","","image-slider-response","161","1062219","0.0-160.0","A2I43BDUPAM00C","","","","","9","","","","","","","","","","","","","","","","","","","","","",""
"3805","","image-button-response","162","1067230","0.0-161.0","A2I43BDUPAM00C","img_art/11.jpg","0","","","","","","","","","","","","","","","","","","","","","","","","",""
"690","","image-button-response","163","1067924","0.0-162.0","A2I43BDUPAM00C","img_art/11.jpg","0","","","","","","","","","","","","","","","","","","","","","","","","",""
"6218","","image-button-response","164","1074145","0.0-163.0-0.0","A2I43BDUPAM00C","img_art/11.jpg","3","","","","","","","","","","","","","","","","","","","","","","","","",""
"4588","","image-button-response","165","1078737","0.0-164.0-0.0","A2I43BDUPAM00C","img_art/11.jpg","5","","","","","","","","","","","","","","","","","","","","","","","","",""
"null","","html-keyboard-response","166","1080250","0.0-165.0","A2I43BDUPAM00C","<p style=""font-size: 48px;"">+</p>","","","","","null","allTrialResponses","1500","1","17","img_art/11.jpg","9","strange to look at, the lines look like demonic waves.","Andrea,Anna,Angelica,Ashley,Emma,Jenna","My initial thought was roller coasters but I see ship masts on a cloudy day too.,35,240,20","It makes me think of a coastal sea town.,50,300,20","This is very unappealing.,-11,280,20","Dark but bright, city but ocean, musical scales.,50,320,20","Pretty, interesting, feels like a city, feels like home,50,60,20","makes me think of city highways & bridges on a rainy, foggy day. I like the melancholy it evokes.,43,360,20","Andrea","My initial thought was roller coasters but I see ship masts on a cloudy day too.,35,240,20","Ashley","Dark but bright, city but ocean, musical scales.,50,320,20","Jenna","makes me think of city highways & bridges on a rainy, foggy day. I like the melancholy it evokes.,43,360,20","2"
"13677","","survey-text","167","1093937","0.0-166.0-0.0","A2I43BDUPAM00C","","","","{""Q0"":""very abstract and dream like, or nightmare like""}","","","","","","","","","","","","","","","","","","","","","","",""
"3273.5","","image-slider-response","168","1097213","0.0-167.0","A2I43BDUPAM00C","","","","","12","","","","","","","","","","","","","","","","","","","","","",""
"null","","image-button-response","169","1102228","0.0-168.0","A2I43BDUPAM00C","img_art/18.jpg","null","","","","","","","","","","","","","","","","","","","","","","","","",""
"3700","","image-button-response","170","1105932","0.0-169.0","A2I43BDUPAM00C","img_art/18.jpg","4","","","","","","","","","","","","","","","","","","","","","","","","",""
"3314","","image-button-response","171","1109248","0.0-170.0-0.0","A2I43BDUPAM00C","img_art/18.jpg","5","","","","","","","","","","","","","","","","","","","","","","","","",""
"8817","","image-button-response","172","1118068","0.0-171.0-0.0","A2I43BDUPAM00C","img_art/18.jpg","0","","","","","","","","","","","","","","","","","","","","","","","","",""
"null","","html-keyboard-response","173","1119078","0.0-172.0","A2I43BDUPAM00C","<p style=""font-size: 48px;"">+</p>","","","","","null","allTrialResponses","1000","1","18","img_art/18.jpg","12","very abstract and dream like, or nightmare like","Andrea,Cassandra,Angela,Ashley,Nicole,Jenna","I see an artistic representation of the riding of last of the four horseman. Its stunning.,45,240,20","I don't know...kind of a dissatified feeling inside.,-6,120,20","like the grays and contrast of the yellow. This piece feels a bit angry,10,260,20","Resembles a ship at sea, storm of activity.,28,320,20","There's danger in this painting and it's awesome,40,20,20","hauntingly beautiful. more things revealed the longer you look. love the spirit-like figure in the top left.,47,360,20","Nicole","There's danger in this painting and it's awesome,40,20,20","Jenna","hauntingly beautiful. more things revealed the longer you look. love the spirit-like figure in the top left.,47,360,20","Andrea","I see an artistic representation of the riding of last of the four horseman. Its stunning.,45,240,20","2"
"14637","","survey-text","174","1133727","0.0-173.0-0.0","A2I43BDUPAM00C","","","","{""Q0"":""simple and direct, I like the bold red lines""}","","","","","","","","","","","","","","","","","","","","","","",""
"2573.300000000745","","image-slider-response","175","1136303","0.0-174.0","A2I43BDUPAM00C","","","","","11","","","","","","","","","","","","","","","","","","","","","",""
"null","","image-button-response","176","1141309","0.0-175.0","A2I43BDUPAM00C","img_art/30.jpg","null","","","","","","","","","","","","","","","","","","","","","","","","",""
"8418","","image-button-response","177","1149732","0.0-176.0","A2I43BDUPAM00C","img_art/30.jpg","5","","","","","","","","","","","","","","","","","","","","","","","","",""
"7787","","image-button-response","178","1157522","0.0-177.0-0.0","A2I43BDUPAM00C","img_art/30.jpg","1","","","","","","","","","","","","","","","","","","","","","","","","",""
"681","","image-button-response","179","1158208","0.0-178.0-0.0","A2I43BDUPAM00C","img_art/30.jpg","0","","","","","","","","","","","","","","","","","","","","","","","","",""
"null","","html-keyboard-response","180","1158713","0.0-179.0","A2I43BDUPAM00C","<p style=""font-size: 48px;"">+</p>","","","","","null","allTrialResponses","500","1","19","img_art/30.jpg","11","simple and direct, I like the bold red lines","Andrea,Cassidy,Michaela,Lindsey,Nicole,Jenna","It feels like graffiti and the dark colors do nothing for the mood.,-5,240,20","I just don't see the point of this piece,-11,140,20","My son made me a painting that looked like this,26,260,20","Interesting. Not sure what I'm seeing but it makes me want to figure it out.,5,400,20","I like the softness of this but it doesn't make me feel that nice,5,20,20","love the movement of the brush strokes. very interesting piece.,38,360,20","Jenna","love the movement of the brush strokes. very interesting piece.,38,360,20","Cassidy","I just don't see the point of this piece,-11,140,20","Andrea","It feels like graffiti and the dark colors do nothing for the mood.,-5,240,20","2"
"17856","","survey-text","181","1176583","0.0-180.0-0.0","A2I43BDUPAM00C","","","","{""Q0"":""do not like this one in any respect. ""}","","","","","","","","","","","","","","","","","","","","","","",""
"3429.7999999988824","","image-slider-response","182","1180015","0.0-181.0","A2I43BDUPAM00C","","","","","-50","","","","","","","","","","","","","","","","","","","","","",""
"null","","image-button-response","183","1185028","0.0-182.0","A2I43BDUPAM00C","img_art/5.jpg","null","","","","","","","","","","","","","","","","","","","","","","","","",""
"4285","","image-button-response","184","1189316","0.0-183.0","A2I43BDUPAM00C","img_art/5.jpg","5","","","","","","","","","","","","","","","","","","","","","","","","",""
"8012","","image-button-response","185","1197332","0.0-184.0-0.0","A2I43BDUPAM00C","img_art/5.jpg","2","","","","","","","","","","","","","","","","","","","","","","","","",""
"6979","","image-button-response","186","1204314","0.0-185.0-0.0","A2I43BDUPAM00C","img_art/5.jpg","1","","","","","","","","","","","","","","","","","","","","","","","","",""
"null","","html-keyboard-response","187","1205825","0.0-186.0","A2I43BDUPAM00C","<p style=""font-size: 48px;"">+</p>","","","","","null","allTrialResponses","1500","1","20","img_art/5.jpg","-50","do not like this one in any respect. ","Andrea,Cassidy,Erica,Mary,Miranda,Jenna","Perfume bottle, reminds of fancy nights out.,11,240,20","I like these colors together and the tiny splatters, but what is this?,7,140,20","positive colours; yellow calls attention,6,80,20","This piece has a good flow. I like the yellow with black combo.,11,180,20","This either looks like a bell or aliens finishing the pyramids,-34,320,20","it's okay. the colors are eye catching, but that's about it.,3,360,20","Jenna","it's okay. the colors are eye catching, but that's about it.,3,360,20","Erica","positive colours; yellow calls attention,6,80,20","Cassidy","I like these colors together and the tiny splatters, but what is this?,7,140,20","2"
"3847","","survey-text","188","1209694","0.0-187.0-0.0","A2I43BDUPAM00C","","","","{""Q0"":""we""}","","","","","","","","","","","","","","","","","","","","","","",""
"32638","","survey-text","189","1242333","0.0-188.0-0.0","A2I43BDUPAM00C","","","","{""Q0"":""an abstract scene of a wreck perhaps, impressionist car accident""}","","","","","","","","","","","","","","","","","","","","","","",""
"3515","","image-slider-response","190","1245851","0.0-189.0","A2I43BDUPAM00C","","","","","16","","","","","","","","","","","","","","","","","","","","","",""
"null","","image-button-response","191","1250866","0.0-190.0","A2I43BDUPAM00C","img_art/20.jpg","null","","","","","","","","","","","","","","","","","","","","","","","","",""
"1739","","image-button-response","192","1252608","0.0-191.0","A2I43BDUPAM00C","img_art/20.jpg","2","","","","","","","","","","","","","","","","","","","","","","","","",""
"5671","","image-button-response","193","1258283","0.0-192.0-0.0","A2I43BDUPAM00C","img_art/20.jpg","4","","","","","","","","","","","","","","","","","","","","","","","","",""
"588","","image-button-response","194","1258874","0.0-193.0-0.0","A2I43BDUPAM00C","img_art/20.jpg","5","","","","","","","","","","","","","","","","","","","","","","","","",""
"null","","html-keyboard-response","195","1260379","0.0-194.0","A2I43BDUPAM00C","<p style=""font-size: 48px;"">+</p>","","","","","null","allTrialResponses","1500","1","21","img_art/20.jpg","16","an abstract scene of a wreck perhaps, impressionist car accident","Maria,Cassidy,Erica,Breanna,Emily,Jenna","just feels generic,-18,120,20","sort of pleasant to look at, but can't tell if it's supposed to be something,13,140,20","looks like an auto accident,-30,80,20","Makes me feel impressed,9,380,20","Brings about an emotion response of dspair. Loose lines but yet has a cohesion.,8,40,20","could look for hours. love the brush work. color choices look like a desert.,50,360,20","Erica","looks like an auto accident,-30,80,20","Emily","Brings about an emotion response of dspair. Loose lines but yet has a cohesion.,8,40,20","Jenna","could look for hours. love the brush work. color choices look like a desert.,50,360,20","2"
"18315","","survey-text","196","1278707","0.0-195.0-0.0","A2I43BDUPAM00C","","","","{""Q0"":""I don't like the washed out colors, seems unfinished.""}","","","","","","","","","","","","","","","","","","","","","","",""
"8731.5","","image-slider-response","197","1287440","0.0-196.0","A2I43BDUPAM00C","","","","","-35","","","","","","","","","","","","","","","","","","","","","",""
"null","","image-button-response","198","1292446","0.0-197.0","A2I43BDUPAM00C","img_art/26.jpg","null","","","","","","","","","","","","","","","","","","","","","","","","",""
"2113","","image-button-response","199","1294564","0.0-198.0","A2I43BDUPAM00C","img_art/26.jpg","3","","","","","","","","","","","","","","","","","","","","","","","","",""
"1345","","image-button-response","200","1295912","0.0-199.0-0.0","A2I43BDUPAM00C","img_art/26.jpg","4","","","","","","","","","","","","","","","","","","","","","","","","",""
"1256","","image-button-response","201","1297172","0.0-200.0-0.0","A2I43BDUPAM00C","img_art/26.jpg","5","","","","","","","","","","","","","","","","","","","","","","","","",""
"null","","html-keyboard-response","202","1298174","0.0-201.0","A2I43BDUPAM00C","<p style=""font-size: 48px;"">+</p>","","","","","null","allTrialResponses","1000","1","22","img_art/26.jpg","-35","I don't like the washed out colors, seems unfinished.","Meghan,Kimberly,Erica,Autumn,Emily,Jenna","nothing really special, quite bland,1,220,20","It looks like I'm staring out of the window of a nice house, but the house is mine,20,260,20","very relaxing and easy going,22,80,20","Murky, messy, kid like.,-45,340,20","Not much skil went into this one either.,-41,40,20","soft colors & brush work. very easy to look at. makes me happy.,50,360,20","Autumn","Murky, messy, kid like.,-45,340,20","Emily","Not much skil went into this one either.,-41,40,20","Jenna","soft colors & brush work. very easy to look at. makes me happy.,50,360,20","2"
"16393","","survey-text","203","1314581","0.0-202.0-0.0","A2I43BDUPAM00C","","","","{""Q0"":""I like the orange gradient, the black not so much""}","","","","","","","","","","","","","","","","","","","","","","",""
"2323.7000000011176","","image-slider-response","204","1316907","0.0-203.0","A2I43BDUPAM00C","","","","","3","","","","","","","","","","","","","","","","","","","","","",""
"null","","image-button-response","205","1321914","0.0-204.0","A2I43BDUPAM00C","img_art/6.jpg","null","","","","","","","","","","","","","","","","","","","","","","","","",""
"1909","","image-button-response","206","1323827","0.0-205.0","A2I43BDUPAM00C","img_art/6.jpg","1","","","","","","","","","","","","","","","","","","","","","","","","",""
"4662","","image-button-response","207","1328493","0.0-206.0-0.0","A2I43BDUPAM00C","img_art/6.jpg","5","","","","","","","","","","","","","","","","","","","","","","","","",""
"3624","","image-button-response","208","1332120","0.0-207.0-0.0","A2I43BDUPAM00C","img_art/6.jpg","4","","","","","","","","","","","","","","","","","","","","","","","","",""
"null","","html-keyboard-response","209","1333629","0.0-208.0","A2I43BDUPAM00C","<p style=""font-size: 48px;"">+</p>","","","","","null","allTrialResponses","1500","1","23","img_art/6.jpg","3","I like the orange gradient, the black not so much","Sophia,Makayla,Alicia,Autumn,Emily,Jenna","It's okay. It kind of looks like a bird with his head buried in his feathers.,2,280,20","Don't like the black space,2,80,20","kids book cover, uninteresting.,-10,120,20","Bird? It's a bird.,23,340,20","Looks like a kid created it.,-50,40,20","I like the bottom half, but not the top,-7,360,20","Makayla","Don't like the black space,2,80,20","Jenna","I like the bottom half, but not the top,-7,360,20","Emily","Looks like a kid created it.,-50,40,20","2"
"26278","","survey-text","210","1359920","0.0-209.0-0.0","A2I43BDUPAM00C","","","","{""Q0"":""I like the cubist elements, and the colors pop with the black and white.""}","","","","","","","","","","","","","","","","","","","","","","",""
"2495.5","","image-slider-response","211","1362418","0.0-210.0","A2I43BDUPAM00C","","","","","24","","","","","","","","","","","","","","","","","","","","","",""
"null","","image-button-response","212","1367430","0.0-211.0","A2I43BDUPAM00C","img_art/12.jpg","null","","","","","","","","","","","","","","","","","","","","","","","","",""
"1828","","image-button-response","213","1369261","0.0-212.0","A2I43BDUPAM00C","img_art/12.jpg","4","","","","","","","","","","","","","","","","","","","","","","","","",""
"12445","","image-button-response","214","1381708","0.0-213.0-0.0","A2I43BDUPAM00C","img_art/12.jpg","1","","","","","","","","","","","","","","","","","","","","","","","","",""
"2799","","image-button-response","215","1384511","0.0-214.0-0.0","A2I43BDUPAM00C","img_art/12.jpg","5","","","","","","","","","","","","","","","","","","","","","","","","",""
"null","","html-keyboard-response","216","1385023","0.0-215.0","A2I43BDUPAM00C","<p style=""font-size: 48px;"">+</p>","","","","","null","allTrialResponses","500","1","24","img_art/12.jpg","24","I like the cubist elements, and the colors pop with the black and white.","Kelly,Makayla,Margaret,Isabella,Emily,Jenna","It's pretty, I find it interesting to look at.,10,220,20","Reminds me Early 2000's decor, don't favor it,-10,80,20","I like the bottom half and hate the top half,7,100,20","Something you would see in a government building hallway,3,280,20","Not quite my style but there more of a pattern and it is interesting to look at.,15,40,20","interesting, but feels like someone cut up a picture and pasted it together wrong. want to see the original,15,360,20","Emily","Not quite my style but there more of a pattern and it is interesting to look at.,15,40,20","Makayla","Reminds me Early 2000's decor, don't favor it,-10,80,20","Jenna","interesting, but feels like someone cut up a picture and pasted it together wrong. want to see the original,15,360,20","2"
"16306","","survey-text","217","1401341","0.0-216.0-0.0","A2I43BDUPAM00C","","","","{""Q0"":""I like the motion here, or is it emotion...""}","","","","","","","","","","","","","","","","","","","","","","",""
"2293.699999999255","","image-slider-response","218","1403638","0.0-217.0","A2I43BDUPAM00C","","","","","11","","","","","","","","","","","","","","","","","","","","","",""
"null","","image-button-response","219","1408645","0.0-218.0","A2I43BDUPAM00C","img_art/10.jpg","null","","","","","","","","","","","","","","","","","","","","","","","","",""
"3217","","image-button-response","220","1411866","0.0-219.0","A2I43BDUPAM00C","img_art/10.jpg","0","","","","","","","","","","","","","","","","","","","","","","","","",""
"2977","","image-button-response","221","1414846","0.0-220.0-0.0","A2I43BDUPAM00C","img_art/10.jpg","2","","","","","","","","","","","","","","","","","","","","","","","","",""
"10964","","image-button-response","222","1425814","0.0-221.0-0.0","A2I43BDUPAM00C","img_art/10.jpg","5","","","","","","","","","","","","","","","","","","","","","","","","",""
"null","","html-keyboard-response","223","1427319","0.0-222.0","A2I43BDUPAM00C","<p style=""font-size: 48px;"">+</p>","","","","","null","allTrialResponses","1500","1","25","img_art/10.jpg","11","I like the motion here, or is it emotion...","Kathryn,Makayla,Jamie,Gabrielle,Emily,Jenna","This piece makes me think of music. The music is dark; I like dark music so it edges toward good.,10,140,20","I don't hate but don't like it because it looks like a oil slick,2,80,20","Well done designs for being considered abstract,45,320,20","interesting portrayal of a violin?,10,160,20","Ugly and low skill. I wouldn't want it.,-50,40,20","this piece is okay. I wish it was more colorful, but it is certainly intriguing.,23,360,20","Kathryn","This piece makes me think of music. The music is dark; I like dark music so it edges toward good.,10,140,20","Jamie","Well done designs for being considered abstract,45,320,20","Jenna","this piece is okay. I wish it was more colorful, but it is certainly intriguing.,23,360,20","2"
"4469","","survey-text","224","1431815","0.0-223.0-0.0","A2I43BDUPAM00C","","","","{""Q0"":""table""}","","","","","","","","","","","","","","","","","","","","","","",""
"11769","","survey-text","225","1443585","0.0-224.0-0.0","A2I43BDUPAM00C","","","","{""Q0"":""this looks like a shaggy waterfall""}","","","","","","","","","","","","","","","","","","","","","","",""
"2533.5999999996275","","image-slider-response","226","1446121","0.0-225.0","A2I43BDUPAM00C","","","","","-29","","","","","","","","","","","","","","","","","","","","","",""
"null","","image-button-response","227","1451129","0.0-226.0","A2I43BDUPAM00C","img_art/24.jpg","null","","","","","","","","","","","","","","","","","","","","","","","","",""
"6851","","image-button-response","228","1457984","0.0-227.0","A2I43BDUPAM00C","img_art/24.jpg","5","","","","","","","","","","","","","","","","","","","","","","","","",""
"5002","","image-button-response","229","1462989","0.0-228.0-0.0","A2I43BDUPAM00C","img_art/24.jpg","1","","","","","","","","","","","","","","","","","","","","","","","","",""
"5103","","image-button-response","230","1468095","0.0-229.0-0.0","A2I43BDUPAM00C","img_art/24.jpg","2","","","","","","","","","","","","","","","","","","","","","","","","",""
"null","","html-keyboard-response","231","1469597","0.0-230.0","A2I43BDUPAM00C","<p style=""font-size: 48px;"">+</p>","","","","","null","allTrialResponses","1500","1","26","img_art/24.jpg","-29","this looks like a shaggy waterfall","Kathryn,Erin,Jamie,Molly,Catherine,Jenna","This is clear and healthy. It makes me think of unspoiled nature.,20,140,20","Too literal, not abstract,-29,120,20","Beautiful waterfall with nice colors,40,320,20","Extraordinary and unusual.,30,340,20","Nature, Peace, connected.,50,160,20","colors are a bit cramped together. really unique take on a waterfall though.,32,360,20","Jenna","colors are a bit cramped together. really unique take on a waterfall though.,32,360,20","Erin","Too literal, not abstract,-29,120,20","Jamie","Beautiful waterfall with nice colors,40,320,20","2"
"22302","","survey-text","232","1491909","0.0-231.0-0.0","A2I43BDUPAM00C","","","","{""Q0"":""I like the chaos with the red, and the little grey eye, very angry.""}","","","","","","","","","","","","","","","","","","","","","","",""
"2215.5999999996275","","image-slider-response","233","1494127","0.0-232.0","A2I43BDUPAM00C","","","","","26","","","","","","","","","","","","","","","","","","","","","",""
"null","","image-button-response","234","1499148","0.0-233.0","A2I43BDUPAM00C","img_art/3.jpg","null","","","","","","","","","","","","","","","","","","","","","","","","",""
"5514","","image-button-response","235","1504665","0.0-234.0","A2I43BDUPAM00C","img_art/3.jpg","5","","","","","","","","","","","","","","","","","","","","","","","","",""
"9121","","image-button-response","236","1513789","0.0-235.0-0.0","A2I43BDUPAM00C","img_art/3.jpg","4","","","","","","","","","","","","","","","","","","","","","","","","",""
"2440","","image-button-response","237","1516232","0.0-236.0-0.0","A2I43BDUPAM00C","img_art/3.jpg","0","","","","","","","","","","","","","","","","","","","","","","","","",""
"null","","html-keyboard-response","238","1517738","0.0-237.0","A2I43BDUPAM00C","<p style=""font-size: 48px;"">+</p>","","","","","null","allTrialResponses","1500","1","27","img_art/3.jpg","26","I like the chaos with the red, and the little grey eye, very angry.","Chelsea,Erin,Jamie,Alexis,Briana,Jenna","It looks like scribbles.,-40,180,20","Shapes are interesting but color is overwhelming,5,120,20","Looks like somebody squirted ketchup everywhere,-40,320,20","Just scribbles. Not a fan.,-40,100,20","Sharp peaks look like sharp teeth,-37,400,20","unique & stylized. interesting. another one I could keep staring at.,50,360,20","Jenna","unique & stylized. interesting. another one I could keep staring at.,50,360,20","Briana","Sharp peaks look like sharp teeth,-37,400,20","Chelsea","It looks like scribbles.,-40,180,20","2"
"23772","","survey-text","239","1541527","0.0-238.0-0.0","A2I43BDUPAM00C","","","","{""Q0"":""This looks like someone dropped a flower vase on the floor and wrecked it.""}","","","","","","","","","","","","","","","","","","","","","","",""
"2800.5","","image-slider-response","240","1544330","0.0-239.0","A2I43BDUPAM00C","","","","","-17","","","","","","","","","","","","","","","","","","","","","",""
"3531","","image-button-response","241","1549337","0.0-240.0","A2I43BDUPAM00C","img_art/14.jpg","1","","","","","","","","","","","","","","","","","","","","","","","","",""
"1791","","image-button-response","242","1551132","0.0-241.0","A2I43BDUPAM00C","img_art/14.jpg","1","","","","","","","","","","","","","","","","","","","","","","","","",""
"11339","","image-button-response","243","1562474","0.0-242.0-0.0","A2I43BDUPAM00C","img_art/14.jpg","4","","","","","","","","","","","","","","","","","","","","","","","","",""
"4604","","image-button-response","244","1567082","0.0-243.0-0.0","A2I43BDUPAM00C","img_art/14.jpg","5","","","","","","","","","","","","","","","","","","","","","","","","",""
"null","","html-keyboard-response","245","1567589","0.0-244.0","A2I43BDUPAM00C","<p style=""font-size: 48px;"">+</p>","","","","","null","allTrialResponses","500","1","28","img_art/14.jpg","-17","This looks like someone dropped a flower vase on the floor and wrecked it.","Chelsea,Chloe,Kelsey,Elizabeth,Briana,Jenna","The colors are pleasing.,29,180,20","Like the brushstrokes but not the composition,9,220,20","i like this one!,23,240,20","Love the abstractness of this painting,39,20,20","Simplistic. Looks like a child did it,14,400,20","love the colors. despite their brightness it seems sad somehow.,41,360,20","Chloe","Like the brushstrokes but not the composition,9,220,20","Briana","Simplistic. Looks like a child did it,14,400,20","Jenna","love the colors. despite their brightness it seems sad somehow.,41,360,20","2"
"10886","","survey-text","246","1578491","0.0-245.0-0.0","A2I43BDUPAM00C","","","","{""Q0"":""this looks like a dream in color""}","","","","","","","","","","","","","","","","","","","","","","",""
"3041.7999999988824","","image-slider-response","247","1581535","0.0-246.0","A2I43BDUPAM00C","","","","","4","","","","","","","","","","","","","","","","","","","","","",""
"null","","image-button-response","248","1586539","0.0-247.0","A2I43BDUPAM00C","img_art/1.jpg","null","","","","","","","","","","","","","","","","","","","","","","","","",""
"1997","","image-button-response","249","1588539","0.0-248.0","A2I43BDUPAM00C","img_art/1.jpg","2","","","","","","","","","","","","","","","","","","","","","","","","",""
"1717","","image-button-response","250","1590260","0.0-249.0-0.0","A2I43BDUPAM00C","img_art/1.jpg","4","","","","","","","","","","","","","","","","","","","","","","","","",""
"1725","","image-button-response","251","1591988","0.0-250.0-0.0","A2I43BDUPAM00C","img_art/1.jpg","5","","","","","","","","","","","","","","","","","","","","","","","","",""
"null","","html-keyboard-response","252","1592493","0.0-251.0","A2I43BDUPAM00C","<p style=""font-size: 48px;"">+</p>","","","","","null","allTrialResponses","500","1","29","img_art/1.jpg","4","this looks like a dream in color","Tiffany,Chloe,Victoria,Shelby,Briana,Jenna","I feel relaxed, like I'm watching the leaves change color.,17,360,20","Powerful colors.,31,220,20","love how the colors blend,42,400,20","This one has a pleasent energy,15,240,20","I like the colors. But it doesnt look like anything,27,400,20","beautiful colors and brush strokes,47,360,20","Victoria","love how the colors blend,42,400,20","Briana","I like the colors. But it doesnt look like anything,27,400,20","Jenna","beautiful colors and brush strokes,47,360,20","2"
"17908","","survey-text","253","1610415","0.0-252.0-0.0","A2I43BDUPAM00C","","","","{""Q0"":""abstract, but just for abstracts sake, I do not like""}","","","","","","","","","","","","","","","","","","","","","","",""
"2610.800000000745","","image-slider-response","254","1613028","0.0-253.0","A2I43BDUPAM00C","","","","","-38","","","","","","","","","","","","","","","","","","","","","",""
"null","","image-button-response","255","1618038","0.0-254.0","A2I43BDUPAM00C","img_art/27.jpg","null","","","","","","","","","","","","","","","","","","","","","","","","",""
"1003","","image-button-response","256","1619045","0.0-255.0","A2I43BDUPAM00C","img_art/27.jpg","3","","","","","","","","","","","","","","","","","","","","","","","","",""
"822","","image-button-response","257","1619870","0.0-256.0-0.0","A2I43BDUPAM00C","img_art/27.jpg","4","","","","","","","","","","","","","","","","","","","","","","","","",""
"2144","","image-button-response","258","1622018","0.0-257.0-0.0","A2I43BDUPAM00C","img_art/27.jpg","5","","","","","","","","","","","","","","","","","","","","","","","","",""
"null","","html-keyboard-response","259","1622523","0.0-258.0","A2I43BDUPAM00C","<p style=""font-size: 48px;"">+</p>","","","","","null","allTrialResponses","500","1","30","img_art/27.jpg","-38","abstract, but just for abstracts sake, I do not like","Kylie,Rebecca,Victoria,Abigail,Briana,Jenna","Soothing in the middle of some confusion,40,300,20","don't understand, the green induces confusion,1,100,20","reminds me of fall,33,400,20","Looks like a little kids drawing,20,20,20","Unfinished something?,-30,400,20","the green & white scribbles feel childlike. perhaps the quality of the photo, but the colors are gloomy.,-13,360,20","Abigail","Looks like a little kids drawing,20,20,20","Briana","Unfinished something?,-30,400,20","Jenna","the green & white scribbles feel childlike. perhaps the quality of the photo, but the colors are gloomy.,-13,360,20","2"
"2400","","image-button-response_instructions","260","1624937","0.0-259.0","A2I43BDUPAM00C","","0","instructions","","","","","","","","","","","","","","","","","","","","","","","",""
"1086","","image-button-response","261","1626032","0.0-260.0","A2I43BDUPAM00C","","0","","","","","","","","","","","","","","","","","","","","","","","","",""
