"rt","url","trial_type","trial_index","time_elapsed","internal_node_id","participant_id","stimulus","button_pressed","Name","responses","response","key_press","variableName","fixationTime","condition","trial","photo","subjectRating","subjectResponse","agentsNames","agent_1_Response","agent_2_Response","agent_3_Response","agent_4_Response","agent_5_Response","agent_6_Response","kept_1_name","kept_1_response","kept_2_name","kept_2_response","kept_3_name","kept_3_response","errorCounter"
"9184","external_page_harvard.html","external-html","0","9308","0.0-0.0","A2J3PQ126JY6EQ","","","","","","","","","","","","","","","","","","","","","","","","","","",""
"2141","","image-button-response","1","11450","0.0-1.0","A2J3PQ126JY6EQ","","0","","","","","","","","","","","","","","","","","","","","","","","","",""
"2424","","image-button-response","2","13877","0.0-2.0-0.0","A2J3PQ126JY6EQ","","1","phone","","","","","","","","","","","","","","","","","","","","","","","",""
"2976","","survey-text","3","16855","0.0-3.0-0.0","A2J3PQ126JY6EQ","","","","{""Q0"":""A2J3PQ126JY6EQ""}","","","","","","","","","","","","","","","","","","","","","","",""
"16085","","image-button-response_instructions","4","32941","0.0-4.0","A2J3PQ126JY6EQ","","0","instructions","","","","","","","","","","","","","","","","","","","","","","","",""
"14497","","image-button-response_instructions","5","47439","0.0-5.0","A2J3PQ126JY6EQ","img_art/ins/popularity/ins1.png","0","instructions","","","","","","","","","","","","","","","","","","","","","","","",""
"4659","","image-button-response_instructions","6","52099","0.0-6.0","A2J3PQ126JY6EQ","img_art/ins/popularity/ins2.png","0","instructions","","","","","","","","","","","","","","","","","","","","","","","",""
"9804","","image-button-response_instructions","7","61904","0.0-7.0","A2J3PQ126JY6EQ","img_art/ins/popularity/ins2Extreme.png","0","instructions","","","","","","","","","","","","","","","","","","","","","","","",""
"10310","","image-button-response_instructions","8","72215","0.0-8.0","A2J3PQ126JY6EQ","img_art/ins/popularity/ins3KEEPpop.PNG","0","instructions","","","","","","","","","","","","","","","","","","","","","","","",""
"4310","","image-button-response_instructions","9","76525","0.0-9.0","A2J3PQ126JY6EQ","img_art/ins/popularity/ins3ANamepop.PNG","0","instructions","","","","","","","","","","","","","","","","","","","","","","","",""
"3316","","image-button-response_instructions","10","79841","0.0-10.0","A2J3PQ126JY6EQ","img_art/ins/popularity/ins3ARatingpop.png","0","instructions","","","","","","","","","","","","","","","","","","","","","","","",""
"3358","","image-button-response_instructions","11","83199","0.0-11.0","A2J3PQ126JY6EQ","img_art/ins/popularity/ins3ATextpop.png","0","instructions","","","","","","","","","","","","","","","","","","","","","","","",""
"5119","","image-button-response_instructions","12","88318","0.0-12.0","A2J3PQ126JY6EQ","img_art/ins/popularity/ins3ALikespop.png","0","instructions","","","","","","","","","","","","","","","","","","","","","","","",""
"9037","","image-button-response_instructions","13","97357","0.0-13.0","A2J3PQ126JY6EQ","img_art/ins/popularity/ins3KEEPpop.PNG","0","instructions","","","","","","","","","","","","","","","","","","","","","","","",""
"6602","","image-button-response_instructions","14","103959","0.0-14.0","A2J3PQ126JY6EQ","img_art/ins/popularity/ins3_5RED.png","0","instructions","","","","","","","","","","","","","","","","","","","","","","","",""
"5104","","image-button-response_instructions","15","109063","0.0-15.0","A2J3PQ126JY6EQ","img_art/ins/popularity/ins3KEEPpop.PNG","0","instructions","","","","","","","","","","","","","","","","","","","","","","","",""
"8711","","image-button-response_instructions","16","117775","0.0-16.0","A2J3PQ126JY6EQ","img_art/ins/popularity/ins4KEEPpop.PNG","0","instructions","","","","","","","","","","","","","","","","","","","","","","","",""
"3669","","image-button-response_instructions","17","121444","0.0-17.0","A2J3PQ126JY6EQ","img_art/ins/popularity/ins5KEEPpop.PNG","0","instructions","","","","","","","","","","","","","","","","","","","","","","","",""
"1637","","image-button-response_instructions","18","123081","0.0-18.0","A2J3PQ126JY6EQ","","0","instructions","","","","","","","","","","","","","","","","","","","","","","","",""
"6958","","survey-text","19","130057","0.0-19.0-0.0","A2J3PQ126JY6EQ","","","","{""Q0"":""but""}","","","","","","","","","","","","","","","","","","","","","","",""
"11604","","survey-text","20","141662","0.0-20.0-0.0","A2J3PQ126JY6EQ","","","","{""Q0"":""messy colorful field""}","","","","","","","","","","","","","","","","","","","","","","",""
"4264.0999999940395","","image-slider-response","21","145928","0.0-21.0","A2J3PQ126JY6EQ","","","","","-40","","","","","","","","","","","","","","","","","","","","","",""
"null","","image-button-response","22","150930","0.0-22.0","A2J3PQ126JY6EQ","img_art/ins/1.jpg","null","","","","","","","","","","","","","","","","","","","","","","","","",""
"3342","","image-button-response","23","154273","0.0-23.0","A2J3PQ126JY6EQ","img_art/ins/1.jpg","2","","","","","","","","","","","","","","","","","","","","","","","","",""
"618","","image-button-response","24","154892","0.0-24.0-0.0","A2J3PQ126JY6EQ","img_art/ins/1.jpg","0","","","","","","","","","","","","","","","","","","","","","","","","",""
"1932","","image-button-response","25","156826","0.0-25.0-0.0","A2J3PQ126JY6EQ","img_art/ins/1.jpg","0","","","","","","","","","","","","","","","","","","","","","","","","",""
"1441","","image-button-response","26","163116","0.0-25.1-0.1","A2J3PQ126JY6EQ","img_art/ins/1.jpg","4","","","","","","","","","","","","","","","","","","","","","","","","",""
"null","","html-keyboard-response","27","164618","0.0-26.0","A2J3PQ126JY6EQ","<p style=""font-size: 48px;"">+</p>","","","","","null","allTrialResponses","1500","1","-2","img_art/ins/1.jpg","-40","messy colorful field","Adam,Alex,Ben,Carl,Daniel,Jack","Seems like doodles,-20,20,20","very creative work.,36,40,20","This color reminds me of poo,-46,60,20","very calming artwork,42,80,20","It looks like a murder scene.,-48,100,20","I like the sophisticated brushwork,40,120,20","Ben","This color reminds me of poo,-46,60,20","Adam","Seems like doodles,-20,20,20","Daniel","It looks like a murder scene.,-48,100,20","2"
"24781","","survey-text","28","189402","0.0-27.0-0.0","A2J3PQ126JY6EQ","","","","{""Q0"":""red fire bloody""}","","","","","","","","","","","","","","","","","","","","","","",""
"3327","","image-slider-response","29","192730","0.0-28.0","A2J3PQ126JY6EQ","","","","","-36","","","","","","","","","","","","","","","","","","","","","",""
"null","","image-button-response","30","197733","0.0-29.0","A2J3PQ126JY6EQ","img_art/ins/2.jpg","null","","","","","","","","","","","","","","","","","","","","","","","","",""
"2488","","image-button-response","31","200222","0.0-30.0","A2J3PQ126JY6EQ","img_art/ins/2.jpg","3","","","","","","","","","","","","","","","","","","","","","","","","",""
"15276","","image-button-response","32","215500","0.0-31.0-0.0","A2J3PQ126JY6EQ","img_art/ins/2.jpg","5","","","","","","","","","","","","","","","","","","","","","","","","",""
"987","","image-button-response","33","216488","0.0-32.0-0.0","A2J3PQ126JY6EQ","img_art/ins/2.jpg","2","","","","","","","","","","","","","","","","","","","","","","","","",""
"null","","html-keyboard-response","34","217990","0.0-33.0","A2J3PQ126JY6EQ","<p style=""font-size: 48px;"">+</p>","","","","","null","allTrialResponses","1500","1","-1","img_art/ins/2.jpg","-36","red fire bloody","Adam,John,Ben,James,Daniel,Kyle","too much color,-18,20,20","love the texture of paint,48,160,20","meaningless painting,-45,60,20","looks too angry,-50,140,20","One of my pet peevs,-48,100,20","Idk, it is just annoying,-32,180,20","James","looks too angry,-50,140,20","Kyle","Idk, it is just annoying,-32,180,20","Ben","meaningless painting,-45,60,20","2"
"8046","","survey-text","35","226039","0.0-34.0-0.0","A2J3PQ126JY6EQ","","","","{""Q0"":""cold winter ice""}","","","","","","","","","","","","","","","","","","","","","","",""
"2455.2000000029802","","image-slider-response","36","228495","0.0-35.0","A2J3PQ126JY6EQ","","","","","32","","","","","","","","","","","","","","","","","","","","","",""
"null","","image-button-response","37","233497","0.0-36.0","A2J3PQ126JY6EQ","img_art/ins/3.jpg","null","","","","","","","","","","","","","","","","","","","","","","","","",""
"1906","","image-button-response","38","235404","0.0-37.0","A2J3PQ126JY6EQ","img_art/ins/3.jpg","1","","","","","","","","","","","","","","","","","","","","","","","","",""
"995","","image-button-response","39","236401","0.0-38.0-0.0","A2J3PQ126JY6EQ","img_art/ins/3.jpg","0","","","","","","","","","","","","","","","","","","","","","","","","",""
"3588","","image-button-response","40","239991","0.0-39.0-0.0","A2J3PQ126JY6EQ","img_art/ins/3.jpg","5","","","","","","","","","","","","","","","","","","","","","","","","",""
"null","","html-keyboard-response","41","241494","0.0-40.0","A2J3PQ126JY6EQ","<p style=""font-size: 48px;"">+</p>","","","","","null","allTrialResponses","1500","1","0","img_art/ins/3.jpg","32","cold winter ice","Sam,Mike,Ben,James,Ron,Kyle","I can feel a rainy day from this painting,18,240,20","enjoy the different shades of blue,22,200,20","This thing gives me anxiety,-41,60,20","My worst nightmare,-42,140,20","It looks depressing,-26,220,20","It looks like a playground for bats,-36,180,20","Mike","enjoy the different shades of blue,22,200,20","Sam","I can feel a rainy day from this painting,18,240,20","Kyle","It looks like a playground for bats,-36,180,20","2"
"7567","","image-button-response_instructions","42","249064","0.0-41.0","A2J3PQ126JY6EQ","","0","instructions","","","","","","","","","","","","","","","","","","","","","","","",""
"14495","","survey-likert","43","263560","0.0-42.0-0.0","A2J3PQ126JY6EQ","","","","{""Q0"":"""",""Q1"":0,""Q2"":1}","","","","","","","","","","","","","","","","","","","","","","",""
"5321","","survey-text","44","268884","0.0-43.0-0.0","A2J3PQ126JY6EQ","","","","{""Q0"":""rock""}","","","","","","","","","","","","","","","","","","","","","","",""
"23991","","survey-text","45","292877","0.0-44.0-0.0","A2J3PQ126JY6EQ","","","","{""Q0"":""Looks like some type of mountain spring or waterfall in nature.""}","","","","","","","","","","","","","","","","","","","","","","",""
"2155.5999999940395","","image-slider-response","46","295034","0.0-45.0","A2J3PQ126JY6EQ","","","","","20","","","","","","","","","","","","","","","","","","","","","",""
"null","","image-button-response","47","300051","0.0-46.0","A2J3PQ126JY6EQ","img_art/24.jpg","null","","","","","","","","","","","","","","","","","","","","","","","","",""
"9178","","image-button-response","48","309230","0.0-47.0","A2J3PQ126JY6EQ","img_art/24.jpg","3","","","","","","","","","","","","","","","","","","","","","","","","",""
"1241","","image-button-response","49","310473","0.0-48.0-0.0","A2J3PQ126JY6EQ","img_art/24.jpg","1","","","","","","","","","","","","","","","","","","","","","","","","",""
"3346","","image-button-response","50","313820","0.0-49.0-0.0","A2J3PQ126JY6EQ","img_art/24.jpg","0","","","","","","","","","","","","","","","","","","","","","","","","",""
"null","","html-keyboard-response","51","314823","0.0-50.0","A2J3PQ126JY6EQ","<p style=""font-size: 48px;"">+</p>","","","","","null","allTrialResponses","1000","1","1","img_art/24.jpg","20","Looks like some type of mountain spring or waterfall in nature.","Juan,Corey,Nathaniel,Brandon,Christopher,Noah","I love the colors, but I wish the water was less abstract.,17,260,20","peaceful and serene but Im not the biggest landscape fan,4,260,20","Feels surreal, in a way, and vibrant,37,220,20","Simple. Not too abstract. Love the different flower colors.,20,320,20","it's fine, the colors are pleasing, but not my taste,9,160,20","this evokes a gutural reaction - it displeases me how similar it is to art I saw growing up,-30,260,20","Brandon","Simple. Not too abstract. Love the different flower colors.,20,320,20","Corey","peaceful and serene but Im not the biggest landscape fan,4,260,20","Juan","I love the colors, but I wish the water was less abstract.,17,260,20","2"
"52696","","survey-text","52","367521","0.0-51.0-0.0","A2J3PQ126JY6EQ","","","","{""Q0"":""Is that a puddle of urine on the floor?""}","","","","","","","","","","","","","","","","","","","","","","",""
"4063.9000000059605","","image-slider-response","53","371587","0.0-52.0","A2J3PQ126JY6EQ","","","","","-50","","","","","","","","","","","","","","","","","","","","","",""
"null","","image-button-response","54","376589","0.0-53.0","A2J3PQ126JY6EQ","img_art/5.jpg","null","","","","","","","","","","","","","","","","","","","","","","","","",""
"1911","","image-button-response","55","378500","0.0-54.0","A2J3PQ126JY6EQ","img_art/5.jpg","0","","","","","","","","","","","","","","","","","","","","","","","","",""
"5174","","image-button-response","56","383675","0.0-55.0-0.0","A2J3PQ126JY6EQ","img_art/5.jpg","3","","","","","","","","","","","","","","","","","","","","","","","","",""
"1927","","image-button-response","57","385603","0.0-56.0-0.0","A2J3PQ126JY6EQ","img_art/5.jpg","4","","","","","","","","","","","","","","","","","","","","","","","","",""
"null","","html-keyboard-response","58","387105","0.0-57.0","A2J3PQ126JY6EQ","<p style=""font-size: 48px;"">+</p>","","","","","null","allTrialResponses","1500","1","2","img_art/5.jpg","-50","Is that a puddle of urine on the floor?","Juan,Corey,David,Brandon,Michael,Jeremy","The yellow is garish and the picture doesn't look liked anything.,-49,260,20","simple. love the color scheme,27,260,20","I like the simplicity of the design, but I can't tell what the image is trying to depict.,10,340,20","Kindergarten art. I really don't like this style.,-50,320,20","Complete garbage. Looks like a kid drew it.,-50,140,20","I don't hate it but I can't relate to it,1,60,20","Juan","The yellow is garish and the picture doesn't look liked anything.,-49,260,20","Brandon","Kindergarten art. I really don't like this style.,-50,320,20","Michael","Complete garbage. Looks like a kid drew it.,-50,140,20","2"
"44495","","survey-text","59","431604","0.0-58.0-0.0","A2J3PQ126JY6EQ","","","","{""Q0"":""Looks like one of those seeing eye pictures where you have to squint your eyes to see an animal or something.""}","","","","","","","","","","","","","","","","","","","","","","",""
"2118.5","","image-slider-response","60","433723","0.0-59.0","A2J3PQ126JY6EQ","","","","","-27","","","","","","","","","","","","","","","","","","","","","",""
"4029","","image-button-response","61","438726","0.0-60.0","A2J3PQ126JY6EQ","img_art/7.jpg","3","","","","","","","","","","","","","","","","","","","","","","","","",""
"1008","","image-button-response","62","439736","0.0-61.0","A2J3PQ126JY6EQ","img_art/7.jpg","3","","","","","","","","","","","","","","","","","","","","","","","","",""
"3988","","image-button-response","63","443726","0.0-62.0-0.0","A2J3PQ126JY6EQ","img_art/7.jpg","4","","","","","","","","","","","","","","","","","","","","","","","","",""
"1286","","image-button-response","64","445014","0.0-63.0-0.0","A2J3PQ126JY6EQ","img_art/7.jpg","4","","","","","","","","","","","","","","","","","","","","","","","","",""
"1291","","image-button-response","65","448424","0.0-63.1-0.1","A2J3PQ126JY6EQ","img_art/7.jpg","0","","","","","","","","","","","","","","","","","","","","","","","","",""
"null","","html-keyboard-response","66","449425","0.0-64.0","A2J3PQ126JY6EQ","<p style=""font-size: 48px;"">+</p>","","","","","null","allTrialResponses","1000","1","3","img_art/7.jpg","-27","Looks like one of those seeing eye pictures where you have to squint your eyes to see an animal or something.","Juan,Alex,Carlos,Brandon,Michael,Jesus","This is borning and lifeless.,-50,260,20","Hmm interesting, looks like mars or something terrestrial. Too abstract for me and too much brown,4,100,20","The dried bottom of a puddle in July.,-41,80,20","Looks like bad wallpaper,-29,320,20","Ugly. I don't like the colors or the scattering.,-50,140,20","Is simple in color and texture,11,100,20","Brandon","Looks like bad wallpaper,-29,320,20","Michael","Ugly. I don't like the colors or the scattering.,-50,140,20","Juan","This is borning and lifeless.,-50,260,20","4"
"23433","","survey-text","67","472861","0.0-65.0-0.0","A2J3PQ126JY6EQ","","","","{""Q0"":""Looks like a monkey drew it with their feces""}","","","","","","","","","","","","","","","","","","","","","","",""
"2178.699999988079","","image-slider-response","68","475040","0.0-66.0","A2J3PQ126JY6EQ","","","","","-50","","","","","","","","","","","","","","","","","","","","","",""
"null","","image-button-response","69","480043","0.0-67.0","A2J3PQ126JY6EQ","img_art/4.jpg","null","","","","","","","","","","","","","","","","","","","","","","","","",""
"7204","","image-button-response","70","487248","0.0-68.0","A2J3PQ126JY6EQ","img_art/4.jpg","3","","","","","","","","","","","","","","","","","","","","","","","","",""
"8437","","image-button-response","71","495686","0.0-69.0-0.0","A2J3PQ126JY6EQ","img_art/4.jpg","1","","","","","","","","","","","","","","","","","","","","","","","","",""
"701","","image-button-response","72","496389","0.0-70.0-0.0","A2J3PQ126JY6EQ","img_art/4.jpg","4","","","","","","","","","","","","","","","","","","","","","","","","",""
"null","","html-keyboard-response","73","496889","0.0-71.0","A2J3PQ126JY6EQ","<p style=""font-size: 48px;"">+</p>","","","","","null","allTrialResponses","500","1","4","img_art/4.jpg","-50","Looks like a monkey drew it with their feces","Juan,Luke,Jason,Brandon,Michael,Matthew","Again, this is too abstract and I really don't like the colors.,-21,260,20","it looks like a simple finger painting, yet i liked the color choices,-12,20,20","I don't understand this at all,3,20,20","Really don't like this. Kindergarten art, sorry.,-50,320,20","Looks like a child did it.,-42,140,20","It looks like a hand.,25,120,20","Brandon","Really don't like this. Kindergarten art, sorry.,-50,320,20","Luke","it looks like a simple finger painting, yet i liked the color choices,-12,20,20","Michael","Looks like a child did it.,-42,140,20","4"
"32565","","survey-text","74","529457","0.0-72.0-0.0","A2J3PQ126JY6EQ","","","","{""Q0"":""Is it a depressed tree? Kinda sad""}","","","","","","","","","","","","","","","","","","","","","","",""
"3399","","image-slider-response","75","532857","0.0-73.0","A2J3PQ126JY6EQ","","","","","12","","","","","","","","","","","","","","","","","","","","","",""
"null","","image-button-response","76","537859","0.0-74.0","A2J3PQ126JY6EQ","img_art/6.jpg","null","","","","","","","","","","","","","","","","","","","","","","","","",""
"2903","","image-button-response","77","540763","0.0-75.0","A2J3PQ126JY6EQ","img_art/6.jpg","3","","","","","","","","","","","","","","","","","","","","","","","","",""
"5730","","image-button-response","78","546494","0.0-76.0-0.0","A2J3PQ126JY6EQ","img_art/6.jpg","0","","","","","","","","","","","","","","","","","","","","","","","","",""
"1077","","image-button-response","79","547572","0.0-77.0-0.0","A2J3PQ126JY6EQ","img_art/6.jpg","1","","","","","","","","","","","","","","","","","","","","","","","","",""
"null","","html-keyboard-response","80","548574","0.0-78.0","A2J3PQ126JY6EQ","<p style=""font-size: 48px;"">+</p>","","","","","null","allTrialResponses","1000","1","5","img_art/6.jpg","12","Is it a depressed tree? Kinda sad","Connor,Luke,Timothy,Brandon,Michael,Robert","Blackbird in the desert,27,240,20","i like it but it is very neutral,9,20,20","I dont feel much of a responce or connection to this one,0,240,20","The feeling of isolation with so little objects. Great,20,320,20","Looks like a kid created it.,-50,140,20","Nevermore!  A black raven sitting on a pumpkin. Halloween,-35,360,20","Brandon","The feeling of isolation with so little objects. Great,20,320,20","Connor","Blackbird in the desert,27,240,20","Luke","i like it but it is very neutral,9,20,20","4"
"4202","","survey-text","81","552781","0.0-79.0-0.0","A2J3PQ126JY6EQ","","","","{""Q0"":""sky""}","","","","","","","","","","","","","","","","","","","","","","",""
"50717","","survey-text","82","603499","0.0-80.0-0.0","A2J3PQ126JY6EQ","","","","{""Q0"":""Looks like some simple clip art that anyone can do.""}","","","","","","","","","","","","","","","","","","","","","","",""
"1648","","image-slider-response","83","605149","0.0-81.0","A2J3PQ126JY6EQ","","","","","-32","","","","","","","","","","","","","","","","","","","","","",""
"2642","","image-button-response","84","610150","0.0-82.0","A2J3PQ126JY6EQ","img_art/16.jpg","0","","","","","","","","","","","","","","","","","","","","","","","","",""
"17936","","image-button-response","85","628087","0.0-83.0","A2J3PQ126JY6EQ","img_art/16.jpg","4","","","","","","","","","","","","","","","","","","","","","","","","",""
"6217","","image-button-response","86","634305","0.0-84.0-0.0","A2J3PQ126JY6EQ","img_art/16.jpg","0","","","","","","","","","","","","","","","","","","","","","","","","",""
"6012","","image-button-response","87","640319","0.0-85.0-0.0","A2J3PQ126JY6EQ","img_art/16.jpg","2","","","","","","","","","","","","","","","","","","","","","","","","",""
"null","","html-keyboard-response","88","640821","0.0-86.0","A2J3PQ126JY6EQ","<p style=""font-size: 48px;"">+</p>","","","","","null","allTrialResponses","500","1","6","img_art/16.jpg","-32","Looks like some simple clip art that anyone can do.","Connor,Luke,Logan,Brandon,Charles,Derek","Not original. Bear is odd,-50,240,20","while simple, it seems to have a deeper meaning on childhood,33,20,20","what is this doing for anyone. If you connect with this you're literally lying to yourself. pretentious,-50,360,20","Don't like this technique. Too serial killer.,-50,320,20","Weird and creepy,-30,100,20","I can't figure out the meaning of this painting but it is pleasant to look at,40,360,20","Charles","Weird and creepy,-30,100,20","Connor","Not original. Bear is odd,-50,240,20","Logan","what is this doing for anyone. If you connect with this you're literally lying to yourself. pretentious,-50,360,20","4"
"54698","","survey-text","89","695522","0.0-87.0-0.0","A2J3PQ126JY6EQ","","","","{""Q0"":""Spooky like some type of Egyptian god or something.""}","","","","","","","","","","","","","","","","","","","","","","",""
"3014.7000000029802","","image-slider-response","90","698538","0.0-88.0","A2J3PQ126JY6EQ","","","","","7","","","","","","","","","","","","","","","","","","","","","",""
"null","","image-button-response","91","703539","0.0-89.0","A2J3PQ126JY6EQ","img_art/25.jpg","null","","","","","","","","","","","","","","","","","","","","","","","","",""
"12819","","image-button-response","92","716360","0.0-90.0","A2J3PQ126JY6EQ","img_art/25.jpg","2","","","","","","","","","","","","","","","","","","","","","","","","",""
"1053","","image-button-response","93","717414","0.0-91.0-0.0","A2J3PQ126JY6EQ","img_art/25.jpg","0","","","","","","","","","","","","","","","","","","","","","","","","",""
"1908","","image-button-response","94","719324","0.0-92.0-0.0","A2J3PQ126JY6EQ","img_art/25.jpg","5","","","","","","","","","","","","","","","","","","","","","","","","",""
"null","","html-keyboard-response","95","720325","0.0-93.0","A2J3PQ126JY6EQ","<p style=""font-size: 48px;"">+</p>","","","","","null","allTrialResponses","1000","1","7","img_art/25.jpg","7","Spooky like some type of Egyptian god or something.","Connor,Jordan,Logan,Isaac,Charles,Kevin","Looks like glow in the dark halloween decoration,-38,240,20","This is creepy and I dont like it,-28,160,20","creeeeeppyyyyyyy but mad cool,-26,360,20","The color and image are unsettling.,-29,280,20","Cult-like, which to me makes it kind of creepy,-21,100,20","That on i find a bit creapy.,-19,320,20","Logan","creeeeeppyyyyyyy but mad cool,-26,360,20","Connor","Looks like glow in the dark halloween decoration,-38,240,20","Kevin","That on i find a bit creapy.,-19,320,20","4"
"22413","","survey-text","96","742740","0.0-94.0-0.0","A2J3PQ126JY6EQ","","","","{""Q0"":""I like the choice of color but the technique seems low skill""}","","","","","","","","","","","","","","","","","","","","","","",""
"2288.5","","image-slider-response","97","745029","0.0-95.0","A2J3PQ126JY6EQ","","","","","-18","","","","","","","","","","","","","","","","","","","","","",""
"null","","image-button-response","98","750031","0.0-96.0","A2J3PQ126JY6EQ","img_art/26.jpg","null","","","","","","","","","","","","","","","","","","","","","","","","",""
"5153","","image-button-response","99","755186","0.0-97.0","A2J3PQ126JY6EQ","img_art/26.jpg","1","","","","","","","","","","","","","","","","","","","","","","","","",""
"1298","","image-button-response","100","756485","0.0-98.0-0.0","A2J3PQ126JY6EQ","img_art/26.jpg","3","","","","","","","","","","","","","","","","","","","","","","","","",""
"3910","","image-button-response","101","760397","0.0-99.0-0.0","A2J3PQ126JY6EQ","img_art/26.jpg","5","","","","","","","","","","","","","","","","","","","","","","","","",""
"null","","html-keyboard-response","102","761398","0.0-100.0","A2J3PQ126JY6EQ","<p style=""font-size: 48px;"">+</p>","","","","","null","allTrialResponses","1000","1","8","img_art/26.jpg","-18","I like the choice of color but the technique seems low skill","Connor,Nicholas,Logan,Alejandro,Cole,Kevin","City scene in a park,23,240,20","I like the colors and trees. Seems cheap vintage retail store art but i love it anyways,50,240,20","I really love pastels and they're just being dimmed down too much here,-3,360,20","Do not like water colors at all,-50,80,20","Another blob on a landscape. A city street?,9,200,20","Some trees in front of a house.,2,320,20","Nicholas","I like the colors and trees. Seems cheap vintage retail store art but i love it anyways,50,240,20","Alejandro","Do not like water colors at all,-50,80,20","Kevin","Some trees in front of a house.,2,320,20","4"
"48332","","survey-text","103","809734","0.0-101.0-0.0","A2J3PQ126JY6EQ","","","","{""Q0"":""Looks like a kid drew this. ""}","","","","","","","","","","","","","","","","","","","","","","",""
"2082.3999999910593","","image-slider-response","104","811817","0.0-102.0","A2J3PQ126JY6EQ","","","","","-50","","","","","","","","","","","","","","","","","","","","","",""
"null","","image-button-response","105","816818","0.0-103.0","A2J3PQ126JY6EQ","img_art/19.jpg","null","","","","","","","","","","","","","","","","","","","","","","","","",""
"1159","","image-button-response","106","817978","0.0-104.0","A2J3PQ126JY6EQ","img_art/19.jpg","2","","","","","","","","","","","","","","","","","","","","","","","","",""
"4779","","image-button-response","107","822758","0.0-105.0-0.0","A2J3PQ126JY6EQ","img_art/19.jpg","0","","","","","","","","","","","","","","","","","","","","","","","","",""
"678","","image-button-response","108","823438","0.0-106.0-0.0","A2J3PQ126JY6EQ","img_art/19.jpg","4","","","","","","","","","","","","","","","","","","","","","","","","",""
"null","","html-keyboard-response","109","823939","0.0-107.0","A2J3PQ126JY6EQ","<p style=""font-size: 48px;"">+</p>","","","","","null","allTrialResponses","500","1","9","img_art/19.jpg","-50","Looks like a kid drew this. ","Marcus,Nicholas,Tyler,Alejandro,Antonio,Kevin","I like the colors but the scene itself feels too jumbled and cluttered,9,60,20","Intersting but not for me,21,240,20","Seems unfinished and sloppy,-11,320,20","It is an interesting piece but there are too many muted tones,22,80,20","Chaotic. Too much going on in the picture,14,220,20","Thats a lazy town,-8,320,20","Tyler","Seems unfinished and sloppy,-11,320,20","Marcus","I like the colors but the scene itself feels too jumbled and cluttered,9,60,20","Antonio","Chaotic. Too much going on in the picture,14,220,20","4"
"54830","","survey-text","110","878771","0.0-108.0-0.0","A2J3PQ126JY6EQ","","","","{""Q0"":""Very low skill and quality. Doesn't seem like this took very long or was difficult.""}","","","","","","","","","","","","","","","","","","","","","","",""
"2300.5","","image-slider-response","111","881073","0.0-109.0","A2J3PQ126JY6EQ","","","","","-41","","","","","","","","","","","","","","","","","","","","","",""
"null","","image-button-response","112","886076","0.0-110.0","A2J3PQ126JY6EQ","img_art/2.jpg","null","","","","","","","","","","","","","","","","","","","","","","","","",""
"2329","","image-button-response","113","888406","0.0-111.0","A2J3PQ126JY6EQ","img_art/2.jpg","4","","","","","","","","","","","","","","","","","","","","","","","","",""
"1289","","image-button-response","114","889696","0.0-112.0-0.0","A2J3PQ126JY6EQ","img_art/2.jpg","1","","","","","","","","","","","","","","","","","","","","","","","","",""
"415","","image-button-response","115","890112","0.0-113.0-0.0","A2J3PQ126JY6EQ","img_art/2.jpg","0","","","","","","","","","","","","","","","","","","","","","","","","",""
"null","","html-keyboard-response","116","890613","0.0-114.0","A2J3PQ126JY6EQ","<p style=""font-size: 48px;"">+</p>","","","","","null","allTrialResponses","500","1","10","img_art/2.jpg","-41","Very low skill and quality. Doesn't seem like this took very long or was difficult.","Marcus,Luis,Tyler,Bryce,Antonio,Elijah","Only like the blues and teals in this. The rest is unappealing.,-15,60,20","I dont like the expression of this,-19,400,20","Grim and overwhelming,-6,320,20","I love the colors in this.,29,20,20","Colors are drab and cause a sense of blandness,-28,220,20","It's just a splash of paint on a canvas,-31,80,20","Antonio","Colors are drab and cause a sense of blandness,-28,220,20","Luis","I dont like the expression of this,-19,400,20","Marcus","Only like the blues and teals in this. The rest is unappealing.,-15,60,20","4"
"3144","","survey-text","117","893766","0.0-115.0-0.0","A2J3PQ126JY6EQ","","","","{""Q0"":""our""}","","","","","","","","","","","","","","","","","","","","","","",""
"29948","","survey-text","118","923714","0.0-116.0-0.0","A2J3PQ126JY6EQ","","","","{""Q0"":""It's like picasso but way less detailed or effort""}","","","","","","","","","","","","","","","","","","","","","","",""
"1960.5","","image-slider-response","119","925675","0.0-117.0","A2J3PQ126JY6EQ","","","","","-12","","","","","","","","","","","","","","","","","","","","","",""
"null","","image-button-response","120","930677","0.0-118.0","A2J3PQ126JY6EQ","img_art/28.jpg","null","","","","","","","","","","","","","","","","","","","","","","","","",""
"14237","","image-button-response","121","944916","0.0-119.0","A2J3PQ126JY6EQ","img_art/28.jpg","5","","","","","","","","","","","","","","","","","","","","","","","","",""
"6658","","image-button-response","122","951574","0.0-120.0-0.0","A2J3PQ126JY6EQ","img_art/28.jpg","0","","","","","","","","","","","","","","","","","","","","","","","","",""
"2706","","image-button-response","123","954281","0.0-121.0-0.0","A2J3PQ126JY6EQ","img_art/28.jpg","2","","","","","","","","","","","","","","","","","","","","","","","","",""
"null","","html-keyboard-response","124","955783","0.0-122.0","A2J3PQ126JY6EQ","<p style=""font-size: 48px;"">+</p>","","","","","null","allTrialResponses","1500","1","11","img_art/28.jpg","-12","It's like picasso but way less detailed or effort","Marcus,Luis,Caleb,Gabriel,Antonio,Taylor","This reminds me of internal organs.,-10,60,20","Self-hate and abuse at home, unsafe and torturing,-30,400,20","White and dark balance is way off- Seems dull.,-33,40,20","this one is rather disturbing,-22,160,20","Colors are pleasing. Made me think of two people kneeling and talking. A curious feeling.,15,220,20","Bug meets bug in a dark alley.,-20,200,20","Taylor","Bug meets bug in a dark alley.,-20,200,20","Marcus","This reminds me of internal organs.,-10,60,20","Caleb","White and dark balance is way off- Seems dull.,-33,40,20","4"
"32639","","survey-text","125","988425","0.0-123.0-0.0","A2J3PQ126JY6EQ","","","","{""Q0"":""Looks like some detail that is up to deliberate interpretation. Like a dark ocean""}","","","","","","","","","","","","","","","","","","","","","","",""
"2390.5","","image-slider-response","126","990817","0.0-124.0","A2J3PQ126JY6EQ","","","","","11","","","","","","","","","","","","","","","","","","","","","",""
"4316","","image-button-response","127","995818","0.0-125.0","A2J3PQ126JY6EQ","img_art/21.jpg","1","","","","","","","","","","","","","","","","","","","","","","","","",""
"277","","image-button-response","128","996097","0.0-126.0","A2J3PQ126JY6EQ","img_art/21.jpg","1","","","","","","","","","","","","","","","","","","","","","","","","",""
"8268","","image-button-response","129","1004365","0.0-127.0-0.0","A2J3PQ126JY6EQ","img_art/21.jpg","3","","","","","","","","","","","","","","","","","","","","","","","","",""
"698","","image-button-response","130","1005065","0.0-128.0-0.0","A2J3PQ126JY6EQ","img_art/21.jpg","2","","","","","","","","","","","","","","","","","","","","","","","","",""
"null","","html-keyboard-response","131","1006566","0.0-129.0","A2J3PQ126JY6EQ","<p style=""font-size: 48px;"">+</p>","","","","","null","allTrialResponses","1500","1","12","img_art/21.jpg","11","Looks like some detail that is up to deliberate interpretation. Like a dark ocean","Marcus,Grant,Caleb,Benjamin,Brett,Taylor","I feel like I'm looking at two different paintings mashed together in the middle.,20,60,20","The colors make me think of a perilous scene at sea, and are pretty interesting.,15,200,20","Almost appears like the background of an old renaissance painting.,40,40,20","sunset after the rain,49,260,20","Makes me think of a battleship targeting a beautiful mountainside,0,360,20","Remove the rocks(?) on the lower right.,5,200,20","Grant","The colors make me think of a perilous scene at sea, and are pretty interesting.,15,200,20","Benjamin","sunset after the rain,49,260,20","Caleb","Almost appears like the background of an old renaissance painting.,40,40,20","4"
"36562","","survey-text","132","1043132","0.0-130.0-0.0","A2J3PQ126JY6EQ","","","","{""Q0"":""Looks like the artist gave up and left their brush behind.""}","","","","","","","","","","","","","","","","","","","","","","",""
"3273.7999999970198","","image-slider-response","133","1046407","0.0-131.0","A2J3PQ126JY6EQ","","","","","-25","","","","","","","","","","","","","","","","","","","","","",""
"4816","","image-button-response","134","1051408","0.0-132.0","A2J3PQ126JY6EQ","img_art/29.jpg","2","","","","","","","","","","","","","","","","","","","","","","","","",""
"642","","image-button-response","135","1052052","0.0-133.0","A2J3PQ126JY6EQ","img_art/29.jpg","2","","","","","","","","","","","","","","","","","","","","","","","","",""
"5003","","image-button-response","136","1057055","0.0-134.0-0.0","A2J3PQ126JY6EQ","img_art/29.jpg","3","","","","","","","","","","","","","","","","","","","","","","","","",""
"2736","","image-button-response","137","1059793","0.0-135.0-0.0","A2J3PQ126JY6EQ","img_art/29.jpg","5","","","","","","","","","","","","","","","","","","","","","","","","",""
"null","","html-keyboard-response","138","1061296","0.0-136.0","A2J3PQ126JY6EQ","<p style=""font-size: 48px;"">+</p>","","","","","null","allTrialResponses","1500","1","13","img_art/29.jpg","-25","Looks like the artist gave up and left their brush behind.","Malik,Grant,Caleb,Benjamin,Mark,Isaiah","Feels like an abandoned dream,13,40,20","I can relate to the frustration this evokes.,20,200,20","Looks wrong. Like a real painting was vandalized.,-50,40,20","Don't like the red X across the painting.,-15,260,20","Bottomless pit and prison. Feels like its saying time is precious.,11,80,20","I feel a little disgust. There is something off-putting about the smooth shapes and dark colors.,-43,300,20","Caleb","Looks wrong. Like a real painting was vandalized.,-50,40,20","Benjamin","Don't like the red X across the painting.,-15,260,20","Isaiah","I feel a little disgust. There is something off-putting about the smooth shapes and dark colors.,-43,300,20","4"
"19480","","survey-text","139","1080780","0.0-137.0-0.0","A2J3PQ126JY6EQ","","","","{""Q0"":""African art vibes.""}","","","","","","","","","","","","","","","","","","","","","","",""
"1878.4000000059605","","image-slider-response","140","1082659","0.0-138.0","A2J3PQ126JY6EQ","","","","","23","","","","","","","","","","","","","","","","","","","","","",""
"null","","image-button-response","141","1087662","0.0-139.0","A2J3PQ126JY6EQ","img_art/15.jpg","null","","","","","","","","","","","","","","","","","","","","","","","","",""
"832","","image-button-response","142","1088495","0.0-140.0","A2J3PQ126JY6EQ","img_art/15.jpg","3","","","","","","","","","","","","","","","","","","","","","","","","",""
"1778","","image-button-response","143","1090274","0.0-141.0-0.0","A2J3PQ126JY6EQ","img_art/15.jpg","5","","","","","","","","","","","","","","","","","","","","","","","","",""
"3489","","image-button-response","144","1093765","0.0-142.0-0.0","A2J3PQ126JY6EQ","img_art/15.jpg","2","","","","","","","","","","","","","","","","","","","","","","","","",""
"null","","html-keyboard-response","145","1094766","0.0-143.0","A2J3PQ126JY6EQ","<p style=""font-size: 48px;"">+</p>","","","","","null","allTrialResponses","1000","1","14","img_art/15.jpg","23","African art vibes.","Adam,Dalton,Caleb,Benjamin,William,Isaiah","Eyes hunt for the blue in the black.,5,40,20","black leaves makes the blue birds stand out.,1,300,20","Love the accent colors in this piece!,20,40,20","Reminds me of blueberry bushes.,7,260,20","makes me feel calm,40,380,20","The painting is very relaxing, I'm reminded of sitting in a garden in the evening.,8,300,20","Benjamin","Reminds me of blueberry bushes.,7,260,20","Isaiah","The painting is very relaxing, I'm reminded of sitting in a garden in the evening.,8,300,20","Caleb","Love the accent colors in this piece!,20,40,20","4"
"42207","","survey-text","146","1136976","0.0-144.0-0.0","A2J3PQ126JY6EQ","","","","{""Q0"":""Has a chaotic dystopian vibe like a natural disaster or solar flare.""}","","","","","","","","","","","","","","","","","","","","","","",""
"2808.7999999970198","","image-slider-response","147","1139786","0.0-145.0","A2J3PQ126JY6EQ","","","","","12","","","","","","","","","","","","","","","","","","","","","",""
"null","","image-button-response","148","1144793","0.0-146.0","A2J3PQ126JY6EQ","img_art/1.jpg","null","","","","","","","","","","","","","","","","","","","","","","","","",""
"2580","","image-button-response","149","1147375","0.0-147.0","A2J3PQ126JY6EQ","img_art/1.jpg","4","","","","","","","","","","","","","","","","","","","","","","","","",""
"3391","","image-button-response","150","1150767","0.0-148.0-0.0","A2J3PQ126JY6EQ","img_art/1.jpg","2","","","","","","","","","","","","","","","","","","","","","","","","",""
"392","","image-button-response","151","1151160","0.0-149.0-0.0","A2J3PQ126JY6EQ","img_art/1.jpg","1","","","","","","","","","","","","","","","","","","","","","","","","",""
"null","","html-keyboard-response","152","1152161","0.0-150.0","A2J3PQ126JY6EQ","<p style=""font-size: 48px;"">+</p>","","","","","null","allTrialResponses","1000","1","15","img_art/1.jpg","12","Has a chaotic dystopian vibe like a natural disaster or solar flare.","Gregory,Edward,Caleb,Benjamin,Justin,Isaiah","Looks like just a bunch of colors with no real point,-5,220,20","That one piece in the middle gives it depth and it's really neat,21,60,20","Its simply okay.,3,40,20","Really like all of the colors and how they mesh well.,27,260,20","It reminds me of a sunset I once saw.,16,280,20","I feel relaxed, like I'm watching the leaves change color.,17,300,20","Justin","It reminds me of a sunset I once saw.,16,280,20","Caleb","Its simply okay.,3,40,20","Edward","That one piece in the middle gives it depth and it's really neat,21,60,20","4"
"3190","","survey-text","153","1155356","0.0-151.0-0.0","A2J3PQ126JY6EQ","","","","{""Q0"":""course""}","","","","","","","","","","","","","","","","","","","","","","",""
"22523","","survey-text","154","1177881","0.0-152.0-0.0","A2J3PQ126JY6EQ","","","","{""Q0"":""It looks like someone deliberately ruined an already good paniting.""}","","","","","","","","","","","","","","","","","","","","","","",""
"3257.2000000029802","","image-slider-response","155","1181139","0.0-153.0","A2J3PQ126JY6EQ","","","","","-18","","","","","","","","","","","","","","","","","","","","","",""
"null","","image-button-response","156","1186141","0.0-154.0","A2J3PQ126JY6EQ","img_art/18.jpg","null","","","","","","","","","","","","","","","","","","","","","","","","",""
"1576","","image-button-response","157","1187718","0.0-155.0","A2J3PQ126JY6EQ","img_art/18.jpg","3","","","","","","","","","","","","","","","","","","","","","","","","",""
"4382","","image-button-response","158","1192100","0.0-156.0-0.0","A2J3PQ126JY6EQ","img_art/18.jpg","1","","","","","","","","","","","","","","","","","","","","","","","","",""
"1708","","image-button-response","159","1193810","0.0-157.0-0.0","A2J3PQ126JY6EQ","img_art/18.jpg","4","","","","","","","","","","","","","","","","","","","","","","","","",""
"null","","html-keyboard-response","160","1194811","0.0-158.0","A2J3PQ126JY6EQ","<p style=""font-size: 48px;"">+</p>","","","","","null","allTrialResponses","1000","1","16","img_art/18.jpg","-18","It looks like someone deliberately ruined an already good paniting.","Brian,Edward,Caleb,Alexander,Justin,Jacob","Very classy, I feel like it's the apocalypse.,25,380,20","Reminds me of the four horsemen of the apocalypse,29,60,20","Accents make this piece.,21,40,20","Ghostly sea adventure.,20,120,20","This is really interesting to look at. I like the colors and the spectral look.,27,280,20","I think this looks pretty cool, I can see what's kind of going on here.,22,340,20","Alexander","Ghostly sea adventure.,20,120,20","Edward","Reminds me of the four horsemen of the apocalypse,29,60,20","Justin","This is really interesting to look at. I like the colors and the spectral look.,27,280,20","4"
"13977","","survey-text","161","1208791","0.0-159.0-0.0","A2J3PQ126JY6EQ","","","","{""Q0"":""Colorful trees and plants in a windy sky""}","","","","","","","","","","","","","","","","","","","","","","",""
"1925.4000000059605","","image-slider-response","162","1210718","0.0-160.0","A2J3PQ126JY6EQ","","","","","19","","","","","","","","","","","","","","","","","","","","","",""
"4084","","image-button-response","163","1215719","0.0-161.0","A2J3PQ126JY6EQ","img_art/17.jpg","1","","","","","","","","","","","","","","","","","","","","","","","","",""
"215","","image-button-response","164","1215936","0.0-162.0","A2J3PQ126JY6EQ","img_art/17.jpg","4","","","","","","","","","","","","","","","","","","","","","","","","",""
"784","","image-button-response","165","1216721","0.0-163.0-0.0","A2J3PQ126JY6EQ","img_art/17.jpg","3","","","","","","","","","","","","","","","","","","","","","","","","",""
"794","","image-button-response","166","1217517","0.0-164.0-0.0","A2J3PQ126JY6EQ","img_art/17.jpg","1","","","","","","","","","","","","","","","","","","","","","","","","",""
"null","","html-keyboard-response","167","1218018","0.0-165.0","A2J3PQ126JY6EQ","<p style=""font-size: 48px;"">+</p>","","","","","null","allTrialResponses","500","1","17","img_art/17.jpg","19","Colorful trees and plants in a windy sky","Blake,Edward,Richard,Alexander,Justin,Dakota","soft and warm light colors are relaxing,12,280,20","I love how soft it is,35,60,20","nice composition and colors, fairy land,28,340,20","Tree of knowledge in a quiet school.,17,120,20","I like the colors and the design.,20,280,20","home - reminds me of fond memories of the Barnes Museum courtyard (looks just like it),30,280,20","Justin","I like the colors and the design.,20,280,20","Alexander","Tree of knowledge in a quiet school.,17,120,20","Edward","I love how soft it is,35,60,20","4"
"68209","","survey-text","168","1286230","0.0-166.0-0.0","A2J3PQ126JY6EQ","","","","{""Q0"":""Lady asleep in a garden?""}","","","","","","","","","","","","","","","","","","","","","","",""
"2301.699999988079","","image-slider-response","169","1288533","0.0-167.0","A2J3PQ126JY6EQ","","","","","-14","","","","","","","","","","","","","","","","","","","","","",""
"null","","image-button-response","170","1293536","0.0-168.0","A2J3PQ126JY6EQ","img_art/9.jpg","null","","","","","","","","","","","","","","","","","","","","","","","","",""
"6001","","image-button-response","171","1299538","0.0-169.0","A2J3PQ126JY6EQ","img_art/9.jpg","4","","","","","","","","","","","","","","","","","","","","","","","","",""
"5128","","image-button-response","172","1304667","0.0-170.0-0.0","A2J3PQ126JY6EQ","img_art/9.jpg","0","","","","","","","","","","","","","","","","","","","","","","","","",""
"2369","","image-button-response","173","1307038","0.0-171.0-0.0","A2J3PQ126JY6EQ","img_art/9.jpg","1","","","","","","","","","","","","","","","","","","","","","","","","",""
"null","","html-keyboard-response","174","1308540","0.0-172.0","A2J3PQ126JY6EQ","<p style=""font-size: 48px;"">+</p>","","","","","null","allTrialResponses","1500","1","18","img_art/9.jpg","-14","Lady asleep in a garden?","Steven,Edward,Trevor,Alexander,Justin,Christian","I just dont like it, no reaction from me at all,-50,160,20","The colors remind me of peacocks,24,60,20","nice colors but it looks like it's from the 80s,10,280,20","The mouth of an ugly beast.,-25,120,20","It reminds me of an illustration for a fairy tale.,19,280,20","love the color palette, but I'm gonna be honest, I don't really understand it,14,140,20","Justin","It reminds me of an illustration for a fairy tale.,19,280,20","Steven","I just dont like it, no reaction from me at all,-50,160,20","Edward","The colors remind me of peacocks,24,60,20","4"
"19201","","survey-text","175","1327744","0.0-173.0-0.0","A2J3PQ126JY6EQ","","","","{""Q0"":""Freaky, like some sort of psychedelic dream""}","","","","","","","","","","","","","","","","","","","","","","",""
"1836.7999999970198","","image-slider-response","176","1329582","0.0-174.0","A2J3PQ126JY6EQ","","","","","12","","","","","","","","","","","","","","","","","","","","","",""
"null","","image-button-response","177","1334584","0.0-175.0","A2J3PQ126JY6EQ","img_art/23.jpg","null","","","","","","","","","","","","","","","","","","","","","","","","",""
"1707","","image-button-response","178","1336293","0.0-176.0","A2J3PQ126JY6EQ","img_art/23.jpg","4","","","","","","","","","","","","","","","","","","","","","","","","",""
"2331","","image-button-response","179","1338626","0.0-177.0-0.0","A2J3PQ126JY6EQ","img_art/23.jpg","3","","","","","","","","","","","","","","","","","","","","","","","","",""
"4550","","image-button-response","180","1343177","0.0-178.0-0.0","A2J3PQ126JY6EQ","img_art/23.jpg","2","","","","","","","","","","","","","","","","","","","","","","","","",""
"null","","html-keyboard-response","181","1344180","0.0-179.0","A2J3PQ126JY6EQ","<p style=""font-size: 48px;"">+</p>","","","","","null","allTrialResponses","1000","1","19","img_art/23.jpg","12","Freaky, like some sort of psychedelic dream","Steven,Edward,Mitchell,Bradley,Justin,Angel","NO, I don't get it,-50,160,20","This would make a great mural,37,60,20","Partying, dancing, delusion, kaus.,10,180,20","I like the contrast and the bright colors in this one.,6,300,20","The white paint through the middle really draws the eye.,30,280,20","I feel positive community and comfort. Singing along at a concert, united with a bunch of strangers through shared joy.,20,180,20","Justin","The white paint through the middle really draws the eye.,30,280,20","Bradley","I like the contrast and the bright colors in this one.,6,300,20","Mitchell","Partying, dancing, delusion, kaus.,10,180,20","4"
"20725","","survey-text","182","1364910","0.0-180.0-0.0","A2J3PQ126JY6EQ","","","","{""Q0"":""Lazzy, uninspired, dreck""}","","","","","","","","","","","","","","","","","","","","","","",""
"3292.2999999970198","","image-slider-response","183","1368203","0.0-181.0","A2J3PQ126JY6EQ","","","","","-20","","","","","","","","","","","","","","","","","","","","","",""
"null","","image-button-response","184","1373207","0.0-182.0","A2J3PQ126JY6EQ","img_art/30.jpg","null","","","","","","","","","","","","","","","","","","","","","","","","",""
"1580","","image-button-response","185","1374788","0.0-183.0","A2J3PQ126JY6EQ","img_art/30.jpg","1","","","","","","","","","","","","","","","","","","","","","","","","",""
"4294","","image-button-response","186","1379083","0.0-184.0-0.0","A2J3PQ126JY6EQ","img_art/30.jpg","3","","","","","","","","","","","","","","","","","","","","","","","","",""
"2183","","image-button-response","187","1381268","0.0-185.0-0.0","A2J3PQ126JY6EQ","img_art/30.jpg","5","","","","","","","","","","","","","","","","","","","","","","","","",""
"null","","html-keyboard-response","188","1382270","0.0-186.0","A2J3PQ126JY6EQ","<p style=""font-size: 48px;"">+</p>","","","","","null","allTrialResponses","1000","1","20","img_art/30.jpg","-20","Lazzy, uninspired, dreck","Tanner,Chase,Mitchell,Bradley,Justin,Zachary","makes me think of a tunnel filled with graffiti,19,180,20","Too dark and ugly with all the black smears,-20,120,20","connection, Everything is connected even in contrast.,42,180,20","Hmmm. I think the artist is trying to direct me to a spreadsheet?  (s/s),-10,300,20","The colors and the brushstrokes are interesting enough.,17,280,20","I like this one because I am a mom and it reminds me of a child finger-painting.,20,400,20","Chase","Too dark and ugly with all the black smears,-20,120,20","Bradley","Hmmm. I think the artist is trying to direct me to a spreadsheet?  (s/s),-10,300,20","Zachary","I like this one because I am a mom and it reminds me of a child finger-painting.,20,400,20","4"
"2431","","survey-text","189","1384716","0.0-187.0-0.0","A2J3PQ126JY6EQ","","","","{""Q0"":""we""}","","","","","","","","","","","","","","","","","","","","","","",""
"22327","","survey-text","190","1407043","0.0-188.0-0.0","A2J3PQ126JY6EQ","","","","{""Q0"":""chaotic scribbles. low effort. low skill""}","","","","","","","","","","","","","","","","","","","","","","",""
"1989.7000000029802","","image-slider-response","191","1409034","0.0-189.0","A2J3PQ126JY6EQ","","","","","-50","","","","","","","","","","","","","","","","","","","","","",""
"null","","image-button-response","192","1414036","0.0-190.0","A2J3PQ126JY6EQ","img_art/3.jpg","null","","","","","","","","","","","","","","","","","","","","","","","","",""
"6862","","image-button-response","193","1420899","0.0-191.0","A2J3PQ126JY6EQ","img_art/3.jpg","5","","","","","","","","","","","","","","","","","","","","","","","","",""
"591","","image-button-response","194","1421492","0.0-192.0-0.0","A2J3PQ126JY6EQ","img_art/3.jpg","3","","","","","","","","","","","","","","","","","","","","","","","","",""
"548","","image-button-response","195","1422041","0.0-193.0-0.0","A2J3PQ126JY6EQ","img_art/3.jpg","4","","","","","","","","","","","","","","","","","","","","","","","","",""
"null","","html-keyboard-response","196","1423043","0.0-194.0","A2J3PQ126JY6EQ","<p style=""font-size: 48px;"">+</p>","","","","","null","allTrialResponses","1000","1","21","img_art/3.jpg","-50","chaotic scribbles. low effort. low skill","Spencer,Chase,Joseph,Bradley,Nathan,Zachary","Scratchy scrawly all one color, looks like a mistake,-28,120,20","Looks like a bloody head with teeth.,-16,120,20","Really have no idea what I'm looking at.,1,220,20","Marker gone wild?  Not sure what's going on here.,-21,300,20","Looks like it was painted with blood, which I'm aware is an art style, but it just looks messy.,-20,200,20","Too red and chaotic. Not calming.,-41,400,20","Zachary","Too red and chaotic. Not calming.,-41,400,20","Bradley","Marker gone wild?  Not sure what's going on here.,-21,300,20","Nathan","Looks like it was painted with blood, which I'm aware is an art style, but it just looks messy.,-20,200,20","4"
"23104","","survey-text","197","1446150","0.0-195.0-0.0","A2J3PQ126JY6EQ","","","","{""Q0"":""Its like a map of train tracks or some ancient railway""}","","","","","","","","","","","","","","","","","","","","","","",""
"1825.0999999940395","","image-slider-response","198","1447976","0.0-196.0","A2J3PQ126JY6EQ","","","","","14","","","","","","","","","","","","","","","","","","","","","",""
"2746","","image-button-response","199","1452978","0.0-197.0","A2J3PQ126JY6EQ","img_art/10.jpg","4","","","","","","","","","","","","","","","","","","","","","","","","",""
"411","","image-button-response","200","1453390","0.0-198.0","A2J3PQ126JY6EQ","img_art/10.jpg","4","","","","","","","","","","","","","","","","","","","","","","","","",""
"1246","","image-button-response","201","1454637","0.0-199.0-0.0","A2J3PQ126JY6EQ","img_art/10.jpg","3","","","","","","","","","","","","","","","","","","","","","","","","",""
"1855","","image-button-response","202","1456494","0.0-200.0-0.0","A2J3PQ126JY6EQ","img_art/10.jpg","2","","","","","","","","","","","","","","","","","","","","","","","","",""
"null","","html-keyboard-response","203","1456996","0.0-201.0","A2J3PQ126JY6EQ","<p style=""font-size: 48px;"">+</p>","","","","","null","allTrialResponses","500","1","22","img_art/10.jpg","14","Its like a map of train tracks or some ancient railway","Peter,Dustin,Ryan,Bradley,Nathan,Zachary","I don't hate but don't like it because it looks like a oil slick,2,320,20","Dark and weird. Unidentifiable shape. I can't tell what it is, so I don't like it.,-50,20,20","Reminds me of a beautiful ship wreck,36,380,20","This piece is very intriguing to me.,3,300,20","Seems very lovecraftian, which I love that style,25,200,20","Reminds me of a terrarium with cacti inside. It reminds me of home.,27,400,20","Nathan","Seems very lovecraftian, which I love that style,25,200,20","Bradley","This piece is very intriguing to me.,3,300,20","Ryan","Reminds me of a beautiful ship wreck,36,380,20","4"
"10889","","survey-text","204","1467887","0.0-202.0-0.0","A2J3PQ126JY6EQ","","","","{""Q0"":""Life on a distant planet""}","","","","","","","","","","","","","","","","","","","","","","",""
"2155","","image-slider-response","205","1470043","0.0-203.0","A2J3PQ126JY6EQ","","","","","-8","","","","","","","","","","","","","","","","","","","","","",""
"3660","","image-button-response","206","1475045","0.0-204.0","A2J3PQ126JY6EQ","img_art/22.jpg","2","","","","","","","","","","","","","","","","","","","","","","","","",""
"1622","","image-button-response","207","1476668","0.0-205.0","A2J3PQ126JY6EQ","img_art/22.jpg","2","","","","","","","","","","","","","","","","","","","","","","","","",""
"351","","image-button-response","208","1477020","0.0-206.0-0.0","A2J3PQ126JY6EQ","img_art/22.jpg","0","","","","","","","","","","","","","","","","","","","","","","","","",""
"2113","","image-button-response","209","1479134","0.0-207.0-0.0","A2J3PQ126JY6EQ","img_art/22.jpg","1","","","","","","","","","","","","","","","","","","","","","","","","",""
"null","","html-keyboard-response","210","1479635","0.0-208.0","A2J3PQ126JY6EQ","<p style=""font-size: 48px;"">+</p>","","","","","null","allTrialResponses","500","1","23","img_art/22.jpg","-8","Life on a distant planet","Paul,Alexis,Ryan,Bradley,Nathan,Austin","I really like the bright colors and sunset feel,31,300,20","Neither like nor dislike it. The red, yellow and blue colors are bright but I don't know what it's meant to be.,1,140,20","Very generic, seen many times before,-43,380,20","I like this one. There is a lot to see if you keep looking for it.,27,300,20","A bit colorful, but slightly enjoyable, almost gives off castle/sunset vibes,10,200,20","Great color palette,29,240,20","Ryan","Very generic, seen many times before,-43,380,20","Paul","I really like the bright colors and sunset feel,31,300,20","Alexis","Neither like nor dislike it. The red, yellow and blue colors are bright but I don't know what it's meant to be.,1,140,20","4"
"34357","","survey-text","211","1513995","0.0-209.0-0.0","A2J3PQ126JY6EQ","","","","{""Q0"":""Like a collage of different photographs but in paint. love it""}","","","","","","","","","","","","","","","","","","","","","","",""
"2241.7000000029802","","image-slider-response","212","1516238","0.0-210.0","A2J3PQ126JY6EQ","","","","","30","","","","","","","","","","","","","","","","","","","","","",""
"null","","image-button-response","213","1521241","0.0-211.0","A2J3PQ126JY6EQ","img_art/12.jpg","null","","","","","","","","","","","","","","","","","","","","","","","","",""
"1167","","image-button-response","214","1522408","0.0-212.0","A2J3PQ126JY6EQ","img_art/12.jpg","1","","","","","","","","","","","","","","","","","","","","","","","","",""
"6079","","image-button-response","215","1528489","0.0-213.0-0.0","A2J3PQ126JY6EQ","img_art/12.jpg","0","","","","","","","","","","","","","","","","","","","","","","","","",""
"5370","","image-button-response","216","1533860","0.0-214.0-0.0","A2J3PQ126JY6EQ","img_art/12.jpg","4","","","","","","","","","","","","","","","","","","","","","","","","",""
"null","","html-keyboard-response","217","1534861","0.0-215.0","A2J3PQ126JY6EQ","<p style=""font-size: 48px;"">+</p>","","","","","null","allTrialResponses","1000","1","24","img_art/12.jpg","30","Like a collage of different photographs but in paint. love it","Paul,Alexis,Ryan,Tristan,Cody,Ian","Reminds me of collages we made in elementary school. I like the contrast of the colors from top to bottom,43,300,20","In my opinion, this photo has an old school vibe,22,140,20","The colors are beautiful and it has great composition,50,380,20","Quite lovely with depth and possibility.,21,300,20","Pretty but not a huge fan of the colors,20,180,20","This is like going to a really old mcdoanlds in a tiny town and it's never been renovated so it's breaking down,-31,260,20","Alexis","In my opinion, this photo has an old school vibe,22,140,20","Paul","Reminds me of collages we made in elementary school. I like the contrast of the colors from top to bottom,43,300,20","Cody","Pretty but not a huge fan of the colors,20,180,20","4"
"27739","","survey-text","218","1562608","0.0-216.0-0.0","A2J3PQ126JY6EQ","","","","{""Q0"":""Looks like some chaotic alternate universe with different dimensions of time.""}","","","","","","","","","","","","","","","","","","","","","","",""
"1409.8999999910593","","image-slider-response","219","1564020","0.0-217.0","A2J3PQ126JY6EQ","","","","","23","","","","","","","","","","","","","","","","","","","","","",""
"4952","","image-button-response","220","1569022","0.0-218.0","A2J3PQ126JY6EQ","img_art/8.jpg","3","","","","","","","","","","","","","","","","","","","","","","","","",""
"942","","image-button-response","221","1569966","0.0-219.0","A2J3PQ126JY6EQ","img_art/8.jpg","4","","","","","","","","","","","","","","","","","","","","","","","","",""
"382","","image-button-response","222","1570350","0.0-220.0-0.0","A2J3PQ126JY6EQ","img_art/8.jpg","3","","","","","","","","","","","","","","","","","","","","","","","","",""
"1189","","image-button-response","223","1571539","0.0-221.0-0.0","A2J3PQ126JY6EQ","img_art/8.jpg","2","","","","","","","","","","","","","","","","","","","","","","","","",""
"null","","html-keyboard-response","224","1572540","0.0-222.0","A2J3PQ126JY6EQ","<p style=""font-size: 48px;"">+</p>","","","","","null","allTrialResponses","1000","1","25","img_art/8.jpg","23","Looks like some chaotic alternate universe with different dimensions of time.","Paul,Alexis,Bryan,Vincent,Cody,Thomas","The faces in the upper left show agony and contrast with the geometric shapes too much,-31,300,20","I like that it sort of looks like a cityscape,9,140,20","Like the colors & the imagery - old city, native peoples maybe.,20,400,20","This speaks volumes to me and is another favorite I'm sure by many,40,360,20","Love the colors & block-style,50,180,20","Gorgeous! I love the colors and the details.,50,220,20","Cody","Love the colors & block-style,50,180,20","Vincent","This speaks volumes to me and is another favorite I'm sure by many,40,360,20","Bryan","Like the colors & the imagery - old city, native peoples maybe.,20,400,20","4"
"3280","","survey-text","225","1575832","0.0-223.0-0.0","A2J3PQ126JY6EQ","","","","{""Q0"":""table""}","","","","","","","","","","","","","","","","","","","","","","",""
"19483","","survey-text","226","1595316","0.0-224.0-0.0","A2J3PQ126JY6EQ","","","","{""Q0"":""Looks like a bunch of random scribbling. Don't like it""}","","","","","","","","","","","","","","","","","","","","","","",""
"6876.800000011921","","image-slider-response","227","1602194","0.0-225.0","A2J3PQ126JY6EQ","","","","","-50","","","","","","","","","","","","","","","","","","","","","",""
"null","","image-button-response","228","1607196","0.0-226.0","A2J3PQ126JY6EQ","img_art/27.jpg","null","","","","","","","","","","","","","","","","","","","","","","","","",""
"1031","","image-button-response","229","1608228","0.0-227.0","A2J3PQ126JY6EQ","img_art/27.jpg","2","","","","","","","","","","","","","","","","","","","","","","","","",""
"2705","","image-button-response","230","1610933","0.0-228.0-0.0","A2J3PQ126JY6EQ","img_art/27.jpg","0","","","","","","","","","","","","","","","","","","","","","","","","",""
"5456","","image-button-response","231","1616390","0.0-229.0-0.0","A2J3PQ126JY6EQ","img_art/27.jpg","4","","","","","","","","","","","","","","","","","","","","","","","","",""
"null","","html-keyboard-response","232","1617392","0.0-230.0","A2J3PQ126JY6EQ","<p style=""font-size: 48px;"">+</p>","","","","","null","allTrialResponses","1000","1","26","img_art/27.jpg","-50","Looks like a bunch of random scribbling. Don't like it","Devin,Devon,Bryan,Vincent,Cody,Eric","Looks like the green bits were added on later,-1,380,20","this reminds me of simpler time,31,400,20","Not fond of the bad pencil drawing mixed with the drab colors.,-21,400,20","A beautiful day full of Hope and Inspiritation. The warmth of hot cocoa with the family gathering around,33,360,20","Not sure how I feel about this. Messy, even for art. But good colors.,0,180,20","This piece reminds me of a summer day.,30,100,20","Bryan","Not fond of the bad pencil drawing mixed with the drab colors.,-21,400,20","Devin","Looks like the green bits were added on later,-1,380,20","Cody","Not sure how I feel about this. Messy, even for art. But good colors.,0,180,20","4"
"47983","","survey-text","233","1665378","0.0-231.0-0.0","A2J3PQ126JY6EQ","","","","{""Q0"":""City-scapes from a horror movie. Gives off an anxious vibe.""}","","","","","","","","","","","","","","","","","","","","","","",""
"1776.5999999940395","","image-slider-response","234","1667156","0.0-232.0","A2J3PQ126JY6EQ","","","","","-36","","","","","","","","","","","","","","","","","","","","","",""
"3619","","image-button-response","235","1672158","0.0-233.0","A2J3PQ126JY6EQ","img_art/11.jpg","1","","","","","","","","","","","","","","","","","","","","","","","","",""
"1634","","image-button-response","236","1673793","0.0-234.0","A2J3PQ126JY6EQ","img_art/11.jpg","1","","","","","","","","","","","","","","","","","","","","","","","","",""
"9065","","image-button-response","237","1682859","0.0-235.0-0.0","A2J3PQ126JY6EQ","img_art/11.jpg","2","","","","","","","","","","","","","","","","","","","","","","","","",""
"2029","","image-button-response","238","1684889","0.0-236.0-0.0","A2J3PQ126JY6EQ","img_art/11.jpg","5","","","","","","","","","","","","","","","","","","","","","","","","",""
"null","","html-keyboard-response","239","1685391","0.0-237.0","A2J3PQ126JY6EQ","<p style=""font-size: 48px;"">+</p>","","","","","null","allTrialResponses","500","1","27","img_art/11.jpg","-36","City-scapes from a horror movie. Gives off an anxious vibe.","Devin,Anthony,Bryan,Colton,Cody,Kyle","I like the vibe of the painting,-3,380,20","The narrow groups of lines in the center make me feel uneasy for some reason,-31,200,20","Rainy asian city scape.,31,400,20","the wavy lines are nice and pleasing,13,220,20","Pretty, interesting, feels like a city, feels like home,50,180,20","Reminds me of a city on a grey/rainy winter's day,25,340,20","Anthony","The narrow groups of lines in the center make me feel uneasy for some reason,-31,200,20","Bryan","Rainy asian city scape.,31,400,20","Kyle","Reminds me of a city on a grey/rainy winter's day,25,340,20","4"
"34611","","survey-text","240","1720007","0.0-238.0-0.0","A2J3PQ126JY6EQ","","","","{""Q0"":""Splashes of high contrasting colors. Looks like the deep sea.""}","","","","","","","","","","","","","","","","","","","","","","",""
"2306.0999999940395","","image-slider-response","241","1722314","0.0-239.0","A2J3PQ126JY6EQ","","","","","-22","","","","","","","","","","","","","","","","","","","","","",""
"null","","image-button-response","242","1727316","0.0-240.0","A2J3PQ126JY6EQ","img_art/13.jpg","null","","","","","","","","","","","","","","","","","","","","","","","","",""
"2430","","image-button-response","243","1729747","0.0-241.0","A2J3PQ126JY6EQ","img_art/13.jpg","4","","","","","","","","","","","","","","","","","","","","","","","","",""
"3359","","image-button-response","244","1733108","0.0-242.0-0.0","A2J3PQ126JY6EQ","img_art/13.jpg","5","","","","","","","","","","","","","","","","","","","","","","","","",""
"647","","image-button-response","245","1733757","0.0-243.0-0.0","A2J3PQ126JY6EQ","img_art/13.jpg","0","","","","","","","","","","","","","","","","","","","","","","","","",""
"null","","html-keyboard-response","246","1734758","0.0-244.0","A2J3PQ126JY6EQ","<p style=""font-size: 48px;"">+</p>","","","","","null","allTrialResponses","1000","1","28","img_art/13.jpg","-22","Splashes of high contrasting colors. Looks like the deep sea.","Seth,Anthony,Bryan,Stephen,Mason,Kyle","I really loved the color contrast. Having the white stripe in the center makes the it appear 3D.,11,60,20","I like the color scheme,41,200,20","Love the colors, love the abstractness, love this Jackson Pollock type painting.,48,400,20","Like how realistic it looks.,33,140,20","meh, 80's. retro,-9,100,20","I like the colors together,17,340,20","Mason","meh, 80's. retro,-9,100,20","Kyle","I like the colors together,17,340,20","Seth","I really loved the color contrast. Having the white stripe in the center makes the it appear 3D.,11,60,20","4"
"39600","","survey-text","247","1774366","0.0-245.0-0.0","A2J3PQ126JY6EQ","","","","{""Q0"":""Looks like an overturned truck or car wreck. Very depressing""}","","","","","","","","","","","","","","","","","","","","","","",""
"2095.5","","image-slider-response","248","1776462","0.0-246.0","A2J3PQ126JY6EQ","","","","","-35","","","","","","","","","","","","","","","","","","","","","",""
"3154","","image-button-response","249","1781465","0.0-247.0","A2J3PQ126JY6EQ","img_art/20.jpg","3","","","","","","","","","","","","","","","","","","","","","","","","",""
"1563","","image-button-response","250","1783028","0.0-248.0","A2J3PQ126JY6EQ","img_art/20.jpg","3","","","","","","","","","","","","","","","","","","","","","","","","",""
"818","","image-button-response","251","1783847","0.0-249.0-0.0","A2J3PQ126JY6EQ","img_art/20.jpg","1","","","","","","","","","","","","","","","","","","","","","","","","",""
"4616","","image-button-response","252","1788465","0.0-250.0-0.0","A2J3PQ126JY6EQ","img_art/20.jpg","5","","","","","","","","","","","","","","","","","","","","","","","","",""
"null","","html-keyboard-response","253","1789966","0.0-251.0","A2J3PQ126JY6EQ","<p style=""font-size: 48px;"">+</p>","","","","","null","allTrialResponses","1500","1","29","img_art/20.jpg","-35","Looks like an overturned truck or car wreck. Very depressing","Seth,Jake,Evan,Samuel,Mason,Kyle","I'm not sure why this reminds me of surrealism. It might be the colors used.,16,60,20","It's too brash and loud and ugly.,-21,360,20","I feel intrigued and impressed,34,140,20","crash after traffic causing grief,-11,400,20","Very cool, and calming (again) Love it.,47,100,20","This one is okay but I don't really care for it,5,340,20","Samuel","crash after traffic causing grief,-11,400,20","Jake","It's too brash and loud and ugly.,-21,360,20","Kyle","This one is okay but I don't really care for it,5,340,20","4"
"21758","","survey-text","254","1811732","0.0-252.0-0.0","A2J3PQ126JY6EQ","","","","{""Q0"":""Sad melancholy, like a lonely desert""}","","","","","","","","","","","","","","","","","","","","","","",""
"1798.4000000059605","","image-slider-response","255","1813531","0.0-253.0","A2J3PQ126JY6EQ","","","","","-18","","","","","","","","","","","","","","","","","","","","","",""
"3875","","image-button-response","256","1818533","0.0-254.0","A2J3PQ126JY6EQ","img_art/14.jpg","1","","","","","","","","","","","","","","","","","","","","","","","","",""
"643","","image-button-response","257","1819177","0.0-255.0","A2J3PQ126JY6EQ","img_art/14.jpg","1","","","","","","","","","","","","","","","","","","","","","","","","",""
"1933","","image-button-response","258","1821111","0.0-256.0-0.0","A2J3PQ126JY6EQ","img_art/14.jpg","4","","","","","","","","","","","","","","","","","","","","","","","","",""
"1357","","image-button-response","259","1822470","0.0-257.0-0.0","A2J3PQ126JY6EQ","img_art/14.jpg","5","","","","","","","","","","","","","","","","","","","","","","","","",""
"null","","html-keyboard-response","260","1822972","0.0-258.0","A2J3PQ126JY6EQ","<p style=""font-size: 48px;"">+</p>","","","","","null","allTrialResponses","500","1","30","img_art/14.jpg","-18","Sad melancholy, like a lonely desert","James,Jake,Daniel,Samuel,Andrew,Kyle","It uses interesting techniques on this picture, but I have no feelings for or against.,1,380,20","This is poorly done and not aesthetically appealing.,-2,360,20","Baby's room palette with tree confusion in a more confused substrate.,-15,320,20","tree of life brings hope,7,400,20","Makes me think of my plants growing,11,160,20","The colors are nice and it reminds me of a shrub or tree,10,340,20","Jake","This is poorly done and not aesthetically appealing.,-2,360,20","Andrew","Makes me think of my plants growing,11,160,20","Kyle","The colors are nice and it reminds me of a shrub or tree,10,340,20","4"
"4961","","image-button-response_instructions","261","1827938","0.0-259.0","A2J3PQ126JY6EQ","","0","instructions","","","","","","","","","","","","","","","","","","","","","","","",""
