"rt","url","trial_type","trial_index","time_elapsed","internal_node_id","participant_id","stimulus","button_pressed","Name","responses","response","key_press","variableName","fixationTime","condition","trial","photo","subjectRating","subjectResponse","agentsNames","agent_1_Response","agent_2_Response","agent_3_Response","agent_4_Response","agent_5_Response","agent_6_Response","kept_1_name","kept_1_response","kept_2_name","kept_2_response","kept_3_name","kept_3_response","errorCounter"
"13830","external_page_harvard.html","external-html","0","13879","0.0-0.0","A2JC5V4UKJ2CEC","","","","","","","","","","","","","","","","","","","","","","","","","","",""
"3086","","image-button-response","1","16968","0.0-1.0","A2JC5V4UKJ2CEC","","1","","","","","","","","","","","","","","","","","","","","","","","","",""
"2412","","image-button-response","2","19385","0.0-2.0-0.0","A2JC5V4UKJ2CEC","","1","phone","","","","","","","","","","","","","","","","","","","","","","","",""
"6140","","survey-text","3","25527","0.0-3.0-0.0","A2JC5V4UKJ2CEC","","","","{""Q0"":""A2JC5V4UKJ2CEC""}","","","","","","","","","","","","","","","","","","","","","","",""
"7558","","image-button-response_instructions","4","33087","0.0-4.0","A2JC5V4UKJ2CEC","","0","instructions","","","","","","","","","","","","","","","","","","","","","","","",""
"22479","","image-button-response_instructions","5","55566","0.0-5.0","A2JC5V4UKJ2CEC","img_art/ins/popularity/ins1.png","0","instructions","","","","","","","","","","","","","","","","","","","","","","","",""
"9152","","image-button-response_instructions","6","64720","0.0-6.0","A2JC5V4UKJ2CEC","img_art/ins/popularity/ins2.png","0","instructions","","","","","","","","","","","","","","","","","","","","","","","",""
"4678","","image-button-response_instructions","7","69398","0.0-7.0","A2JC5V4UKJ2CEC","img_art/ins/popularity/ins2Extreme.png","0","instructions","","","","","","","","","","","","","","","","","","","","","","","",""
"2298","","image-button-response_instructions","8","71698","0.0-8.0","A2JC5V4UKJ2CEC","img_art/ins/popularity/ins3KEEPpop.PNG","0","instructions","","","","","","","","","","","","","","","","","","","","","","","",""
"4108","","image-button-response_instructions","9","75808","0.0-9.0","A2JC5V4UKJ2CEC","img_art/ins/popularity/ins3ANamepop.PNG","0","instructions","","","","","","","","","","","","","","","","","","","","","","","",""
"1890","","image-button-response_instructions","10","77698","0.0-10.0","A2JC5V4UKJ2CEC","img_art/ins/popularity/ins3ARatingpop.png","0","instructions","","","","","","","","","","","","","","","","","","","","","","","",""
"3391","","image-button-response_instructions","11","81089","0.0-11.0","A2JC5V4UKJ2CEC","img_art/ins/popularity/ins3ATextpop.png","0","instructions","","","","","","","","","","","","","","","","","","","","","","","",""
"3879","","image-button-response_instructions","12","84969","0.0-12.0","A2JC5V4UKJ2CEC","img_art/ins/popularity/ins3ALikespop.png","0","instructions","","","","","","","","","","","","","","","","","","","","","","","",""
"8569","","image-button-response_instructions","13","93539","0.0-13.0","A2JC5V4UKJ2CEC","img_art/ins/popularity/ins3KEEPpop.PNG","0","instructions","","","","","","","","","","","","","","","","","","","","","","","",""
"1634","","image-button-response_instructions","14","95173","0.0-14.0","A2JC5V4UKJ2CEC","img_art/ins/popularity/ins3_5RED.png","0","instructions","","","","","","","","","","","","","","","","","","","","","","","",""
"2578","","image-button-response_instructions","15","97751","0.0-15.0","A2JC5V4UKJ2CEC","img_art/ins/popularity/ins3KEEPpop.PNG","0","instructions","","","","","","","","","","","","","","","","","","","","","","","",""
"1446","","image-button-response_instructions","16","99198","0.0-16.0","A2JC5V4UKJ2CEC","img_art/ins/popularity/ins4KEEPpop.PNG","0","instructions","","","","","","","","","","","","","","","","","","","","","","","",""
"2804","","image-button-response_instructions","17","102003","0.0-17.0","A2JC5V4UKJ2CEC","img_art/ins/popularity/ins5KEEPpop.PNG","0","instructions","","","","","","","","","","","","","","","","","","","","","","","",""
"2434","","image-button-response_instructions","18","104438","0.0-18.0","A2JC5V4UKJ2CEC","","0","instructions","","","","","","","","","","","","","","","","","","","","","","","",""
"10104","","survey-text","19","114562","0.0-19.0-0.0","A2JC5V4UKJ2CEC","","","","{""Q0"":""but""}","","","","","","","","","","","","","","","","","","","","","","",""
"30527","","survey-text","20","145091","0.0-20.0-0.0","A2JC5V4UKJ2CEC","","","","{""Q0"":""hello""}","","","","","","","","","","","","","","","","","","","","","","",""
"10147","","survey-text","21","157471","0.0-20.1-0.1","A2JC5V4UKJ2CEC","","","","{""Q0"":""Good one""}","","","","","","","","","","","","","","","","","","","","","","",""
"4467","","image-slider-response","22","161941","0.0-21.0","A2JC5V4UKJ2CEC","","","","","29","","","","","","","","","","","","","","","","","","","","","",""
"2778","","image-button-response","23","166944","0.0-22.0","A2JC5V4UKJ2CEC","img_art/ins/1.jpg","4","","","","","","","","","","","","","","","","","","","","","","","","",""
"30275","","image-button-response","24","197221","0.0-23.0","A2JC5V4UKJ2CEC","img_art/ins/1.jpg","4","","","","","","","","","","","","","","","","","","","","","","","","",""
"1387","","image-button-response","25","198610","0.0-24.0-0.0","A2JC5V4UKJ2CEC","img_art/ins/1.jpg","4","","","","","","","","","","","","","","","","","","","","","","","","",""
"619","","image-button-response","26","202733","0.0-24.1-0.1","A2JC5V4UKJ2CEC","img_art/ins/1.jpg","3","","","","","","","","","","","","","","","","","","","","","","","","",""
"1493","","image-button-response","27","204231","0.0-25.0-0.0","A2JC5V4UKJ2CEC","img_art/ins/1.jpg","0","","","","","","","","","","","","","","","","","","","","","","","","",""
"null","","html-keyboard-response","28","205232","0.0-26.0","A2JC5V4UKJ2CEC","<p style=""font-size: 48px;"">+</p>","","","","","null","allTrialResponses","1000","1","-2","img_art/ins/1.jpg","29","Good one","Allison,Ashley,Beth,Dora,Erika,Jen","looks like a lot of things going on in the mist,20,20,20","I just don't get why these type of art would be popular,-32,40,20","This color reminds me of poo,-46,60,20","looks like what my niece in 3rd grade did this afternoon,-50,80,20","I like the sophisticated brushwork,40,100,20","It reminds me of a candy land dream I had,36,120,20","Erika","I like the sophisticated brushwork,40,100,20","Dora","looks like what my niece in 3rd grade did this afternoon,-50,80,20","Allison","looks like a lot of things going on in the mist,20,20,20","2"
"12279","","survey-text","29","217515","0.0-27.0-0.0","A2JC5V4UKJ2CEC","","","","{""Q0"":""Well one""}","","","","","","","","","","","","","","","","","","","","","","",""
"3026","","image-slider-response","30","220542","0.0-28.0","A2JC5V4UKJ2CEC","","","","","12","","","","","","","","","","","","","","","","","","","","","",""
"2033","","image-button-response","31","225548","0.0-29.0","A2JC5V4UKJ2CEC","img_art/ins/2.jpg","4","","","","","","","","","","","","","","","","","","","","","","","","",""
"1282","","image-button-response","32","226832","0.0-30.0","A2JC5V4UKJ2CEC","img_art/ins/2.jpg","0","","","","","","","","","","","","","","","","","","","","","","","","",""
"1598","","image-button-response","33","228435","0.0-31.0-0.0","A2JC5V4UKJ2CEC","img_art/ins/2.jpg","3","","","","","","","","","","","","","","","","","","","","","","","","",""
"1092","","image-button-response","34","229530","0.0-32.0-0.0","A2JC5V4UKJ2CEC","img_art/ins/2.jpg","1","","","","","","","","","","","","","","","","","","","","","","","","",""
"null","","html-keyboard-response","35","231032","0.0-33.0","A2JC5V4UKJ2CEC","<p style=""font-size: 48px;"">+</p>","","","","","null","allTrialResponses","1500","1","-1","img_art/ins/2.jpg","12","Well one","Allison,Jenna,Kara,Dora,Erika,Katie","I don't have strong feelings about this,10,20,20","One of my pet peevs,-48,140,20","I like the blocks of color arrangements,30,160,20","looks too angry,-50,80,20","I would never be able to compose a sophisticated pallete like this,48,100,20","too much color!,-28,180,20","Allison","I don't have strong feelings about this,10,20,20","Dora","looks too angry,-50,80,20","Jenna","One of my pet peevs,-48,140,20","2"
"9542","","survey-text","36","240580","0.0-34.0-0.0","A2JC5V4UKJ2CEC","","","","{""Q0"":""Nice one""}","","","","","","","","","","","","","","","","","","","","","","",""
"6888","","image-slider-response","37","247471","0.0-35.0","A2JC5V4UKJ2CEC","","","","","44","","","","","","","","","","","","","","","","","","","","","",""
"3557","","image-button-response","38","252473","0.0-36.0","A2JC5V4UKJ2CEC","img_art/ins/3.jpg","0","","","","","","","","","","","","","","","","","","","","","","","","",""
"935","","image-button-response","39","253409","0.0-37.0","A2JC5V4UKJ2CEC","img_art/ins/3.jpg","5","","","","","","","","","","","","","","","","","","","","","","","","",""
"1270","","image-button-response","40","254683","0.0-38.0-0.0","A2JC5V4UKJ2CEC","img_art/ins/3.jpg","0","","","","","","","","","","","","","","","","","","","","","","","","",""
"464","","image-button-response","41","255149","0.0-39.0-0.0","A2JC5V4UKJ2CEC","img_art/ins/3.jpg","1","","","","","","","","","","","","","","","","","","","","","","","","",""
"null","","html-keyboard-response","42","255651","0.0-40.0","A2JC5V4UKJ2CEC","<p style=""font-size: 48px;"">+</p>","","","","","null","allTrialResponses","500","1","0","img_art/ins/3.jpg","44","Nice one","Allison,Jenna,Leslie,Dora,Mary,Rose","enjoy the different shades of blue,22,20,20","looks like a murder room,-35,140,20","It's an alright work,15,200,20","My worst nightmare,-42,80,20","I like the overlapping of brushes,41,220,20","My daily routine, it's depressing,-20,240,20","Rose","My daily routine, it's depressing,-20,240,20","Allison","enjoy the different shades of blue,22,20,20","Jenna","looks like a murder room,-35,140,20","2"
"1952","","image-button-response_instructions","43","257609","0.0-41.0","A2JC5V4UKJ2CEC","","0","instructions","","","","","","","","","","","","","","","","","","","","","","","",""
"5419","","survey-likert","44","263030","0.0-42.0-0.0","A2JC5V4UKJ2CEC","","","","{""Q0"":"""",""Q1"":1,""Q2"":1}","","","","","","","","","","","","","","","","","","","","","","",""
"6116","","survey-likert","45","270738","0.0-42.1-0.1","A2JC5V4UKJ2CEC","","","","{""Q0"":"""",""Q1"":0,""Q2"":1}","","","","","","","","","","","","","","","","","","","","","","",""
"7535","","survey-text","46","278293","0.0-43.0-0.0","A2JC5V4UKJ2CEC","","","","{""Q0"":""rock""}","","","","","","","","","","","","","","","","","","","","","","",""
"9304","","survey-text","47","287600","0.0-44.0-0.0","A2JC5V4UKJ2CEC","","","","{""Q0"":""Nice one""}","","","","","","","","","","","","","","","","","","","","","","",""
"4698","","image-slider-response","48","292299","0.0-45.0","A2JC5V4UKJ2CEC","","","","","44","","","","","","","","","","","","","","","","","","","","","",""
"1821","","image-button-response","49","297318","0.0-46.0","A2JC5V4UKJ2CEC","img_art/17.jpg","4","","","","","","","","","","","","","","","","","","","","","","","","",""
"3409","","image-button-response","50","300730","0.0-47.0","A2JC5V4UKJ2CEC","img_art/17.jpg","0","","","","","","","","","","","","","","","","","","","","","","","","",""
"974","","image-button-response","51","301708","0.0-48.0-0.0","A2JC5V4UKJ2CEC","img_art/17.jpg","3","","","","","","","","","","","","","","","","","","","","","","","","",""
"916","","image-button-response","52","302627","0.0-49.0-0.0","A2JC5V4UKJ2CEC","img_art/17.jpg","1","","","","","","","","","","","","","","","","","","","","","","","","",""
"null","","html-keyboard-response","53","303628","0.0-50.0","A2JC5V4UKJ2CEC","<p style=""font-size: 48px;"">+</p>","","","","","null","allTrialResponses","1000","1","1","img_art/17.jpg","44","Nice one","Monica,Kelsey,Leslie,Emily,Cassidy,Kaylee","The colors remind me of a sunset and give a bittersweet feeling. It looks unfinished but not terrible.,6,360,20","this ones alright,10,240,20","This makes me feel trapped.,5,380,20","There is better structure and direction in this one.,19,40,20","cool. Sharp and blocky below, light and flowing on top. Overall pleasing to look at,32,140,20","colorful tree really cool,27,200,20","Monica","The colors remind me of a sunset and give a bittersweet feeling. It looks unfinished but not terrible.,6,360,20","Emily","There is better structure and direction in this one.,19,40,20","Kelsey","this ones alright,10,240,20","3"
"7402","","survey-text","54","311037","0.0-51.0-0.0","A2JC5V4UKJ2CEC","","","","{""Q0"":""well one""}","","","","","","","","","","","","","","","","","","","","","","",""
"6014","","image-slider-response","55","317052","0.0-52.0","A2JC5V4UKJ2CEC","","","","","41","","","","","","","","","","","","","","","","","","","","","",""
"null","","image-button-response","56","322054","0.0-53.0","A2JC5V4UKJ2CEC","img_art/2.jpg","null","","","","","","","","","","","","","","","","","","","","","","","","",""
"5642","","image-button-response","57","327698","0.0-54.0","A2JC5V4UKJ2CEC","img_art/2.jpg","0","","","","","","","","","","","","","","","","","","","","","","","","",""
"1523","","image-button-response","58","329223","0.0-55.0-0.0","A2JC5V4UKJ2CEC","img_art/2.jpg","3","","","","","","","","","","","","","","","","","","","","","","","","",""
"937","","image-button-response","59","330162","0.0-56.0-0.0","A2JC5V4UKJ2CEC","img_art/2.jpg","4","","","","","","","","","","","","","","","","","","","","","","","","",""
"null","","html-keyboard-response","60","331164","0.0-57.0","A2JC5V4UKJ2CEC","<p style=""font-size: 48px;"">+</p>","","","","","null","allTrialResponses","1000","1","2","img_art/2.jpg","41","well one","Monica,Kelsey,Hailey,Emily,Sabrina,Olivia","I like the blue color in the center but that's it, the green is a gross color,-3,360,20","i dont like it, no thank you,-28,240,20","ugly green color and makes me sick,-29,200,20","Random colors and shapes mashed together. Nothing artistic, but better than some of the other ones.,-37,40,20","I dont like the expression of this,-19,120,20","i liked the bright colors,13,40,20","Monica","I like the blue color in the center but that's it, the green is a gross color,-3,360,20","Emily","Random colors and shapes mashed together. Nothing artistic, but better than some of the other ones.,-37,40,20","Sabrina","I dont like the expression of this,-19,120,20","3"
"9250","","survey-text","61","340420","0.0-58.0-0.0","A2JC5V4UKJ2CEC","","","","{""Q0"":""Nice one""}","","","","","","","","","","","","","","","","","","","","","","",""
"5211","","image-slider-response","62","345632","0.0-59.0","A2JC5V4UKJ2CEC","","","","","43","","","","","","","","","","","","","","","","","","","","","",""
"4677","","image-button-response","63","350636","0.0-60.0","A2JC5V4UKJ2CEC","img_art/3.jpg","3","","","","","","","","","","","","","","","","","","","","","","","","",""
"574","","image-button-response","64","351213","0.0-61.0","A2JC5V4UKJ2CEC","img_art/3.jpg","0","","","","","","","","","","","","","","","","","","","","","","","","",""
"1543","","image-button-response","65","352763","0.0-62.0-0.0","A2JC5V4UKJ2CEC","img_art/3.jpg","2","","","","","","","","","","","","","","","","","","","","","","","","",""
"607","","image-button-response","66","353374","0.0-63.0-0.0","A2JC5V4UKJ2CEC","img_art/3.jpg","1","","","","","","","","","","","","","","","","","","","","","","","","",""
"null","","html-keyboard-response","67","353879","0.0-64.0","A2JC5V4UKJ2CEC","<p style=""font-size: 48px;"">+</p>","","","","","null","allTrialResponses","500","1","3","img_art/3.jpg","43","Nice one","Monica,Melissa,Victoria,Emily,Sabrina,Diana","It looks like random scribbles by a child and not appealing,-38,360,20","strong color, interesting negative shapes,21,240,20","makes me think of anger,-33,400,20","Looks like someone mentalyl unstable drew and is ready to go a a killing spree.,-50,40,20","I dont really feel anything from this, i cant see or understand any of it,-20,120,20","I didn't feel the color choice when I first looked. I did however like the placement of the gray.,-28,380,20","Monica","It looks like random scribbles by a child and not appealing,-38,360,20","Victoria","makes me think of anger,-33,400,20","Melissa","strong color, interesting negative shapes,21,240,20","3"
"10638","","survey-text","68","364521","0.0-65.0-0.0","A2JC5V4UKJ2CEC","","","","{""Q0"":""Nice one""}","","","","","","","","","","","","","","","","","","","","","","",""
"3479","","image-slider-response","69","368002","0.0-66.0","A2JC5V4UKJ2CEC","","","","","40","","","","","","","","","","","","","","","","","","","","","",""
"3811","","image-button-response","70","373007","0.0-67.0","A2JC5V4UKJ2CEC","img_art/10.jpg","0","","","","","","","","","","","","","","","","","","","","","","","","",""
"1400","","image-button-response","71","374410","0.0-68.0","A2JC5V4UKJ2CEC","img_art/10.jpg","1","","","","","","","","","","","","","","","","","","","","","","","","",""
"1252","","image-button-response","72","375667","0.0-69.0-0.0","A2JC5V4UKJ2CEC","img_art/10.jpg","4","","","","","","","","","","","","","","","","","","","","","","","","",""
"793","","image-button-response","73","376462","0.0-70.0-0.0","A2JC5V4UKJ2CEC","img_art/10.jpg","2","","","","","","","","","","","","","","","","","","","","","","","","",""
"null","","html-keyboard-response","74","377469","0.0-71.0","A2JC5V4UKJ2CEC","<p style=""font-size: 48px;"">+</p>","","","","","null","allTrialResponses","1000","1","4","img_art/10.jpg","40","Nice one","Monica,Melissa,Victoria,Breanna,Miranda,Kimberly","It doesn't look pleasing to the eye, it kind of looks like an animal but a dirty one,-38,360,20","shapes are appealing/relationship between the beige square and the black lines,24,240,20","absolutely beautiful piece of art,49,400,20","Makes me feel amazed,23,380,20","It reminds me of how my dog has to run all over the place just to poop in one specific location.,-20,320,20","Also too all over the place, I don't see any pattern or anything that's supposed to stand out,-19,260,20","Melissa","shapes are appealing/relationship between the beige square and the black lines,24,240,20","Miranda","It reminds me of how my dog has to run all over the place just to poop in one specific location.,-20,320,20","Victoria","absolutely beautiful piece of art,49,400,20","3"
"37423","","survey-text","75","414897","0.0-72.0-0.0","A2JC5V4UKJ2CEC","","","","{""Q0"":""Nice one""}","","","","","","","","","","","","","","","","","","","","","","",""
"23567","","image-slider-response","76","438466","0.0-73.0","A2JC5V4UKJ2CEC","","","","","28","","","","","","","","","","","","","","","","","","","","","",""
"4998","","image-button-response","77","443469","0.0-74.0","A2JC5V4UKJ2CEC","img_art/18.jpg","2","","","","","","","","","","","","","","","","","","","","","","","","",""
"1247","","image-button-response","78","444716","0.0-75.0","A2JC5V4UKJ2CEC","img_art/18.jpg","4","","","","","","","","","","","","","","","","","","","","","","","","",""
"1250","","image-button-response","79","445967","0.0-76.0-0.0","A2JC5V4UKJ2CEC","img_art/18.jpg","3","","","","","","","","","","","","","","","","","","","","","","","","",""
"968","","image-button-response","80","446937","0.0-77.0-0.0","A2JC5V4UKJ2CEC","img_art/18.jpg","5","","","","","","","","","","","","","","","","","","","","","","","","",""
"null","","html-keyboard-response","81","448441","0.0-78.0","A2JC5V4UKJ2CEC","<p style=""font-size: 48px;"">+</p>","","","","","null","allTrialResponses","1500","1","5","img_art/18.jpg","28","Nice one","Alexa,Melissa,Victoria,Angelica,Miranda,Dominique","Very wild and abstract. I love it and would definitely hang this up in my home,50,40,20","creamy color, feels like organized chaos,23,240,20","Makes me think of stormy oceans,20,400,20","It looks grotesque and violent.,-50,280,20","This one raises some questions, there could be some sort of fight or battle going on.,11,320,20","Very conversational and can see many different looks and feels from this .,34,400,20","Miranda","This one raises some questions, there could be some sort of fight or battle going on.,11,320,20","Angelica","It looks grotesque and violent.,-50,280,20","Dominique","Very conversational and can see many different looks and feels from this .,34,400,20","3"
"15894","","survey-text","82","464350","0.0-79.0-0.0","A2JC5V4UKJ2CEC","","","","{""Q0"":""sky""}","","","","","","","","","","","","","","","","","","","","","","",""
"4594","","survey-text","83","468945","0.0-80.0-0.0","A2JC5V4UKJ2CEC","","","","{""Q0"":""Nice one""}","","","","","","","","","","","","","","","","","","","","","","",""
"3769","","image-slider-response","84","472716","0.0-81.0","A2JC5V4UKJ2CEC","","","","","32","","","","","","","","","","","","","","","","","","","","","",""
"3087","","image-button-response","85","477719","0.0-82.0","A2JC5V4UKJ2CEC","img_art/11.jpg","1","","","","","","","","","","","","","","","","","","","","","","","","",""
"1586","","image-button-response","86","479307","0.0-83.0","A2JC5V4UKJ2CEC","img_art/11.jpg","2","","","","","","","","","","","","","","","","","","","","","","","","",""
"1507","","image-button-response","87","480816","0.0-84.0-0.0","A2JC5V4UKJ2CEC","img_art/11.jpg","3","","","","","","","","","","","","","","","","","","","","","","","","",""
"981","","image-button-response","88","481798","0.0-85.0-0.0","A2JC5V4UKJ2CEC","img_art/11.jpg","4","","","","","","","","","","","","","","","","","","","","","","","","",""
"null","","html-keyboard-response","89","482299","0.0-86.0","A2JC5V4UKJ2CEC","<p style=""font-size: 48px;"">+</p>","","","","","null","allTrialResponses","500","1","6","img_art/11.jpg","32","Nice one","Amber,Meghan,Jordan,Angelica,Miranda,Dominique","Look like it's in constant movement.,10,200,20","makes me feel dizzy,-37,220,20","Oh, I love this one, it says to me that life is very busy,50,20,20","This is very unappealing.,-11,280,20","This one is a little erie, gives me post-apocalyptic feeling,27,320,20","Looks like a familiar area,31,400,20","Jordan","Oh, I love this one, it says to me that life is very busy,50,20,20","Angelica","This is very unappealing.,-11,280,20","Miranda","This one is a little erie, gives me post-apocalyptic feeling,27,320,20","3"
"26441","","survey-text","90","508748","0.0-87.0-0.0","A2JC5V4UKJ2CEC","","","","{""Q0"":""wok to one""}","","","","","","","","","","","","","","","","","","","","","","",""
"4260","","image-slider-response","91","513010","0.0-88.0","A2JC5V4UKJ2CEC","","","","","37","","","","","","","","","","","","","","","","","","","","","",""
"null","","image-button-response","92","518012","0.0-89.0","A2JC5V4UKJ2CEC","img_art/4.jpg","null","","","","","","","","","","","","","","","","","","","","","","","","",""
"239","","image-button-response","93","518253","0.0-90.0","A2JC5V4UKJ2CEC","img_art/4.jpg","2","","","","","","","","","","","","","","","","","","","","","","","","",""
"1593","","image-button-response","94","519848","0.0-91.0-0.0","A2JC5V4UKJ2CEC","img_art/4.jpg","1","","","","","","","","","","","","","","","","","","","","","","","","",""
"1650","","image-button-response","95","521500","0.0-92.0-0.0","A2JC5V4UKJ2CEC","img_art/4.jpg","3","","","","","","","","","","","","","","","","","","","","","","","","",""
"null","","html-keyboard-response","96","522002","0.0-93.0","A2JC5V4UKJ2CEC","<p style=""font-size: 48px;"">+</p>","","","","","null","allTrialResponses","500","1","7","img_art/4.jpg","37","wok to one","Jacqueline,Leah,Jordan,Angelica,Miranda,Alicia","It looks like smeared poop.,-27,300,20","To me just looking at paint scrawls,-41,360,20","The colors remind me of mcdonalds,-33,20,20","This is ugly in color and in terms of the shape on it.,-32,280,20","I just don't understand this one at all, I do not like it,-43,320,20","ordinary, bland. unmoving.,-6,120,20","Jordan","The colors remind me of mcdonalds,-33,20,20","Leah","To me just looking at paint scrawls,-41,360,20","Angelica","This is ugly in color and in terms of the shape on it.,-32,280,20","3"
"4806","","survey-text","97","526817","0.0-94.0-0.0","A2JC5V4UKJ2CEC","","","","{""Q0"":""Nice one""}","","","","","","","","","","","","","","","","","","","","","","",""
"2049","","image-slider-response","98","528868","0.0-95.0","A2JC5V4UKJ2CEC","","","","","23","","","","","","","","","","","","","","","","","","","","","",""
"3077","","image-button-response","99","533871","0.0-96.0","A2JC5V4UKJ2CEC","img_art/21.jpg","3","","","","","","","","","","","","","","","","","","","","","","","","",""
"414","","image-button-response","100","534287","0.0-97.0","A2JC5V4UKJ2CEC","img_art/21.jpg","1","","","","","","","","","","","","","","","","","","","","","","","","",""
"619","","image-button-response","101","534906","0.0-98.0-0.0","A2JC5V4UKJ2CEC","img_art/21.jpg","0","","","","","","","","","","","","","","","","","","","","","","","","",""
"1692","","image-button-response","102","536598","0.0-99.0-0.0","A2JC5V4UKJ2CEC","img_art/21.jpg","1","","","","","","","","","","","","","","","","","","","","","","","","",""
"1230","","image-button-response","103","543029","0.0-99.1-0.1","A2JC5V4UKJ2CEC","img_art/21.jpg","2","","","","","","","","","","","","","","","","","","","","","","","","",""
"null","","html-keyboard-response","104","544031","0.0-100.0","A2JC5V4UKJ2CEC","<p style=""font-size: 48px;"">+</p>","","","","","null","allTrialResponses","1000","1","8","img_art/21.jpg","23","Nice one","Margaret,Leah,Jordan,Angelica,Angela,Sydney","i like the colors and the blending,17,100,20","Love the colors, uplifting and stormy at the same time,32,360,20","Okay, I love the color schemes, I can't quite figure it out though,14,20,20","It looks epic and is nice to look at in terms of colors/style.,23,280,20","I feel like I'm looking at two different paintings mashed together in the middle.,20,260,20","I love everything about this piece.,50,320,20","Leah","Love the colors, uplifting and stormy at the same time,32,360,20","Margaret","i like the colors and the blending,17,100,20","Jordan","Okay, I love the color schemes, I can't quite figure it out though,14,20,20","5"
"3609","","survey-text","105","547646","0.0-101.0-0.0","A2JC5V4UKJ2CEC","","","","{""Q0"":""Nice one""}","","","","","","","","","","","","","","","","","","","","","","",""
"4748","","image-slider-response","106","552396","0.0-102.0","A2JC5V4UKJ2CEC","","","","","18","","","","","","","","","","","","","","","","","","","","","",""
"4270","","image-button-response","107","557397","0.0-103.0","A2JC5V4UKJ2CEC","img_art/7.jpg","2","","","","","","","","","","","","","","","","","","","","","","","","",""
"1207","","image-button-response","108","558606","0.0-104.0","A2JC5V4UKJ2CEC","img_art/7.jpg","5","","","","","","","","","","","","","","","","","","","","","","","","",""
"929","","image-button-response","109","559537","0.0-105.0-0.0","A2JC5V4UKJ2CEC","img_art/7.jpg","4","","","","","","","","","","","","","","","","","","","","","","","","",""
"3178","","image-button-response","110","562717","0.0-106.0-0.0","A2JC5V4UKJ2CEC","img_art/7.jpg","3","","","","","","","","","","","","","","","","","","","","","","","","",""
"null","","html-keyboard-response","111","564220","0.0-107.0","A2JC5V4UKJ2CEC","<p style=""font-size: 48px;"">+</p>","","","","","null","allTrialResponses","1500","1","9","img_art/7.jpg","18","Nice one","Margaret,Leah,Jordan,Jamie,Danielle,Anna","looks like a close up of irritated skin under a microscope,-49,100,20","I love it, it looks like a landscape photograph in desert or rocky mountain,50,360,20","looks like the surface of the moon.,1,20,20","Looks like a battle raging on,20,320,20","I don't like this kind of color scheme or look they went for,-50,340,20","It's kind of ugly but I like the texture.,10,300,20","Anna","It's kind of ugly but I like the texture.,10,300,20","Danielle","I don't like this kind of color scheme or look they went for,-50,340,20","Jamie","Looks like a battle raging on,20,320,20","5"
"14063","","survey-text","112","578297","0.0-108.0-0.0","A2JC5V4UKJ2CEC","","","","{""Q0"":""well one""}","","","","","","","","","","","","","","","","","","","","","","",""
"5287","","image-slider-response","113","583586","0.0-109.0","A2JC5V4UKJ2CEC","","","","","29","","","","","","","","","","","","","","","","","","","","","",""
"4927","","image-button-response","114","588589","0.0-110.0","A2JC5V4UKJ2CEC","img_art/1.jpg","3","","","","","","","","","","","","","","","","","","","","","","","","",""
"945","","image-button-response","115","589536","0.0-111.0","A2JC5V4UKJ2CEC","img_art/1.jpg","5","","","","","","","","","","","","","","","","","","","","","","","","",""
"1449","","image-button-response","116","590986","0.0-112.0-0.0","A2JC5V4UKJ2CEC","img_art/1.jpg","1","","","","","","","","","","","","","","","","","","","","","","","","",""
"658","","image-button-response","117","591647","0.0-113.0-0.0","A2JC5V4UKJ2CEC","img_art/1.jpg","0","","","","","","","","","","","","","","","","","","","","","","","","",""
"null","","html-keyboard-response","118","592148","0.0-114.0","A2JC5V4UKJ2CEC","<p style=""font-size: 48px;"">+</p>","","","","","null","allTrialResponses","500","1","10","img_art/1.jpg","29","well one","Alexis,Kylie,Courtney,Jamie,Danielle,Anna","Taco Bell wallpaper. Doesn't really make me feel anything,3,100,20","I don't know how I feel about this,1,300,20","I cant make anything of this one.,-7,280,20","Looks like just a bunch of colors with no real point,-5,320,20","Not a fan of the mood, overly party-ish and bright colors do not suit my taste,-40,340,20","The colors are nice but that's all it is,21,300,20","Anna","The colors are nice but that's all it is,21,300,20","Kylie","I don't know how I feel about this,1,300,20","Alexis","Taco Bell wallpaper. Doesn't really make me feel anything,3,100,20","5"
"5095","","survey-text","119","597265","0.0-115.0-0.0","A2JC5V4UKJ2CEC","","","","{""Q0"":""our""}","","","","","","","","","","","","","","","","","","","","","","",""
"4444","","survey-text","120","601711","0.0-116.0-0.0","A2JC5V4UKJ2CEC","","","","{""Q0"":""Nice one""}","","","","","","","","","","","","","","","","","","","","","","",""
"3787","","image-slider-response","121","605500","0.0-117.0","A2JC5V4UKJ2CEC","","","","","31","","","","","","","","","","","","","","","","","","","","","",""
"4895","","image-button-response","122","610503","0.0-118.0","A2JC5V4UKJ2CEC","img_art/5.jpg","5","","","","","","","","","","","","","","","","","","","","","","","","",""
"567","","image-button-response","123","611072","0.0-119.0","A2JC5V4UKJ2CEC","img_art/5.jpg","2","","","","","","","","","","","","","","","","","","","","","","","","",""
"964","","image-button-response","124","612037","0.0-120.0-0.0","A2JC5V4UKJ2CEC","img_art/5.jpg","0","","","","","","","","","","","","","","","","","","","","","","","","",""
"767","","image-button-response","125","612807","0.0-121.0-0.0","A2JC5V4UKJ2CEC","img_art/5.jpg","1","","","","","","","","","","","","","","","","","","","","","","","","",""
"null","","html-keyboard-response","126","614308","0.0-122.0","A2JC5V4UKJ2CEC","<p style=""font-size: 48px;"">+</p>","","","","","null","allTrialResponses","1500","1","11","img_art/5.jpg","31","Nice one","Alexis,Kylie,Morgan,Shelby,Kaitlyn,Anna","Kindergarten art. I really don't like this style.,-50,100,20","It reminds me of a piece of lemon candy, which is one of my favorite flavors,20,300,20","Dull pyramid that says nothing.,7,380,20","This feels joyful,39,240,20","Wish the background had been kept clean; distracts from main object,11,80,20","It's kind of boring.,-20,300,20","Morgan","Dull pyramid that says nothing.,7,380,20","Alexis","Kindergarten art. I really don't like this style.,-50,100,20","Kylie","It reminds me of a piece of lemon candy, which is one of my favorite flavors,20,300,20","5"
"9679","","survey-text","127","623992","0.0-123.0-0.0","A2JC5V4UKJ2CEC","","","","{""Q0"":""Well one""}","","","","","","","","","","","","","","","","","","","","","","",""
"4574","","image-slider-response","128","628567","0.0-124.0","A2JC5V4UKJ2CEC","","","","","28","","","","","","","","","","","","","","","","","","","","","",""
"null","","image-button-response","129","633570","0.0-125.0","A2JC5V4UKJ2CEC","img_art/19.jpg","null","","","","","","","","","","","","","","","","","","","","","","","","",""
"1306","","image-button-response","130","634878","0.0-126.0","A2JC5V4UKJ2CEC","img_art/19.jpg","0","","","","","","","","","","","","","","","","","","","","","","","","",""
"664","","image-button-response","131","635546","0.0-127.0-0.0","A2JC5V4UKJ2CEC","img_art/19.jpg","1","","","","","","","","","","","","","","","","","","","","","","","","",""
"466","","image-button-response","132","636013","0.0-128.0-0.0","A2JC5V4UKJ2CEC","img_art/19.jpg","2","","","","","","","","","","","","","","","","","","","","","","","","",""
"null","","html-keyboard-response","133","636514","0.0-129.0","A2JC5V4UKJ2CEC","<p style=""font-size: 48px;"">+</p>","","","","","null","allTrialResponses","500","1","12","img_art/19.jpg","28","Well one","Alexis,Kylie,Morgan,Stephanie,Brianna,Elizabeth","Not a fan of the blobbiness,-22,100,20","Reminds me of a quaint little town I once visited in Italy,50,300,20","Messy pantry full of food.,5,380,20","A dreary town in the fall.,-4,300,20","I don't know what's going on, and I realise that I don't like it,-21,20,20","Like the painting strokes,39,20,20","Alexis","Not a fan of the blobbiness,-22,100,20","Kylie","Reminds me of a quaint little town I once visited in Italy,50,300,20","Morgan","Messy pantry full of food.,5,380,20","5"
"8876","","survey-text","134","645396","0.0-130.0-0.0","A2JC5V4UKJ2CEC","","","","{""Q0"":""Good one""}","","","","","","","","","","","","","","","","","","","","","","",""
"3637","","image-slider-response","135","649037","0.0-131.0","A2JC5V4UKJ2CEC","","","","","33","","","","","","","","","","","","","","","","","","","","","",""
"null","","image-button-response","136","654041","0.0-132.0","A2JC5V4UKJ2CEC","img_art/9.jpg","null","","","","","","","","","","","","","","","","","","","","","","","","",""
"1465","","image-button-response","137","655508","0.0-133.0","A2JC5V4UKJ2CEC","img_art/9.jpg","1","","","","","","","","","","","","","","","","","","","","","","","","",""
"1057","","image-button-response","138","656567","0.0-134.0-0.0","A2JC5V4UKJ2CEC","img_art/9.jpg","3","","","","","","","","","","","","","","","","","","","","","","","","",""
"707","","image-button-response","139","657277","0.0-135.0-0.0","A2JC5V4UKJ2CEC","img_art/9.jpg","4","","","","","","","","","","","","","","","","","","","","","","","","",""
"null","","html-keyboard-response","140","658778","0.0-136.0","A2JC5V4UKJ2CEC","<p style=""font-size: 48px;"">+</p>","","","","","null","allTrialResponses","1500","1","13","img_art/9.jpg","33","Good one","Alexis,Kylie,Morgan,Cynthia,Amanda,Sierra","I like the sense of forboding, the green creates a claustrophobic feeling,10,100,20","Peaceful dreaming,40,300,20","The mouth of an ugly beast.,-25,380,20","curious and unsure,12,320,20","Makes me feel angry, its not very clear,-50,180,20","it looks like a lady resting. it is soothing.,4,260,20","Kylie","Peaceful dreaming,40,300,20","Cynthia","curious and unsure,12,320,20","Amanda","Makes me feel angry, its not very clear,-50,180,20","5"
"9554","","survey-text","141","668338","0.0-137.0-0.0","A2JC5V4UKJ2CEC","","","","{""Q0"":""""}","","","","","","","","","","","","","","","","","","","","","","",""
"10901","","survey-text","142","699089","0.0-137.1-0.1","A2JC5V4UKJ2CEC","","","","{""Q0"":""Good one""}","","","","","","","","","","","","","","","","","","","","","","",""
"28247","","image-slider-response","143","727338","0.0-138.0","A2JC5V4UKJ2CEC","","","","","38","","","","","","","","","","","","","","","","","","","","","",""
"3761","","image-button-response","144","732340","0.0-139.0","A2JC5V4UKJ2CEC","img_art/24.jpg","4","","","","","","","","","","","","","","","","","","","","","","","","",""
"499","","image-button-response","145","732842","0.0-140.0","A2JC5V4UKJ2CEC","img_art/24.jpg","0","","","","","","","","","","","","","","","","","","","","","","","","",""
"4234","","image-button-response","146","737077","0.0-141.0-0.0","A2JC5V4UKJ2CEC","img_art/24.jpg","3","","","","","","","","","","","","","","","","","","","","","","","","",""
"561","","image-button-response","147","737640","0.0-142.0-0.0","A2JC5V4UKJ2CEC","img_art/24.jpg","4","","","","","","","","","","","","","","","","","","","","","","","","",""
"null","","html-keyboard-response","148","738141","0.0-143.0","A2JC5V4UKJ2CEC","<p style=""font-size: 48px;"">+</p>","","","","","null","allTrialResponses","500","1","14","img_art/24.jpg","38","Good one","Kaitlin,Kylie,Erika,Cynthia,Amanda,Catherine","Aww. I love the peace brought by this picture.,40,60,20","Forest waterfall,40,300,20","Very nice textures and subject,38,100,20","Interested in visiting this place,18,320,20","Beautiful,  peaceful,50,180,20","Nature, Peace, connected.,50,160,20","Kaitlin","Aww. I love the peace brought by this picture.,40,60,20","Cynthia","Interested in visiting this place,18,320,20","Amanda","Beautiful,  peaceful,50,180,20","5"
"12618","","survey-text","149","750771","0.0-144.0-0.0","A2JC5V4UKJ2CEC","","","","{""Q0"":""Nice one""}","","","","","","","","","","","","","","","","","","","","","","",""
"4076","","image-slider-response","150","754848","0.0-145.0","A2JC5V4UKJ2CEC","","","","","20","","","","","","","","","","","","","","","","","","","","","",""
"4829","","image-button-response","151","759850","0.0-146.0","A2JC5V4UKJ2CEC","img_art/20.jpg","3","","","","","","","","","","","","","","","","","","","","","","","","",""
"976","","image-button-response","152","760827","0.0-147.0","A2JC5V4UKJ2CEC","img_art/20.jpg","1","","","","","","","","","","","","","","","","","","","","","","","","",""
"412","","image-button-response","153","761240","0.0-148.0-0.0","A2JC5V4UKJ2CEC","img_art/20.jpg","0","","","","","","","","","","","","","","","","","","","","","","","","",""
"781","","image-button-response","154","762023","0.0-149.0-0.0","A2JC5V4UKJ2CEC","img_art/20.jpg","2","","","","","","","","","","","","","","","","","","","","","","","","",""
"null","","html-keyboard-response","155","762525","0.0-150.0","A2JC5V4UKJ2CEC","<p style=""font-size: 48px;"">+</p>","","","","","null","allTrialResponses","500","1","15","img_art/20.jpg","20","Nice one","Kaitlin,Michelle,Crystal,Cynthia,Amanda,Destiny","i can feel the intensity in this,11,60,20","Reminds me of Dali for some reason, whom I don't like,-7,280,20","The pulling and sagging nature is very beautiful.,30,300,20","Curious about what lies here,10,320,20","Too negative looks like a car and plane crash,-50,180,20","truck? train? dead cow? plane?,10,360,20","Michelle","Reminds me of Dali for some reason, whom I don't like,-7,280,20","Kaitlin","i can feel the intensity in this,11,60,20","Crystal","The pulling and sagging nature is very beautiful.,30,300,20","5"
"7805","","survey-text","156","770341","0.0-151.0-0.0","A2JC5V4UKJ2CEC","","","","{""Q0"":""course""}","","","","","","","","","","","","","","","","","","","","","","",""
"4265","","survey-text","157","774608","0.0-152.0-0.0","A2JC5V4UKJ2CEC","","","","{""Q0"":""Nice one""}","","","","","","","","","","","","","","","","","","","","","","",""
"3607","","image-slider-response","158","778217","0.0-153.0","A2JC5V4UKJ2CEC","","","","","12","","","","","","","","","","","","","","","","","","","","","",""
"null","","image-button-response","159","783219","0.0-154.0","A2JC5V4UKJ2CEC","img_art/29.jpg","null","","","","","","","","","","","","","","","","","","","","","","","","",""
"857","","image-button-response","160","784078","0.0-155.0","A2JC5V4UKJ2CEC","img_art/29.jpg","1","","","","","","","","","","","","","","","","","","","","","","","","",""
"620","","image-button-response","161","784700","0.0-156.0-0.0","A2JC5V4UKJ2CEC","img_art/29.jpg","0","","","","","","","","","","","","","","","","","","","","","","","","",""
"1201","","image-button-response","162","785901","0.0-157.0-0.0","A2JC5V4UKJ2CEC","img_art/29.jpg","2","","","","","","","","","","","","","","","","","","","","","","","","",""
"null","","html-keyboard-response","163","787404","0.0-158.0","A2JC5V4UKJ2CEC","<p style=""font-size: 48px;"">+</p>","","","","","null","allTrialResponses","1500","1","16","img_art/29.jpg","12","Nice one","Kaitlin,Michelle,Crystal,Gabriela,Heather,Caroline","seems fun, looks like a battle zone,22,60,20","The texture really stands out, this is an interesting composition,6,280,20","Reminiscent of Jackson Pollock with a hint of abstract structure with the bordering.,32,300,20","I like that it looks like a scene from perhaps a failed painted project,10,140,20","i dont know how it makes me feel.,1,260,20","Depressing and with that big red x on it just makes me not like it.,-33,100,20","Michelle","The texture really stands out, this is an interesting composition,6,280,20","Kaitlin","seems fun, looks like a battle zone,22,60,20","Crystal","Reminiscent of Jackson Pollock with a hint of abstract structure with the bordering.,32,300,20","5"
"5281","","survey-text","164","792694","0.0-159.0-0.0","A2JC5V4UKJ2CEC","","","","{""Q0"":""Nice one""}","","","","","","","","","","","","","","","","","","","","","","",""
"6965","","image-slider-response","165","799661","0.0-160.0","A2JC5V4UKJ2CEC","","","","","31","","","","","","","","","","","","","","","","","","","","","",""
"null","","image-button-response","166","804664","0.0-161.0","A2JC5V4UKJ2CEC","img_art/6.jpg","null","","","","","","","","","","","","","","","","","","","","","","","","",""
"9135","","image-button-response","167","813801","0.0-162.0","A2JC5V4UKJ2CEC","img_art/6.jpg","4","","","","","","","","","","","","","","","","","","","","","","","","",""
"518","","image-button-response","168","814320","0.0-163.0-0.0","A2JC5V4UKJ2CEC","img_art/6.jpg","5","","","","","","","","","","","","","","","","","","","","","","","","",""
"4617","","image-button-response","169","818940","0.0-164.0-0.0","A2JC5V4UKJ2CEC","img_art/6.jpg","0","","","","","","","","","","","","","","","","","","","","","","","","",""
"null","","html-keyboard-response","170","820479","0.0-165.0","A2JC5V4UKJ2CEC","<p style=""font-size: 48px;"">+</p>","","","","","null","allTrialResponses","1500","1","17","img_art/6.jpg","31","Nice one","Kaitlin,Michelle,Crystal,Jenna,Brittany,Sophia","This one also confuses me a bit.,-19,60,20","Definitely belongs at a doctor's office, I think it's a crow or a tree?,-3,280,20","Gives me a feeling of solitude and nothingness,11,300,20","I like the bottom half, but not the top,-7,360,20","It's alright. I imagined the peach from James and the Giant Peach.,1,40,20","It's okay. It kind of looks like a bird with his head buried in his feathers.,2,280,20","Brittany","It's alright. I imagined the peach from James and the Giant Peach.,1,40,20","Sophia","It's okay. It kind of looks like a bird with his head buried in his feathers.,2,280,20","Kaitlin","This one also confuses me a bit.,-19,60,20","5"
"4867","","survey-text","171","825360","0.0-166.0-0.0","A2JC5V4UKJ2CEC","","","","{""Q0"":""Nice one""}","","","","","","","","","","","","","","","","","","","","","","",""
"6558","","image-slider-response","172","831920","0.0-167.0","A2JC5V4UKJ2CEC","","","","","30","","","","","","","","","","","","","","","","","","","","","",""
"null","","image-button-response","173","836921","0.0-168.0","A2JC5V4UKJ2CEC","img_art/27.jpg","null","","","","","","","","","","","","","","","","","","","","","","","","",""
"1738","","image-button-response","174","838660","0.0-169.0","A2JC5V4UKJ2CEC","img_art/27.jpg","1","","","","","","","","","","","","","","","","","","","","","","","","",""
"767","","image-button-response","175","839430","0.0-170.0-0.0","A2JC5V4UKJ2CEC","img_art/27.jpg","0","","","","","","","","","","","","","","","","","","","","","","","","",""
"657","","image-button-response","176","840090","0.0-171.0-0.0","A2JC5V4UKJ2CEC","img_art/27.jpg","1","","","","","","","","","","","","","","","","","","","","","","","","",""
"598","","image-button-response","177","845050","0.0-171.1-0.1","A2JC5V4UKJ2CEC","img_art/27.jpg","4","","","","","","","","","","","","","","","","","","","","","","","","",""
"null","","html-keyboard-response","178","845552","0.0-172.0","A2JC5V4UKJ2CEC","<p style=""font-size: 48px;"">+</p>","","","","","null","allTrialResponses","500","1","18","img_art/27.jpg","30","Nice one","Kaitlin,Mariah,Mackenzie,Alexandra,Brittany,Sophia","this reminds me of simpler time,31,60,20","The green lines disrupt the image in an unpleasant and hurried way.,-30,140,20","The color palette isn't my taste,-24,20,20","This is ugly and looks like a child did this,-36,60,20","The colors are put together in an interesting way.,-9,40,20","Yikes. I think I made this in kindergarten.,-20,280,20","Mariah","The green lines disrupt the image in an unpleasant and hurried way.,-30,140,20","Kaitlin","this reminds me of simpler time,31,60,20","Brittany","The colors are put together in an interesting way.,-9,40,20","7"
"8214","","survey-text","179","853771","0.0-173.0-0.0","A2JC5V4UKJ2CEC","","","","{""Q0"":""Well one""}","","","","","","","","","","","","","","","","","","","","","","",""
"4579","","image-slider-response","180","858352","0.0-174.0","A2JC5V4UKJ2CEC","","","","","32","","","","","","","","","","","","","","","","","","","","","",""
"null","","image-button-response","181","863355","0.0-175.0","A2JC5V4UKJ2CEC","img_art/8.jpg","null","","","","","","","","","","","","","","","","","","","","","","","","",""
"4942","","image-button-response","182","868302","0.0-176.0","A2JC5V4UKJ2CEC","img_art/8.jpg","4","","","","","","","","","","","","","","","","","","","","","","","","",""
"1027","","image-button-response","183","869331","0.0-177.0-0.0","A2JC5V4UKJ2CEC","img_art/8.jpg","0","","","","","","","","","","","","","","","","","","","","","","","","",""
"819","","image-button-response","184","870152","0.0-178.0-0.0","A2JC5V4UKJ2CEC","img_art/8.jpg","2","","","","","","","","","","","","","","","","","","","","","","","","",""
"null","","html-keyboard-response","185","870654","0.0-179.0","A2JC5V4UKJ2CEC","<p style=""font-size: 48px;"">+</p>","","","","","null","allTrialResponses","500","1","19","img_art/8.jpg","32","Well one","Kaitlin,Mariah,Shannon,Kathryn,Brittany,Mikayla","wow - the colors were very well mixed,12,60,20","Clean and stark. The colors are pleasant.,15,140,20","I like that it looks like a city and the way the shapes and colors are put together,40,220,20","The angle makes it kind of disorienting but I enjoy the fantastical colors and imagery. It's like a dream.,10,140,20","Interesting to look at, there are many things happening in the painting.,32,40,20","Its kinda like an optical illusion.,22,300,20","Brittany","Interesting to look at, there are many things happening in the painting.,32,40,20","Kaitlin","wow - the colors were very well mixed,12,60,20","Shannon","I like that it looks like a city and the way the shapes and colors are put together,40,220,20","7"
"4044","","survey-text","186","874702","0.0-180.0-0.0","A2JC5V4UKJ2CEC","","","","{""Q0"":""Nice one""}","","","","","","","","","","","","","","","","","","","","","","",""
"4887","","image-slider-response","187","879590","0.0-181.0","A2JC5V4UKJ2CEC","","","","","34","","","","","","","","","","","","","","","","","","","","","",""
"null","","image-button-response","188","884593","0.0-182.0","A2JC5V4UKJ2CEC","img_art/16.jpg","null","","","","","","","","","","","","","","","","","","","","","","","","",""
"23709","","image-button-response","189","908304","0.0-183.0","A2JC5V4UKJ2CEC","img_art/16.jpg","3","","","","","","","","","","","","","","","","","","","","","","","","",""
"615","","image-button-response","190","908921","0.0-184.0-0.0","A2JC5V4UKJ2CEC","img_art/16.jpg","4","","","","","","","","","","","","","","","","","","","","","","","","",""
"1168","","image-button-response","191","910091","0.0-185.0-0.0","A2JC5V4UKJ2CEC","img_art/16.jpg","5","","","","","","","","","","","","","","","","","","","","","","","","",""
"null","","html-keyboard-response","192","910592","0.0-186.0","A2JC5V4UKJ2CEC","<p style=""font-size: 48px;"">+</p>","","","","","null","allTrialResponses","500","1","20","img_art/16.jpg","34","Nice one","Kaitlin,Lauren,Shannon,Savannah,Brittany,Andrea","The teddy bear looks really scared,-30,60,20","The colored teddy bear clashes with the color scheme.,-20,340,20","I think this picture is weird and the colors are very boring.,-50,220,20","A strange collage made by a child. Do not like the colored face of the bear.,-29,200,20","Kind of dull, colors and drawings are not really interesting.,0,40,20","I think it's about child abuse. The teddy bear represents innocence and the dark shape is approaching it.,40,240,20","Savannah","A strange collage made by a child. Do not like the colored face of the bear.,-29,200,20","Brittany","Kind of dull, colors and drawings are not really interesting.,0,40,20","Andrea","I think it's about child abuse. The teddy bear represents innocence and the dark shape is approaching it.,40,240,20","7"
"22111","","survey-text","193","932721","0.0-187.0-0.0","A2JC5V4UKJ2CEC","","","","{""Q0"":""we""}","","","","","","","","","","","","","","","","","","","","","","",""
"80848","","survey-text","194","1013572","0.0-188.0-0.0","A2JC5V4UKJ2CEC","","","","{""Q0"":""Nice one""}","","","","","","","","","","","","","","","","","","","","","","",""
"4109","","image-slider-response","195","1017681","0.0-189.0","A2JC5V4UKJ2CEC","","","","","7","","","","","","","","","","","","","","","","","","","","","",""
"null","","image-button-response","196","1022684","0.0-190.0","A2JC5V4UKJ2CEC","img_art/14.jpg","null","","","","","","","","","","","","","","","","","","","","","","","","",""
"1579","","image-button-response","197","1024264","0.0-191.0","A2JC5V4UKJ2CEC","img_art/14.jpg","0","","","","","","","","","","","","","","","","","","","","","","","","",""
"696","","image-button-response","198","1024962","0.0-192.0-0.0","A2JC5V4UKJ2CEC","img_art/14.jpg","1","","","","","","","","","","","","","","","","","","","","","","","","",""
"857","","image-button-response","199","1025821","0.0-193.0-0.0","A2JC5V4UKJ2CEC","img_art/14.jpg","2","","","","","","","","","","","","","","","","","","","","","","","","",""
"null","","html-keyboard-response","200","1026823","0.0-194.0","A2JC5V4UKJ2CEC","<p style=""font-size: 48px;"">+</p>","","","","","null","allTrialResponses","1000","1","21","img_art/14.jpg","7","Nice one","Chelsea,Autumn,Christina,Savannah,Brittany,Andrea","The colors are pleasing.,29,180,20","It's too basic.,23,340,20","has a tree look to it and it's colors are happy,9,240,20","Again. This is pretty neutral, leaning dislike.,-18,200,20","The colors are good and the design is intriguing.,15,40,20","Cute little plant.,15,240,20","Chelsea","The colors are pleasing.,29,180,20","Autumn","It's too basic.,23,340,20","Christina","has a tree look to it and it's colors are happy,9,240,20","7"
"6909","","survey-text","201","1033740","0.0-195.0-0.0","A2JC5V4UKJ2CEC","","","","{""Q0"":""Nice one""}","","","","","","","","","","","","","","","","","","","","","","",""
"4969","","image-slider-response","202","1038711","0.0-196.0","A2JC5V4UKJ2CEC","","","","","16","","","","","","","","","","","","","","","","","","","","","",""
"null","","image-button-response","203","1043713","0.0-197.0","A2JC5V4UKJ2CEC","img_art/30.jpg","null","","","","","","","","","","","","","","","","","","","","","","","","",""
"78502","","image-button-response","204","1122216","0.0-198.0","A2JC5V4UKJ2CEC","img_art/30.jpg","1","","","","","","","","","","","","","","","","","","","","","","","","",""
"1054","","image-button-response","205","1123270","0.0-199.0-0.0","A2JC5V4UKJ2CEC","img_art/30.jpg","2","","","","","","","","","","","","","","","","","","","","","","","","",""
"1359","","image-button-response","206","1124631","0.0-200.0-0.0","A2JC5V4UKJ2CEC","img_art/30.jpg","4","","","","","","","","","","","","","","","","","","","","","","","","",""
"null","","html-keyboard-response","207","1125633","0.0-201.0","A2JC5V4UKJ2CEC","<p style=""font-size: 48px;"">+</p>","","","","","null","allTrialResponses","1000","1","22","img_art/30.jpg","16","Nice one","Chelsea,Autumn,Christina,Amy,Emma,Madison","It looks like it was painted in 5 minutes.,-32,180,20","Absolutely messy,-31,340,20","it looks like some thing I could make it my garage,-18,240,20","Too much abstraction for me, leaving my focus mainly on color. I like the texture.,-20,220,20","Like the design, not a big fan of the colors,20,60,20","Interesting brushstroke work, but not particularly memorable.,21,60,20","Autumn","Absolutely messy,-31,340,20","Christina","it looks like some thing I could make it my garage,-18,240,20","Emma","Like the design, not a big fan of the colors,20,60,20","7"
"9221","","survey-text","208","1134860","0.0-202.0-0.0","A2JC5V4UKJ2CEC","","","","{""Q0"":""Nice one""}","","","","","","","","","","","","","","","","","","","","","","",""
"4267","","image-slider-response","209","1139128","0.0-203.0","A2JC5V4UKJ2CEC","","","","","31","","","","","","","","","","","","","","","","","","","","","",""
"null","","image-button-response","210","1144128","0.0-204.0","A2JC5V4UKJ2CEC","img_art/13.jpg","null","","","","","","","","","","","","","","","","","","","","","","","","",""
"89851","","image-button-response","211","1233980","0.0-205.0","A2JC5V4UKJ2CEC","img_art/13.jpg","4","","","","","","","","","","","","","","","","","","","","","","","","",""
"680","","image-button-response","212","1234661","0.0-206.0-0.0","A2JC5V4UKJ2CEC","img_art/13.jpg","5","","","","","","","","","","","","","","","","","","","","","","","","",""
"1548","","image-button-response","213","1236212","0.0-207.0-0.0","A2JC5V4UKJ2CEC","img_art/13.jpg","2","","","","","","","","","","","","","","","","","","","","","","","","",""
"null","","html-keyboard-response","214","1236714","0.0-208.0","A2JC5V4UKJ2CEC","<p style=""font-size: 48px;"">+</p>","","","","","null","allTrialResponses","500","1","23","img_art/13.jpg","31","Nice one","Brooke,Autumn,Christina,Chloe,Emma,Erin","Like the use of color, not a fan of the splatter,29,60,20","Nice color abstractions.,21,340,20","i like the colors but it looks like something that would hang in a hotel,18,240,20","Industrial Jackson Pollock knock-off,-20,220,20","It's pretty ...........,41,60,20","Color palette is complementary,40,120,20","Emma","It's pretty ...........,41,60,20","Erin","Color palette is complementary,40,120,20","Christina","i like the colors but it looks like something that would hang in a hotel,18,240,20","7"
"10633","","survey-text","215","1247352","0.0-209.0-0.0","A2JC5V4UKJ2CEC","","","","{""Q0"":""hello well""}","","","","","","","","","","","","","","","","","","","","","","",""
"5551","","image-slider-response","216","1252903","0.0-210.0","A2JC5V4UKJ2CEC","","","","","11","","","","","","","","","","","","","","","","","","","","","",""
"null","","image-button-response","217","1257906","0.0-211.0","A2JC5V4UKJ2CEC","img_art/23.jpg","null","","","","","","","","","","","","","","","","","","","","","","","","",""
"15121","","image-button-response","218","1273030","0.0-212.0","A2JC5V4UKJ2CEC","img_art/23.jpg","4","","","","","","","","","","","","","","","","","","","","","","","","",""
"658","","image-button-response","219","1273692","0.0-213.0-0.0","A2JC5V4UKJ2CEC","img_art/23.jpg","5","","","","","","","","","","","","","","","","","","","","","","","","",""
"673","","image-button-response","220","1274366","0.0-214.0-0.0","A2JC5V4UKJ2CEC","img_art/23.jpg","3","","","","","","","","","","","","","","","","","","","","","","","","",""
"null","","html-keyboard-response","221","1274867","0.0-215.0","A2JC5V4UKJ2CEC","<p style=""font-size: 48px;"">+</p>","","","","","null","allTrialResponses","500","1","24","img_art/23.jpg","11","hello well","Isabella,Abigail,Christina,Julia,Emma,Erin","Love the line in the middle separating the two dark sides,50,280,20","I like the contrast,29,20,20","nice bright colors but looks like it's from the 90's,6,240,20","this looks like a pop rock album cover,-10,40,20","Love the use of colors and light,50,60,20","Confetti dancer,-7,120,20","Emma","Love the use of colors and light,50,60,20","Erin","Confetti dancer,-7,120,20","Julia","this looks like a pop rock album cover,-10,40,20","7"
"4649","","survey-text","222","1279520","0.0-216.0-0.0","A2JC5V4UKJ2CEC","","","","{""Q0"":""Nice one""}","","","","","","","","","","","","","","","","","","","","","","",""
"7528","","image-slider-response","223","1287051","0.0-217.0","A2JC5V4UKJ2CEC","","","","","24","","","","","","","","","","","","","","","","","","","","","",""
"null","","image-button-response","224","1292053","0.0-218.0","A2JC5V4UKJ2CEC","img_art/28.jpg","null","","","","","","","","","","","","","","","","","","","","","","","","",""
"41846","","image-button-response","225","1333901","0.0-219.0","A2JC5V4UKJ2CEC","img_art/28.jpg","3","","","","","","","","","","","","","","","","","","","","","","","","",""
"630","","image-button-response","226","1334531","0.0-220.0-0.0","A2JC5V4UKJ2CEC","img_art/28.jpg","4","","","","","","","","","","","","","","","","","","","","","","","","",""
"908","","image-button-response","227","1335441","0.0-221.0-0.0","A2JC5V4UKJ2CEC","img_art/28.jpg","5","","","","","","","","","","","","","","","","","","","","","","","","",""
"null","","html-keyboard-response","228","1336943","0.0-222.0","A2JC5V4UKJ2CEC","<p style=""font-size: 48px;"">+</p>","","","","","null","allTrialResponses","1500","1","25","img_art/28.jpg","24","Nice one","Katie,Michaela,Claire,Julia,Emma,Erin","Like the muted pink colors. However, the mood is sad because of the blurriness,22,160,20","Salvador Dali called and he thinks this looks pretty good,27,260,20","not a fan of the colors or strokes used,-27,260,20","the people kind of scare me in this one,-15,40,20","Don't love the colors,-10,60,20","Dislike color palette and amoeba,-9,120,20","Julia","the people kind of scare me in this one,-15,40,20","Emma","Don't love the colors,-10,60,20","Erin","Dislike color palette and amoeba,-9,120,20","7"
"10584","","survey-text","229","1347539","0.0-223.0-0.0","A2JC5V4UKJ2CEC","","","","{""Q0"":""table""}","","","","","","","","","","","","","","","","","","","","","","",""
"10086","","survey-text","230","1357630","0.0-224.0-0.0","A2JC5V4UKJ2CEC","","","","{""Q0"":""Nice one""}","","","","","","","","","","","","","","","","","","","","","","",""
"5509","","image-slider-response","231","1363141","0.0-225.0","A2JC5V4UKJ2CEC","","","","","15","","","","","","","","","","","","","","","","","","","","","",""
"null","","image-button-response","232","1368143","0.0-226.0","A2JC5V4UKJ2CEC","img_art/15.jpg","null","","","","","","","","","","","","","","","","","","","","","","","","",""
"5637","","image-button-response","233","1373781","0.0-227.0","A2JC5V4UKJ2CEC","img_art/15.jpg","4","","","","","","","","","","","","","","","","","","","","","","","","",""
"547","","image-button-response","234","1374330","0.0-228.0-0.0","A2JC5V4UKJ2CEC","img_art/15.jpg","5","","","","","","","","","","","","","","","","","","","","","","","","",""
"1022","","image-button-response","235","1375355","0.0-229.0-0.0","A2JC5V4UKJ2CEC","img_art/15.jpg","3","","","","","","","","","","","","","","","","","","","","","","","","",""
"null","","html-keyboard-response","236","1375855","0.0-230.0","A2JC5V4UKJ2CEC","<p style=""font-size: 48px;"">+</p>","","","","","null","allTrialResponses","500","1","26","img_art/15.jpg","15","Nice one","Cheyenne,Rachel,Kelly,Julia,Emma,Erin","I like how the black and blue clash.,14,200,20","Reminds me of blue birds in a tree at night. I love nature.,40,80,20","I can't really make out what this is supposed to be.,-8,220,20","This is simply too ""old-school"",-27,40,20","Don't love it but it's cute,16,60,20","Neat to explore meaning, blue is interesting,11,120,20","Emma","Don't love it but it's cute,16,60,20","Erin","Neat to explore meaning, blue is interesting,11,120,20","Julia","This is simply too ""old-school"",-27,40,20","7"
"5919","","survey-text","237","1381780","0.0-231.0-0.0","A2JC5V4UKJ2CEC","","","","{""Q0"":""Nice one""}","","","","","","","","","","","","","","","","","","","","","","",""
"7490","","image-slider-response","238","1389271","0.0-232.0","A2JC5V4UKJ2CEC","","","","","15","","","","","","","","","","","","","","","","","","","","","",""
"null","","image-button-response","239","1394272","0.0-233.0","A2JC5V4UKJ2CEC","img_art/25.jpg","null","","","","","","","","","","","","","","","","","","","","","","","","",""
"24796","","image-button-response","240","1419070","0.0-234.0","A2JC5V4UKJ2CEC","img_art/25.jpg","4","","","","","","","","","","","","","","","","","","","","","","","","",""
"1038","","image-button-response","241","1420110","0.0-235.0-0.0","A2JC5V4UKJ2CEC","img_art/25.jpg","5","","","","","","","","","","","","","","","","","","","","","","","","",""
"908","","image-button-response","242","1421020","0.0-236.0-0.0","A2JC5V4UKJ2CEC","img_art/25.jpg","3","","","","","","","","","","","","","","","","","","","","","","","","",""
"null","","html-keyboard-response","243","1422570","0.0-237.0","A2JC5V4UKJ2CEC","<p style=""font-size: 48px;"">+</p>","","","","","null","allTrialResponses","1500","1","27","img_art/25.jpg","15","Nice one","Nicole,Erica,Kristen,Julia,Emma,Erin","This painting is cool but it gives off an evil vibe,-10,20,20","reminds me of a demon,-25,80,20","reminds me of the grim reaper,3,280,20","the color is pleasing and draws out the contrast of the lines,10,40,20","Like the colors and the figure,30,60,20","Looks like glow in the dark halloween decoration,-38,120,20","Emma","Like the colors and the figure,30,60,20","Erin","Looks like glow in the dark halloween decoration,-38,120,20","Julia","the color is pleasing and draws out the contrast of the lines,10,40,20","7"
"5365","","survey-text","244","1427940","0.0-238.0-0.0","A2JC5V4UKJ2CEC","","","","{""Q0"":""Nice one""}","","","","","","","","","","","","","","","","","","","","","","",""
"5837","","image-slider-response","245","1433780","0.0-239.0","A2JC5V4UKJ2CEC","","","","","28","","","","","","","","","","","","","","","","","","","","","",""
"null","","image-button-response","246","1438782","0.0-240.0","A2JC5V4UKJ2CEC","img_art/12.jpg","null","","","","","","","","","","","","","","","","","","","","","","","","",""
"41799","","image-button-response","247","1480581","0.0-241.0","A2JC5V4UKJ2CEC","img_art/12.jpg","4","","","","","","","","","","","","","","","","","","","","","","","","",""
"696","","image-button-response","248","1481281","0.0-242.0-0.0","A2JC5V4UKJ2CEC","img_art/12.jpg","3","","","","","","","","","","","","","","","","","","","","","","","","",""
"1020","","image-button-response","249","1482301","0.0-243.0-0.0","A2JC5V4UKJ2CEC","img_art/12.jpg","5","","","","","","","","","","","","","","","","","","","","","","","","",""
"null","","html-keyboard-response","250","1482803","0.0-244.0","A2JC5V4UKJ2CEC","<p style=""font-size: 48px;"">+</p>","","","","","null","allTrialResponses","500","1","28","img_art/12.jpg","28","Nice one","Marissa,Jennifer,Allison,Julia,Emma,Erin","It reminds me of the documentary Paris is Burning, though I'm not sure why,11,160,20","This piece doesn't provoke any kind of reaction,0,380,20","Minimalist colors and shapes.,-5,140,20","this is pretty, but I wouldn't hang it on my wall.,15,40,20","Pretty but not a huge fan of the colors,20,60,20","City scape but palette is odd,4,120,20","Emma","Pretty but not a huge fan of the colors,20,60,20","Julia","this is pretty, but I wouldn't hang it on my wall.,15,40,20","Erin","City scape but palette is odd,4,120,20","7"
"4353","","survey-text","251","1487163","0.0-245.0-0.0","A2JC5V4UKJ2CEC","","","","{""Q0"":""Nice one""}","","","","","","","","","","","","","","","","","","","","","","",""
"140248","","image-slider-response","252","1627410","0.0-246.0","A2JC5V4UKJ2CEC","","","","","31","","","","","","","","","","","","","","","","","","","","","",""
"null","","image-button-response","253","1632411","0.0-247.0","A2JC5V4UKJ2CEC","img_art/22.jpg","null","","","","","","","","","","","","","","","","","","","","","","","","",""
"14907","","image-button-response","254","1647320","0.0-248.0","A2JC5V4UKJ2CEC","img_art/22.jpg","4","","","","","","","","","","","","","","","","","","","","","","","","",""
"578","","image-button-response","255","1647900","0.0-249.0-0.0","A2JC5V4UKJ2CEC","img_art/22.jpg","5","","","","","","","","","","","","","","","","","","","","","","","","",""
"1029","","image-button-response","256","1648933","0.0-250.0-0.0","A2JC5V4UKJ2CEC","img_art/22.jpg","3","","","","","","","","","","","","","","","","","","","","","","","","",""
"null","","html-keyboard-response","257","1649439","0.0-251.0","A2JC5V4UKJ2CEC","<p style=""font-size: 48px;"">+</p>","","","","","null","allTrialResponses","500","1","29","img_art/22.jpg","31","Nice one","Rebecca,Sara,Madeline,Julia,Emma,Erin","colorful water (in front of castle?),17,100,20","Looks like a warm sunset to me i like it,42,160,20","I really like the colors here,3,40,20","this is too generic,-27,40,20","Love the use of color,50,60,20","Seems dated with geometic forms,-20,120,20","Emma","Love the use of color,50,60,20","Erin","Seems dated with geometic forms,-20,120,20","Julia","this is too generic,-27,40,20","7"
"5956","","survey-text","258","1655399","0.0-252.0-0.0","A2JC5V4UKJ2CEC","","","","{""Q0"":""Nice one""}","","","","","","","","","","","","","","","","","","","","","","",""
"4612","","image-slider-response","259","1660013","0.0-253.0","A2JC5V4UKJ2CEC","","","","","15","","","","","","","","","","","","","","","","","","","","","",""
"null","","image-button-response","260","1665013","0.0-254.0","A2JC5V4UKJ2CEC","img_art/26.jpg","null","","","","","","","","","","","","","","","","","","","","","","","","",""
"26082","","image-button-response","261","1691097","0.0-255.0","A2JC5V4UKJ2CEC","img_art/26.jpg","4","","","","","","","","","","","","","","","","","","","","","","","","",""
"731","","image-button-response","262","1691829","0.0-256.0-0.0","A2JC5V4UKJ2CEC","img_art/26.jpg","5","","","","","","","","","","","","","","","","","","","","","","","","",""
"849","","image-button-response","263","1692680","0.0-257.0-0.0","A2JC5V4UKJ2CEC","img_art/26.jpg","3","","","","","","","","","","","","","","","","","","","","","","","","",""
"null","","html-keyboard-response","264","1693682","0.0-258.0","A2JC5V4UKJ2CEC","<p style=""font-size: 48px;"">+</p>","","","","","null","allTrialResponses","1000","1","30","img_art/26.jpg","15","Nice one","Haley,Hannah,Maria,Julia,Emma,Erin","It feels almost unfinished, but I like the color palette,9,220,20","This is boring.,-15,240,20","fairly neutral, really,8,120,20","I'm not really into landscapes unless I have a personal connection to them,-21,40,20","Looks unfinished,-31,60,20","City scene in a park,23,120,20","Emma","Looks unfinished,-31,60,20","Erin","City scene in a park,23,120,20","Julia","I'm not really into landscapes unless I have a personal connection to them,-21,40,20","7"
"3390","","image-button-response_instructions","265","1697078","0.0-259.0","A2JC5V4UKJ2CEC","","0","instructions","","","","","","","","","","","","","","","","","","","","","","","",""
"2934","","image-button-response","266","1700018","0.0-260.0","A2JC5V4UKJ2CEC","","0","","","","","","","","","","","","","","","","","","","","","","","","",""
