"rt","url","trial_type","trial_index","time_elapsed","internal_node_id","participant_id","stimulus","button_pressed","Name","responses","response","key_press","variableName","fixationTime","condition","trial","photo","subjectRating","subjectResponse","agentsNames","agent_1_Response","agent_2_Response","agent_3_Response","agent_4_Response","agent_5_Response","agent_6_Response","kept_1_name","kept_1_response","kept_2_name","kept_2_response","kept_3_name","kept_3_response","errorCounter"
"77743","external_page_harvard.html","external-html","0","77995","0.0-0.0","A2JMEQ3KQFQCRM","","","","","","","","","","","","","","","","","","","","","","","","","","",""
"1518","","image-button-response","1","79516","0.0-1.0","A2JMEQ3KQFQCRM","","1","","","","","","","","","","","","","","","","","","","","","","","","",""
"1228","","image-button-response","2","80750","0.0-2.0-0.0","A2JMEQ3KQFQCRM","","1","phone","","","","","","","","","","","","","","","","","","","","","","","",""
"7052","","survey-text","3","87805","0.0-3.0-0.0","A2JMEQ3KQFQCRM","","","","{""Q0"":""A2JMEQ3KQFQCRM""}","","","","","","","","","","","","","","","","","","","","","","",""
"2597","","image-button-response_instructions","4","90405","0.0-4.0","A2JMEQ3KQFQCRM","","0","instructions","","","","","","","","","","","","","","","","","","","","","","","",""
"5358","","image-button-response_instructions","5","95766","0.0-5.0","A2JMEQ3KQFQCRM","img_art/ins/popularity/ins1.png","0","instructions","","","","","","","","","","","","","","","","","","","","","","","",""
"2796","","image-button-response_instructions","6","98564","0.0-6.0","A2JMEQ3KQFQCRM","img_art/ins/popularity/ins2.png","0","instructions","","","","","","","","","","","","","","","","","","","","","","","",""
"4263","","image-button-response_instructions","7","102828","0.0-7.0","A2JMEQ3KQFQCRM","img_art/ins/popularity/ins2Extreme.png","0","instructions","","","","","","","","","","","","","","","","","","","","","","","",""
"3825","","image-button-response_instructions","8","106654","0.0-8.0","A2JMEQ3KQFQCRM","img_art/ins/popularity/ins3KEEPpop.PNG","0","instructions","","","","","","","","","","","","","","","","","","","","","","","",""
"1520","","image-button-response_instructions","9","108175","0.0-9.0","A2JMEQ3KQFQCRM","img_art/ins/popularity/ins3ANamepop.PNG","0","instructions","","","","","","","","","","","","","","","","","","","","","","","",""
"1739","","image-button-response_instructions","10","109916","0.0-10.0","A2JMEQ3KQFQCRM","img_art/ins/popularity/ins3ARatingpop.png","0","instructions","","","","","","","","","","","","","","","","","","","","","","","",""
"1088","","image-button-response_instructions","11","111006","0.0-11.0","A2JMEQ3KQFQCRM","img_art/ins/popularity/ins3ATextpop.png","0","instructions","","","","","","","","","","","","","","","","","","","","","","","",""
"2880","","image-button-response_instructions","12","113888","0.0-12.0","A2JMEQ3KQFQCRM","img_art/ins/popularity/ins3ALikespop.png","0","instructions","","","","","","","","","","","","","","","","","","","","","","","",""
"2833","","image-button-response_instructions","13","116722","0.0-13.0","A2JMEQ3KQFQCRM","img_art/ins/popularity/ins3KEEPpop.PNG","0","instructions","","","","","","","","","","","","","","","","","","","","","","","",""
"2298","","image-button-response_instructions","14","119022","0.0-14.0","A2JMEQ3KQFQCRM","img_art/ins/popularity/ins3_5RED.png","0","instructions","","","","","","","","","","","","","","","","","","","","","","","",""
"1646","","image-button-response_instructions","15","120670","0.0-15.0","A2JMEQ3KQFQCRM","img_art/ins/popularity/ins3KEEPpop.PNG","0","instructions","","","","","","","","","","","","","","","","","","","","","","","",""
"6541","","image-button-response_instructions","16","127211","0.0-16.0","A2JMEQ3KQFQCRM","img_art/ins/popularity/ins4KEEPpop.PNG","0","instructions","","","","","","","","","","","","","","","","","","","","","","","",""
"2919","","image-button-response_instructions","17","130132","0.0-17.0","A2JMEQ3KQFQCRM","img_art/ins/popularity/ins5KEEPpop.PNG","0","instructions","","","","","","","","","","","","","","","","","","","","","","","",""
"1783","","image-button-response_instructions","18","131916","0.0-18.0","A2JMEQ3KQFQCRM","","0","instructions","","","","","","","","","","","","","","","","","","","","","","","",""
"4597","","survey-text","19","136569","0.0-19.0-0.0","A2JMEQ3KQFQCRM","","","","{""Q0"":""but""}","","","","","","","","","","","","","","","","","","","","","","",""
"13227","","survey-text","20","149800","0.0-20.0-0.0","A2JMEQ3KQFQCRM","","","","{""Q0"":""Hopeful for spring""}","","","","","","","","","","","","","","","","","","","","","","",""
"2735.900000035763","","image-slider-response","21","152540","0.0-21.0","A2JMEQ3KQFQCRM","","","","","25","","","","","","","","","","","","","","","","","","","","","",""
"null","","image-button-response","22","157548","0.0-22.0","A2JMEQ3KQFQCRM","img_art/ins/1.jpg","null","","","","","","","","","","","","","","","","","","","","","","","","",""
"5823","","image-button-response","23","163375","0.0-23.0","A2JMEQ3KQFQCRM","img_art/ins/1.jpg","5","","","","","","","","","","","","","","","","","","","","","","","","",""
"4439","","image-button-response","24","167818","0.0-24.0-0.0","A2JMEQ3KQFQCRM","img_art/ins/1.jpg","0","","","","","","","","","","","","","","","","","","","","","","","","",""
"2410","","image-button-response","25","170232","0.0-25.0-0.0","A2JMEQ3KQFQCRM","img_art/ins/1.jpg","4","","","","","","","","","","","","","","","","","","","","","","","","",""
"null","","html-keyboard-response","26","171240","0.0-26.0","A2JMEQ3KQFQCRM","<p style=""font-size: 48px;"">+</p>","","","","","null","allTrialResponses","1000","1","-2","img_art/ins/1.jpg","25","Hopeful for spring","Allison,Ashley,Beth,Dora,Erika,Jen","looks like a lot of things going on in the mist,20,20,20","I just don't get why these type of art would be popular,-32,40,20","This color reminds me of poo,-46,60,20","looks like what my niece in 3rd grade did this afternoon,-50,80,20","I like the sophisticated brushwork,40,100,20","It reminds me of a candy land dream I had,36,120,20","Jen","It reminds me of a candy land dream I had,36,120,20","Allison","looks like a lot of things going on in the mist,20,20,20","Erika","I like the sophisticated brushwork,40,100,20","0"
"26730","","survey-text","27","197975","0.0-27.0-0.0","A2JMEQ3KQFQCRM","","","","{""Q0"":""I like the dark colors and bold brush strokes--it's passionate and strong.""}","","","","","","","","","","","","","","","","","","","","","","",""
"2111.800000011921","","image-slider-response","28","200090","0.0-28.0","A2JMEQ3KQFQCRM","","","","","22","","","","","","","","","","","","","","","","","","","","","",""
"4930","","image-button-response","29","205096","0.0-29.0","A2JMEQ3KQFQCRM","img_art/ins/2.jpg","4","","","","","","","","","","","","","","","","","","","","","","","","",""
"1064","","image-button-response","30","206164","0.0-30.0","A2JMEQ3KQFQCRM","img_art/ins/2.jpg","5","","","","","","","","","","","","","","","","","","","","","","","","",""
"1408","","image-button-response","31","207575","0.0-31.0-0.0","A2JMEQ3KQFQCRM","img_art/ins/2.jpg","1","","","","","","","","","","","","","","","","","","","","","","","","",""
"2938","","image-button-response","32","210516","0.0-32.0-0.0","A2JMEQ3KQFQCRM","img_art/ins/2.jpg","4","","","","","","","","","","","","","","","","","","","","","","","","",""
"null","","html-keyboard-response","33","212024","0.0-33.0","A2JMEQ3KQFQCRM","<p style=""font-size: 48px;"">+</p>","","","","","null","allTrialResponses","1500","1","-1","img_art/ins/2.jpg","22","I like the dark colors and bold brush strokes--it's passionate and strong.","Allison,Kara,Katie,Jenna,Erika,Jen","I don't have strong feelings about this,10,20,20","I like the blocks of color arrangements,30,160,20","too much color!,-28,180,20","One of my pet peevs,-48,140,20","I would never be able to compose a sophisticated pallete like this,48,100,20","It reminds me of a fireplace,36,120,20","Jen","It reminds me of a fireplace,36,120,20","Kara","I like the blocks of color arrangements,30,160,20","Erika","I would never be able to compose a sophisticated pallete like this,48,100,20","0"
"48761","","survey-text","34","260790","0.0-34.0-0.0","A2JMEQ3KQFQCRM","","","","{""Q0"":""Evokes feelings of cold. I like the use of a single color in different hues and the variety of brush strokes. ""}","","","","","","","","","","","","","","","","","","","","","","",""
"4335.100000023842","","image-slider-response","35","265127","0.0-35.0","A2JMEQ3KQFQCRM","","","","","12","","","","","","","","","","","","","","","","","","","","","",""
"3839","","image-button-response","36","270134","0.0-36.0","A2JMEQ3KQFQCRM","img_art/ins/3.jpg","4","","","","","","","","","","","","","","","","","","","","","","","","",""
"1075","","image-button-response","37","271212","0.0-37.0","A2JMEQ3KQFQCRM","img_art/ins/3.jpg","1","","","","","","","","","","","","","","","","","","","","","","","","",""
"729","","image-button-response","38","271944","0.0-38.0-0.0","A2JMEQ3KQFQCRM","img_art/ins/3.jpg","0","","","","","","","","","","","","","","","","","","","","","","","","",""
"1094","","image-button-response","39","273042","0.0-39.0-0.0","A2JMEQ3KQFQCRM","img_art/ins/3.jpg","0","","","","","","","","","","","","","","","","","","","","","","","","",""
"2187","","image-button-response","40","279293","0.0-39.1-0.1","A2JMEQ3KQFQCRM","img_art/ins/3.jpg","5","","","","","","","","","","","","","","","","","","","","","","","","",""
"null","","html-keyboard-response","41","280300","0.0-40.0","A2JMEQ3KQFQCRM","<p style=""font-size: 48px;"">+</p>","","","","","null","allTrialResponses","1000","1","0","img_art/ins/3.jpg","12","Evokes feelings of cold. I like the use of a single color in different hues and the variety of brush strokes. ","Mary,Kara,Rose,Leslie,Erika,Jen","I like the overlapping of brushes,41,220,20","calming blue is very nice,36,160,20","My daily routine, it's depressing,-20,240,20","It's an alright work,15,200,20","I feel connected to the artist,40,100,20","I can feel a rainy day from this painting,18,120,20","Kara","calming blue is very nice,36,160,20","Mary","I like the overlapping of brushes,41,220,20","Jen","I can feel a rainy day from this painting,18,120,20","2"
"6347","","image-button-response_instructions","42","286653","0.0-41.0","A2JMEQ3KQFQCRM","","0","instructions","","","","","","","","","","","","","","","","","","","","","","","",""
"9315","","survey-likert","43","295970","0.0-42.0-0.0","A2JMEQ3KQFQCRM","","","","{""Q0"":"""",""Q1"":0,""Q2"":1}","","","","","","","","","","","","","","","","","","","","","","",""
"3725","","survey-text","44","299701","0.0-43.0-0.0","A2JMEQ3KQFQCRM","","","","{""Q0"":""rock""}","","","","","","","","","","","","","","","","","","","","","","",""
"31796","","survey-text","45","331499","0.0-44.0-0.0","A2JMEQ3KQFQCRM","","","","{""Q0"":""Ooh, I don't like this one--it's messy and hectic. It makes me feel anxious.""}","","","","","","","","","","","","","","","","","","","","","","",""
"3848.300000011921","","image-slider-response","46","335351","0.0-45.0","A2JMEQ3KQFQCRM","","","","","-46","","","","","","","","","","","","","","","","","","","","","",""
"null","","image-button-response","47","340385","0.0-46.0","A2JMEQ3KQFQCRM","img_art/29.jpg","null","","","","","","","","","","","","","","","","","","","","","","","","",""
"4601","","image-button-response","48","344989","0.0-47.0","A2JMEQ3KQFQCRM","img_art/29.jpg","5","","","","","","","","","","","","","","","","","","","","","","","","",""
"1240","","image-button-response","49","346231","0.0-48.0-0.0","A2JMEQ3KQFQCRM","img_art/29.jpg","0","","","","","","","","","","","","","","","","","","","","","","","","",""
"3618","","image-button-response","50","349852","0.0-49.0-0.0","A2JMEQ3KQFQCRM","img_art/29.jpg","2","","","","","","","","","","","","","","","","","","","","","","","","",""
"null","","html-keyboard-response","51","350363","0.0-50.0","A2JMEQ3KQFQCRM","<p style=""font-size: 48px;"">+</p>","","","","","null","allTrialResponses","500","1","1","img_art/29.jpg","-46","Ooh, I don't like this one--it's messy and hectic. It makes me feel anxious.","Mary,Julia,Courtney,Cassidy,Lauren,Melissa","I love the angry emotion to this art. I feel very drawn to it.,18,180,20","it looks like a top-down battle arena,26,40,20","Thats a pretty wierd picture.,6,280,20","I like the colors but it looks very amateur,1,140,20","Don't really like the red x. It gives the impression that this a discarded piece.,-10,340,20","abrasive and grotesque textures,-36,240,20","Melissa","abrasive and grotesque textures,-36,240,20","Mary","I love the angry emotion to this art. I feel very drawn to it.,18,180,20","Courtney","Thats a pretty wierd picture.,6,280,20","2"
"47598","","survey-text","52","397968","0.0-51.0-0.0","A2JMEQ3KQFQCRM","","","","{""Q0"":""It's almost whimsical but a little dark. Makes me feel like a kid again but in an alternate reality. ""}","","","","","","","","","","","","","","","","","","","","","","",""
"2950.099999964237","","image-slider-response","53","400921","0.0-52.0","A2JMEQ3KQFQCRM","","","","","7","","","","","","","","","","","","","","","","","","","","","",""
"4891","","image-button-response","54","405935","0.0-53.0","A2JMEQ3KQFQCRM","img_art/9.jpg","0","","","","","","","","","","","","","","","","","","","","","","","","",""
"1677","","image-button-response","55","407616","0.0-54.0","A2JMEQ3KQFQCRM","img_art/9.jpg","0","","","","","","","","","","","","","","","","","","","","","","","","",""
"4022","","image-button-response","56","411641","0.0-55.0-0.0","A2JMEQ3KQFQCRM","img_art/9.jpg","5","","","","","","","","","","","","","","","","","","","","","","","","",""
"2041","","image-button-response","57","413685","0.0-56.0-0.0","A2JMEQ3KQFQCRM","img_art/9.jpg","5","","","","","","","","","","","","","","","","","","","","","","","","",""
"822","","image-button-response","58","424585","0.0-56.1-0.1","A2JMEQ3KQFQCRM","img_art/9.jpg","4","","","","","","","","","","","","","","","","","","","","","","","","",""
"null","","html-keyboard-response","59","425094","0.0-57.0","A2JMEQ3KQFQCRM","<p style=""font-size: 48px;"">+</p>","","","","","null","allTrialResponses","500","1","2","img_art/9.jpg","7","It's almost whimsical but a little dark. Makes me feel like a kid again but in an alternate reality. ","Mary,Caitlin,Courtney,Mikayla,Stephanie,Melissa","How neat is this piece?  I love the angry expressive lines. Emotion is captured in it.,26,180,20","Caveman. Not for my walls.,-5,80,20","This is a picture of a scary mans head sideways.,-24,280,20","Looks like a crayon drawing.,21,300,20","Someone sleeping in a cave. Dont like the scribble look.,-30,300,20","strong focal point, appealing use of selective line,11,240,20","Mary","How neat is this piece?  I love the angry expressive lines. Emotion is captured in it.,26,180,20","Melissa","strong focal point, appealing use of selective line,11,240,20","Stephanie","Someone sleeping in a cave. Dont like the scribble look.,-30,300,20","4"
"16126","","survey-text","60","441225","0.0-58.0-0.0","A2JMEQ3KQFQCRM","","","","{""Q0"":""Looks like hotel art--fine, but really doesn't evoke any emotion.""}","","","","","","","","","","","","","","","","","","","","","","",""
"3623","","image-slider-response","61","444851","0.0-59.0","A2JMEQ3KQFQCRM","","","","","-13","","","","","","","","","","","","","","","","","","","","","",""
"3900","","image-button-response","62","449868","0.0-60.0","A2JMEQ3KQFQCRM","img_art/22.jpg","4","","","","","","","","","","","","","","","","","","","","","","","","",""
"3964","","image-button-response","63","453835","0.0-61.0","A2JMEQ3KQFQCRM","img_art/22.jpg","0","","","","","","","","","","","","","","","","","","","","","","","","",""
"2995","","image-button-response","64","456831","0.0-62.0-0.0","A2JMEQ3KQFQCRM","img_art/22.jpg","5","","","","","","","","","","","","","","","","","","","","","","","","",""
"1758","","image-button-response","65","458592","0.0-63.0-0.0","A2JMEQ3KQFQCRM","img_art/22.jpg","4","","","","","","","","","","","","","","","","","","","","","","","","",""
"null","","html-keyboard-response","66","459103","0.0-64.0","A2JMEQ3KQFQCRM","<p style=""font-size: 48px;"">+</p>","","","","","null","allTrialResponses","500","1","3","img_art/22.jpg","-13","Looks like hotel art--fine, but really doesn't evoke any emotion.","Mary,Kelsey,Katie,Sydney,Stephanie,Melissa","I do not like the color combo. This piece is too much the same throughout.,-1,180,20","its messy, like a child painted it,-14,240,20","Too much red. The red/yellow/orange make me think of heat/fire, which makes me anxious.,-10,160,20","I don't normally like bright colors, but I like them in this. Don't like the random black paint.,30,320,20","I don't get much of a reaction.,11,300,20","strong blending skills,7,240,20","Mary","I do not like the color combo. This piece is too much the same throughout.,-1,180,20","Melissa","strong blending skills,7,240,20","Stephanie","I don't get much of a reaction.,11,300,20","4"
"33449","","survey-text","67","492560","0.0-65.0-0.0","A2JMEQ3KQFQCRM","","","","{""Q0"":""I like the emotion in it--it's simple but I get a great feeling of connectedness ""}","","","","","","","","","","","","","","","","","","","","","","",""
"5575.399999976158","","image-slider-response","68","498140","0.0-66.0","A2JMEQ3KQFQCRM","","","","","44","","","","","","","","","","","","","","","","","","","","","",""
"null","","image-button-response","69","503157","0.0-67.0","A2JMEQ3KQFQCRM","img_art/4.jpg","null","","","","","","","","","","","","","","","","","","","","","","","","",""
"1057","","image-button-response","70","504217","0.0-68.0","A2JMEQ3KQFQCRM","img_art/4.jpg","5","","","","","","","","","","","","","","","","","","","","","","","","",""
"4578","","image-button-response","71","508797","0.0-69.0-0.0","A2JMEQ3KQFQCRM","img_art/4.jpg","3","","","","","","","","","","","","","","","","","","","","","","","","",""
"6190","","image-button-response","72","514991","0.0-70.0-0.0","A2JMEQ3KQFQCRM","img_art/4.jpg","2","","","","","","","","","","","","","","","","","","","","","","","","",""
"null","","html-keyboard-response","73","515500","0.0-71.0","A2JMEQ3KQFQCRM","<p style=""font-size: 48px;"">+</p>","","","","","null","allTrialResponses","500","1","4","img_art/4.jpg","44","I like the emotion in it--it's simple but I get a great feeling of connectedness ","Mary,Morgan,Breanna,Brittany,Stephanie,Melissa","This looks like a child got into his diaper.,-46,180,20","Pretzel noodles.,7,380,20","Looks like a hand, not very impressed,-22,380,20","Rather boring design and colors.,-21,40,20","It looks like a hand someone scribbled over,-30,300,20","appealing warm palette,6,240,20","Melissa","appealing warm palette,6,240,20","Brittany","Rather boring design and colors.,-21,40,20","Breanna","Looks like a hand, not very impressed,-22,380,20","4"
"43689","","survey-text","74","559192","0.0-72.0-0.0","A2JMEQ3KQFQCRM","","","","{""Q0"":""I love the color composition of this one--reminds me of an old timey spring. Makes me yearn for simpler times.""}","","","","","","","","","","","","","","","","","","","","","","",""
"1913.699999988079","","image-slider-response","75","561110","0.0-73.0","A2JMEQ3KQFQCRM","","","","","38","","","","","","","","","","","","","","","","","","","","","",""
"3559","","image-button-response","76","566131","0.0-74.0","A2JMEQ3KQFQCRM","img_art/14.jpg","3","","","","","","","","","","","","","","","","","","","","","","","","",""
"217","","image-button-response","77","566351","0.0-75.0","A2JMEQ3KQFQCRM","img_art/14.jpg","1","","","","","","","","","","","","","","","","","","","","","","","","",""
"1020","","image-button-response","78","567375","0.0-76.0-0.0","A2JMEQ3KQFQCRM","img_art/14.jpg","4","","","","","","","","","","","","","","","","","","","","","","","","",""
"997","","image-button-response","79","568375","0.0-77.0-0.0","A2JMEQ3KQFQCRM","img_art/14.jpg","3","","","","","","","","","","","","","","","","","","","","","","","","",""
"null","","html-keyboard-response","80","569878","0.0-78.0","A2JMEQ3KQFQCRM","<p style=""font-size: 48px;"">+</p>","","","","","null","allTrialResponses","1500","1","5","img_art/14.jpg","38","I love the color composition of this one--reminds me of an old timey spring. Makes me yearn for simpler times.","Erin,Caroline,Breanna,Brittany,Jasmine,Melissa","Looks childish and basic,-42,120,20","Makes me think of trees and spring. A good feeling,26,100,20","Makes me feel good,30,380,20","The colors are good and the design is intriguing.,15,40,20","The colors are nice and it reminds me of a shrub or tree,10,340,20","makes me feel sad,-2,240,20","Caroline","Makes me think of trees and spring. A good feeling,26,100,20","Jasmine","The colors are nice and it reminds me of a shrub or tree,10,340,20","Brittany","The colors are good and the design is intriguing.,15,40,20","4"
"3480","","survey-text","81","573364","0.0-79.0-0.0","A2JMEQ3KQFQCRM","","","","{""Q0"":""sky""}","","","","","","","","","","","","","","","","","","","","","","",""
"15740","","survey-text","82","589105","0.0-80.0-0.0","A2JMEQ3KQFQCRM","","","","{""Q0"":""Dark and foreboding--not my favorite.""}","","","","","","","","","","","","","","","","","","","","","","",""
"2466.900000035763","","image-slider-response","83","591575","0.0-81.0","A2JMEQ3KQFQCRM","","","","","-38","","","","","","","","","","","","","","","","","","","","","",""
"2126","","image-button-response","84","596599","0.0-82.0","A2JMEQ3KQFQCRM","img_art/20.jpg","4","","","","","","","","","","","","","","","","","","","","","","","","",""
"2110","","image-button-response","85","598712","0.0-83.0","A2JMEQ3KQFQCRM","img_art/20.jpg","1","","","","","","","","","","","","","","","","","","","","","","","","",""
"546","","image-button-response","86","599261","0.0-84.0-0.0","A2JMEQ3KQFQCRM","img_art/20.jpg","0","","","","","","","","","","","","","","","","","","","","","","","","",""
"997","","image-button-response","87","600262","0.0-85.0-0.0","A2JMEQ3KQFQCRM","img_art/20.jpg","4","","","","","","","","","","","","","","","","","","","","","","","","",""
"null","","html-keyboard-response","88","601768","0.0-86.0","A2JMEQ3KQFQCRM","<p style=""font-size: 48px;"">+</p>","","","","","null","allTrialResponses","1500","1","6","img_art/20.jpg","-38","Dark and foreboding--not my favorite.","Angelica,Caroline,Anna,Brittany,Jasmine,Savannah","It's too brash and loud and ugly.,-21,280,20","Makes me feel weary,21,100,20","I would like it more without the frame.,10,300,20","The colors and the scene depicted is interesting.,13,40,20","This one is okay but I don't really care for it,5,340,20","Lovely composition, colors, and message.,35,200,20","Caroline","Makes me feel weary,21,100,20","Angelica","It's too brash and loud and ugly.,-21,280,20","Jasmine","This one is okay but I don't really care for it,5,340,20","4"
"19448","","survey-text","89","621222","0.0-87.0-0.0","A2JMEQ3KQFQCRM","","","","{""Q0"":""Bleh, I hate this one--the colors, the texture, not for me.""}","","","","","","","","","","","","","","","","","","","","","","",""
"2338.600000023842","","image-slider-response","90","623564","0.0-88.0","A2JMEQ3KQFQCRM","","","","","-48","","","","","","","","","","","","","","","","","","","","","",""
"4149","","image-button-response","91","628571","0.0-89.0","A2JMEQ3KQFQCRM","img_art/12.jpg","4","","","","","","","","","","","","","","","","","","","","","","","","",""
"516","","image-button-response","92","629090","0.0-90.0","A2JMEQ3KQFQCRM","img_art/12.jpg","5","","","","","","","","","","","","","","","","","","","","","","","","",""
"818","","image-button-response","93","629912","0.0-91.0-0.0","A2JMEQ3KQFQCRM","img_art/12.jpg","4","","","","","","","","","","","","","","","","","","","","","","","","",""
"853","","image-button-response","94","630767","0.0-92.0-0.0","A2JMEQ3KQFQCRM","img_art/12.jpg","0","","","","","","","","","","","","","","","","","","","","","","","","",""
"null","","html-keyboard-response","95","631284","0.0-93.0","A2JMEQ3KQFQCRM","<p style=""font-size: 48px;"">+</p>","","","","","null","allTrialResponses","500","1","7","img_art/12.jpg","-48","Bleh, I hate this one--the colors, the texture, not for me.","Angelica,Caroline,Cynthia,Megan,Jasmine,Jordan","It's strange looking and unappealing.,-4,280,20","I like the colors in both sections, brights compared to neutrals. Each block has a different view. I think of the future,11,100,20","Windows to a different story,6,320,20","Blocky windowed, safe and selfish,-41,200,20","It's just not my style,-18,340,20","not my kind of thing,1,20,20","Jordan","not my kind of thing,1,20,20","Jasmine","It's just not my style,-18,340,20","Angelica","It's strange looking and unappealing.,-4,280,20","4"
"23202","","survey-text","96","654492","0.0-94.0-0.0","A2JMEQ3KQFQCRM","","","","{""Q0"":""Okay enough--art youd see in a dentist's office, doesn't make me feel anything.""}","","","","","","","","","","","","","","","","","","","","","","",""
"2440.399999976158","","image-slider-response","97","656935","0.0-95.0","A2JMEQ3KQFQCRM","","","","","1","","","","","","","","","","","","","","","","","","","","","",""
"null","","image-button-response","98","661953","0.0-96.0","A2JMEQ3KQFQCRM","img_art/26.jpg","null","","","","","","","","","","","","","","","","","","","","","","","","",""
"1765","","image-button-response","99","663721","0.0-97.0","A2JMEQ3KQFQCRM","img_art/26.jpg","0","","","","","","","","","","","","","","","","","","","","","","","","",""
"1239","","image-button-response","100","664962","0.0-98.0-0.0","A2JMEQ3KQFQCRM","img_art/26.jpg","0","","","","","","","","","","","","","","","","","","","","","","","","",""
"520","","image-button-response","101","668817","0.0-98.1-0.1","A2JMEQ3KQFQCRM","img_art/26.jpg","0","","","","","","","","","","","","","","","","","","","","","","","","",""
"843","","image-button-response","102","671141","0.0-98.2-0.2","A2JMEQ3KQFQCRM","img_art/26.jpg","2","","","","","","","","","","","","","","","","","","","","","","","","",""
"484","","image-button-response","103","671629","0.0-99.0-0.0","A2JMEQ3KQFQCRM","img_art/26.jpg","5","","","","","","","","","","","","","","","","","","","","","","","","",""
"null","","html-keyboard-response","104","673135","0.0-100.0","A2JMEQ3KQFQCRM","<p style=""font-size: 48px;"">+</p>","","","","","null","allTrialResponses","1500","1","8","img_art/26.jpg","1","Okay enough--art youd see in a dentist's office, doesn't make me feel anything.","Angelica,Sarah,Miranda,Kylie,Jasmine,Jordan","It's not ugly but not beautiful at all.,-3,280,20","too hard to figure out if it's meant to be actual objects or impressions,-36,180,20","This seems pretty and sweet, it's something I would like to actually see.,31,320,20","Picturesque little town,45,300,20","This seems like a quiet painting,11,340,20","This one is nicer, looks like a walk in a small, dreamy city,20,20,20","Angelica","It's not ugly but not beautiful at all.,-3,280,20","Miranda","This seems pretty and sweet, it's something I would like to actually see.,31,320,20","Jordan","This one is nicer, looks like a walk in a small, dreamy city,20,20,20","8"
"16923","","survey-text","105","690064","0.0-101.0-0.0","A2JMEQ3KQFQCRM","","","","{""Q0"":""I hate this, looks like flesh or a battlefield. ""}","","","","","","","","","","","","","","","","","","","","","","",""
"2090.099999964237","","image-slider-response","106","692157","0.0-102.0","A2JMEQ3KQFQCRM","","","","","-50","","","","","","","","","","","","","","","","","","","","","",""
"1738","","image-button-response","107","697164","0.0-103.0","A2JMEQ3KQFQCRM","img_art/7.jpg","0","","","","","","","","","","","","","","","","","","","","","","","","",""
"535","","image-button-response","108","697702","0.0-104.0","A2JMEQ3KQFQCRM","img_art/7.jpg","3","","","","","","","","","","","","","","","","","","","","","","","","",""
"759","","image-button-response","109","698465","0.0-105.0-0.0","A2JMEQ3KQFQCRM","img_art/7.jpg","4","","","","","","","","","","","","","","","","","","","","","","","","",""
"1555","","image-button-response","110","700022","0.0-106.0-0.0","A2JMEQ3KQFQCRM","img_art/7.jpg","0","","","","","","","","","","","","","","","","","","","","","","","","",""
"null","","html-keyboard-response","111","701538","0.0-107.0","A2JMEQ3KQFQCRM","<p style=""font-size: 48px;"">+</p>","","","","","null","allTrialResponses","1500","1","9","img_art/7.jpg","-50","I hate this, looks like flesh or a battlefield. ","Angelica,Alexandria,Miranda,Leslie,Erica,Jordan","This is vague and ugly.,-3,280,20","reminds me of the desert,-20,80,20","This looks like a literal picture of the ground so I'm really not too sure about this one.,-42,320,20","This elicits no reaction in me.,0,380,20","No not cause many emotions,1,80,20","looks like the surface of the moon.,1,20,20","Leslie","This elicits no reaction in me.,0,380,20","Erica","No not cause many emotions,1,80,20","Angelica","This is vague and ugly.,-3,280,20","8"
"15556","","survey-text","112","717100","0.0-108.0-0.0","A2JMEQ3KQFQCRM","","","","{""Q0"":""Okay, a little dark, doesn't make me feel anything. ""}","","","","","","","","","","","","","","","","","","","","","","",""
"3122.5","","image-slider-response","113","720225","0.0-109.0","A2JMEQ3KQFQCRM","","","","","3","","","","","","","","","","","","","","","","","","","","","",""
"4911","","image-button-response","114","725237","0.0-110.0","A2JMEQ3KQFQCRM","img_art/28.jpg","4","","","","","","","","","","","","","","","","","","","","","","","","",""
"954","","image-button-response","115","726194","0.0-111.0","A2JMEQ3KQFQCRM","img_art/28.jpg","4","","","","","","","","","","","","","","","","","","","","","","","","",""
"563","","image-button-response","116","726761","0.0-112.0-0.0","A2JMEQ3KQFQCRM","img_art/28.jpg","3","","","","","","","","","","","","","","","","","","","","","","","","",""
"887","","image-button-response","117","727651","0.0-113.0-0.0","A2JMEQ3KQFQCRM","img_art/28.jpg","1","","","","","","","","","","","","","","","","","","","","","","","","",""
"null","","html-keyboard-response","118","728168","0.0-114.0","A2JMEQ3KQFQCRM","<p style=""font-size: 48px;"">+</p>","","","","","null","allTrialResponses","500","1","10","img_art/28.jpg","3","Okay, a little dark, doesn't make me feel anything. ","Angelica,Emma,Shannon,Leslie,Erica,Amy","This is very ugly with poor colors.,-23,280,20","Don't love the colors,-10,60,20","I don't like the way the colors look; I think very disgusting colors were used.,-20,220,20","The darker colors make this unnerving.,40,380,20","Nothing calls my attention,15,80,20","Contemplative and a little dark. The muted colors and subject create a sense of mystery.,15,220,20","Erica","Nothing calls my attention,15,80,20","Leslie","The darker colors make this unnerving.,40,380,20","Emma","Don't love the colors,-10,60,20","8"
"2873","","survey-text","119","731054","0.0-115.0-0.0","A2JMEQ3KQFQCRM","","","","{""Q0"":""our""}","","","","","","","","","","","","","","","","","","","","","","",""
"69563","","survey-text","120","800619","0.0-116.0-0.0","A2JMEQ3KQFQCRM","","","","{""Q0"":""This is angry and not my style. ""}","","","","","","","","","","","","","","","","","","","","","","",""
"2148.699999988079","","image-slider-response","121","802771","0.0-117.0","A2JMEQ3KQFQCRM","","","","","-40","","","","","","","","","","","","","","","","","","","","","",""
"2357","","image-button-response","122","807782","0.0-118.0","A2JMEQ3KQFQCRM","img_art/3.jpg","1","","","","","","","","","","","","","","","","","","","","","","","","",""
"450","","image-button-response","123","808235","0.0-119.0","A2JMEQ3KQFQCRM","img_art/3.jpg","1","","","","","","","","","","","","","","","","","","","","","","","","",""
"1227","","image-button-response","124","809465","0.0-120.0-0.0","A2JMEQ3KQFQCRM","img_art/3.jpg","3","","","","","","","","","","","","","","","","","","","","","","","","",""
"1798","","image-button-response","125","811267","0.0-121.0-0.0","A2JMEQ3KQFQCRM","img_art/3.jpg","5","","","","","","","","","","","","","","","","","","","","","","","","",""
"null","","html-keyboard-response","126","811777","0.0-122.0","A2JMEQ3KQFQCRM","<p style=""font-size: 48px;"">+</p>","","","","","null","allTrialResponses","500","1","11","img_art/3.jpg","-40","This is angry and not my style. ","Hailey,Emma,Katelyn,Leslie,Erica,Victoria","painted by a 2 year old. cold and boring,-30,200,20","Feels upset .......,-10,60,20","No substance or feeling to it,-20,100,20","It looks like the artist was trying too hard to make it chaotic and emotional.,-25,380,20","Associates with blood and crime scene,-12,80,20","makes me think of anger,-33,400,20","Emma","Feels upset .......,-10,60,20","Leslie","It looks like the artist was trying too hard to make it chaotic and emotional.,-25,380,20","Victoria","makes me think of anger,-33,400,20","8"
"13087","","survey-text","127","824870","0.0-123.0-0.0","A2JMEQ3KQFQCRM","","","","{""Q0"":""Really hate this--dark and unsettling ""}","","","","","","","","","","","","","","","","","","","","","","",""
"2929.5","","image-slider-response","128","827803","0.0-124.0","A2JMEQ3KQFQCRM","","","","","-50","","","","","","","","","","","","","","","","","","","","","",""
"3067","","image-button-response","129","832810","0.0-125.0","A2JMEQ3KQFQCRM","img_art/16.jpg","0","","","","","","","","","","","","","","","","","","","","","","","","",""
"46","","image-button-response","130","832858","0.0-126.0","A2JMEQ3KQFQCRM","img_art/16.jpg","2","","","","","","","","","","","","","","","","","","","","","","","","",""
"616","","image-button-response","131","833477","0.0-127.0-0.0","A2JMEQ3KQFQCRM","img_art/16.jpg","1","","","","","","","","","","","","","","","","","","","","","","","","",""
"457","","image-button-response","132","833938","0.0-128.0-0.0","A2JMEQ3KQFQCRM","img_art/16.jpg","0","","","","","","","","","","","","","","","","","","","","","","","","",""
"null","","html-keyboard-response","133","834453","0.0-129.0","A2JMEQ3KQFQCRM","<p style=""font-size: 48px;"">+</p>","","","","","null","allTrialResponses","500","1","12","img_art/16.jpg","-50","Really hate this--dark and unsettling ","Michelle,Emma,Laura,Leslie,Elizabeth,Victoria","I'm a fan of collage and of reminiscing about childhood so this was nice,10,280,20","Kind of creepyyyyyy,-41,60,20","depressing and confrontational,-9,320,20","This is making me feel nervous in an enjoyable way.,20,380,20","Picture seems unique,12,20,20","liked the bear, nothing else made sense,10,400,20","Laura","depressing and confrontational,-9,320,20","Emma","Kind of creepyyyyyy,-41,60,20","Michelle","I'm a fan of collage and of reminiscing about childhood so this was nice,10,280,20","8"
"11409","","survey-text","134","845870","0.0-130.0-0.0","A2JMEQ3KQFQCRM","","","","{""Q0"":""Dark but cool-spooky""}","","","","","","","","","","","","","","","","","","","","","","",""
"3268.900000035763","","image-slider-response","135","849142","0.0-131.0","A2JMEQ3KQFQCRM","","","","","14","","","","","","","","","","","","","","","","","","","","","",""
"2350","","image-button-response","136","854159","0.0-132.0","A2JMEQ3KQFQCRM","img_art/25.jpg","4","","","","","","","","","","","","","","","","","","","","","","","","",""
"2497","","image-button-response","137","856659","0.0-133.0","A2JMEQ3KQFQCRM","img_art/25.jpg","1","","","","","","","","","","","","","","","","","","","","","","","","",""
"1017","","image-button-response","138","857680","0.0-134.0-0.0","A2JMEQ3KQFQCRM","img_art/25.jpg","4","","","","","","","","","","","","","","","","","","","","","","","","",""
"658","","image-button-response","139","858341","0.0-135.0-0.0","A2JMEQ3KQFQCRM","img_art/25.jpg","3","","","","","","","","","","","","","","","","","","","","","","","","",""
"null","","html-keyboard-response","140","859346","0.0-136.0","A2JMEQ3KQFQCRM","<p style=""font-size: 48px;"">+</p>","","","","","null","allTrialResponses","1000","1","13","img_art/25.jpg","14","Dark but cool-spooky","Michelle,Emma,Laura,Kaitlyn,Nicole,Brianna","I can get behind this but only because I like the green. it reminds me of a graveyard,11,280,20","Like the colors and the figure,30,60,20","I think of death,-28,320,20","Love the simplicity and lines,20,80,20","This painting is cool but it gives off an evil vibe,-10,20,20","This would definitely be hanging in my bedroom in my house,50,20,20","Emma","Like the colors and the figure,30,60,20","Nicole","This painting is cool but it gives off an evil vibe,-10,20,20","Kaitlyn","Love the simplicity and lines,20,80,20","8"
"26386","","survey-text","141","885739","0.0-137.0-0.0","A2JMEQ3KQFQCRM","","","","{""Q0"":""Love the color combo but not the composition--it's interesting.""}","","","","","","","","","","","","","","","","","","","","","","",""
"2467.300000011921","","image-slider-response","142","888209","0.0-138.0","A2JMEQ3KQFQCRM","","","","","8","","","","","","","","","","","","","","","","","","","","","",""
"4248","","image-button-response","143","893218","0.0-139.0","A2JMEQ3KQFQCRM","img_art/2.jpg","3","","","","","","","","","","","","","","","","","","","","","","","","",""
"4936","","image-button-response","144","898156","0.0-140.0","A2JMEQ3KQFQCRM","img_art/2.jpg","5","","","","","","","","","","","","","","","","","","","","","","","","",""
"3052","","image-button-response","145","901210","0.0-141.0-0.0","A2JMEQ3KQFQCRM","img_art/2.jpg","0","","","","","","","","","","","","","","","","","","","","","","","","",""
"1480","","image-button-response","146","902693","0.0-142.0-0.0","A2JMEQ3KQFQCRM","img_art/2.jpg","3","","","","","","","","","","","","","","","","","","","","","","","","",""
"null","","html-keyboard-response","147","904202","0.0-143.0","A2JMEQ3KQFQCRM","<p style=""font-size: 48px;"">+</p>","","","","","null","allTrialResponses","1500","1","14","img_art/2.jpg","8","Love the color combo but not the composition--it's interesting.","Mackenzie,Emma,Jacqueline,Kaitlyn,Nicole,Alicia","Muted green is overpowering,-10,20,20","Don't love the colors,-30,60,20","A bit ugly with the greens.,-20,300,20","Too jumbled and disorienting,-13,80,20","It's a cool piece but honestly these color choices are the worst thing in the world,-31,20,20","retro, amateurish, not a fan of the colors together.,-10,120,20","Alicia","retro, amateurish, not a fan of the colors together.,-10,120,20","Mackenzie","Muted green is overpowering,-10,20,20","Kaitlyn","Too jumbled and disorienting,-13,80,20","8"
"18029","","survey-text","148","922239","0.0-144.0-0.0","A2JMEQ3KQFQCRM","","","","{""Q0"":""I like this, abstract and interesting. ""}","","","","","","","","","","","","","","","","","","","","","","",""
"2400.300000011921","","image-slider-response","149","924642","0.0-145.0","A2JMEQ3KQFQCRM","","","","","37","","","","","","","","","","","","","","","","","","","","","",""
"4232","","image-button-response","150","929651","0.0-146.0","A2JMEQ3KQFQCRM","img_art/10.jpg","2","","","","","","","","","","","","","","","","","","","","","","","","",""
"53","","image-button-response","151","929707","0.0-147.0","A2JMEQ3KQFQCRM","img_art/10.jpg","2","","","","","","","","","","","","","","","","","","","","","","","","",""
"1558","","image-button-response","152","931268","0.0-148.0-0.0","A2JMEQ3KQFQCRM","img_art/10.jpg","0","","","","","","","","","","","","","","","","","","","","","","","","",""
"2540","","image-button-response","153","933812","0.0-149.0-0.0","A2JMEQ3KQFQCRM","img_art/10.jpg","5","","","","","","","","","","","","","","","","","","","","","","","","",""
"null","","html-keyboard-response","154","934317","0.0-150.0","A2JMEQ3KQFQCRM","<p style=""font-size: 48px;"">+</p>","","","","","null","allTrialResponses","500","1","15","img_art/10.jpg","37","I like this, abstract and interesting. ","Mackenzie,Natalie,Jessica,Kaitlyn,Madeline,Alicia","The design is very fluid and fun to interpret,35,20,20","I see a rollercoaster,23,400,20","I feel like this has a cool concept behind it.,11,400,20","Picture looks smudged,-7,80,20","Looks a bit as though someone ran over it?,-13,40,20","It's art. (for some),7,120,20","Jessica","I feel like this has a cool concept behind it.,11,400,20","Mackenzie","The design is very fluid and fun to interpret,35,20,20","Alicia","It's art. (for some),7,120,20","8"
"3067","","survey-text","155","937393","0.0-151.0-0.0","A2JMEQ3KQFQCRM","","","","{""Q0"":""course""}","","","","","","","","","","","","","","","","","","","","","","",""
"87333","","survey-text","156","1024729","0.0-152.0-0.0","A2JMEQ3KQFQCRM","","","","{""Q0"":""Reminds me of a Tolkien novel""}","","","","","","","","","","","","","","","","","","","","","","",""
"2562.300000011921","","image-slider-response","157","1027295","0.0-153.0","A2JMEQ3KQFQCRM","","","","","16","","","","","","","","","","","","","","","","","","","","","",""
"3479","","image-button-response","158","1032302","0.0-154.0","A2JMEQ3KQFQCRM","img_art/24.jpg","0","","","","","","","","","","","","","","","","","","","","","","","","",""
"432","","image-button-response","159","1032737","0.0-155.0","A2JMEQ3KQFQCRM","img_art/24.jpg","0","","","","","","","","","","","","","","","","","","","","","","","","",""
"3112","","image-button-response","160","1035852","0.0-156.0-0.0","A2JMEQ3KQFQCRM","img_art/24.jpg","5","","","","","","","","","","","","","","","","","","","","","","","","",""
"1447","","image-button-response","161","1037302","0.0-157.0-0.0","A2JMEQ3KQFQCRM","img_art/24.jpg","2","","","","","","","","","","","","","","","","","","","","","","","","",""
"null","","html-keyboard-response","162","1038818","0.0-158.0","A2JMEQ3KQFQCRM","<p style=""font-size: 48px;"">+</p>","","","","","null","allTrialResponses","1500","1","16","img_art/24.jpg","16","Reminds me of a Tolkien novel","Mackenzie,Sierra,Jessica,Ashley,Kayla,Alicia","I like the vivid colors and different textures,32,20,20","i like that the water seems in motion,6,260,20","Vibrant, beautiful depiction.,50,400,20","NOt quite Bob Ross, but still good.,30,320,20","It looks like a poor dead bunny in a field of flowers. I don't want the bunny to be dead.,-37,180,20","Nature, abstract, I'd hang this in my house.,37,120,20","Mackenzie","I like the vivid colors and different textures,32,20,20","Alicia","Nature, abstract, I'd hang this in my house.,37,120,20","Jessica","Vibrant, beautiful depiction.,50,400,20","8"
"31477","","survey-text","163","1070303","0.0-159.0-0.0","A2JMEQ3KQFQCRM","","","","{""Q0"":""I like that the white almost looks like figures dancing.""}","","","","","","","","","","","","","","","","","","","","","","",""
"2597.5","","image-slider-response","164","1072904","0.0-160.0","A2JMEQ3KQFQCRM","","","","","21","","","","","","","","","","","","","","","","","","","","","",""
"null","","image-button-response","165","1077911","0.0-161.0","A2JMEQ3KQFQCRM","img_art/23.jpg","null","","","","","","","","","","","","","","","","","","","","","","","","",""
"15942","","image-button-response","166","1093856","0.0-162.0","A2JMEQ3KQFQCRM","img_art/23.jpg","4","","","","","","","","","","","","","","","","","","","","","","","","",""
"1198","","image-button-response","167","1095057","0.0-163.0-0.0","A2JMEQ3KQFQCRM","img_art/23.jpg","0","","","","","","","","","","","","","","","","","","","","","","","","",""
"516","","image-button-response","168","1095576","0.0-164.0-0.0","A2JMEQ3KQFQCRM","img_art/23.jpg","0","","","","","","","","","","","","","","","","","","","","","","","","",""
"1492","","image-button-response","169","1099239","0.0-164.1-0.1","A2JMEQ3KQFQCRM","img_art/23.jpg","1","","","","","","","","","","","","","","","","","","","","","","","","",""
"null","","html-keyboard-response","170","1100751","0.0-165.0","A2JMEQ3KQFQCRM","<p style=""font-size: 48px;"">+</p>","","","","","null","allTrialResponses","1500","1","17","img_art/23.jpg","21","I like that the white almost looks like figures dancing.","Mackenzie,Shelby,Jessica,Vanessa,Meghan,Alicia","The usage of color is great, but not my style.,-15,20,20","This feels so energized, i love it,50,240,20","This is very cool!,24,400,20","This is ugly and weird.,-50,380,20","reminds me of an album cover,36,220,20","No reactions, childish.,-19,120,20","Meghan","reminds me of an album cover,36,220,20","Mackenzie","The usage of color is great, but not my style.,-15,20,20","Shelby","This feels so energized, i love it,50,240,20","10"
"15675","","survey-text","171","1116435","0.0-166.0-0.0","A2JMEQ3KQFQCRM","","","","{""Q0"":""I like the colors and the energy.""}","","","","","","","","","","","","","","","","","","","","","","",""
"2337.699999988079","","image-slider-response","172","1118775","0.0-167.0","A2JMEQ3KQFQCRM","","","","","23","","","","","","","","","","","","","","","","","","","","","",""
"3132","","image-button-response","173","1123786","0.0-168.0","A2JMEQ3KQFQCRM","img_art/18.jpg","3","","","","","","","","","","","","","","","","","","","","","","","","",""
"582","","image-button-response","174","1124369","0.0-169.0","A2JMEQ3KQFQCRM","img_art/18.jpg","0","","","","","","","","","","","","","","","","","","","","","","","","",""
"1199","","image-button-response","175","1125571","0.0-170.0-0.0","A2JMEQ3KQFQCRM","img_art/18.jpg","3","","","","","","","","","","","","","","","","","","","","","","","","",""
"397","","image-button-response","176","1125971","0.0-171.0-0.0","A2JMEQ3KQFQCRM","img_art/18.jpg","3","","","","","","","","","","","","","","","","","","","","","","","","",""
"2381","","image-button-response","177","1130082","0.0-171.1-0.1","A2JMEQ3KQFQCRM","img_art/18.jpg","1","","","","","","","","","","","","","","","","","","","","","","","","",""
"null","","html-keyboard-response","178","1131585","0.0-172.0","A2JMEQ3KQFQCRM","<p style=""font-size: 48px;"">+</p>","","","","","null","allTrialResponses","1500","1","18","img_art/18.jpg","23","I like the colors and the energy.","Mackenzie,Shelby,Hannah,Samantha,Meghan,Sara","The shapes are very fun to interpret,30,20,20","This gives a very ominous feeling,-30,240,20","Looks like ghost figures on a boat. It's okay.,7,240,20","Id love to see this piece closer. So much extra details hidden it it.,50,140,20","reminds me of sailors on a boat,17,220,20","Too abstract and swirly,-21,160,20","Mackenzie","The shapes are very fun to interpret,30,20,20","Samantha","Id love to see this piece closer. So much extra details hidden it it.,50,140,20","Shelby","This gives a very ominous feeling,-30,240,20","12"
"30235","","survey-text","179","1161827","0.0-173.0-0.0","A2JMEQ3KQFQCRM","","","","{""Q0"":""Like flowers in the night--it's calming.""}","","","","","","","","","","","","","","","","","","","","","","",""
"1761.800000011921","","image-slider-response","180","1163592","0.0-174.0","A2JMEQ3KQFQCRM","","","","","37","","","","","","","","","","","","","","","","","","","","","",""
"4190","","image-button-response","181","1168606","0.0-175.0","A2JMEQ3KQFQCRM","img_art/15.jpg","5","","","","","","","","","","","","","","","","","","","","","","","","",""
"3178","","image-button-response","182","1171787","0.0-176.0","A2JMEQ3KQFQCRM","img_art/15.jpg","1","","","","","","","","","","","","","","","","","","","","","","","","",""
"1154","","image-button-response","183","1172943","0.0-177.0-0.0","A2JMEQ3KQFQCRM","img_art/15.jpg","0","","","","","","","","","","","","","","","","","","","","","","","","",""
"849","","image-button-response","184","1173794","0.0-178.0-0.0","A2JMEQ3KQFQCRM","img_art/15.jpg","5","","","","","","","","","","","","","","","","","","","","","","","","",""
"null","","html-keyboard-response","185","1174306","0.0-179.0","A2JMEQ3KQFQCRM","<p style=""font-size: 48px;"">+</p>","","","","","null","allTrialResponses","500","1","19","img_art/15.jpg","37","Like flowers in the night--it's calming.","Mackenzie,Shelby,Katherine,Samantha,Molly,Briana","I like the colors and textures.,32,20,20","This painting gives a calm vibe but no stronger emotions than that,10,240,20","black dots too ant-like,-25,120,20","Not interesting enough. Boring,-37,140,20","I can't see the meaning of the painting.,-30,340,20","It reminds me of when you look up into a tree,21,400,20","Shelby","This painting gives a calm vibe but no stronger emotions than that,10,240,20","Mackenzie","I like the colors and textures.,32,20,20","Briana","It reminds me of when you look up into a tree,21,400,20","12"
"1603","","survey-text","186","1175912","0.0-180.0-0.0","A2JMEQ3KQFQCRM","","","","{""Q0"":""""}","","","","","","","","","","","","","","","","","","","","","","",""
"19660","","survey-text","187","1197071","0.0-180.1-0.1","A2JMEQ3KQFQCRM","","","","{""Q0"":""Very simplistic--too much so.""}","","","","","","","","","","","","","","","","","","","","","","",""
"2800.300000011921","","image-slider-response","188","1199874","0.0-181.0","A2JMEQ3KQFQCRM","","","","","-8","","","","","","","","","","","","","","","","","","","","","",""
"3829","","image-button-response","189","1204884","0.0-182.0","A2JMEQ3KQFQCRM","img_art/5.jpg","3","","","","","","","","","","","","","","","","","","","","","","","","",""
"1753","","image-button-response","190","1206639","0.0-183.0","A2JMEQ3KQFQCRM","img_art/5.jpg","2","","","","","","","","","","","","","","","","","","","","","","","","",""
"740","","image-button-response","191","1207382","0.0-184.0-0.0","A2JMEQ3KQFQCRM","img_art/5.jpg","4","","","","","","","","","","","","","","","","","","","","","","","","",""
"437","","image-button-response","192","1207822","0.0-185.0-0.0","A2JMEQ3KQFQCRM","img_art/5.jpg","3","","","","","","","","","","","","","","","","","","","","","","","","",""
"null","","html-keyboard-response","193","1209340","0.0-186.0","A2JMEQ3KQFQCRM","<p style=""font-size: 48px;"">+</p>","","","","","null","allTrialResponses","1500","1","20","img_art/5.jpg","-8","Very simplistic--too much so.","Mackenzie,Shelby,Crystal,Alexa,Jenna,Briana","Overpowering colors.,-26,20,20","This feels joyful,39,240,20","Confused as to what the artist is attempting to do.,-50,300,20","It's okay. Don't hate it but don't love it either,0,40,20","it's okay. the colors are eye catching, but that's about it.,3,360,20","It looks like a poorly drawn pear,17,400,20","Crystal","Confused as to what the artist is attempting to do.,-50,300,20","Jenna","it's okay. the colors are eye catching, but that's about it.,3,360,20","Alexa","It's okay. Don't hate it but don't love it either,0,40,20","12"
"3015","","survey-text","194","1212365","0.0-187.0-0.0","A2JMEQ3KQFQCRM","","","","{""Q0"":""we""}","","","","","","","","","","","","","","","","","","","","","","",""
"15364","","survey-text","195","1227730","0.0-188.0-0.0","A2JMEQ3KQFQCRM","","","","{""Q0"":""Interesting but not my style--it's too jumbled.""}","","","","","","","","","","","","","","","","","","","","","","",""
"1899.6000000238419","","image-slider-response","196","1229631","0.0-189.0","A2JMEQ3KQFQCRM","","","","","-11","","","","","","","","","","","","","","","","","","","","","",""
"null","","image-button-response","197","1234636","0.0-190.0","A2JMEQ3KQFQCRM","img_art/8.jpg","null","","","","","","","","","","","","","","","","","","","","","","","","",""
"18474","","image-button-response","198","1253113","0.0-191.0","A2JMEQ3KQFQCRM","img_art/8.jpg","2","","","","","","","","","","","","","","","","","","","","","","","","",""
"565","","image-button-response","199","1253682","0.0-192.0-0.0","A2JMEQ3KQFQCRM","img_art/8.jpg","0","","","","","","","","","","","","","","","","","","","","","","","","",""
"2910","","image-button-response","200","1256596","0.0-193.0-0.0","A2JMEQ3KQFQCRM","img_art/8.jpg","4","","","","","","","","","","","","","","","","","","","","","","","","",""
"null","","html-keyboard-response","201","1257599","0.0-194.0","A2JMEQ3KQFQCRM","<p style=""font-size: 48px;"">+</p>","","","","","null","allTrialResponses","1000","1","21","img_art/8.jpg","-11","Interesting but not my style--it's too jumbled.","Alexandra,Destiny,Crystal,Alexa,Jenna,Marissa","The colors are nice but the big face in the sky is creepy,-11,60,20","a cute little cute with some protectors,25,360,20","i like the abstract nature of a birds eye view of the city. The hard shapes and squares present with a softness rather than rigidity.,26,300,20","It's simply gorgeous. This artist is very talented,50,40,20","beautiful colors & details. love the surrealism & strange angle. the faces are interesting.,50,360,20","I can't tell if this is supposed to portray just city life or a town crumbling,-5,160,20","Crystal","i like the abstract nature of a birds eye view of the city. The hard shapes and squares present with a softness rather than rigidity.,26,300,20","Alexandra","The colors are nice but the big face in the sky is creepy,-11,60,20","Jenna","beautiful colors & details. love the surrealism & strange angle. the faces are interesting.,50,360,20","12"
"37606","","survey-text","202","1295211","0.0-195.0-0.0","A2JMEQ3KQFQCRM","","","","{""Q0"":""Love the color palette and the slightly ominous vibe.""}","","","","","","","","","","","","","","","","","","","","","","",""
"1958","","image-slider-response","203","1297173","0.0-196.0","A2JMEQ3KQFQCRM","","","","","46","","","","","","","","","","","","","","","","","","","","","",""
"4244","","image-button-response","204","1302185","0.0-197.0","A2JMEQ3KQFQCRM","img_art/21.jpg","3","","","","","","","","","","","","","","","","","","","","","","","","",""
"19","","image-button-response","205","1302208","0.0-198.0","A2JMEQ3KQFQCRM","img_art/21.jpg","3","","","","","","","","","","","","","","","","","","","","","","","","",""
"4886","","image-button-response","206","1307097","0.0-199.0-0.0","A2JMEQ3KQFQCRM","img_art/21.jpg","4","","","","","","","","","","","","","","","","","","","","","","","","",""
"2107","","image-button-response","207","1309206","0.0-200.0-0.0","A2JMEQ3KQFQCRM","img_art/21.jpg","0","","","","","","","","","","","","","","","","","","","","","","","","",""
"null","","html-keyboard-response","208","1310710","0.0-201.0","A2JMEQ3KQFQCRM","<p style=""font-size: 48px;"">+</p>","","","","","null","allTrialResponses","1500","1","22","img_art/21.jpg","46","Love the color palette and the slightly ominous vibe.","Alexandra,Jennifer,Crystal,Claire,Jenna,Sophia","This one is nice, it reminds me of the sky,42,60,20","Bland, this painting is my least favorite,-20,380,20","Feels like a clash between land and sea,31,300,20","i enjoy the clash of colors, reminds me of a storm at sea,32,260,20","beautiful. reminds me of a storm brewing over sea. i love the white dots.,45,360,20","Indifferent toward this one.,6,280,20","Claire","i enjoy the clash of colors, reminds me of a storm at sea,32,260,20","Jenna","beautiful. reminds me of a storm brewing over sea. i love the white dots.,45,360,20","Alexandra","This one is nice, it reminds me of the sky,42,60,20","12"
"16341","","survey-text","209","1327060","0.0-202.0-0.0","A2JMEQ3KQFQCRM","","","","{""Q0"":""Hate the colors and the brush strokes.""}","","","","","","","","","","","","","","","","","","","","","","",""
"2500.800000011921","","image-slider-response","210","1329564","0.0-203.0","A2JMEQ3KQFQCRM","","","","","-46","","","","","","","","","","","","","","","","","","","","","",""
"null","","image-button-response","211","1334579","0.0-204.0","A2JMEQ3KQFQCRM","img_art/30.jpg","null","","","","","","","","","","","","","","","","","","","","","","","","",""
"108","","image-button-response","212","1334690","0.0-205.0","A2JMEQ3KQFQCRM","img_art/30.jpg","3","","","","","","","","","","","","","","","","","","","","","","","","",""
"5588","","image-button-response","213","1340282","0.0-206.0-0.0","A2JMEQ3KQFQCRM","img_art/30.jpg","2","","","","","","","","","","","","","","","","","","","","","","","","",""
"4490","","image-button-response","214","1344776","0.0-207.0-0.0","A2JMEQ3KQFQCRM","img_art/30.jpg","1","","","","","","","","","","","","","","","","","","","","","","","","",""
"null","","html-keyboard-response","215","1345284","0.0-208.0","A2JMEQ3KQFQCRM","<p style=""font-size: 48px;"">+</p>","","","","","null","allTrialResponses","500","1","23","img_art/30.jpg","-46","Hate the colors and the brush strokes.","Alexandra,Paige,Makayla,Claire,Jenna,Amanda","I really love the pastel colors and the 3D design in this,43,60,20","Happy. Makes me think of childhood finger painting,49,60,20","I feel nothing towards,-1,80,20","too segmented, looks sloppy,-37,260,20","love the movement of the brush strokes. very interesting piece.,38,360,20","Love how the red stands out,20,180,20","Claire","too segmented, looks sloppy,-37,260,20","Makayla","I feel nothing towards,-1,80,20","Paige","Happy. Makes me think of childhood finger painting,49,60,20","12"
"12227","","survey-text","216","1357518","0.0-209.0-0.0","A2JMEQ3KQFQCRM","","","","{""Q0"":""Like the colors and the fall vibe""}","","","","","","","","","","","","","","","","","","","","","","",""
"1559.699999988079","","image-slider-response","217","1359081","0.0-210.0","A2JMEQ3KQFQCRM","","","","","19","","","","","","","","","","","","","","","","","","","","","",""
"null","","image-button-response","218","1364087","0.0-211.0","A2JMEQ3KQFQCRM","img_art/27.jpg","null","","","","","","","","","","","","","","","","","","","","","","","","",""
"2608","","image-button-response","219","1366697","0.0-212.0","A2JMEQ3KQFQCRM","img_art/27.jpg","2","","","","","","","","","","","","","","","","","","","","","","","","",""
"1978","","image-button-response","220","1368679","0.0-213.0-0.0","A2JMEQ3KQFQCRM","img_art/27.jpg","4","","","","","","","","","","","","","","","","","","","","","","","","",""
"1903","","image-button-response","221","1370585","0.0-214.0-0.0","A2JMEQ3KQFQCRM","img_art/27.jpg","0","","","","","","","","","","","","","","","","","","","","","","","","",""
"null","","html-keyboard-response","222","1372104","0.0-215.0","A2JMEQ3KQFQCRM","<p style=""font-size: 48px;"">+</p>","","","","","null","allTrialResponses","1500","1","24","img_art/27.jpg","19","Like the colors and the fall vibe","Gabrielle,Paige,Makayla,Claire,Gabriela,Abigail","like the patterns and colors all but the orange blob on the right,32,160,20","Pleased. Reminds me of a child drawing,46,60,20","Calming sky , relaxing,23,80,20","looks like a little kid did it,-30,260,20","I like hoe it looks like a fall day in a city,45,140,20","Looks like a little kids drawing,20,20,20","Makayla","Calming sky , relaxing,23,80,20","Gabriela","I like hoe it looks like a fall day in a city,45,140,20","Gabrielle","like the patterns and colors all but the orange blob on the right,32,160,20","12"
"22527","","survey-text","223","1394641","0.0-216.0-0.0","A2JMEQ3KQFQCRM","","","","{""Q0"":""Simple but clear--I like the colors and the lonely crow.""}","","","","","","","","","","","","","","","","","","","","","","",""
"2035.699999988079","","image-slider-response","224","1396680","0.0-217.0","A2JMEQ3KQFQCRM","","","","","33","","","","","","","","","","","","","","","","","","","","","",""
"4129","","image-button-response","225","1401692","0.0-218.0","A2JMEQ3KQFQCRM","img_art/6.jpg","0","","","","","","","","","","","","","","","","","","","","","","","","",""
"1303","","image-button-response","226","1402998","0.0-219.0","A2JMEQ3KQFQCRM","img_art/6.jpg","3","","","","","","","","","","","","","","","","","","","","","","","","",""
"1189","","image-button-response","227","1404189","0.0-220.0-0.0","A2JMEQ3KQFQCRM","img_art/6.jpg","0","","","","","","","","","","","","","","","","","","","","","","","","",""
"4108","","image-button-response","228","1408301","0.0-221.0-0.0","A2JMEQ3KQFQCRM","img_art/6.jpg","1","","","","","","","","","","","","","","","","","","","","","","","","",""
"null","","html-keyboard-response","229","1408808","0.0-222.0","A2JMEQ3KQFQCRM","<p style=""font-size: 48px;"">+</p>","","","","","null","allTrialResponses","500","1","25","img_art/6.jpg","33","Simple but clear--I like the colors and the lonely crow.","Gabrielle,Christina,Makayla,Kelly,Gabriela,Allison","simplistic but reminds me of a crow in a field,-10,160,20","i like the simplicity of the tree and the colors,50,240,20","Don't like the black space,2,80,20","Simple and pretty.,18,220,20","This looks like a crow, sort of bleak,-26,140,20","Simple desert scene.,5,140,20","Kelly","Simple and pretty.,18,220,20","Gabrielle","simplistic but reminds me of a crow in a field,-10,160,20","Christina","i like the simplicity of the tree and the colors,50,240,20","12"
"3095","","survey-text","230","1411918","0.0-223.0-0.0","A2JMEQ3KQFQCRM","","","","{""Q0"":""table""}","","","","","","","","","","","","","","","","","","","","","","",""
"102516","","survey-text","231","1514436","0.0-224.0-0.0","A2JMEQ3KQFQCRM","","","","{""Q0"":""Hectic but pleasing-I like the colors""}","","","","","","","","","","","","","","","","","","","","","","",""
"1816.7000000476837","","image-slider-response","232","1516256","0.0-225.0","A2JMEQ3KQFQCRM","","","","","22","","","","","","","","","","","","","","","","","","","","","",""
"4824","","image-button-response","233","1521260","0.0-226.0","A2JMEQ3KQFQCRM","img_art/19.jpg","5","","","","","","","","","","","","","","","","","","","","","","","","",""
"320","","image-button-response","234","1521584","0.0-227.0","A2JMEQ3KQFQCRM","img_art/19.jpg","5","","","","","","","","","","","","","","","","","","","","","","","","",""
"3369","","image-button-response","235","1524955","0.0-228.0-0.0","A2JMEQ3KQFQCRM","img_art/19.jpg","1","","","","","","","","","","","","","","","","","","","","","","","","",""
"1937","","image-button-response","236","1526896","0.0-229.0-0.0","A2JMEQ3KQFQCRM","img_art/19.jpg","0","","","","","","","","","","","","","","","","","","","","","","","","",""
"null","","html-keyboard-response","237","1528401","0.0-230.0","A2JMEQ3KQFQCRM","<p style=""font-size: 48px;"">+</p>","","","","","null","allTrialResponses","1500","1","26","img_art/19.jpg","22","Hectic but pleasing-I like the colors","Gabrielle,Christina,Bailey,Kelly,Cassandra,Mariah","not professional looking but not bad either,13,160,20","i like the colors and the way it looks like an actual scene,18,240,20","Horrible. Squiggly lines everywhere.,-50,360,20","TOo much brown.,-24,220,20","Nuetral...can't think of anything to say,4,120,20","I like the watercolor and colors, do not like the deconstructed city scene feel.,0,140,20","Mariah","I like the watercolor and colors, do not like the deconstructed city scene feel.,0,140,20","Christina","i like the colors and the way it looks like an actual scene,18,240,20","Gabrielle","not professional looking but not bad either,13,160,20","12"
"18004","","survey-text","238","1546415","0.0-231.0-0.0","A2JMEQ3KQFQCRM","","","","{""Q0"":""Hotel art--makes me feel nothing.""}","","","","","","","","","","","","","","","","","","","","","","",""
"3903.399999976158","","image-slider-response","239","1550321","0.0-232.0","A2JMEQ3KQFQCRM","","","","","3","","","","","","","","","","","","","","","","","","","","","",""
"null","","image-button-response","240","1555335","0.0-233.0","A2JMEQ3KQFQCRM","img_art/13.jpg","null","","","","","","","","","","","","","","","","","","","","","","","","",""
"37","","image-button-response","241","1555374","0.0-234.0","A2JMEQ3KQFQCRM","img_art/13.jpg","1","","","","","","","","","","","","","","","","","","","","","","","","",""
"1642","","image-button-response","242","1557019","0.0-235.0-0.0","A2JMEQ3KQFQCRM","img_art/13.jpg","0","","","","","","","","","","","","","","","","","","","","","","","","",""
"2257","","image-button-response","243","1559279","0.0-236.0-0.0","A2JMEQ3KQFQCRM","img_art/13.jpg","3","","","","","","","","","","","","","","","","","","","","","","","","",""
"null","","html-keyboard-response","244","1560787","0.0-237.0","A2JMEQ3KQFQCRM","<p style=""font-size: 48px;"">+</p>","","","","","null","allTrialResponses","1500","1","27","img_art/13.jpg","3","Hotel art--makes me feel nothing.","Gabrielle,Christina,Erika,Michaela,Andrea,Mariah","kind of like the pattern and colors but don't love it,13,160,20","i like the colors but it looks like something that would hang in a hotel,18,240,20","Gorgeous contrast and color choice, very pleasing,50,100,20","The colors are really pretty together,39,260,20","Raindrops on a window. Makes me feel like traveling.,31,240,20","Rain on a cold window.,22,140,20","Christina","i like the colors but it looks like something that would hang in a hotel,18,240,20","Gabrielle","kind of like the pattern and colors but don't love it,13,160,20","Michaela","The colors are really pretty together,39,260,20","12"
"19461","","survey-text","245","1580258","0.0-238.0-0.0","A2JMEQ3KQFQCRM","","","","{""Q0"":""It's alright--don't love how muted it is.""}","","","","","","","","","","","","","","","","","","","","","","",""
"3850.400000035763","","image-slider-response","246","1584111","0.0-239.0","A2JMEQ3KQFQCRM","","","","","8","","","","","","","","","","","","","","","","","","","","","",""
"null","","image-button-response","247","1589118","0.0-240.0","A2JMEQ3KQFQCRM","img_art/17.jpg","null","","","","","","","","","","","","","","","","","","","","","","","","",""
"1399","","image-button-response","248","1590519","0.0-241.0","A2JMEQ3KQFQCRM","img_art/17.jpg","2","","","","","","","","","","","","","","","","","","","","","","","","",""
"2279","","image-button-response","249","1592801","0.0-242.0-0.0","A2JMEQ3KQFQCRM","img_art/17.jpg","5","","","","","","","","","","","","","","","","","","","","","","","","",""
"2119","","image-button-response","250","1594924","0.0-243.0-0.0","A2JMEQ3KQFQCRM","img_art/17.jpg","0","","","","","","","","","","","","","","","","","","","","","","","","",""
"null","","html-keyboard-response","251","1595934","0.0-244.0","A2JMEQ3KQFQCRM","<p style=""font-size: 48px;"">+</p>","","","","","null","allTrialResponses","1000","1","28","img_art/17.jpg","8","It's alright--don't love how muted it is.","Gabrielle,Christina,Tiffany,Michaela,Taylor,Margaret","nice composition and colors, fairy land,28,160,20","I like how it looks like a tree. The colors are too muted though,12,240,20","The painting makes me feel relaxed, and a bit lonely, like I'm sitting at a park waiting for someone.,30,360,20","I love how soft it is,35,260,20","A very inspiring piece,41,340,20","gentle watercolor vibes,12,100,20","Tiffany","The painting makes me feel relaxed, and a bit lonely, like I'm sitting at a park waiting for someone.,30,360,20","Margaret","gentle watercolor vibes,12,100,20","Gabrielle","nice composition and colors, fairy land,28,160,20","12"
"17096","","survey-text","252","1613037","0.0-245.0-0.0","A2JMEQ3KQFQCRM","","","","{""Q0"":""Reminds me of a dirt city-makes me feel kind of hopeless.""}","","","","","","","","","","","","","","","","","","","","","","",""
"2038.9000000357628","","image-slider-response","253","1615080","0.0-246.0","A2JMEQ3KQFQCRM","","","","","-33","","","","","","","","","","","","","","","","","","","","","",""
"3820","","image-button-response","254","1620094","0.0-247.0","A2JMEQ3KQFQCRM","img_art/11.jpg","5","","","","","","","","","","","","","","","","","","","","","","","","",""
"326","","image-button-response","255","1620425","0.0-248.0","A2JMEQ3KQFQCRM","img_art/11.jpg","5","","","","","","","","","","","","","","","","","","","","","","","","",""
"654","","image-button-response","256","1621081","0.0-249.0-0.0","A2JMEQ3KQFQCRM","img_art/11.jpg","3","","","","","","","","","","","","","","","","","","","","","","","","",""
"2583","","image-button-response","257","1623666","0.0-250.0-0.0","A2JMEQ3KQFQCRM","img_art/11.jpg","2","","","","","","","","","","","","","","","","","","","","","","","","",""
"null","","html-keyboard-response","258","1624679","0.0-251.0","A2JMEQ3KQFQCRM","<p style=""font-size: 48px;"">+</p>","","","","","null","allTrialResponses","1000","1","29","img_art/11.jpg","-33","Reminds me of a dirt city-makes me feel kind of hopeless.","Gabrielle,Maria,Tiffany,Kathryn,Haley,Margaret","I like this one mostly a good combination of colors and light and dark,12,160,20","I enjoy the kandinsky-like general vibe, but the grey brings me down a bit,27,120,20","I feel excited, like I'm in the middle of a bustling city.,26,360,20","This is disorienting, like motion sickness.,-20,140,20","Lovely. I could look at this for a really long time. I love the details and the composition.,40,220,20","dont like the colors. Its a gloomy day in london and this is the transit system,-26,100,20","Margaret","dont like the colors. Its a gloomy day in london and this is the transit system,-26,100,20","Kathryn","This is disorienting, like motion sickness.,-20,140,20","Tiffany","I feel excited, like I'm in the middle of a bustling city.,26,360,20","12"
"18126","","survey-text","259","1642814","0.0-252.0-0.0","A2JMEQ3KQFQCRM","","","","{""Q0"":""More hotel art--doesn't make me feel anything.""}","","","","","","","","","","","","","","","","","","","","","","",""
"3027","","image-slider-response","260","1645845","0.0-253.0","A2JMEQ3KQFQCRM","","","","","-4","","","","","","","","","","","","","","","","","","","","","",""
"null","","image-button-response","261","1650848","0.0-254.0","A2JMEQ3KQFQCRM","img_art/1.jpg","null","","","","","","","","","","","","","","","","","","","","","","","","",""
"5","","image-button-response","262","1650855","0.0-255.0","A2JMEQ3KQFQCRM","img_art/1.jpg","4","","","","","","","","","","","","","","","","","","","","","","","","",""
"1099","","image-button-response","263","1651957","0.0-256.0-0.0","A2JMEQ3KQFQCRM","img_art/1.jpg","5","","","","","","","","","","","","","","","","","","","","","","","","",""
"2539","","image-button-response","264","1654498","0.0-257.0-0.0","A2JMEQ3KQFQCRM","img_art/1.jpg","1","","","","","","","","","","","","","","","","","","","","","","","","",""
"null","","html-keyboard-response","265","1655006","0.0-258.0","A2JMEQ3KQFQCRM","<p style=""font-size: 48px;"">+</p>","","","","","null","allTrialResponses","500","1","30","img_art/1.jpg","-4","More hotel art--doesn't make me feel anything.","Rachel,Isabella,Tiffany,Kathryn,Jamie,Margaret","While I like the colors, I find nothing interesting or thought provoking about it.,10,80,20","Warmth of the sun,22,280,20","I feel relaxed, like I'm watching the leaves change color.,17,360,20","For some reason this makes me want to go ice skating. It's whimsical and free but also very smooth.,20,140,20","Looks like just a bunch of colors with no real point,-5,320,20","basic reminds me of something a school would have on the wall,-7,100,20","Jamie","Looks like just a bunch of colors with no real point,-5,320,20","Margaret","basic reminds me of something a school would have on the wall,-7,100,20","Isabella","Warmth of the sun,22,280,20","12"
"3573","","image-button-response_instructions","266","1658589","0.0-259.0","A2JMEQ3KQFQCRM","","0","instructions","","","","","","","","","","","","","","","","","","","","","","","",""
"1061","","image-button-response","267","1659659","0.0-260.0","A2JMEQ3KQFQCRM","","0","","","","","","","","","","","","","","","","","","","","","","","","",""
