"rt","url","trial_type","trial_index","time_elapsed","internal_node_id","participant_id","stimulus","button_pressed","Name","responses","response","key_press","variableName","fixationTime","condition","trial","photo","subjectRating","subjectResponse","agentsNames","agent_1_Response","agent_2_Response","agent_3_Response","agent_4_Response","agent_5_Response","agent_6_Response","kept_1_name","kept_1_response","kept_2_name","kept_2_response","kept_3_name","kept_3_response","errorCounter"
"15057","external_page_harvard.html","external-html","0","15135","0.0-0.0","A2JV0ESAFE7VXL","","","","","","","","","","","","","","","","","","","","","","","","","","",""
"2569","","image-button-response","1","17710","0.0-1.0","A2JV0ESAFE7VXL","","0","","","","","","","","","","","","","","","","","","","","","","","","",""
"2005","","image-button-response","2","19733","0.0-2.0-0.0","A2JV0ESAFE7VXL","","1","phone","","","","","","","","","","","","","","","","","","","","","","","",""
"8620","","survey-text","3","28357","0.0-3.0-0.0","A2JV0ESAFE7VXL","","","","{""Q0"":""A2JV0ESAFE7VXL""}","","","","","","","","","","","","","","","","","","","","","","",""
"6927","","image-button-response_instructions","4","35289","0.0-4.0","A2JV0ESAFE7VXL","","0","instructions","","","","","","","","","","","","","","","","","","","","","","","",""
"21592","","image-button-response_instructions","5","56887","0.0-5.0","A2JV0ESAFE7VXL","img_art/ins/popularity/ins1.png","0","instructions","","","","","","","","","","","","","","","","","","","","","","","",""
"9851","","image-button-response_instructions","6","66743","0.0-6.0","A2JV0ESAFE7VXL","img_art/ins/popularity/ins2.png","0","instructions","","","","","","","","","","","","","","","","","","","","","","","",""
"11788","","image-button-response_instructions","7","78535","0.0-7.0","A2JV0ESAFE7VXL","img_art/ins/popularity/ins2Extreme.png","0","instructions","","","","","","","","","","","","","","","","","","","","","","","",""
"5815","","image-button-response_instructions","8","84355","0.0-8.0","A2JV0ESAFE7VXL","img_art/ins/popularity/ins3KEEPpop.PNG","0","instructions","","","","","","","","","","","","","","","","","","","","","","","",""
"7407","","image-button-response_instructions","9","91765","0.0-9.0","A2JV0ESAFE7VXL","img_art/ins/popularity/ins3ANamepop.PNG","0","instructions","","","","","","","","","","","","","","","","","","","","","","","",""
"2584","","image-button-response_instructions","10","94353","0.0-10.0","A2JV0ESAFE7VXL","img_art/ins/popularity/ins3ARatingpop.png","0","instructions","","","","","","","","","","","","","","","","","","","","","","","",""
"2865","","image-button-response_instructions","11","97223","0.0-11.0","A2JV0ESAFE7VXL","img_art/ins/popularity/ins3ATextpop.png","0","instructions","","","","","","","","","","","","","","","","","","","","","","","",""
"3234","","image-button-response_instructions","12","100460","0.0-12.0","A2JV0ESAFE7VXL","img_art/ins/popularity/ins3ALikespop.png","0","instructions","","","","","","","","","","","","","","","","","","","","","","","",""
"4718","","image-button-response_instructions","13","105182","0.0-13.0","A2JV0ESAFE7VXL","img_art/ins/popularity/ins3KEEPpop.PNG","0","instructions","","","","","","","","","","","","","","","","","","","","","","","",""
"7288","","image-button-response_instructions","14","112473","0.0-14.0","A2JV0ESAFE7VXL","img_art/ins/popularity/ins3_5RED.png","0","instructions","","","","","","","","","","","","","","","","","","","","","","","",""
"1675","","image-button-response_instructions","15","114151","0.0-15.0","A2JV0ESAFE7VXL","img_art/ins/popularity/ins3KEEPpop.PNG","0","instructions","","","","","","","","","","","","","","","","","","","","","","","",""
"8710","","image-button-response_instructions","16","122863","0.0-16.0","A2JV0ESAFE7VXL","img_art/ins/popularity/ins4KEEPpop.PNG","0","instructions","","","","","","","","","","","","","","","","","","","","","","","",""
"4710","","image-button-response_instructions","17","127575","0.0-17.0","A2JV0ESAFE7VXL","img_art/ins/popularity/ins5KEEPpop.PNG","0","instructions","","","","","","","","","","","","","","","","","","","","","","","",""
"3564","","image-button-response_instructions","18","131143","0.0-18.0","A2JV0ESAFE7VXL","","0","instructions","","","","","","","","","","","","","","","","","","","","","","","",""
"9952","","survey-text","19","141151","0.0-19.0-0.0","A2JV0ESAFE7VXL","","","","{""Q0"":""but""}","","","","","","","","","","","","","","","","","","","","","","",""
"17138","","survey-text","20","158295","0.0-20.0-0.0","A2JV0ESAFE7VXL","","","","{""Q0"":""harsh""}","","","","","","","","","","","","","","","","","","","","","","",""
"17916","","survey-text","21","179312","0.0-20.1-0.1","A2JV0ESAFE7VXL","","","","{""Q0"":""The art work is not very pleasing""}","","","","","","","","","","","","","","","","","","","","","","",""
"6581.200000001118","","image-slider-response","22","185900","0.0-21.0","A2JV0ESAFE7VXL","","","","","-2","","","","","","","","","","","","","","","","","","","","","",""
"null","","image-button-response","23","190912","0.0-22.0","A2JV0ESAFE7VXL","img_art/ins/1.jpg","null","","","","","","","","","","","","","","","","","","","","","","","","",""
"12311","","image-button-response","24","203229","0.0-23.0","A2JV0ESAFE7VXL","img_art/ins/1.jpg","1","","","","","","","","","","","","","","","","","","","","","","","","",""
"2556","","image-button-response","25","205792","0.0-24.0-0.0","A2JV0ESAFE7VXL","img_art/ins/1.jpg","1","","","","","","","","","","","","","","","","","","","","","","","","",""
"998","","image-button-response","26","218309","0.0-24.1-0.1","A2JV0ESAFE7VXL","img_art/ins/1.jpg","4","","","","","","","","","","","","","","","","","","","","","","","","",""
"4674","","image-button-response","27","222995","0.0-25.0-0.0","A2JV0ESAFE7VXL","img_art/ins/1.jpg","0","","","","","","","","","","","","","","","","","","","","","","","","",""
"null","","html-keyboard-response","28","224005","0.0-26.0","A2JV0ESAFE7VXL","<p style=""font-size: 48px;"">+</p>","","","","","null","allTrialResponses","1000","1","-2","img_art/ins/1.jpg","-2","The art work is not very pleasing","Adam,Alex,Ben,Carl,Daniel,Jack","Seems like doodles,-20,20,20","very creative work.,36,40,20","This color reminds me of poo,-46,60,20","very calming artwork,42,80,20","It looks like a murder scene.,-48,100,20","I like the sophisticated brushwork,40,120,20","Alex","very creative work.,36,40,20","Daniel","It looks like a murder scene.,-48,100,20","Adam","Seems like doodles,-20,20,20","2"
"25666","","survey-text","29","249678","0.0-27.0-0.0","A2JV0ESAFE7VXL","","","","{""Q0"":""Very abstract but intense. nothing real""}","","","","","","","","","","","","","","","","","","","","","","",""
"3907.0999999996275","","image-slider-response","30","253591","0.0-28.0","A2JV0ESAFE7VXL","","","","","-28","","","","","","","","","","","","","","","","","","","","","",""
"null","","image-button-response","31","258600","0.0-29.0","A2JV0ESAFE7VXL","img_art/ins/2.jpg","null","","","","","","","","","","","","","","","","","","","","","","","","",""
"1799","","image-button-response","32","260405","0.0-30.0","A2JV0ESAFE7VXL","img_art/ins/2.jpg","3","","","","","","","","","","","","","","","","","","","","","","","","",""
"3742","","image-button-response","33","264153","0.0-31.0-0.0","A2JV0ESAFE7VXL","img_art/ins/2.jpg","5","","","","","","","","","","","","","","","","","","","","","","","","",""
"2142","","image-button-response","34","266302","0.0-32.0-0.0","A2JV0ESAFE7VXL","img_art/ins/2.jpg","0","","","","","","","","","","","","","","","","","","","","","","","","",""
"null","","html-keyboard-response","35","267810","0.0-33.0","A2JV0ESAFE7VXL","<p style=""font-size: 48px;"">+</p>","","","","","null","allTrialResponses","1500","1","-1","img_art/ins/2.jpg","-28","Very abstract but intense. nothing real","Adam,Alex,John,James,Daniel,Kyle","too much color,-18,20,20","I like the blocks of color arrangements,30,40,20","love the texture of paint,48,160,20","looks too angry,-50,140,20","One of my pet peevs,-48,100,20","Idk, it is just annoying,-32,180,20","James","looks too angry,-50,140,20","Kyle","Idk, it is just annoying,-32,180,20","Adam","too much color,-18,20,20","2"
"42985","","survey-text","36","310814","0.0-34.0-0.0","A2JV0ESAFE7VXL","","","","{""Q0"":""calming and cooling. less assailing relaxing ""}","","","","","","","","","","","","","","","","","","","","","","",""
"6111.299999998882","","image-slider-response","37","316931","0.0-35.0","A2JV0ESAFE7VXL","","","","","20","","","","","","","","","","","","","","","","","","","","","",""
"2799","","image-button-response","38","321959","0.0-36.0","A2JV0ESAFE7VXL","img_art/ins/3.jpg","1","","","","","","","","","","","","","","","","","","","","","","","","",""
"4405","","image-button-response","39","326371","0.0-37.0","A2JV0ESAFE7VXL","img_art/ins/3.jpg","2","","","","","","","","","","","","","","","","","","","","","","","","",""
"2111","","image-button-response","40","328487","0.0-38.0-0.0","A2JV0ESAFE7VXL","img_art/ins/3.jpg","1","","","","","","","","","","","","","","","","","","","","","","","","",""
"12256","","image-button-response","41","340750","0.0-39.0-0.0","A2JV0ESAFE7VXL","img_art/ins/3.jpg","4","","","","","","","","","","","","","","","","","","","","","","","","",""
"null","","html-keyboard-response","42","341257","0.0-40.0","A2JV0ESAFE7VXL","<p style=""font-size: 48px;"">+</p>","","","","","null","allTrialResponses","500","1","0","img_art/ins/3.jpg","20","calming and cooling. less assailing relaxing ","Adam,Mike,Sam,James,Ron,Kyle","My daily routine, it's depressing,-20,20,20","enjoy the different shades of blue,22,200,20","I can feel a rainy day from this painting,18,240,20","My worst nightmare,-42,140,20","It looks depressing,-26,220,20","It looks like a playground for bats,-36,180,20","Sam","I can feel a rainy day from this painting,18,240,20","Mike","enjoy the different shades of blue,22,200,20","Ron","It looks depressing,-26,220,20","2"
"3354","","image-button-response_instructions","43","344630","0.0-41.0","A2JV0ESAFE7VXL","","0","instructions","","","","","","","","","","","","","","","","","","","","","","","",""
"13178","","survey-likert","44","357814","0.0-42.0-0.0","A2JV0ESAFE7VXL","","","","{""Q0"":"""",""Q1"":0,""Q2"":1}","","","","","","","","","","","","","","","","","","","","","","",""
"4769","","survey-text","45","362602","0.0-43.0-0.0","A2JV0ESAFE7VXL","","","","{""Q0"":""rock""}","","","","","","","","","","","","","","","","","","","","","","",""
"37296","","survey-text","46","399902","0.0-44.0-0.0","A2JV0ESAFE7VXL","","","","{""Q0"":""old western with buildings and clouds""}","","","","","","","","","","","","","","","","","","","","","","",""
"4369.800000000745","","image-slider-response","47","404278","0.0-45.0","A2JV0ESAFE7VXL","","","","","9","","","","","","","","","","","","","","","","","","","","","",""
"null","","image-button-response","48","409367","0.0-46.0","A2JV0ESAFE7VXL","img_art/20.jpg","null","","","","","","","","","","","","","","","","","","","","","","","","",""
"3004","","image-button-response","49","412378","0.0-47.0","A2JV0ESAFE7VXL","img_art/20.jpg","3","","","","","","","","","","","","","","","","","","","","","","","","",""
"2761","","image-button-response","50","415145","0.0-48.0-0.0","A2JV0ESAFE7VXL","img_art/20.jpg","4","","","","","","","","","","","","","","","","","","","","","","","","",""
"2407","","image-button-response","51","417559","0.0-49.0-0.0","A2JV0ESAFE7VXL","img_art/20.jpg","5","","","","","","","","","","","","","","","","","","","","","","","","",""
"null","","html-keyboard-response","52","419068","0.0-50.0","A2JV0ESAFE7VXL","<p style=""font-size: 48px;"">+</p>","","","","","null","allTrialResponses","1500","1","1","img_art/20.jpg","9","old western with buildings and clouds","Adam,Cole,Nathaniel,Brian,Cody,Gabriel","Melty picture. Reminiscent of Dali.,10,40,20","Someone trying to be dali,-15,200,20","A bit hectic, but it does have a bit of coolness to it,6,220,20","The colors are nice, and the shapes conjure the decay of the city in the face of natural entropy,19,380,20","I like the distortion of the objects, good colors,20,180,20","i almost feel like i can recognize what this is,-6,160,20","Brian","The colors are nice, and the shapes conjure the decay of the city in the face of natural entropy,19,380,20","Cody","I like the distortion of the objects, good colors,20,180,20","Gabriel","i almost feel like i can recognize what this is,-6,160,20","2"
"26489","","survey-text","53","445572","0.0-51.0-0.0","A2JV0ESAFE7VXL","","","","{""Q0"":""very grey but animated characters ""}","","","","","","","","","","","","","","","","","","","","","","",""
"4157.200000001118","","image-slider-response","54","449734","0.0-52.0","A2JV0ESAFE7VXL","","","","","5","","","","","","","","","","","","","","","","","","","","","",""
"null","","image-button-response","55","454757","0.0-53.0","A2JV0ESAFE7VXL","img_art/28.jpg","null","","","","","","","","","","","","","","","","","","","","","","","","",""
"1282","","image-button-response","56","456044","0.0-54.0","A2JV0ESAFE7VXL","img_art/28.jpg","0","","","","","","","","","","","","","","","","","","","","","","","","",""
"1337","","image-button-response","57","457386","0.0-55.0-0.0","A2JV0ESAFE7VXL","img_art/28.jpg","0","","","","","","","","","","","","","","","","","","","","","","","","",""
"1185","","image-button-response","58","462176","0.0-55.1-0.1","A2JV0ESAFE7VXL","img_art/28.jpg","0","","","","","","","","","","","","","","","","","","","","","","","","",""
"5786","","image-button-response","59","471740","0.0-55.2-0.2","A2JV0ESAFE7VXL","img_art/28.jpg","2","","","","","","","","","","","","","","","","","","","","","","","","",""
"5870","","image-button-response","60","477621","0.0-56.0-0.0","A2JV0ESAFE7VXL","img_art/28.jpg","1","","","","","","","","","","","","","","","","","","","","","","","","",""
"null","","html-keyboard-response","61","478138","0.0-57.0","A2JV0ESAFE7VXL","<p style=""font-size: 48px;"">+</p>","","","","","null","allTrialResponses","500","1","2","img_art/28.jpg","5","very grey but animated characters ","Victor,Jorge,Juan,Brian,Cody,Gabriel","Almost looks like child's artwork, sloppy and chaotic,6,340,20","nostalgic from a memory,11,180,20","It's such a blah piece and way too abstract.,-50,260,20","the people kind of scare me in this one,-15,380,20","Don't love the colors,-10,180,20","this one is rather disturbing,-22,160,20","Victor","Almost looks like child's artwork, sloppy and chaotic,6,340,20","Juan","It's such a blah piece and way too abstract.,-50,260,20","Jorge","nostalgic from a memory,11,180,20","6"
"51908","","survey-text","62","530062","0.0-58.0-0.0","A2JV0ESAFE7VXL","","","","{""Q0"":""very vibrant and fiery forest fire  ""}","","","","","","","","","","","","","","","","","","","","","","",""
"3294.2000000011176","","image-slider-response","63","533362","0.0-59.0","A2JV0ESAFE7VXL","","","","","23","","","","","","","","","","","","","","","","","","","","","",""
"2328","","image-button-response","64","538370","0.0-60.0","A2JV0ESAFE7VXL","img_art/1.jpg","0","","","","","","","","","","","","","","","","","","","","","","","","",""
"7577","","image-button-response","65","545953","0.0-61.0","A2JV0ESAFE7VXL","img_art/1.jpg","5","","","","","","","","","","","","","","","","","","","","","","","","",""
"4013","","image-button-response","66","549973","0.0-62.0-0.0","A2JV0ESAFE7VXL","img_art/1.jpg","0","","","","","","","","","","","","","","","","","","","","","","","","",""
"9281","","image-button-response","67","559264","0.0-63.0-0.0","A2JV0ESAFE7VXL","img_art/1.jpg","1","","","","","","","","","","","","","","","","","","","","","","","","",""
"null","","html-keyboard-response","68","559780","0.0-64.0","A2JV0ESAFE7VXL","<p style=""font-size: 48px;"">+</p>","","","","","null","allTrialResponses","500","1","3","img_art/1.jpg","23","very vibrant and fiery forest fire  ","Victor,Jorge,Juan,Dakota,Hunter,Jason","I like the colors and layers,25,340,20","fishing on the lake surrounded by trees,42,180,20","I don't like how this one makes me feel.,-32,260,20","soft and touchable, muddled,15,280,20","muddy and uninteresting,-16,240,20","Interesting blend of colors,9,20,20","Jason","Interesting blend of colors,9,20,20","Victor","I like the colors and layers,25,340,20","Jorge","fishing on the lake surrounded by trees,42,180,20","6"
"29521","","survey-text","69","589320","0.0-65.0-0.0","A2JV0ESAFE7VXL","","","","{""Q0"":""very childish nothing but brush strokes""}","","","","","","","","","","","","","","","","","","","","","","",""
"3654.4000000003725","","image-slider-response","70","592980","0.0-66.0","A2JV0ESAFE7VXL","","","","","-30","","","","","","","","","","","","","","","","","","","","","",""
"null","","image-button-response","71","597993","0.0-67.0","A2JV0ESAFE7VXL","img_art/30.jpg","null","","","","","","","","","","","","","","","","","","","","","","","","",""
"1333","","image-button-response","72","599330","0.0-68.0","A2JV0ESAFE7VXL","img_art/30.jpg","0","","","","","","","","","","","","","","","","","","","","","","","","",""
"2803","","image-button-response","73","602138","0.0-69.0-0.0","A2JV0ESAFE7VXL","img_art/30.jpg","2","","","","","","","","","","","","","","","","","","","","","","","","",""
"2124","","image-button-response","74","604269","0.0-70.0-0.0","A2JV0ESAFE7VXL","img_art/30.jpg","5","","","","","","","","","","","","","","","","","","","","","","","","",""
"null","","html-keyboard-response","75","604776","0.0-71.0","A2JV0ESAFE7VXL","<p style=""font-size: 48px;"">+</p>","","","","","null","allTrialResponses","500","1","4","img_art/30.jpg","-30","very childish nothing but brush strokes","Victor,Jorge,Alex,Samuel,Jeremy,Jason","I just don't see the point of this piece,-11,340,20","fun and imaginative,12,180,20","Don't like it at all, looks like a someone smeared paint with their fingers,-25,100,20","perceiving greatness,20,400,20","Happy. Makes me think of childhood finger painting,49,60,20","Do not like the streaks,-14,20,20","Victor","I just don't see the point of this piece,-11,340,20","Alex","Don't like it at all, looks like a someone smeared paint with their fingers,-25,100,20","Jason","Do not like the streaks,-14,20,20","6"
"33917","","survey-text","76","638711","0.0-72.0-0.0","A2JV0ESAFE7VXL","","","","{""Q0"":""pointless with no direction hideous ""}","","","","","","","","","","","","","","","","","","","","","","",""
"4344.300000000745","","image-slider-response","77","643061","0.0-73.0","A2JV0ESAFE7VXL","","","","","-46","","","","","","","","","","","","","","","","","","","","","",""
"4156","","image-button-response","78","648072","0.0-74.0","A2JV0ESAFE7VXL","img_art/3.jpg","0","","","","","","","","","","","","","","","","","","","","","","","","",""
"3456","","image-button-response","79","651536","0.0-75.0","A2JV0ESAFE7VXL","img_art/3.jpg","1","","","","","","","","","","","","","","","","","","","","","","","","",""
"1752","","image-button-response","80","653292","0.0-76.0-0.0","A2JV0ESAFE7VXL","img_art/3.jpg","0","","","","","","","","","","","","","","","","","","","","","","","","",""
"3828","","image-button-response","81","657126","0.0-77.0-0.0","A2JV0ESAFE7VXL","img_art/3.jpg","2","","","","","","","","","","","","","","","","","","","","","","","","",""
"null","","html-keyboard-response","82","657637","0.0-78.0","A2JV0ESAFE7VXL","<p style=""font-size: 48px;"">+</p>","","","","","null","allTrialResponses","500","1","5","img_art/3.jpg","-46","pointless with no direction hideous ","Victor,Logan,Alex,Scott,Jacob,Jason","Again, looks like a child's work. I don't get these types of pieces. Too simple,-47,340,20","im just getting more agitated and less appreciative of art. I have absolutely no scale to base on,-34,360,20","Ok, just a bunch of red lines and a grey smudge. Would pass this right by in a gallery,-12,100,20","I like that it's messy,14,20,20","Don't get the scribbles.,-13,340,20","Too much red; very bland,-26,20,20","Logan","im just getting more agitated and less appreciative of art. I have absolutely no scale to base on,-34,360,20","Victor","Again, looks like a child's work. I don't get these types of pieces. Too simple,-47,340,20","Alex","Ok, just a bunch of red lines and a grey smudge. Would pass this right by in a gallery,-12,100,20","6"
"5460","","survey-text","83","663142","0.0-79.0-0.0","A2JV0ESAFE7VXL","","","","{""Q0"":""sky""}","","","","","","","","","","","","","","","","","","","","","","",""
"24396","","survey-text","84","687542","0.0-80.0-0.0","A2JV0ESAFE7VXL","","","","{""Q0"":""too dark yet like a road""}","","","","","","","","","","","","","","","","","","","","","","",""
"3179.2999999988824","","image-slider-response","85","690726","0.0-81.0","A2JV0ESAFE7VXL","","","","","-26","","","","","","","","","","","","","","","","","","","","","",""
"2682","","image-button-response","86","695741","0.0-82.0","A2JV0ESAFE7VXL","img_art/10.jpg","0","","","","","","","","","","","","","","","","","","","","","","","","",""
"2144","","image-button-response","87","697891","0.0-83.0","A2JV0ESAFE7VXL","img_art/10.jpg","1","","","","","","","","","","","","","","","","","","","","","","","","",""
"7452","","image-button-response","88","705350","0.0-84.0-0.0","A2JV0ESAFE7VXL","img_art/10.jpg","4","","","","","","","","","","","","","","","","","","","","","","","","",""
"7183","","image-button-response","89","712539","0.0-85.0-0.0","A2JV0ESAFE7VXL","img_art/10.jpg","0","","","","","","","","","","","","","","","","","","","","","","","","",""
"null","","html-keyboard-response","90","713050","0.0-86.0","A2JV0ESAFE7VXL","<p style=""font-size: 48px;"">+</p>","","","","","null","allTrialResponses","500","1","6","img_art/10.jpg","-26","too dark yet like a road","Victor,Logan,Alex,Devon,Corey,Garrett","Looks like someone just smeared some paint and called it good. Do not like.,-6,340,20","The more I look the more I like. Reminds me of a rollercoaster and a war scene. A lot going on which is unnerving, like a rollercoaster but still fun,22,360,20","This could be a guitar, or it could be a completely random shape.,-3,100,20","awww... this looks very nice,32,400,20","I think this was going to be a guitar but then the artist got mad and gave up,-4,260,20","I can't tell what this picture is supposed to mean and I think the colors are lacking variety.,-42,180,20","Logan","The more I look the more I like. Reminds me of a rollercoaster and a war scene. A lot going on which is unnerving, like a rollercoaster but still fun,22,360,20","Corey","I think this was going to be a guitar but then the artist got mad and gave up,-4,260,20","Victor","Looks like someone just smeared some paint and called it good. Do not like.,-6,340,20","6"
"25322","","survey-text","91","738385","0.0-87.0-0.0","A2JV0ESAFE7VXL","","","","{""Q0"":""death of a child with toy""}","","","","","","","","","","","","","","","","","","","","","","",""
"3483.0999999996275","","image-slider-response","92","741874","0.0-88.0","A2JV0ESAFE7VXL","","","","","-32","","","","","","","","","","","","","","","","","","","","","",""
"4516","","image-button-response","93","746894","0.0-89.0","A2JV0ESAFE7VXL","img_art/16.jpg","1","","","","","","","","","","","","","","","","","","","","","","","","",""
"5022","","image-button-response","94","751924","0.0-90.0","A2JV0ESAFE7VXL","img_art/16.jpg","3","","","","","","","","","","","","","","","","","","","","","","","","",""
"8711","","image-button-response","95","760640","0.0-91.0-0.0","A2JV0ESAFE7VXL","img_art/16.jpg","0","","","","","","","","","","","","","","","","","","","","","","","","",""
"1100","","image-button-response","96","761746","0.0-92.0-0.0","A2JV0ESAFE7VXL","img_art/16.jpg","1","","","","","","","","","","","","","","","","","","","","","","","","",""
"null","","html-keyboard-response","97","763252","0.0-93.0","A2JV0ESAFE7VXL","<p style=""font-size: 48px;"">+</p>","","","","","null","allTrialResponses","1500","1","7","img_art/16.jpg","-32","death of a child with toy","Victor,Logan,Colton,Carlos,Corey,Ian","I don't know why, I just don't like it,-28,340,20","what is this doing for anyone. If you connect with this you're literally lying to yourself. pretentious,-50,360,20","the materials used are interesting,30,220,20","Why is that bear there? It looks like it would be gross to touch. The texture bothers me.,-20,80,20","i like how it incorporates mixed visual art with the photo of the bear and the drawings,30,260,20","This looks like it was made by an art student filled with angst,-30,260,20","Carlos","Why is that bear there? It looks like it would be gross to touch. The texture bothers me.,-20,80,20","Victor","I don't know why, I just don't like it,-28,340,20","Logan","what is this doing for anyone. If you connect with this you're literally lying to yourself. pretentious,-50,360,20","6"
"25342","","survey-text","98","788610","0.0-94.0-0.0","A2JV0ESAFE7VXL","","","","{""Q0"":""artistic trees entering a house""}","","","","","","","","","","","","","","","","","","","","","","",""
"3318.39999999851","","image-slider-response","99","791934","0.0-95.0","A2JV0ESAFE7VXL","","","","","23","","","","","","","","","","","","","","","","","","","","","",""
"3670","","image-button-response","100","796947","0.0-96.0","A2JV0ESAFE7VXL","img_art/17.jpg","3","","","","","","","","","","","","","","","","","","","","","","","","",""
"1232","","image-button-response","101","798192","0.0-97.0","A2JV0ESAFE7VXL","img_art/17.jpg","4","","","","","","","","","","","","","","","","","","","","","","","","",""
"6383","","image-button-response","102","804580","0.0-98.0-0.0","A2JV0ESAFE7VXL","img_art/17.jpg","0","","","","","","","","","","","","","","","","","","","","","","","","",""
"10342","","image-button-response","103","814929","0.0-99.0-0.0","A2JV0ESAFE7VXL","img_art/17.jpg","2","","","","","","","","","","","","","","","","","","","","","","","","",""
"null","","html-keyboard-response","104","815941","0.0-100.0","A2JV0ESAFE7VXL","<p style=""font-size: 48px;"">+</p>","","","","","null","allTrialResponses","1000","1","8","img_art/17.jpg","23","artistic trees entering a house","Victor,Logan,Travis,Carlos,Mitchell,Michael","cool. Sharp and blocky below, light and flowing on top. Overall pleasing to look at,32,340,20","similar to last one, still pretty cool but I liked arrangement of last one better,13,360,20","Very pretty...the colors and good and flow well.,33,260,20","It feels like nature overtaking civilization.,21,80,20","Nature coming to the inside of your space that you are locked into.,50,180,20","There is better structure and direction in this one.,19,140,20","Mitchell","Nature coming to the inside of your space that you are locked into.,50,180,20","Victor","cool. Sharp and blocky below, light and flowing on top. Overall pleasing to look at,32,340,20","Travis","Very pretty...the colors and good and flow well.,33,260,20","6"
"23468","","survey-text","105","839453","0.0-101.0-0.0","A2JV0ESAFE7VXL","","","","{""Q0"":""very abstract and colorful""}","","","","","","","","","","","","","","","","","","","","","","",""
"2966.4000000003725","","image-slider-response","106","842425","0.0-102.0","A2JV0ESAFE7VXL","","","","","-8","","","","","","","","","","","","","","","","","","","","","",""
"4298","","image-button-response","107","847435","0.0-103.0","A2JV0ESAFE7VXL","img_art/18.jpg","3","","","","","","","","","","","","","","","","","","","","","","","","",""
"2563","","image-button-response","108","850005","0.0-104.0","A2JV0ESAFE7VXL","img_art/18.jpg","4","","","","","","","","","","","","","","","","","","","","","","","","",""
"2043","","image-button-response","109","852052","0.0-105.0-0.0","A2JV0ESAFE7VXL","img_art/18.jpg","0","","","","","","","","","","","","","","","","","","","","","","","","",""
"3576","","image-button-response","110","855634","0.0-106.0-0.0","A2JV0ESAFE7VXL","img_art/18.jpg","1","","","","","","","","","","","","","","","","","","","","","","","","",""
"null","","html-keyboard-response","111","856650","0.0-107.0","A2JV0ESAFE7VXL","<p style=""font-size: 48px;"">+</p>","","","","","null","allTrialResponses","1000","1","9","img_art/18.jpg","-8","very abstract and colorful","Victor,Jeffrey,Travis,Derek,Mitchell,Brandon","nice balance of color. The different sizes and types of strokes give a lot to look at,18,340,20","Makes me to look at it and investigate what it is about and what is going on,17,40,20","I don't know...kind of a dissatified feeling inside.,-6,260,20","Very wild and abstract. I love it and would definitely hang this up in my home,50,360,20","Karma. being ruthless and all the time knowing the shit is gonna catch up with you.,10,180,20","Crusade-feel, but a little too abstract for my taste,23,320,20","Mitchell","Karma. being ruthless and all the time knowing the shit is gonna catch up with you.,10,180,20","Victor","nice balance of color. The different sizes and types of strokes give a lot to look at,18,340,20","Jeffrey","Makes me to look at it and investigate what it is about and what is going on,17,40,20","6"
"18693","","survey-text","112","875361","0.0-108.0-0.0","A2JV0ESAFE7VXL","","","","{""Q0"":""city dwelling from the sky view""}","","","","","","","","","","","","","","","","","","","","","","",""
"4234.5999999996275","","image-slider-response","113","879601","0.0-109.0","A2JV0ESAFE7VXL","","","","","26","","","","","","","","","","","","","","","","","","","","","",""
"null","","image-button-response","114","884610","0.0-110.0","A2JV0ESAFE7VXL","img_art/8.jpg","null","","","","","","","","","","","","","","","","","","","","","","","","",""
"773","","image-button-response","115","885388","0.0-111.0","A2JV0ESAFE7VXL","img_art/8.jpg","4","","","","","","","","","","","","","","","","","","","","","","","","",""
"3217","","image-button-response","116","888610","0.0-112.0-0.0","A2JV0ESAFE7VXL","img_art/8.jpg","0","","","","","","","","","","","","","","","","","","","","","","","","",""
"6445","","image-button-response","117","895063","0.0-113.0-0.0","A2JV0ESAFE7VXL","img_art/8.jpg","2","","","","","","","","","","","","","","","","","","","","","","","","",""
"null","","html-keyboard-response","118","896069","0.0-114.0","A2JV0ESAFE7VXL","<p style=""font-size: 48px;"">+</p>","","","","","null","allTrialResponses","1000","1","10","img_art/8.jpg","26","city dwelling from the sky view","Victor,Jeffrey,Luke,Timothy,Mitchell,Isaiah","I like the colors,10,340,20","Very busy, I want to look at it and investigate,23,40,20","It is very colorful with a deeper meaning,25,20,20","Too much going on, too many colors, makes me feel uneasy,-20,240,20","Lost in a big city confuse as to where to go to next. No matter if you live in a mansion or homeless. Being bigger than what is going on around you,30,180,20","It makes me feel nervous. I can't tell ifI'm looking at an apartment, or a hellscape.,-18,300,20","Mitchell","Lost in a big city confuse as to where to go to next. No matter if you live in a mansion or homeless. Being bigger than what is going on around you,30,180,20","Victor","I like the colors,10,340,20","Luke","It is very colorful with a deeper meaning,25,20,20","6"
"4313","","survey-text","119","900414","0.0-115.0-0.0","A2JV0ESAFE7VXL","","","","{""Q0"":""our""}","","","","","","","","","","","","","","","","","","","","","","",""
"12602","","survey-text","120","913020","0.0-116.0-0.0","A2JV0ESAFE7VXL","","","","{""Q0"":""bleak and dark no color""}","","","","","","","","","","","","","","","","","","","","","","",""
"3208.5999999996275","","image-slider-response","121","916234","0.0-117.0","A2JV0ESAFE7VXL","","","","","-35","","","","","","","","","","","","","","","","","","","","","",""
"2713","","image-button-response","122","921257","0.0-118.0","A2JV0ESAFE7VXL","img_art/15.jpg","3","","","","","","","","","","","","","","","","","","","","","","","","",""
"2323","","image-button-response","123","923588","0.0-119.0","A2JV0ESAFE7VXL","img_art/15.jpg","5","","","","","","","","","","","","","","","","","","","","","","","","",""
"1279","","image-button-response","124","924873","0.0-120.0-0.0","A2JV0ESAFE7VXL","img_art/15.jpg","3","","","","","","","","","","","","","","","","","","","","","","","","",""
"1414","","image-button-response","125","926293","0.0-121.0-0.0","A2JV0ESAFE7VXL","img_art/15.jpg","0","","","","","","","","","","","","","","","","","","","","","","","","",""
"null","","html-keyboard-response","126","926796","0.0-122.0","A2JV0ESAFE7VXL","<p style=""font-size: 48px;"">+</p>","","","","","null","allTrialResponses","500","1","11","img_art/15.jpg","-35","bleak and dark no color","Victor,Cameron,Luke,Luis,Mitchell,Shane","I like the random blue dabs to break up the black, but it looks unfinished.,4,340,20","This one reminds me of a postage stamp, but branches and leaves. Kind of fun.,15,60,20","it looks like trees but they are up to interpretation,16,20,20","Extreme darkness and sadness,-30,400,20","ants on the ground playing with bubble gum. They may be thinking of how they can use it to build something,-30,180,20","Too intense with the black dotting,-22,80,20","Shane","Too intense with the black dotting,-22,80,20","Luis","Extreme darkness and sadness,-30,400,20","Victor","I like the random blue dabs to break up the black, but it looks unfinished.,4,340,20","6"
"27643","","survey-text","127","954460","0.0-123.0-0.0","A2JV0ESAFE7VXL","","","","{""Q0"":""looks like wallpaper from grandma's""}","","","","","","","","","","","","","","","","","","","","","","",""
"3434.300000000745","","image-slider-response","128","957900","0.0-124.0","A2JV0ESAFE7VXL","","","","","-17","","","","","","","","","","","","","","","","","","","","","",""
"4616","","image-button-response","129","962911","0.0-125.0","A2JV0ESAFE7VXL","img_art/7.jpg","4","","","","","","","","","","","","","","","","","","","","","","","","",""
"6291","","image-button-response","130","969208","0.0-126.0","A2JV0ESAFE7VXL","img_art/7.jpg","1","","","","","","","","","","","","","","","","","","","","","","","","",""
"9292","","image-button-response","131","978507","0.0-127.0-0.0","A2JV0ESAFE7VXL","img_art/7.jpg","5","","","","","","","","","","","","","","","","","","","","","","","","",""
"995","","image-button-response","132","979510","0.0-128.0-0.0","A2JV0ESAFE7VXL","img_art/7.jpg","0","","","","","","","","","","","","","","","","","","","","","","","","",""
"null","","html-keyboard-response","133","981021","0.0-129.0","A2JV0ESAFE7VXL","<p style=""font-size: 48px;"">+</p>","","","","","null","allTrialResponses","1500","1","12","img_art/7.jpg","-17","looks like wallpaper from grandma's","Victor,Jack,Paul,Luis,Caleb,Shane","I like the texture,12,340,20","reminds me of a desert from far above,23,320,20","It looks like bloody scabs on skin, I don't like it,-42,300,20","Not getting the vibe i would like from this,-30,400,20","More saturated color, even more interpretations to have.,44,40,20","Dessert like almost like dry land,4,80,20","Jack","reminds me of a desert from far above,23,320,20","Shane","Dessert like almost like dry land,4,80,20","Victor","I like the texture,12,340,20","6"
"20739","","survey-text","134","1001779","0.0-130.0-0.0","A2JV0ESAFE7VXL","","","","{""Q0"":""very realistic deli and city""}","","","","","","","","","","","","","","","","","","","","","","",""
"3343.2000000011176","","image-slider-response","135","1005127","0.0-131.0","A2JV0ESAFE7VXL","","","","","26","","","","","","","","","","","","","","","","","","","","","",""
"4850","","image-button-response","136","1010144","0.0-132.0","A2JV0ESAFE7VXL","img_art/19.jpg","3","","","","","","","","","","","","","","","","","","","","","","","","",""
"3569","","image-button-response","137","1013720","0.0-133.0","A2JV0ESAFE7VXL","img_art/19.jpg","5","","","","","","","","","","","","","","","","","","","","","","","","",""
"1004","","image-button-response","138","1014730","0.0-134.0-0.0","A2JV0ESAFE7VXL","img_art/19.jpg","3","","","","","","","","","","","","","","","","","","","","","","","","",""
"1006","","image-button-response","139","1015742","0.0-135.0-0.0","A2JV0ESAFE7VXL","img_art/19.jpg","0","","","","","","","","","","","","","","","","","","","","","","","","",""
"null","","html-keyboard-response","140","1016749","0.0-136.0","A2JV0ESAFE7VXL","<p style=""font-size: 48px;"">+</p>","","","","","null","allTrialResponses","1000","1","13","img_art/19.jpg","26","very realistic deli and city","Victor,Jack,Seth,Evan,Justin,Shane","too much going on, can't tell what it is,-14,340,20","love the muted colors and added sketchy lines. calming without being boring.,50,320,20","I wasn't sure if I liked it or hated it. It oddly reminds me of a clothing store.,11,60,20","It makes me feel like it is of a street of bakeries,15,140,20","It looks too much of a rough sketch. Don't really enjoy looking at it.,-9,280,20","A day in a small city,45,80,20","Shane","A day in a small city,45,80,20","Evan","It makes me feel like it is of a street of bakeries,15,140,20","Victor","too much going on, can't tell what it is,-14,340,20","6"
"12018","","survey-text","141","1028775","0.0-137.0-0.0","A2JV0ESAFE7VXL","","","","{""Q0"":""water fall over rocks""}","","","","","","","","","","","","","","","","","","","","","","",""
"4157.4000000003725","","image-slider-response","142","1032937","0.0-138.0","A2JV0ESAFE7VXL","","","","","41","","","","","","","","","","","","","","","","","","","","","",""
"3686","","image-button-response","143","1037966","0.0-139.0","A2JV0ESAFE7VXL","img_art/24.jpg","4","","","","","","","","","","","","","","","","","","","","","","","","",""
"670","","image-button-response","144","1038645","0.0-140.0","A2JV0ESAFE7VXL","img_art/24.jpg","5","","","","","","","","","","","","","","","","","","","","","","","","",""
"1144","","image-button-response","145","1039797","0.0-141.0-0.0","A2JV0ESAFE7VXL","img_art/24.jpg","4","","","","","","","","","","","","","","","","","","","","","","","","",""
"5725","","image-button-response","146","1045529","0.0-142.0-0.0","A2JV0ESAFE7VXL","img_art/24.jpg","2","","","","","","","","","","","","","","","","","","","","","","","","",""
"null","","html-keyboard-response","147","1046039","0.0-143.0","A2JV0ESAFE7VXL","<p style=""font-size: 48px;"">+</p>","","","","","null","allTrialResponses","500","1","14","img_art/24.jpg","41","water fall over rocks","Victor,Elijah,Mason,Evan,David,Shane","I don't even know. It's just kind of meh,1,340,20","Like it, nice attention to details,31,80,20","Nature, abstract, I'd hang this in my house.,37,100,20","It feels very serene,19,140,20","Invokes a strong sense of nature, since the piece can interpreted as a stream or an abstracted bird.,40,340,20","A peaceful day by the river,42,80,20","Shane","A peaceful day by the river,42,80,20","David","Invokes a strong sense of nature, since the piece can interpreted as a stream or an abstracted bird.,40,340,20","Mason","Nature, abstract, I'd hang this in my house.,37,100,20","6"
"18744","","survey-text","148","1064792","0.0-144.0-0.0","A2JV0ESAFE7VXL","","","","{""Q0"":""storm clouds but too many colors""}","","","","","","","","","","","","","","","","","","","","","","",""
"2948.699999999255","","image-slider-response","149","1067745","0.0-145.0","A2JV0ESAFE7VXL","","","","","11","","","","","","","","","","","","","","","","","","","","","",""
"null","","image-button-response","150","1072752","0.0-146.0","A2JV0ESAFE7VXL","img_art/21.jpg","null","","","","","","","","","","","","","","","","","","","","","","","","",""
"2121","","image-button-response","151","1074879","0.0-147.0","A2JV0ESAFE7VXL","img_art/21.jpg","5","","","","","","","","","","","","","","","","","","","","","","","","",""
"5663","","image-button-response","152","1080548","0.0-148.0-0.0","A2JV0ESAFE7VXL","img_art/21.jpg","1","","","","","","","","","","","","","","","","","","","","","","","","",""
"7111","","image-button-response","153","1087666","0.0-149.0-0.0","A2JV0ESAFE7VXL","img_art/21.jpg","4","","","","","","","","","","","","","","","","","","","","","","","","",""
"null","","html-keyboard-response","154","1089182","0.0-150.0","A2JV0ESAFE7VXL","<p style=""font-size: 48px;"">+</p>","","","","","null","allTrialResponses","1500","1","15","img_art/21.jpg","11","storm clouds but too many colors","Andrew,Sean,Mason,Peter,David,Shane","I love the contrasting tones between the two sides,36,160,20","my response to the picture is what is going on?,-13,40,20","Don't know why I like it, cant describe, maybe many landscapes?,47,100,20","I like the two sides meeting, like a movie scene,15,320,20","I like how the piece has the possibility of depicting some type of story.,30,340,20","It reminds me of war, red blood and dark blue reminds me of an army,-20,80,20","Shane","It reminds me of war, red blood and dark blue reminds me of an army,-20,80,20","Sean","my response to the picture is what is going on?,-13,40,20","David","I like how the piece has the possibility of depicting some type of story.,30,340,20","6"
"8950","","survey-text","155","1098169","0.0-151.0-0.0","A2JV0ESAFE7VXL","","","","{""Q0"":""course""}","","","","","","","","","","","","","","","","","","","","","","",""
"16244","","survey-text","156","1114417","0.0-152.0-0.0","A2JV0ESAFE7VXL","","","","{""Q0"":""hand all in knots""}","","","","","","","","","","","","","","","","","","","","","","",""
"4972.4000000003725","","image-slider-response","157","1119395","0.0-153.0","A2JV0ESAFE7VXL","","","","","14","","","","","","","","","","","","","","","","","","","","","",""
"4328","","image-button-response","158","1124404","0.0-154.0","A2JV0ESAFE7VXL","img_art/4.jpg","3","","","","","","","","","","","","","","","","","","","","","","","","",""
"2956","","image-button-response","159","1127369","0.0-155.0","A2JV0ESAFE7VXL","img_art/4.jpg","5","","","","","","","","","","","","","","","","","","","","","","","","",""
"1162","","image-button-response","160","1128536","0.0-156.0-0.0","A2JV0ESAFE7VXL","img_art/4.jpg","3","","","","","","","","","","","","","","","","","","","","","","","","",""
"6446","","image-button-response","161","1134989","0.0-157.0-0.0","A2JV0ESAFE7VXL","img_art/4.jpg","1","","","","","","","","","","","","","","","","","","","","","","","","",""
"null","","html-keyboard-response","162","1135493","0.0-158.0","A2JV0ESAFE7VXL","<p style=""font-size: 48px;"">+</p>","","","","","null","allTrialResponses","500","1","16","img_art/4.jpg","14","hand all in knots","Malik,Sean,Daniel,Gregory,David,Shane","Reminds me of late night frustrated paintings of my own made of coffee,12,40,20","dont know what im looking at,1,40,20","Better version of a 7 year old who got lucky,-23,320,20","Mustard yellow doesn't do it for me,-25,220,20","I like the design. It can be interpreted in various ways, such as a hand of horror or still piece.,15,340,20","Looks like a creative hand,45,80,20","Shane","Looks like a creative hand,45,80,20","Gregory","Mustard yellow doesn't do it for me,-25,220,20","Sean","dont know what im looking at,1,40,20","6"
"21926","","survey-text","163","1157446","0.0-159.0-0.0","A2JV0ESAFE7VXL","","","","{""Q0"":""desert scene with colors""}","","","","","","","","","","","","","","","","","","","","","","",""
"2613.4000000003725","","image-slider-response","164","1160064","0.0-160.0","A2JV0ESAFE7VXL","","","","","24","","","","","","","","","","","","","","","","","","","","","",""
"4323","","image-button-response","165","1165074","0.0-161.0","A2JV0ESAFE7VXL","img_art/14.jpg","5","","","","","","","","","","","","","","","","","","","","","","","","",""
"4266","","image-button-response","166","1169347","0.0-162.0","A2JV0ESAFE7VXL","img_art/14.jpg","0","","","","","","","","","","","","","","","","","","","","","","","","",""
"1514","","image-button-response","167","1170868","0.0-163.0-0.0","A2JV0ESAFE7VXL","img_art/14.jpg","5","","","","","","","","","","","","","","","","","","","","","","","","",""
"7284","","image-button-response","168","1178159","0.0-164.0-0.0","A2JV0ESAFE7VXL","img_art/14.jpg","3","","","","","","","","","","","","","","","","","","","","","","","","",""
"null","","html-keyboard-response","169","1179672","0.0-165.0","A2JV0ESAFE7VXL","<p style=""font-size: 48px;"">+</p>","","","","","null","allTrialResponses","1500","1","17","img_art/14.jpg","24","desert scene with colors","Marcus,Sean,Blake,Gregory,Connor,Shane","I like the colors and the shapes are interesting,11,60,20","my reaction is that the picture is wierd,-14,40,20","fuzzy and confused. ok then well,16,280,20","Not as cool as other tree looking paintings,-5,220,20","Looks childish and basic,-42,240,20","Feels like a camp fire among friends,22,80,20","Marcus","I like the colors and the shapes are interesting,11,60,20","Shane","Feels like a camp fire among friends,22,80,20","Gregory","Not as cool as other tree looking paintings,-5,220,20","6"
"24707","","survey-text","170","1204397","0.0-166.0-0.0","A2JV0ESAFE7VXL","","","","{""Q0"":""blaze painting too dark""}","","","","","","","","","","","","","","","","","","","","","","",""
"3383.9000000003725","","image-slider-response","171","1207785","0.0-167.0","A2JV0ESAFE7VXL","","","","","-29","","","","","","","","","","","","","","","","","","","","","",""
"null","","image-button-response","172","1212792","0.0-168.0","A2JV0ESAFE7VXL","img_art/29.jpg","null","","","","","","","","","","","","","","","","","","","","","","","","",""
"3641","","image-button-response","173","1216439","0.0-169.0","A2JV0ESAFE7VXL","img_art/29.jpg","4","","","","","","","","","","","","","","","","","","","","","","","","",""
"2347","","image-button-response","174","1218792","0.0-170.0-0.0","A2JV0ESAFE7VXL","img_art/29.jpg","5","","","","","","","","","","","","","","","","","","","","","","","","",""
"8129","","image-button-response","175","1226927","0.0-171.0-0.0","A2JV0ESAFE7VXL","img_art/29.jpg","0","","","","","","","","","","","","","","","","","","","","","","","","",""
"null","","html-keyboard-response","176","1228432","0.0-172.0","A2JV0ESAFE7VXL","<p style=""font-size: 48px;"">+</p>","","","","","null","allTrialResponses","1500","1","18","img_art/29.jpg","-29","blaze painting too dark","Marcus,Christian,Isaac,Gregory,Tyler,Shane","I would like this piece better without the red X across it,-10,60,20","love the texture, i don't know, i just really like it (and the paintbrush adds a nice touch),44,140,20","It is intriguing but I don't like the red X.,6,280,20","3D looks is really cool,30,220,20","Well if the artist themself is crossing it out, why should I pay any mind?,-30,320,20","Darkness and torment,-50,80,20","Tyler","Well if the artist themself is crossing it out, why should I pay any mind?,-30,320,20","Shane","Darkness and torment,-50,80,20","Marcus","I would like this piece better without the red X across it,-10,60,20","6"
"15994","","survey-text","177","1244450","0.0-173.0-0.0","A2JV0ESAFE7VXL","","","","{""Q0"":""streaks are good""}","","","","","","","","","","","","","","","","","","","","","","",""
"3089.7999999988824","","image-slider-response","178","1247545","0.0-174.0","A2JV0ESAFE7VXL","","","","","-19","","","","","","","","","","","","","","","","","","","","","",""
"3082","","image-button-response","179","1252566","0.0-175.0","A2JV0ESAFE7VXL","img_art/13.jpg","3","","","","","","","","","","","","","","","","","","","","","","","","",""
"1785","","image-button-response","180","1254357","0.0-176.0","A2JV0ESAFE7VXL","img_art/13.jpg","5","","","","","","","","","","","","","","","","","","","","","","","","",""
"1116","","image-button-response","181","1255479","0.0-177.0-0.0","A2JV0ESAFE7VXL","img_art/13.jpg","3","","","","","","","","","","","","","","","","","","","","","","","","",""
"8161","","image-button-response","182","1263647","0.0-178.0-0.0","A2JV0ESAFE7VXL","img_art/13.jpg","2","","","","","","","","","","","","","","","","","","","","","","","","",""
"null","","html-keyboard-response","183","1264156","0.0-179.0","A2JV0ESAFE7VXL","<p style=""font-size: 48px;"">+</p>","","","","","null","allTrialResponses","500","1","19","img_art/13.jpg","-19","streaks are good","Marcus,Alexis,Noah,Kevin,Tyler,Shane","It's okay. Feels like a blander take on a Jackson Pollack,11,60,20","It looks too common, is a bit boring,-41,140,20","evokes a dampening feeling,-9,260,20","Debree on top of a calm pond.,18,320,20","Pollock? Love the juxtaposition of colors. Soothing and stirring, a beautiful inexplicable paradox.,50,320,20","Rain drops on a window,35,80,20","Shane","Rain drops on a window,35,80,20","Kevin","Debree on top of a calm pond.,18,320,20","Noah","evokes a dampening feeling,-9,260,20","6"
"10328","","survey-text","184","1274511","0.0-180.0-0.0","A2JV0ESAFE7VXL","","","","{""Q0"":""dancers in a theater""}","","","","","","","","","","","","","","","","","","","","","","",""
"3169.199999999255","","image-slider-response","185","1277685","0.0-181.0","A2JV0ESAFE7VXL","","","","","24","","","","","","","","","","","","","","","","","","","","","",""
"4620","","image-button-response","186","1282704","0.0-182.0","A2JV0ESAFE7VXL","img_art/23.jpg","5","","","","","","","","","","","","","","","","","","","","","","","","",""
"7024","","image-button-response","187","1289736","0.0-183.0","A2JV0ESAFE7VXL","img_art/23.jpg","2","","","","","","","","","","","","","","","","","","","","","","","","",""
"2211","","image-button-response","188","1291955","0.0-184.0-0.0","A2JV0ESAFE7VXL","img_art/23.jpg","5","","","","","","","","","","","","","","","","","","","","","","","","",""
"2502","","image-button-response","189","1294464","0.0-185.0-0.0","A2JV0ESAFE7VXL","img_art/23.jpg","4","","","","","","","","","","","","","","","","","","","","","","","","",""
"null","","html-keyboard-response","190","1294980","0.0-186.0","A2JV0ESAFE7VXL","<p style=""font-size: 48px;"">+</p>","","","","","null","allTrialResponses","500","1","20","img_art/23.jpg","24","dancers in a theater","Devin,Ethan,Noah,Kevin,Antonio,Shane","background is great but the white is a bit weird,3,380,20","The colors are ugly. I don't like the white. It doesn't compliment the piece at all.,-44,120,20","the pattern of colours imbues in me a sense of infinity, which I find soothing,10,260,20","Looks like fish fossils,12,320,20","Like the colors and made me feel happy,23,220,20","Love the line in the middle separating the two dark sides,50,80,20","Noah","the pattern of colours imbues in me a sense of infinity, which I find soothing,10,260,20","Shane","Love the line in the middle separating the two dark sides,50,80,20","Antonio","Like the colors and made me feel happy,23,220,20","6"
"3315","","survey-text","191","1298319","0.0-187.0-0.0","A2JV0ESAFE7VXL","","","","{""Q0"":""we""}","","","","","","","","","","","","","","","","","","","","","","",""
"18882","","survey-text","192","1317205","0.0-188.0-0.0","A2JV0ESAFE7VXL","","","","{""Q0"":""too splashy and childish""}","","","","","","","","","","","","","","","","","","","","","","",""
"5953.199999999255","","image-slider-response","193","1323163","0.0-189.0","A2JV0ESAFE7VXL","","","","","-22","","","","","","","","","","","","","","","","","","","","","",""
"4754","","image-button-response","194","1328179","0.0-190.0","A2JV0ESAFE7VXL","img_art/2.jpg","4","","","","","","","","","","","","","","","","","","","","","","","","",""
"3337","","image-button-response","195","1331522","0.0-191.0","A2JV0ESAFE7VXL","img_art/2.jpg","1","","","","","","","","","","","","","","","","","","","","","","","","",""
"1961","","image-button-response","196","1333490","0.0-192.0-0.0","A2JV0ESAFE7VXL","img_art/2.jpg","3","","","","","","","","","","","","","","","","","","","","","","","","",""
"2266","","image-button-response","197","1335763","0.0-193.0-0.0","A2JV0ESAFE7VXL","img_art/2.jpg","0","","","","","","","","","","","","","","","","","","","","","","","","",""
"null","","html-keyboard-response","198","1336267","0.0-194.0","A2JV0ESAFE7VXL","<p style=""font-size: 48px;"">+</p>","","","","","null","allTrialResponses","500","1","21","img_art/2.jpg","-22","too splashy and childish","Ryan,Steven,Noah,Nathan,Antonio,Shane","Very simple and childish,40,380,20","I can't get past the fact that it looks like someone wearing a mask,-46,160,20","again, I struggle to see the art and I dislike the green in particular.,-31,260,20","Not a fan of this style,-30,200,20","Colors are drab and cause a sense of blandness,-28,220,20","Feels like a playground or park vibe,27,80,20","Steven","I can't get past the fact that it looks like someone wearing a mask,-46,160,20","Nathan","Not a fan of this style,-30,200,20","Ryan","Very simple and childish,40,380,20","6"
"15589","","survey-text","199","1351880","0.0-195.0-0.0","A2JV0ESAFE7VXL","","","","{""Q0"":""weather vane in the desert""}","","","","","","","","","","","","","","","","","","","","","","",""
"3491.300000000745","","image-slider-response","200","1355377","0.0-196.0","A2JV0ESAFE7VXL","","","","","-19","","","","","","","","","","","","","","","","","","","","","",""
"4790","","image-button-response","201","1360389","0.0-197.0","A2JV0ESAFE7VXL","img_art/6.jpg","4","","","","","","","","","","","","","","","","","","","","","","","","",""
"5565","","image-button-response","202","1365961","0.0-198.0","A2JV0ESAFE7VXL","img_art/6.jpg","0","","","","","","","","","","","","","","","","","","","","","","","","",""
"1397","","image-button-response","203","1367366","0.0-199.0-0.0","A2JV0ESAFE7VXL","img_art/6.jpg","4","","","","","","","","","","","","","","","","","","","","","","","","",""
"3466","","image-button-response","204","1370838","0.0-200.0-0.0","A2JV0ESAFE7VXL","img_art/6.jpg","2","","","","","","","","","","","","","","","","","","","","","","","","",""
"null","","html-keyboard-response","205","1371854","0.0-201.0","A2JV0ESAFE7VXL","<p style=""font-size: 48px;"">+</p>","","","","","null","allTrialResponses","1000","1","22","img_art/6.jpg","-19","weather vane in the desert","Ryan,Steven,Jake,Nathan,Stephen,Jared","Makes me feel lonely,-22,380,20","This is interesting, I feel solitude, and loneliness from this.,13,160,20","It feels sad but it's nice to look at.,4,360,20","Not a fan of anything in this,-43,200,20","Good painting but too simple to care about it for very long.,-15,140,20","simplistic. i love orange and green and i love the subject,50,400,20","Ryan","Makes me feel lonely,-22,380,20","Stephen","Good painting but too simple to care about it for very long.,-15,140,20","Jake","It feels sad but it's nice to look at.,4,360,20","6"
"24644","","survey-text","206","1396521","0.0-202.0-0.0","A2JV0ESAFE7VXL","","","","{""Q0"":""city view with a church""}","","","","","","","","","","","","","","","","","","","","","","",""
"2777.2000000011176","","image-slider-response","207","1399303","0.0-203.0","A2JV0ESAFE7VXL","","","","","23","","","","","","","","","","","","","","","","","","","","","",""
"null","","image-button-response","208","1404319","0.0-204.0","A2JV0ESAFE7VXL","img_art/27.jpg","null","","","","","","","","","","","","","","","","","","","","","","","","",""
"1620","","image-button-response","209","1405945","0.0-205.0","A2JV0ESAFE7VXL","img_art/27.jpg","1","","","","","","","","","","","","","","","","","","","","","","","","",""
"6648","","image-button-response","210","1412601","0.0-206.0-0.0","A2JV0ESAFE7VXL","img_art/27.jpg","3","","","","","","","","","","","","","","","","","","","","","","","","",""
"3982","","image-button-response","211","1416590","0.0-207.0-0.0","A2JV0ESAFE7VXL","img_art/27.jpg","0","","","","","","","","","","","","","","","","","","","","","","","","",""
"null","","html-keyboard-response","212","1417600","0.0-208.0","A2JV0ESAFE7VXL","<p style=""font-size: 48px;"">+</p>","","","","","null","allTrialResponses","1000","1","23","img_art/27.jpg","23","city view with a church","Ryan,Spencer,Jake,Brendan,Stephen,Grant","I love the childish aspect to it,37,380,20","An attractive assortment of squiggles and colors,22,120,20","This looks like a poor copy of Cy Twombly's style.,-3,360,20","nice firestorm on desert,23,340,20","This one does nothing for me.,2,140,20","This feels like I'm looking at a child's scribbles.,-27,200,20","Spencer","An attractive assortment of squiggles and colors,22,120,20","Brendan","nice firestorm on desert,23,340,20","Ryan","I love the childish aspect to it,37,380,20","6"
"11968","","survey-text","213","1429592","0.0-209.0-0.0","A2JV0ESAFE7VXL","","","","{""Q0"":""nothing for me""}","","","","","","","","","","","","","","","","","","","","","","",""
"4070.5999999996275","","image-slider-response","214","1433667","0.0-210.0","A2JV0ESAFE7VXL","","","","","-27","","","","","","","","","","","","","","","","","","","","","",""
"4728","","image-button-response","215","1438677","0.0-211.0","A2JV0ESAFE7VXL","img_art/25.jpg","1","","","","","","","","","","","","","","","","","","","","","","","","",""
"4351","","image-button-response","216","1443035","0.0-212.0","A2JV0ESAFE7VXL","img_art/25.jpg","1","","","","","","","","","","","","","","","","","","","","","","","","",""
"4465","","image-button-response","217","1447504","0.0-213.0-0.0","A2JV0ESAFE7VXL","img_art/25.jpg","5","","","","","","","","","","","","","","","","","","","","","","","","",""
"2878","","image-button-response","218","1450391","0.0-214.0-0.0","A2JV0ESAFE7VXL","img_art/25.jpg","4","","","","","","","","","","","","","","","","","","","","","","","","",""
"null","","html-keyboard-response","219","1451897","0.0-215.0","A2JV0ESAFE7VXL","<p style=""font-size: 48px;"">+</p>","","","","","null","allTrialResponses","1500","1","24","img_art/25.jpg","-27","nothing for me","Ryan,Spencer,Jesse,Brendan,Christopher,Miguel","Reminds me of Mr. Burns on drugs in the Simpsons,-50,380,20","I really like it, very simple, very tribal,38,120,20","Creates a bit of fear in me for some reason,-26,80,20","is this an ancient woman?,-16,340,20","green is really cool, and the pieces in black fit together and are interesting,20,160,20","This is too simple,-22,160,20","Spencer","I really like it, very simple, very tribal,38,120,20","Miguel","This is too simple,-22,160,20","Christopher","green is really cool, and the pieces in black fit together and are interesting,20,160,20","6"
"19762","","survey-text","220","1471687","0.0-216.0-0.0","A2JV0ESAFE7VXL","","","","{""Q0"":""keys to open a door maybe""}","","","","","","","","","","","","","","","","","","","","","","",""
"3381.0999999996275","","image-slider-response","221","1475073","0.0-217.0","A2JV0ESAFE7VXL","","","","","-6","","","","","","","","","","","","","","","","","","","","","",""
"4667","","image-button-response","222","1480088","0.0-218.0","A2JV0ESAFE7VXL","img_art/22.jpg","4","","","","","","","","","","","","","","","","","","","","","","","","",""
"3329","","image-button-response","223","1483423","0.0-219.0","A2JV0ESAFE7VXL","img_art/22.jpg","3","","","","","","","","","","","","","","","","","","","","","","","","",""
"6098","","image-button-response","224","1489528","0.0-220.0-0.0","A2JV0ESAFE7VXL","img_art/22.jpg","2","","","","","","","","","","","","","","","","","","","","","","","","",""
"8528","","image-button-response","225","1498064","0.0-221.0-0.0","A2JV0ESAFE7VXL","img_art/22.jpg","1","","","","","","","","","","","","","","","","","","","","","","","","",""
"null","","html-keyboard-response","226","1498572","0.0-222.0","A2JV0ESAFE7VXL","<p style=""font-size: 48px;"">+</p>","","","","","null","allTrialResponses","500","1","25","img_art/22.jpg","-6","keys to open a door maybe","Alejandro,Spencer,Angel,Tanner,Christopher,Miguel","Beautiful use of chalk or pastels. Love the abstract nature.,35,80,20","Pretty colors but too blocky for me,-19,120,20","This piece gives off a cool vibe. Reminds me of being out in the city at night.,20,180,20","fire, danger, resentful,-17,180,20","boring, too many red and yellow tones for my taste,-15,160,20","Same az the last one?,-49,160,20","Tanner","fire, danger, resentful,-17,180,20","Angel","This piece gives off a cool vibe. Reminds me of being out in the city at night.,20,180,20","Spencer","Pretty colors but too blocky for me,-19,120,20","6"
"5181","","survey-text","227","1503803","0.0-223.0-0.0","A2JV0ESAFE7VXL","","","","{""Q0"":""table""}","","","","","","","","","","","","","","","","","","","","","","",""
"14543","","survey-text","228","1518351","0.0-224.0-0.0","A2JV0ESAFE7VXL","","","","{""Q0"":""a volcano about to erupt""}","","","","","","","","","","","","","","","","","","","","","","",""
"3243.39999999851","","image-slider-response","229","1521604","0.0-225.0","A2JV0ESAFE7VXL","","","","","-15","","","","","","","","","","","","","","","","","","","","","",""
"3334","","image-button-response","230","1526614","0.0-226.0","A2JV0ESAFE7VXL","img_art/5.jpg","4","","","","","","","","","","","","","","","","","","","","","","","","",""
"1815","","image-button-response","231","1528438","0.0-227.0","A2JV0ESAFE7VXL","img_art/5.jpg","1","","","","","","","","","","","","","","","","","","","","","","","","",""
"4723","","image-button-response","232","1533166","0.0-228.0-0.0","A2JV0ESAFE7VXL","img_art/5.jpg","2","","","","","","","","","","","","","","","","","","","","","","","","",""
"894","","image-button-response","233","1534069","0.0-229.0-0.0","A2JV0ESAFE7VXL","img_art/5.jpg","4","","","","","","","","","","","","","","","","","","","","","","","","",""
"null","","html-keyboard-response","234","1535582","0.0-230.0","A2JV0ESAFE7VXL","<p style=""font-size: 48px;"">+</p>","","","","","null","allTrialResponses","1500","1","26","img_art/5.jpg","-15","a volcano about to erupt","James,Spencer,Angel,Tanner,Bryce,Jose","Very bright and has colors you wouldn't think would go together,11,380,20","Boring, no flow except the pink feathery band,-42,120,20","I see a sign advising me to be cautious.,-20,180,20","sharp, painful yet playful,-5,180,20","I love the yellow! It really pops!,30,20,20","Don't love don't hate,8,200,20","Spencer","Boring, no flow except the pink feathery band,-42,120,20","Angel","I see a sign advising me to be cautious.,-20,180,20","Bryce","I love the yellow! It really pops!,30,20,20","6"
"24758","","survey-text","235","1560365","0.0-231.0-0.0","A2JV0ESAFE7VXL","","","","{""Q0"":""tossing of ships on the sea""}","","","","","","","","","","","","","","","","","","","","","","",""
"3099.2999999988824","","image-slider-response","236","1563474","0.0-232.0","A2JV0ESAFE7VXL","","","","","13","","","","","","","","","","","","","","","","","","","","","",""
"null","","image-button-response","237","1568485","0.0-233.0","A2JV0ESAFE7VXL","img_art/11.jpg","null","","","","","","","","","","","","","","","","","","","","","","","","",""
"1363","","image-button-response","238","1569854","0.0-234.0","A2JV0ESAFE7VXL","img_art/11.jpg","1","","","","","","","","","","","","","","","","","","","","","","","","",""
"2840","","image-button-response","239","1572698","0.0-235.0-0.0","A2JV0ESAFE7VXL","img_art/11.jpg","1","","","","","","","","","","","","","","","","","","","","","","","","",""
"2223","","image-button-response","240","1586093","0.0-235.1-0.1","A2JV0ESAFE7VXL","img_art/11.jpg","0","","","","","","","","","","","","","","","","","","","","","","","","",""
"981","","image-button-response","241","1587081","0.0-236.0-0.0","A2JV0ESAFE7VXL","img_art/11.jpg","5","","","","","","","","","","","","","","","","","","","","","","","","",""
"null","","html-keyboard-response","242","1587586","0.0-237.0","A2JV0ESAFE7VXL","<p style=""font-size: 48px;"">+</p>","","","","","null","allTrialResponses","500","1","27","img_art/11.jpg","13","tossing of ships on the sea","Charles,Spencer,Angel,Kenneth,Bryce,Brett","It's cables in a city,21,100,20","Even with the colors, it is dreary to me,-32,120,20","This is disorienting, like motion sickness.,-20,180,20","Its a little psychedelic.,10,300,20","Scary again. Not a fan.,-23,20,20","This looks like a busy highway system along a suburban background,40,360,20","Spencer","Even with the colors, it is dreary to me,-32,120,20","Charles","It's cables in a city,21,100,20","Brett","This looks like a busy highway system along a suburban background,40,360,20","8"
"9507","","survey-text","243","1597124","0.0-238.0-0.0","A2JV0ESAFE7VXL","","","","{""Q0"":""city and colorful""}","","","","","","","","","","","","","","","","","","","","","","",""
"5026.0999999996275","","image-slider-response","244","1602156","0.0-239.0","A2JV0ESAFE7VXL","","","","","17","","","","","","","","","","","","","","","","","","","","","",""
"null","","image-button-response","245","1607164","0.0-240.0","A2JV0ESAFE7VXL","img_art/26.jpg","null","","","","","","","","","","","","","","","","","","","","","","","","",""
"333","","image-button-response","246","1607503","0.0-241.0","A2JV0ESAFE7VXL","img_art/26.jpg","4","","","","","","","","","","","","","","","","","","","","","","","","",""
"2256","","image-button-response","247","1609767","0.0-242.0-0.0","A2JV0ESAFE7VXL","img_art/26.jpg","5","","","","","","","","","","","","","","","","","","","","","","","","",""
"7253","","image-button-response","248","1617025","0.0-243.0-0.0","A2JV0ESAFE7VXL","img_art/26.jpg","0","","","","","","","","","","","","","","","","","","","","","","","","",""
"null","","html-keyboard-response","249","1617533","0.0-244.0","A2JV0ESAFE7VXL","<p style=""font-size: 48px;"">+</p>","","","","","null","allTrialResponses","500","1","28","img_art/26.jpg","17","city and colorful","Charles,Spencer,Zachary,Tristan,Jesus,Brett","It looks like I'm staring out of the window of a nice house, but the house is mine,20,100,20","Really like it, a very nice neighborhood scene to me,42,120,20","Pretty trees and bushes around fancy brown stones. I like the soft nature.,20,400,20","The feeling that I am looking at the world through a dingy filter makes this unpleasant for me.,-20,300,20","Very interesting to look at, I like the shapes, textures and colors.,30,100,20","Picturesque little town,45,360,20","Jesus","Very interesting to look at, I like the shapes, textures and colors.,30,100,20","Brett","Picturesque little town,45,360,20","Charles","It looks like I'm staring out of the window of a nice house, but the house is mine,20,100,20","8"
"11569","","survey-text","250","1629144","0.0-245.0-0.0","A2JV0ESAFE7VXL","","","","{""Q0"":""no sense of purpose""}","","","","","","","","","","","","","","","","","","","","","","",""
"4267.4000000003725","","image-slider-response","251","1633416","0.0-246.0","A2JV0ESAFE7VXL","","","","","-11","","","","","","","","","","","","","","","","","","","","","",""
"2274","","image-button-response","252","1638424","0.0-247.0","A2JV0ESAFE7VXL","img_art/12.jpg","3","","","","","","","","","","","","","","","","","","","","","","","","",""
"3341","","image-button-response","253","1641771","0.0-248.0","A2JV0ESAFE7VXL","img_art/12.jpg","0","","","","","","","","","","","","","","","","","","","","","","","","",""
"5169","","image-button-response","254","1646945","0.0-249.0-0.0","A2JV0ESAFE7VXL","img_art/12.jpg","2","","","","","","","","","","","","","","","","","","","","","","","","",""
"1080","","image-button-response","255","1648035","0.0-250.0-0.0","A2JV0ESAFE7VXL","img_art/12.jpg","5","","","","","","","","","","","","","","","","","","","","","","","","",""
"null","","html-keyboard-response","256","1649040","0.0-251.0","A2JV0ESAFE7VXL","<p style=""font-size: 48px;"">+</p>","","","","","null","allTrialResponses","1000","1","29","img_art/12.jpg","-11","no sense of purpose","Charles,Thomas,Nicholas,Patrick,Jesus,Brett","Just not a fan, I can't figure out why,-17,100,20","Very interesting. Makes me want to look at it for a long time.,16,220,20","It is interesting but seems like some cheap painting from like walmart,24,240,20","I don't like the blocking,-20,280,20","I like the color scheme.,10,100,20","Night and day, light and dark,35,360,20","Charles","Just not a fan, I can't figure out why,-17,100,20","Nicholas","It is interesting but seems like some cheap painting from like walmart,24,240,20","Brett","Night and day, light and dark,35,360,20","8"
"18584","","survey-text","257","1667652","0.0-252.0-0.0","A2JV0ESAFE7VXL","","","","{""Q0"":""confusion in the midst of a storm""}","","","","","","","","","","","","","","","","","","","","","","",""
"3083.300000000745","","image-slider-response","258","1670740","0.0-253.0","A2JV0ESAFE7VXL","","","","","-25","","","","","","","","","","","","","","","","","","","","","",""
"null","","image-button-response","259","1675758","0.0-254.0","A2JV0ESAFE7VXL","img_art/9.jpg","null","","","","","","","","","","","","","","","","","","","","","","","","",""
"5496","","image-button-response","260","1681259","0.0-255.0","A2JV0ESAFE7VXL","img_art/9.jpg","0","","","","","","","","","","","","","","","","","","","","","","","","",""
"1696","","image-button-response","261","1682963","0.0-256.0-0.0","A2JV0ESAFE7VXL","img_art/9.jpg","3","","","","","","","","","","","","","","","","","","","","","","","","",""
"9201","","image-button-response","262","1692172","0.0-257.0-0.0","A2JV0ESAFE7VXL","img_art/9.jpg","4","","","","","","","","","","","","","","","","","","","","","","","","",""
"null","","html-keyboard-response","263","1693178","0.0-258.0","A2JV0ESAFE7VXL","<p style=""font-size: 48px;"">+</p>","","","","","null","allTrialResponses","1000","1","30","img_art/9.jpg","-25","confusion in the midst of a storm","Charles,Benjamin,Nicholas,Aaron,Eric,Brett","It's too all over the place,-37,100,20","looks like sleeping beauty in a garden,10,260,20","Some nice colors but i do not like it,-18,240,20","It looks like a child's crayon drawing.,-10,20,20","I see some of my favorite colors which I like, but I don't like what's portrayed.,35,100,20","Peaceful dreaming,40,360,20","Charles","It's too all over the place,-37,100,20","Aaron","It looks like a child's crayon drawing.,-10,20,20","Eric","I see some of my favorite colors which I like, but I don't like what's portrayed.,35,100,20","8"
"3832","","image-button-response_instructions","264","1697036","0.0-259.0","A2JV0ESAFE7VXL","","0","instructions","","","","","","","","","","","","","","","","","","","","","","","",""
"1805","","image-button-response","265","1698862","0.0-260.0","A2JV0ESAFE7VXL","","0","","","","","","","","","","","","","","","","","","","","","","","","",""
