"rt","url","trial_type","trial_index","time_elapsed","internal_node_id","participant_id","stimulus","button_pressed","Name","responses","response","key_press","variableName","fixationTime","condition","trial","photo","subjectRating","subjectResponse","agentsNames","agent_1_Response","agent_2_Response","agent_3_Response","agent_4_Response","agent_5_Response","agent_6_Response","kept_1_name","kept_1_response","kept_2_name","kept_2_response","kept_3_name","kept_3_response","errorCounter"
"329306","external_page_harvard.html","external-html","0","329354","0.0-0.0","A2KS62ZCHB0RLZ","","","","","","","","","","","","","","","","","","","","","","","","","","",""
"1668","","image-button-response","1","331025","0.0-1.0","A2KS62ZCHB0RLZ","","1","","","","","","","","","","","","","","","","","","","","","","","","",""
"4989","","image-button-response","2","336020","0.0-2.0-0.0","A2KS62ZCHB0RLZ","","1","phone","","","","","","","","","","","","","","","","","","","","","","","",""
"6338","","survey-text","3","342360","0.0-3.0-0.0","A2KS62ZCHB0RLZ","","","","{""Q0"":""A2KS62ZCHB0RLZ""}","","","","","","","","","","","","","","","","","","","","","","",""
"46534","","image-button-response_instructions","4","388897","0.0-4.0","A2KS62ZCHB0RLZ","","0","instructions","","","","","","","","","","","","","","","","","","","","","","","",""
"52664","","image-button-response_instructions","5","441563","0.0-5.0","A2KS62ZCHB0RLZ","img_art/ins/popularity/ins1.png","0","instructions","","","","","","","","","","","","","","","","","","","","","","","",""
"15260","","image-button-response_instructions","6","456825","0.0-6.0","A2KS62ZCHB0RLZ","img_art/ins/popularity/ins2.png","0","instructions","","","","","","","","","","","","","","","","","","","","","","","",""
"12222","","image-button-response_instructions","7","469049","0.0-7.0","A2KS62ZCHB0RLZ","img_art/ins/popularity/ins2Extreme.png","0","instructions","","","","","","","","","","","","","","","","","","","","","","","",""
"38808","","image-button-response_instructions","8","507859","0.0-8.0","A2KS62ZCHB0RLZ","img_art/ins/popularity/ins3KEEPpop.PNG","0","instructions","","","","","","","","","","","","","","","","","","","","","","","",""
"2690","","image-button-response_instructions","9","510551","0.0-9.0","A2KS62ZCHB0RLZ","img_art/ins/popularity/ins3ANamepop.PNG","0","instructions","","","","","","","","","","","","","","","","","","","","","","","",""
"2653","","image-button-response_instructions","10","513206","0.0-10.0","A2KS62ZCHB0RLZ","img_art/ins/popularity/ins3ARatingpop.png","0","instructions","","","","","","","","","","","","","","","","","","","","","","","",""
"1273","","image-button-response_instructions","11","514479","0.0-11.0","A2KS62ZCHB0RLZ","img_art/ins/popularity/ins3ATextpop.png","0","instructions","","","","","","","","","","","","","","","","","","","","","","","",""
"9043","","image-button-response_instructions","12","523524","0.0-12.0","A2KS62ZCHB0RLZ","img_art/ins/popularity/ins3ALikespop.png","0","instructions","","","","","","","","","","","","","","","","","","","","","","","",""
"28478","","image-button-response_instructions","13","552003","0.0-13.0","A2KS62ZCHB0RLZ","img_art/ins/popularity/ins3KEEPpop.PNG","0","instructions","","","","","","","","","","","","","","","","","","","","","","","",""
"31148","","image-button-response_instructions","14","583153","0.0-14.0","A2KS62ZCHB0RLZ","img_art/ins/popularity/ins3_5RED.png","0","instructions","","","","","","","","","","","","","","","","","","","","","","","",""
"4671","","image-button-response_instructions","15","587825","0.0-15.0","A2KS62ZCHB0RLZ","img_art/ins/popularity/ins3KEEPpop.PNG","0","instructions","","","","","","","","","","","","","","","","","","","","","","","",""
"39760","","image-button-response_instructions","16","627587","0.0-16.0","A2KS62ZCHB0RLZ","img_art/ins/popularity/ins4KEEPpop.PNG","0","instructions","","","","","","","","","","","","","","","","","","","","","","","",""
"6280","","image-button-response_instructions","17","633869","0.0-17.0","A2KS62ZCHB0RLZ","img_art/ins/popularity/ins5KEEPpop.PNG","0","instructions","","","","","","","","","","","","","","","","","","","","","","","",""
"1745","","image-button-response_instructions","18","635616","0.0-18.0","A2KS62ZCHB0RLZ","","0","instructions","","","","","","","","","","","","","","","","","","","","","","","",""
"7086","","survey-text","19","642740","0.0-19.0-0.0","A2KS62ZCHB0RLZ","","","","{""Q0"":""but""}","","","","","","","","","","","","","","","","","","","","","","",""
"23548","","survey-text","20","666291","0.0-20.0-0.0","A2KS62ZCHB0RLZ","","","","{""Q0"":""I like the color composition a lot.""}","","","","","","","","","","","","","","","","","","","","","","",""
"6204.39999999851","","image-slider-response","21","672499","0.0-21.0","A2KS62ZCHB0RLZ","","","","","29","","","","","","","","","","","","","","","","","","","","","",""
"null","","image-button-response","22","677512","0.0-22.0","A2KS62ZCHB0RLZ","img_art/ins/1.jpg","null","","","","","","","","","","","","","","","","","","","","","","","","",""
"2510","","image-button-response","23","680026","0.0-23.0","A2KS62ZCHB0RLZ","img_art/ins/1.jpg","4","","","","","","","","","","","","","","","","","","","","","","","","",""
"4013","","image-button-response","24","684042","0.0-24.0-0.0","A2KS62ZCHB0RLZ","img_art/ins/1.jpg","5","","","","","","","","","","","","","","","","","","","","","","","","",""
"3112","","image-button-response","25","687159","0.0-25.0-0.0","A2KS62ZCHB0RLZ","img_art/ins/1.jpg","3","","","","","","","","","","","","","","","","","","","","","","","","",""
"null","","html-keyboard-response","26","688664","0.0-26.0","A2KS62ZCHB0RLZ","<p style=""font-size: 48px;"">+</p>","","","","","null","allTrialResponses","1500","1","-2","img_art/ins/1.jpg","29","I like the color composition a lot.","Allison,Ashley,Beth,Dora,Erika,Jen","looks like a lot of things going on in the mist,20,20,20","I just don't get why these type of art would be popular,-32,40,20","This color reminds me of poo,-46,60,20","looks like what my niece in 3rd grade did this afternoon,-50,80,20","I like the sophisticated brushwork,40,100,20","It reminds me of a candy land dream I had,36,120,20","Erika","I like the sophisticated brushwork,40,100,20","Jen","It reminds me of a candy land dream I had,36,120,20","Dora","looks like what my niece in 3rd grade did this afternoon,-50,80,20","0"
"38516","","survey-text","27","727187","0.0-27.0-0.0","A2KS62ZCHB0RLZ","","","","{""Q0"":""The choice of contrasting colors is quite appealing.""}","","","","","","","","","","","","","","","","","","","","","","",""
"9275.70000000298","","image-slider-response","28","736465","0.0-28.0","A2KS62ZCHB0RLZ","","","","","33","","","","","","","","","","","","","","","","","","","","","",""
"null","","image-button-response","29","741478","0.0-29.0","A2KS62ZCHB0RLZ","img_art/ins/2.jpg","null","","","","","","","","","","","","","","","","","","","","","","","","",""
"2762","","image-button-response","30","744244","0.0-30.0","A2KS62ZCHB0RLZ","img_art/ins/2.jpg","1","","","","","","","","","","","","","","","","","","","","","","","","",""
"6496","","image-button-response","31","750744","0.0-31.0-0.0","A2KS62ZCHB0RLZ","img_art/ins/2.jpg","5","","","","","","","","","","","","","","","","","","","","","","","","",""
"6491","","image-button-response","32","757237","0.0-32.0-0.0","A2KS62ZCHB0RLZ","img_art/ins/2.jpg","4","","","","","","","","","","","","","","","","","","","","","","","","",""
"null","","html-keyboard-response","33","758240","0.0-33.0","A2KS62ZCHB0RLZ","<p style=""font-size: 48px;"">+</p>","","","","","null","allTrialResponses","1000","1","-1","img_art/ins/2.jpg","33","The choice of contrasting colors is quite appealing.","Jenna,Kara,Katie,Dora,Erika,Jen","One of my pet peevs,-48,140,20","I like the blocks of color arrangements,30,160,20","too much color!,-28,180,20","looks too angry,-50,80,20","I would never be able to compose a sophisticated pallete like this,48,100,20","It reminds me of a fireplace,36,120,20","Kara","I like the blocks of color arrangements,30,160,20","Jen","It reminds me of a fireplace,36,120,20","Erika","I would never be able to compose a sophisticated pallete like this,48,100,20","0"
"31549","","survey-text","34","789798","0.0-34.0-0.0","A2KS62ZCHB0RLZ","","","","{""Q0"":""Looks a bit cold, but also classy and imaginative.""}","","","","","","","","","","","","","","","","","","","","","","",""
"6380.70000000298","","image-slider-response","35","796181","0.0-35.0","A2KS62ZCHB0RLZ","","","","","24","","","","","","","","","","","","","","","","","","","","","",""
"null","","image-button-response","36","801192","0.0-36.0","A2KS62ZCHB0RLZ","img_art/ins/3.jpg","null","","","","","","","","","","","","","","","","","","","","","","","","",""
"1268","","image-button-response","37","802463","0.0-37.0","A2KS62ZCHB0RLZ","img_art/ins/3.jpg","1","","","","","","","","","","","","","","","","","","","","","","","","",""
"9827","","image-button-response","38","812293","0.0-38.0-0.0","A2KS62ZCHB0RLZ","img_art/ins/3.jpg","5","","","","","","","","","","","","","","","","","","","","","","","","",""
"7050","","image-button-response","39","819347","0.0-39.0-0.0","A2KS62ZCHB0RLZ","img_art/ins/3.jpg","0","","","","","","","","","","","","","","","","","","","","","","","","",""
"null","","html-keyboard-response","40","820356","0.0-40.0","A2KS62ZCHB0RLZ","<p style=""font-size: 48px;"">+</p>","","","","","null","allTrialResponses","1000","1","0","img_art/ins/3.jpg","24","Looks a bit cold, but also classy and imaginative.","Mary,Kara,Rose,Leslie,Erika,Jen","I like the overlapping of brushes,41,220,20","calming blue is very nice,36,160,20","My daily routine, it's depressing,-20,240,20","It's an alright work,15,200,20","I feel connected to the artist,40,100,20","I can feel a rainy day from this painting,18,120,20","Kara","calming blue is very nice,36,160,20","Jen","I can feel a rainy day from this painting,18,120,20","Mary","I like the overlapping of brushes,41,220,20","0"
"8719","","image-button-response_instructions","41","829085","0.0-41.0","A2KS62ZCHB0RLZ","","0","instructions","","","","","","","","","","","","","","","","","","","","","","","",""
"16966","","survey-likert","42","846054","0.0-42.0-0.0","A2KS62ZCHB0RLZ","","","","{""Q0"":"""",""Q1"":0,""Q2"":1}","","","","","","","","","","","","","","","","","","","","","","",""
"12500","","survey-text","43","858561","0.0-43.0-0.0","A2KS62ZCHB0RLZ","","","","{""Q0"":""rock""}","","","","","","","","","","","","","","","","","","","","","","",""
"68536","","survey-text","44","927099","0.0-44.0-0.0","A2KS62ZCHB0RLZ","","","","{""Q0"":""The color choices and patterns are creative and unique.""}","","","","","","","","","","","","","","","","","","","","","","",""
"6301.60000000149","","image-slider-response","45","933403","0.0-45.0","A2KS62ZCHB0RLZ","","","","","32","","","","","","","","","","","","","","","","","","","","","",""
"null","","image-button-response","46","938454","0.0-46.0","A2KS62ZCHB0RLZ","img_art/30.jpg","null","","","","","","","","","","","","","","","","","","","","","","","","",""
"7328","","image-button-response","47","945785","0.0-47.0","A2KS62ZCHB0RLZ","img_art/30.jpg","1","","","","","","","","","","","","","","","","","","","","","","","","",""
"1921","","image-button-response","48","947708","0.0-48.0-0.0","A2KS62ZCHB0RLZ","img_art/30.jpg","0","","","","","","","","","","","","","","","","","","","","","","","","",""
"8627","","image-button-response","49","956338","0.0-49.0-0.0","A2KS62ZCHB0RLZ","img_art/30.jpg","0","","","","","","","","","","","","","","","","","","","","","","","","",""
"2370","","image-button-response","50","962194","0.0-49.1-0.1","A2KS62ZCHB0RLZ","img_art/30.jpg","2","","","","","","","","","","","","","","","","","","","","","","","","",""
"null","","html-keyboard-response","51","963202","0.0-50.0","A2KS62ZCHB0RLZ","<p style=""font-size: 48px;"">+</p>","","","","","null","allTrialResponses","1000","1","1","img_art/30.jpg","32","The color choices and patterns are creative and unique.","Erica,Brooke,Hannah,Jessica,Julia,Madison","calming and relaxing,14,80,20","Like the color and style,31,60,20","It's just all right.,5,240,20","Looks cool , but no meaning,1,400,20","this is probably part of a neat series, but the abstraction doesn't speak to me,-17,40,20","Interesting brushstroke work, but not particularly memorable.,21,60,20","Brooke","Like the color and style,31,60,20","Erica","calming and relaxing,14,80,20","Hannah","It's just all right.,5,240,20","2"
"68026","","survey-text","52","1031235","0.0-51.0-0.0","A2KS62ZCHB0RLZ","","","","{""Q0"":""It looks like the artist is trying to tell a story through brushwork.""}","","","","","","","","","","","","","","","","","","","","","","",""
"9002.400000002235","","image-slider-response","53","1040239","0.0-52.0","A2KS62ZCHB0RLZ","","","","","29","","","","","","","","","","","","","","","","","","","","","",""
"null","","image-button-response","54","1045248","0.0-53.0","A2KS62ZCHB0RLZ","img_art/19.jpg","null","","","","","","","","","","","","","","","","","","","","","","","","",""
"337","","image-button-response","55","1045589","0.0-54.0","A2KS62ZCHB0RLZ","img_art/19.jpg","0","","","","","","","","","","","","","","","","","","","","","","","","",""
"6355","","image-button-response","56","1051948","0.0-55.0-0.0","A2KS62ZCHB0RLZ","img_art/19.jpg","4","","","","","","","","","","","","","","","","","","","","","","","","",""
"3195","","image-button-response","57","1055146","0.0-56.0-0.0","A2KS62ZCHB0RLZ","img_art/19.jpg","1","","","","","","","","","","","","","","","","","","","","","","","","",""
"null","","html-keyboard-response","58","1056154","0.0-57.0","A2KS62ZCHB0RLZ","<p style=""font-size: 48px;"">+</p>","","","","","null","allTrialResponses","1000","1","2","img_art/19.jpg","29","It looks like the artist is trying to tell a story through brushwork.","Erica,Brooke,Hannah,Cassidy,Katherine,Jasmine","very lively and colourful,21,80,20","Snowy winter scene,25,60,20","Just don't like this one.,-9,240,20","too much going on, can't tell what it is,-14,140,20","I dig the not being able to tell what anything is but knowing everything is supposed to be something,46,120,20","Just stirred a negative reaction. Don't really like it perhaps because of the structure?,-8,340,20","Erica","very lively and colourful,21,80,20","Katherine","I dig the not being able to tell what anything is but knowing everything is supposed to be something,46,120,20","Brooke","Snowy winter scene,25,60,20","2"
"56690","","survey-text","59","1112854","0.0-58.0-0.0","A2KS62ZCHB0RLZ","","","","{""Q0"":""The colors and shapes indicate a talented artist!""}","","","","","","","","","","","","","","","","","","","","","","",""
"5997","","image-slider-response","60","1118853","0.0-59.0","A2KS62ZCHB0RLZ","","","","","40","","","","","","","","","","","","","","","","","","","","","",""
"null","","image-button-response","61","1123865","0.0-60.0","A2KS62ZCHB0RLZ","img_art/20.jpg","null","","","","","","","","","","","","","","","","","","","","","","","","",""
"18052","","image-button-response","62","1141920","0.0-61.0","A2KS62ZCHB0RLZ","img_art/20.jpg","3","","","","","","","","","","","","","","","","","","","","","","","","",""
"6078","","image-button-response","63","1148000","0.0-62.0-0.0","A2KS62ZCHB0RLZ","img_art/20.jpg","5","","","","","","","","","","","","","","","","","","","","","","","","",""
"1630","","image-button-response","64","1149634","0.0-63.0-0.0","A2KS62ZCHB0RLZ","img_art/20.jpg","4","","","","","","","","","","","","","","","","","","","","","","","","",""
"null","","html-keyboard-response","65","1151138","0.0-64.0","A2KS62ZCHB0RLZ","<p style=""font-size: 48px;"">+</p>","","","","","null","allTrialResponses","1500","1","3","img_art/20.jpg","40","The colors and shapes indicate a talented artist!","Erica,Brooke,Miranda,Crystal,Katherine,Lindsey","looks like an auto accident,-30,80,20","Dinosaur skill and some dark shadow above,-30,60,20","A painting within a painting, the inner painting looks like a car crash with a semi truck.,21,320,20","The pulling and sagging nature is very beautiful.,30,300,20","More dark colors and blurry objects.,13,120,20","Not sure what it is. The colors are pleasant; makes me want to figure it out. An animal skull in the desert?,10,400,20","Crystal","The pulling and sagging nature is very beautiful.,30,300,20","Lindsey","Not sure what it is. The colors are pleasant; makes me want to figure it out. An animal skull in the desert?,10,400,20","Katherine","More dark colors and blurry objects.,13,120,20","2"
"16206","","survey-text","66","1167351","0.0-65.0-0.0","A2KS62ZCHB0RLZ","","","","{""Q0"":""A little confusing, but quite intriguing.""}","","","","","","","","","","","","","","","","","","","","","","",""
"4163.60000000149","","image-slider-response","67","1171517","0.0-66.0","A2KS62ZCHB0RLZ","","","","","22","","","","","","","","","","","","","","","","","","","","","",""
"null","","image-button-response","68","1176524","0.0-67.0","A2KS62ZCHB0RLZ","img_art/21.jpg","null","","","","","","","","","","","","","","","","","","","","","","","","",""
"21967","","image-button-response","69","1198497","0.0-68.0","A2KS62ZCHB0RLZ","img_art/21.jpg","1","","","","","","","","","","","","","","","","","","","","","","","","",""
"4979","","image-button-response","70","1203480","0.0-69.0-0.0","A2KS62ZCHB0RLZ","img_art/21.jpg","3","","","","","","","","","","","","","","","","","","","","","","","","",""
"5516","","image-button-response","71","1208999","0.0-70.0-0.0","A2KS62ZCHB0RLZ","img_art/21.jpg","4","","","","","","","","","","","","","","","","","","","","","","","","",""
"null","","html-keyboard-response","72","1210008","0.0-71.0","A2KS62ZCHB0RLZ","<p style=""font-size: 48px;"">+</p>","","","","","null","allTrialResponses","1000","1","4","img_art/21.jpg","22","A little confusing, but quite intriguing.","Brittany,Leslie,Alicia,Crystal,Katherine,Lindsey","Alright. I like the colors.,5,40,20","The colors make me think of a perilous scene at sea, and are pretty interesting.,15,380,20","Don't know why I like it, cant describe, maybe many landscapes?,47,120,20","Feels like a clash between land and sea,31,300,20","I can't explain why this struck me as absolutely gorgeous. Like the clashing between 2 different worlds,43,120,20","I like this piece more the more I look at. Still wouldn't want it in my home, though.,8,400,20","Leslie","The colors make me think of a perilous scene at sea, and are pretty interesting.,15,380,20","Crystal","Feels like a clash between land and sea,31,300,20","Katherine","I can't explain why this struck me as absolutely gorgeous. Like the clashing between 2 different worlds,43,120,20","2"
"51770","","survey-text","73","1261786","0.0-72.0-0.0","A2KS62ZCHB0RLZ","","","","{""Q0"":""I adore the artist's color choices and the magical scene the painting creates.""}","","","","","","","","","","","","","","","","","","","","","","",""
"7647.60000000149","","image-slider-response","74","1269436","0.0-73.0","A2KS62ZCHB0RLZ","","","","","44","","","","","","","","","","","","","","","","","","","","","",""
"null","","image-button-response","75","1274443","0.0-74.0","A2KS62ZCHB0RLZ","img_art/9.jpg","null","","","","","","","","","","","","","","","","","","","","","","","","",""
"8312","","image-button-response","76","1282757","0.0-75.0","A2KS62ZCHB0RLZ","img_art/9.jpg","4","","","","","","","","","","","","","","","","","","","","","","","","",""
"4107","","image-button-response","77","1286867","0.0-76.0-0.0","A2KS62ZCHB0RLZ","img_art/9.jpg","5","","","","","","","","","","","","","","","","","","","","","","","","",""
"2571","","image-button-response","78","1289441","0.0-77.0-0.0","A2KS62ZCHB0RLZ","img_art/9.jpg","3","","","","","","","","","","","","","","","","","","","","","","","","",""
"null","","html-keyboard-response","79","1290449","0.0-78.0","A2KS62ZCHB0RLZ","<p style=""font-size: 48px;"">+</p>","","","","","null","allTrialResponses","1000","1","5","img_art/9.jpg","44","I adore the artist's color choices and the magical scene the painting creates.","Ashley,Leslie,Haley,Crystal,Katherine,Lauren","Similar to the tohers, but not as clear.,11,320,20","The colors are pretty, and remind me of a circus.,5,380,20","I don't like the picture, but it wouldn't surprise me if someone did,-20,220,20","Evokes triumph of a mountain over powering a drowning sea,24,300,20","Idk what is in the middle but the blurry image makes it seem like the subject is of the painters interest,22,120,20","I like how design can be interpreted differently, I see a person sleeping or a mountainous region.,10,340,20","Katherine","Idk what is in the middle but the blurry image makes it seem like the subject is of the painters interest,22,120,20","Lauren","I like how design can be interpreted differently, I see a person sleeping or a mountainous region.,10,340,20","Crystal","Evokes triumph of a mountain over powering a drowning sea,24,300,20","2"
"4777","","survey-text","80","1295243","0.0-79.0-0.0","A2KS62ZCHB0RLZ","","","","{""Q0"":""sky""}","","","","","","","","","","","","","","","","","","","","","","",""
"26305","","survey-text","81","1321549","0.0-80.0-0.0","A2KS62ZCHB0RLZ","","","","{""Q0"":""It's alright, but not quite my taste.""}","","","","","","","","","","","","","","","","","","","","","","",""
"7131.199999999255","","image-slider-response","82","1328683","0.0-81.0","A2KS62ZCHB0RLZ","","","","","10","","","","","","","","","","","","","","","","","","","","","",""
"null","","image-button-response","83","1333701","0.0-82.0","A2KS62ZCHB0RLZ","img_art/2.jpg","null","","","","","","","","","","","","","","","","","","","","","","","","",""
"875","","image-button-response","84","1334579","0.0-83.0","A2KS62ZCHB0RLZ","img_art/2.jpg","2","","","","","","","","","","","","","","","","","","","","","","","","",""
"4366","","image-button-response","85","1338948","0.0-84.0-0.0","A2KS62ZCHB0RLZ","img_art/2.jpg","4","","","","","","","","","","","","","","","","","","","","","","","","",""
"8557","","image-button-response","86","1347508","0.0-85.0-0.0","A2KS62ZCHB0RLZ","img_art/2.jpg","5","","","","","","","","","","","","","","","","","","","","","","","","",""
"null","","html-keyboard-response","87","1349026","0.0-86.0","A2KS62ZCHB0RLZ","<p style=""font-size: 48px;"">+</p>","","","","","null","allTrialResponses","1500","1","6","img_art/2.jpg","10","It's alright, but not quite my taste.","Monica,Mikayla,Rachel,Crystal,Katherine,Lauren","I like the blue color in the center but that's it, the green is a gross color,-3,360,20","I love the colors in this.,29,300,20","I am not a fan of the color story. I am confused by the piece and therefore do not like it.,-21,80,20","Looks contrived and like someone tried to hard to make it abstract,-31,300,20","The color combo is kind of ugly but there's something charming about it still,17,120,20","I feel that its too abstract for me to understand what I'm looking at.,-15,340,20","Rachel","I am not a fan of the color story. I am confused by the piece and therefore do not like it.,-21,80,20","Katherine","The color combo is kind of ugly but there's something charming about it still,17,120,20","Lauren","I feel that its too abstract for me to understand what I'm looking at.,-15,340,20","2"
"23959","","survey-text","88","1372991","0.0-87.0-0.0","A2KS62ZCHB0RLZ","","","","{""Q0"":""I like the warmth this art piece exudes.""}","","","","","","","","","","","","","","","","","","","","","","",""
"3273.800000000745","","image-slider-response","89","1376267","0.0-88.0","A2KS62ZCHB0RLZ","","","","","25","","","","","","","","","","","","","","","","","","","","","",""
"null","","image-button-response","90","1381275","0.0-89.0","A2KS62ZCHB0RLZ","img_art/1.jpg","null","","","","","","","","","","","","","","","","","","","","","","","","",""
"10740","","image-button-response","91","1392018","0.0-90.0","A2KS62ZCHB0RLZ","img_art/1.jpg","4","","","","","","","","","","","","","","","","","","","","","","","","",""
"3528","","image-button-response","92","1395550","0.0-91.0-0.0","A2KS62ZCHB0RLZ","img_art/1.jpg","0","","","","","","","","","","","","","","","","","","","","","","","","",""
"1271","","image-button-response","93","1396824","0.0-92.0-0.0","A2KS62ZCHB0RLZ","img_art/1.jpg","1","","","","","","","","","","","","","","","","","","","","","","","","",""
"null","","html-keyboard-response","94","1397329","0.0-93.0","A2KS62ZCHB0RLZ","<p style=""font-size: 48px;"">+</p>","","","","","null","allTrialResponses","500","1","7","img_art/1.jpg","25","I like the warmth this art piece exudes.","Bailey,Tiffany,Rachel,Michelle,Katherine,Lauren","A bit of a smokey mess, but it does have an air of mystery I like,7,360,20","I feel relaxed, like I'm watching the leaves change color.,17,360,20","While I like the colors, I find nothing interesting or thought provoking about it.,10,80,20","Random paint does not make art,-5,280,20","Blurry but that's how emotions are a lot of the time.,27,120,20","This image doesn't invoke much in me.,0,340,20","Katherine","Blurry but that's how emotions are a lot of the time.,27,120,20","Bailey","A bit of a smokey mess, but it does have an air of mystery I like,7,360,20","Tiffany","I feel relaxed, like I'm watching the leaves change color.,17,360,20","2"
"25821","","survey-text","95","1423155","0.0-94.0-0.0","A2KS62ZCHB0RLZ","","","","{""Q0"":""A bit strange and too dark for my taste.""}","","","","","","","","","","","","","","","","","","","","","","",""
"5517.39999999851","","image-slider-response","96","1428674","0.0-95.0","A2KS62ZCHB0RLZ","","","","","-15","","","","","","","","","","","","","","","","","","","","","",""
"null","","image-button-response","97","1433691","0.0-96.0","A2KS62ZCHB0RLZ","img_art/15.jpg","null","","","","","","","","","","","","","","","","","","","","","","","","",""
"7360","","image-button-response","98","1441053","0.0-97.0","A2KS62ZCHB0RLZ","img_art/15.jpg","5","","","","","","","","","","","","","","","","","","","","","","","","",""
"1189","","image-button-response","99","1442244","0.0-98.0-0.0","A2KS62ZCHB0RLZ","img_art/15.jpg","4","","","","","","","","","","","","","","","","","","","","","","","","",""
"1178","","image-button-response","100","1443425","0.0-99.0-0.0","A2KS62ZCHB0RLZ","img_art/15.jpg","0","","","","","","","","","","","","","","","","","","","","","","","","",""
"null","","html-keyboard-response","101","1443927","0.0-100.0","A2KS62ZCHB0RLZ","<p style=""font-size: 48px;"">+</p>","","","","","null","allTrialResponses","500","1","8","img_art/15.jpg","-15","A bit strange and too dark for my taste.","Bailey,Tiffany,Sarah,Kimberly,Katherine,Olivia","This is passable, but personally it just has nothing I'd like to see.,-14,360,20","The painting is very relaxing, I'm reminded of sitting in a garden in the evening.,8,360,20","this is really pretty! i like the pops of blue in all the black,26,180,20","it looks like lavender,10,260,20","black dots too ant-like,-25,120,20","Black reminds me of darkness,-18,40,20","Olivia","Black reminds me of darkness,-18,40,20","Katherine","black dots too ant-like,-25,120,20","Bailey","This is passable, but personally it just has nothing I'd like to see.,-14,360,20","2"
"44293","","survey-text","102","1488231","0.0-101.0-0.0","A2KS62ZCHB0RLZ","","","","{""Q0"":""I wonder what it could mean. It's a little too abstract for me.""}","","","","","","","","","","","","","","","","","","","","","","",""
"3073.699999999255","","image-slider-response","103","1491307","0.0-102.0","A2KS62ZCHB0RLZ","","","","","-10","","","","","","","","","","","","","","","","","","","","","",""
"null","","image-button-response","104","1496322","0.0-103.0","A2KS62ZCHB0RLZ","img_art/3.jpg","null","","","","","","","","","","","","","","","","","","","","","","","","",""
"8399","","image-button-response","105","1504725","0.0-104.0","A2KS62ZCHB0RLZ","img_art/3.jpg","3","","","","","","","","","","","","","","","","","","","","","","","","",""
"4373","","image-button-response","106","1509101","0.0-105.0-0.0","A2KS62ZCHB0RLZ","img_art/3.jpg","5","","","","","","","","","","","","","","","","","","","","","","","","",""
"3962","","image-button-response","107","1513067","0.0-106.0-0.0","A2KS62ZCHB0RLZ","img_art/3.jpg","1","","","","","","","","","","","","","","","","","","","","","","","","",""
"null","","html-keyboard-response","108","1514571","0.0-107.0","A2KS62ZCHB0RLZ","<p style=""font-size: 48px;"">+</p>","","","","","null","allTrialResponses","1500","1","9","img_art/3.jpg","-10","I wonder what it could mean. It's a little too abstract for me.","Bailey,Jamie,Kaitlyn,Diana,Katherine,Olivia","Just scribbles. People buy that?,-47,360,20","Looks like somebody squirted ketchup everywhere,-40,320,20","Too much red; very bland,-26,80,20","I didn't feel the color choice when I first looked. I did however like the placement of the gray.,-28,380,20","Too much red! Reminds me of blood. I hate blood.,-34,120,20","confusing taking over,-15,40,20","Diana","I didn't feel the color choice when I first looked. I did however like the placement of the gray.,-28,380,20","Olivia","confusing taking over,-15,40,20","Jamie","Looks like somebody squirted ketchup everywhere,-40,320,20","2"
"57954","","survey-text","109","1572532","0.0-108.0-0.0","A2KS62ZCHB0RLZ","","","","{""Q0"":""The colors look pretty nice, but I'm not really a fan of this piece overall.""}","","","","","","","","","","","","","","","","","","","","","","",""
"5783.39999999851","","image-slider-response","110","1578318","0.0-109.0","A2KS62ZCHB0RLZ","","","","","3","","","","","","","","","","","","","","","","","","","","","",""
"null","","image-button-response","111","1583335","0.0-110.0","A2KS62ZCHB0RLZ","img_art/27.jpg","null","","","","","","","","","","","","","","","","","","","","","","","","",""
"2344","","image-button-response","112","1585682","0.0-111.0","A2KS62ZCHB0RLZ","img_art/27.jpg","2","","","","","","","","","","","","","","","","","","","","","","","","",""
"7008","","image-button-response","113","1592692","0.0-112.0-0.0","A2KS62ZCHB0RLZ","img_art/27.jpg","4","","","","","","","","","","","","","","","","","","","","","","","","",""
"7414","","image-button-response","114","1600110","0.0-113.0-0.0","A2KS62ZCHB0RLZ","img_art/27.jpg","1","","","","","","","","","","","","","","","","","","","","","","","","",""
"null","","html-keyboard-response","115","1601624","0.0-114.0","A2KS62ZCHB0RLZ","<p style=""font-size: 48px;"">+</p>","","","","","null","allTrialResponses","1500","1","10","img_art/27.jpg","3","The colors look pretty nice, but I'm not really a fan of this piece overall.","Andrea,Jamie,Vanessa,Diana,Jenna,Olivia","I see a cathedral through the woods.,12,240,20","Don't like the mix of green with the warmer colors,-15,320,20","Colors make me think of fall, but I don't like how the picture was done or the weird lines across the background,6,380,20","I don't care for the green scribbles; not sure what they are. But I adore the colors in the background.,24,380,20","the green & white scribbles feel childlike. perhaps the quality of the photo, but the colors are gloomy.,-13,360,20","city at sunset brings happyness,10,40,20","Vanessa","Colors make me think of fall, but I don't like how the picture was done or the weird lines across the background,6,380,20","Jenna","the green & white scribbles feel childlike. perhaps the quality of the photo, but the colors are gloomy.,-13,360,20","Jamie","Don't like the mix of green with the warmer colors,-15,320,20","2"
"3446","","survey-text","116","1605087","0.0-115.0-0.0","A2KS62ZCHB0RLZ","","","","{""Q0"":""our""}","","","","","","","","","","","","","","","","","","","","","","",""
"30767","","survey-text","117","1635857","0.0-116.0-0.0","A2KS62ZCHB0RLZ","","","","{""Q0"":""A bit dark, but beautifully done by a talented artist.""}","","","","","","","","","","","","","","","","","","","","","","",""
"2714","","image-slider-response","118","1638574","0.0-117.0","A2KS62ZCHB0RLZ","","","","","30","","","","","","","","","","","","","","","","","","","","","",""
"null","","image-button-response","119","1643590","0.0-118.0","A2KS62ZCHB0RLZ","img_art/11.jpg","null","","","","","","","","","","","","","","","","","","","","","","","","",""
"1936","","image-button-response","120","1645529","0.0-119.0","A2KS62ZCHB0RLZ","img_art/11.jpg","1","","","","","","","","","","","","","","","","","","","","","","","","",""
"1199","","image-button-response","121","1646731","0.0-120.0-0.0","A2KS62ZCHB0RLZ","img_art/11.jpg","2","","","","","","","","","","","","","","","","","","","","","","","","",""
"6822","","image-button-response","122","1653556","0.0-121.0-0.0","A2KS62ZCHB0RLZ","img_art/11.jpg","1","","","","","","","","","","","","","","","","","","","","","","","","",""
"1007","","image-button-response","123","1668180","0.0-121.1-0.1","A2KS62ZCHB0RLZ","img_art/11.jpg","4","","","","","","","","","","","","","","","","","","","","","","","","",""
"null","","html-keyboard-response","124","1668682","0.0-122.0","A2KS62ZCHB0RLZ","<p style=""font-size: 48px;"">+</p>","","","","","null","allTrialResponses","500","1","11","img_art/11.jpg","30","A bit dark, but beautifully done by a talented artist.","Alyssa,Jamie,Vanessa,Kayla,Jenna,Cassandra","Its interesting.,20,160,20","Looks like a cityscape,25,320,20","It makes me think of a rainy day and I like the colors. Also like the wavy lines.,22,380,20","I like that it could be train tracks, or telephone wires, etc. It's always a means of getting from a to b.,15,180,20","makes me think of city highways & bridges on a rainy, foggy day. I like the melancholy it evokes.,43,360,20","I liked it it looked like an roller coasters at an amusment park.,16,120,20","Jamie","Looks like a cityscape,25,320,20","Vanessa","It makes me think of a rainy day and I like the colors. Also like the wavy lines.,22,380,20","Jenna","makes me think of city highways & bridges on a rainy, foggy day. I like the melancholy it evokes.,43,360,20","4"
"37887","","survey-text","125","1706583","0.0-123.0-0.0","A2KS62ZCHB0RLZ","","","","{""Q0"":""I love the green background and unique sketch of the figure.""}","","","","","","","","","","","","","","","","","","","","","","",""
"5003.39999999851","","image-slider-response","126","1711589","0.0-124.0","A2KS62ZCHB0RLZ","","","","","41","","","","","","","","","","","","","","","","","","","","","",""
"null","","image-button-response","127","1716600","0.0-125.0","A2KS62ZCHB0RLZ","img_art/25.jpg","null","","","","","","","","","","","","","","","","","","","","","","","","",""
"2263","","image-button-response","128","1718866","0.0-126.0","A2KS62ZCHB0RLZ","img_art/25.jpg","1","","","","","","","","","","","","","","","","","","","","","","","","",""
"3572","","image-button-response","129","1722440","0.0-127.0-0.0","A2KS62ZCHB0RLZ","img_art/25.jpg","5","","","","","","","","","","","","","","","","","","","","","","","","",""
"1822","","image-button-response","130","1724266","0.0-128.0-0.0","A2KS62ZCHB0RLZ","img_art/25.jpg","4","","","","","","","","","","","","","","","","","","","","","","","","",""
"null","","html-keyboard-response","131","1725771","0.0-129.0","A2KS62ZCHB0RLZ","<p style=""font-size: 48px;"">+</p>","","","","","null","allTrialResponses","1500","1","12","img_art/25.jpg","41","I love the green background and unique sketch of the figure.","Emily,Jamie,Vanessa,Amanda,Jenna,Isabella","Low skill not impressed.,-14,40,20","Cool color scheme and appears to be a statue of some type of revered god,40,320,20","I don't like the color. I don't like the abstract-ness of it.,-22,380,20","Reminds me of Mr. Burns on drugs in the Simpsons,-50,180,20","beautiful in a primitive way,10,360,20","I love the green and the figure is black but the green makes it pop,29,280,20","Jamie","Cool color scheme and appears to be a statue of some type of revered god,40,320,20","Isabella","I love the green and the figure is black but the green makes it pop,29,280,20","Jenna","beautiful in a primitive way,10,360,20","4"
"25917","","survey-text","132","1751697","0.0-130.0-0.0","A2KS62ZCHB0RLZ","","","","{""Q0"":""The colors and transitions are lovely.""}","","","","","","","","","","","","","","","","","","","","","","",""
"3721.89999999851","","image-slider-response","133","1755422","0.0-131.0","A2KS62ZCHB0RLZ","","","","","26","","","","","","","","","","","","","","","","","","","","","",""
"null","","image-button-response","134","1760437","0.0-132.0","A2KS62ZCHB0RLZ","img_art/22.jpg","null","","","","","","","","","","","","","","","","","","","","","","","","",""
"2941","","image-button-response","135","1763382","0.0-133.0","A2KS62ZCHB0RLZ","img_art/22.jpg","0","","","","","","","","","","","","","","","","","","","","","","","","",""
"8434","","image-button-response","136","1771818","0.0-134.0-0.0","A2KS62ZCHB0RLZ","img_art/22.jpg","1","","","","","","","","","","","","","","","","","","","","","","","","",""
"2434","","image-button-response","137","1774256","0.0-135.0-0.0","A2KS62ZCHB0RLZ","img_art/22.jpg","4","","","","","","","","","","","","","","","","","","","","","","","","",""
"null","","html-keyboard-response","138","1775758","0.0-136.0","A2KS62ZCHB0RLZ","<p style=""font-size: 48px;"">+</p>","","","","","null","allTrialResponses","1500","1","13","img_art/22.jpg","26","The colors and transitions are lovely.","Morgan,Jamie,Destiny,Sophia,Jenna,Isabella","Glowing city of many emotions.,10,380,20","Like the mix of warm and cool colors,15,320,20","so boring. Wow you made some circles some squares very nice,-40,360,20","I like this one. There is a lot to see if you keep looking for it.,27,280,20","beautiful. love the bright colors & soft brush strokes, and the imprint of the key is genius.,50,360,20","Sunsets at the beach,42,280,20","Morgan","Glowing city of many emotions.,10,380,20","Jamie","Like the mix of warm and cool colors,15,320,20","Jenna","beautiful. love the bright colors & soft brush strokes, and the imprint of the key is genius.,50,360,20","4"
"19693","","survey-text","139","1795461","0.0-137.0-0.0","A2KS62ZCHB0RLZ","","","","{""Q0"":""It's alright but a little bland.""}","","","","","","","","","","","","","","","","","","","","","","",""
"4307.300000000745","","image-slider-response","140","1799770","0.0-138.0","A2KS62ZCHB0RLZ","","","","","10","","","","","","","","","","","","","","","","","","","","","",""
"null","","image-button-response","141","1804773","0.0-139.0","A2KS62ZCHB0RLZ","img_art/7.jpg","null","","","","","","","","","","","","","","","","","","","","","","","","",""
"1269","","image-button-response","142","1806045","0.0-140.0","A2KS62ZCHB0RLZ","img_art/7.jpg","3","","","","","","","","","","","","","","","","","","","","","","","","",""
"1415","","image-button-response","143","1807463","0.0-141.0-0.0","A2KS62ZCHB0RLZ","img_art/7.jpg","4","","","","","","","","","","","","","","","","","","","","","","","","",""
"8478","","image-button-response","144","1815944","0.0-142.0-0.0","A2KS62ZCHB0RLZ","img_art/7.jpg","1","","","","","","","","","","","","","","","","","","","","","","","","",""
"null","","html-keyboard-response","145","1817446","0.0-143.0","A2KS62ZCHB0RLZ","<p style=""font-size: 48px;"">+</p>","","","","","null","allTrialResponses","1500","1","14","img_art/7.jpg","10","It's alright but a little bland.","Morgan,Jamie,Danielle,Shelby,Jenna,Hailey","Dead bugs on an insect battleground.,-10,380,20","Looks like a battle raging on,20,320,20","I don't like this kind of color scheme or look they went for,-50,340,20","This feels very earthy and grounded,20,240,20","reminds me of a desert from far above,23,360,20","hot desert with big rocks.,-19,200,20","Shelby","This feels very earthy and grounded,20,240,20","Jenna","reminds me of a desert from far above,23,360,20","Jamie","Looks like a battle raging on,20,320,20","4"
"60167","","survey-text","146","1877625","0.0-144.0-0.0","A2KS62ZCHB0RLZ","","","","{""Q0"":""Amazing scene with lovely shapes and colors.""}","","","","","","","","","","","","","","","","","","","","","","",""
"7207.699999999255","","image-slider-response","147","1884835","0.0-145.0","A2KS62ZCHB0RLZ","","","","","48","","","","","","","","","","","","","","","","","","","","","",""
"null","","image-button-response","148","1889839","0.0-146.0","A2KS62ZCHB0RLZ","img_art/17.jpg","null","","","","","","","","","","","","","","","","","","","","","","","","",""
"8983","","image-button-response","149","1898825","0.0-147.0","A2KS62ZCHB0RLZ","img_art/17.jpg","4","","","","","","","","","","","","","","","","","","","","","","","","",""
"2780","","image-button-response","150","1901608","0.0-148.0-0.0","A2KS62ZCHB0RLZ","img_art/17.jpg","3","","","","","","","","","","","","","","","","","","","","","","","","",""
"3899","","image-button-response","151","1905510","0.0-149.0-0.0","A2KS62ZCHB0RLZ","img_art/17.jpg","5","","","","","","","","","","","","","","","","","","","","","","","","",""
"null","","html-keyboard-response","152","1906518","0.0-150.0","A2KS62ZCHB0RLZ","<p style=""font-size: 48px;"">+</p>","","","","","null","allTrialResponses","1000","1","15","img_art/17.jpg","48","Amazing scene with lovely shapes and colors.","Dominique,Jamie,Melissa,Shelby,Jenna,Heather","Another favorite a relaxing day with nature a day to take it all In,34,400,20","Looks like some fantasy tree. Nice,30,320,20","impressive attention to subtleties,15,240,20","This feels like creativity and limitlessness,30,240,20","stunning. makes me feel happy, hopeful, serene, and a little wistful.,50,360,20","Beautiful simply beautiful. i would love this,,50,260,20","Jenna","stunning. makes me feel happy, hopeful, serene, and a little wistful.,50,360,20","Shelby","This feels like creativity and limitlessness,30,240,20","Heather","Beautiful simply beautiful. i would love this,,50,260,20","4"
"5252","","survey-text","153","1911791","0.0-151.0-0.0","A2KS62ZCHB0RLZ","","","","{""Q0"":""course""}","","","","","","","","","","","","","","","","","","","","","","",""
"37733","","survey-text","154","1949527","0.0-152.0-0.0","A2KS62ZCHB0RLZ","","","","{""Q0"":""I like the mix of colors. Looks cheerful.""}","","","","","","","","","","","","","","","","","","","","","","",""
"3155.10000000149","","image-slider-response","155","1952684","0.0-153.0","A2KS62ZCHB0RLZ","","","","","30","","","","","","","","","","","","","","","","","","","","","",""
"null","","image-button-response","156","1957689","0.0-154.0","A2KS62ZCHB0RLZ","img_art/23.jpg","null","","","","","","","","","","","","","","","","","","","","","","","","",""
"7452","","image-button-response","157","1965144","0.0-155.0","A2KS62ZCHB0RLZ","img_art/23.jpg","0","","","","","","","","","","","","","","","","","","","","","","","","",""
"1216","","image-button-response","158","1966361","0.0-156.0-0.0","A2KS62ZCHB0RLZ","img_art/23.jpg","1","","","","","","","","","","","","","","","","","","","","","","","","",""
"1278","","image-button-response","159","1967642","0.0-157.0-0.0","A2KS62ZCHB0RLZ","img_art/23.jpg","3","","","","","","","","","","","","","","","","","","","","","","","","",""
"null","","html-keyboard-response","160","1969157","0.0-158.0","A2KS62ZCHB0RLZ","<p style=""font-size: 48px;"">+</p>","","","","","null","allTrialResponses","1500","1","16","img_art/23.jpg","30","I like the mix of colors. Looks cheerful.","Jacqueline,Meghan,Molly,Shelby,Jenna,Heather","It's kind of neat with the white slash marks.,13,300,20","reminds me of an album cover,36,220,20","Shocked, beautiful.,20,340,20","This feels so energized, i love it,50,240,20","awesome colors. love the white drawing the eye to the center. oddly comforting.,50,360,20","illegible wording with a graffiti background,1,260,20","Jacqueline","It's kind of neat with the white slash marks.,13,300,20","Meghan","reminds me of an album cover,36,220,20","Shelby","This feels so energized, i love it,50,240,20","4"
"12062","","survey-text","161","1981229","0.0-159.0-0.0","A2KS62ZCHB0RLZ","","","","{""Q0"":""Looks cool and classy.""}","","","","","","","","","","","","","","","","","","","","","","",""
"3570.10000000149","","image-slider-response","162","1984801","0.0-160.0","A2KS62ZCHB0RLZ","","","","","25","","","","","","","","","","","","","","","","","","","","","",""
"null","","image-button-response","163","1989807","0.0-161.0","A2KS62ZCHB0RLZ","img_art/13.jpg","null","","","","","","","","","","","","","","","","","","","","","","","","",""
"828","","image-button-response","164","1990637","0.0-162.0","A2KS62ZCHB0RLZ","img_art/13.jpg","1","","","","","","","","","","","","","","","","","","","","","","","","",""
"9060","","image-button-response","165","1999700","0.0-163.0-0.0","A2KS62ZCHB0RLZ","img_art/13.jpg","0","","","","","","","","","","","","","","","","","","","","","","","","",""
"2420","","image-button-response","166","2002123","0.0-164.0-0.0","A2KS62ZCHB0RLZ","img_art/13.jpg","5","","","","","","","","","","","","","","","","","","","","","","","","",""
"null","","html-keyboard-response","167","2003140","0.0-165.0","A2KS62ZCHB0RLZ","<p style=""font-size: 48px;"">+</p>","","","","","null","allTrialResponses","1000","1","17","img_art/13.jpg","25","Looks cool and classy.","Jacqueline,Meghan,Shannon,Shelby,Kathryn,Sydney","Seems a little cold but I like the neuron looking splatters.,10,300,20","I like the transition to other colors,24,220,20","It looks like someone splattered a bunch of different colors to make a picture; I think its ugly.,-40,220,20","Doesnt really provoke an emotional responce,0,240,20","Reminds me of depression anxiety, but negativity is dampened by motion. It's trying to release itself through expression.,-10,140,20","I love the style of this piece, but the color choice could've been more eye catching or calming.,40,320,20","Meghan","I like the transition to other colors,24,220,20","Jacqueline","Seems a little cold but I like the neuron looking splatters.,10,300,20","Sydney","I love the style of this piece, but the color choice could've been more eye catching or calming.,40,320,20","4"
"28242","","survey-text","168","2031393","0.0-166.0-0.0","A2KS62ZCHB0RLZ","","","","{""Q0"":""Not too sure about the color choices, but it's definitely creative.""}","","","","","","","","","","","","","","","","","","","","","","",""
"7041.300000000745","","image-slider-response","169","2038436","0.0-167.0","A2KS62ZCHB0RLZ","","","","","3","","","","","","","","","","","","","","","","","","","","","",""
"null","","image-button-response","170","2043445","0.0-168.0","A2KS62ZCHB0RLZ","img_art/29.jpg","null","","","","","","","","","","","","","","","","","","","","","","","","",""
"3153","","image-button-response","171","2046601","0.0-169.0","A2KS62ZCHB0RLZ","img_art/29.jpg","4","","","","","","","","","","","","","","","","","","","","","","","","",""
"6928","","image-button-response","172","2053532","0.0-170.0-0.0","A2KS62ZCHB0RLZ","img_art/29.jpg","1","","","","","","","","","","","","","","","","","","","","","","","","",""
"3154","","image-button-response","173","2056689","0.0-171.0-0.0","A2KS62ZCHB0RLZ","img_art/29.jpg","2","","","","","","","","","","","","","","","","","","","","","","","","",""
"null","","html-keyboard-response","174","2058193","0.0-172.0","A2KS62ZCHB0RLZ","<p style=""font-size: 48px;"">+</p>","","","","","null","allTrialResponses","1500","1","18","img_art/29.jpg","3","Not too sure about the color choices, but it's definitely creative.","Jacqueline,Meghan,Michaela,Rebecca,Courtney,Sydney","This is ugly as fuck,-50,300,20","feels random and not thoughtout,-37,220,20","Like a crime scene. It's neat and different,30,260,20","love the texture, i don't know, i just really like it (and the paintbrush adds a nice touch),44,100,20","Thats a pretty wierd picture.,6,280,20","I like that the colors are toned down even though they're everywhere.,5,320,20","Courtney","Thats a pretty wierd picture.,6,280,20","Meghan","feels random and not thoughtout,-37,220,20","Michaela","Like a crime scene. It's neat and different,30,260,20","4"
"22001","","survey-text","175","2080205","0.0-173.0-0.0","A2KS62ZCHB0RLZ","","","","{""Q0"":""Bizarre. Not sure what to make of this one.""}","","","","","","","","","","","","","","","","","","","","","","",""
"4235.599999997765","","image-slider-response","176","2084443","0.0-174.0","A2KS62ZCHB0RLZ","","","","","-9","","","","","","","","","","","","","","","","","","","","","",""
"null","","image-button-response","177","2089449","0.0-175.0","A2KS62ZCHB0RLZ","img_art/6.jpg","null","","","","","","","","","","","","","","","","","","","","","","","","",""
"2924","","image-button-response","178","2092376","0.0-176.0","A2KS62ZCHB0RLZ","img_art/6.jpg","4","","","","","","","","","","","","","","","","","","","","","","","","",""
"13353","","image-button-response","179","2105732","0.0-177.0-0.0","A2KS62ZCHB0RLZ","img_art/6.jpg","5","","","","","","","","","","","","","","","","","","","","","","","","",""
"1902","","image-button-response","180","2107638","0.0-178.0-0.0","A2KS62ZCHB0RLZ","img_art/6.jpg","3","","","","","","","","","","","","","","","","","","","","","","","","",""
"null","","html-keyboard-response","181","2109155","0.0-179.0","A2KS62ZCHB0RLZ","<p style=""font-size: 48px;"">+</p>","","","","","null","allTrialResponses","1500","1","19","img_art/6.jpg","-9","Bizarre. Not sure what to make of this one.","Anna,Meghan,Michaela,Cynthia,Courtney,Erika","It reminds me of a simplistic bird. I like the colors used.,40,300,20","reminds me of a bird,31,220,20","It looks like a bird looking away,32,260,20","seeds of change,11,320,20","Its the headless bird. But why?,21,280,20","Lonesome in nature,13,100,20","Courtney","Its the headless bird. But why?,21,280,20","Erika","Lonesome in nature,13,100,20","Cynthia","seeds of change,11,320,20","4"
"22225","","survey-text","182","2131387","0.0-180.0-0.0","A2KS62ZCHB0RLZ","","","","{""Q0"":""There's a lot going on. I like the energy.""}","","","","","","","","","","","","","","","","","","","","","","",""
"3923.5","","image-slider-response","183","2135313","0.0-181.0","A2KS62ZCHB0RLZ","","","","","30","","","","","","","","","","","","","","","","","","","","","",""
"3612","","image-button-response","184","2140318","0.0-182.0","A2KS62ZCHB0RLZ","img_art/8.jpg","0","","","","","","","","","","","","","","","","","","","","","","","","",""
"4675","","image-button-response","185","2144996","0.0-183.0","A2KS62ZCHB0RLZ","img_art/8.jpg","2","","","","","","","","","","","","","","","","","","","","","","","","",""
"4332","","image-button-response","186","2149330","0.0-184.0-0.0","A2KS62ZCHB0RLZ","img_art/8.jpg","0","","","","","","","","","","","","","","","","","","","","","","","","",""
"1175","","image-button-response","187","2150508","0.0-185.0-0.0","A2KS62ZCHB0RLZ","img_art/8.jpg","3","","","","","","","","","","","","","","","","","","","","","","","","",""
"null","","html-keyboard-response","188","2151510","0.0-186.0","A2KS62ZCHB0RLZ","<p style=""font-size: 48px;"">+</p>","","","","","null","allTrialResponses","1000","1","20","img_art/8.jpg","30","There's a lot going on. I like the energy.","Taylor,Brianna,Alexandria,Cynthia,Courtney,Erika","Looks like it would be an interesting place to live,35,340,20","It's very odd and I don't really like it,-30,20,20","It is very colorful with a deeper meaning,25,80,20","New power in the community,22,320,20","Now that one is wild. Looks like maybe mother nature isnt happy.,28,280,20","Striking, but not my taste,20,100,20","Alexandria","It is very colorful with a deeper meaning,25,80,20","Taylor","Looks like it would be an interesting place to live,35,340,20","Cynthia","New power in the community,22,320,20","4"
"7558","","survey-text","189","2159082","0.0-187.0-0.0","A2KS62ZCHB0RLZ","","","","{""Q0"":""we""}","","","","","","","","","","","","","","","","","","","","","","",""
"60006","","survey-text","190","2219090","0.0-188.0-0.0","A2KS62ZCHB0RLZ","","","","{""Q0"":""I like the colors, but the painting doesn't really speak to me.""}","","","","","","","","","","","","","","","","","","","","","","",""
"3658.5","","image-slider-response","191","2222751","0.0-189.0","A2KS62ZCHB0RLZ","","","","","4","","","","","","","","","","","","","","","","","","","","","",""
"4620","","image-button-response","192","2227755","0.0-190.0","A2KS62ZCHB0RLZ","img_art/12.jpg","0","","","","","","","","","","","","","","","","","","","","","","","","",""
"3548","","image-button-response","193","2231307","0.0-191.0","A2KS62ZCHB0RLZ","img_art/12.jpg","0","","","","","","","","","","","","","","","","","","","","","","","","",""
"11316","","image-button-response","194","2242626","0.0-192.0-0.0","A2KS62ZCHB0RLZ","img_art/12.jpg","5","","","","","","","","","","","","","","","","","","","","","","","","",""
"8994","","image-button-response","195","2251624","0.0-193.0-0.0","A2KS62ZCHB0RLZ","img_art/12.jpg","4","","","","","","","","","","","","","","","","","","","","","","","","",""
"null","","html-keyboard-response","196","2252639","0.0-194.0","A2KS62ZCHB0RLZ","<p style=""font-size: 48px;"">+</p>","","","","","null","allTrialResponses","1000","1","21","img_art/12.jpg","4","I like the colors, but the painting doesn't really speak to me.","Taylor,Caitlin,Alexandria,Cynthia,Christina,Maria","It's kind of ominous,-15,340,20","Just wish it was more colorful.,20,80,20","don't feel a lot but it seems very simple,-6,80,20","Windows to a different story,6,320,20","way too 90s/80s for me,-9,240,20","evokes the 80s, and not in a necessarily good way,-10,120,20","Taylor","It's kind of ominous,-15,340,20","Maria","evokes the 80s, and not in a necessarily good way,-10,120,20","Christina","way too 90s/80s for me,-9,240,20","4"
"26641","","survey-text","197","2279286","0.0-195.0-0.0","A2KS62ZCHB0RLZ","","","","{""Q0"":""Gentle, yet quite expressive. Beautiful.""}","","","","","","","","","","","","","","","","","","","","","","",""
"4107.89999999851","","image-slider-response","198","2283397","0.0-196.0","A2KS62ZCHB0RLZ","","","","","35","","","","","","","","","","","","","","","","","","","","","",""
"null","","image-button-response","199","2288419","0.0-197.0","A2KS62ZCHB0RLZ","img_art/14.jpg","null","","","","","","","","","","","","","","","","","","","","","","","","",""
"3965","","image-button-response","200","2292388","0.0-198.0","A2KS62ZCHB0RLZ","img_art/14.jpg","4","","","","","","","","","","","","","","","","","","","","","","","","",""
"4442","","image-button-response","201","2296834","0.0-199.0-0.0","A2KS62ZCHB0RLZ","img_art/14.jpg","5","","","","","","","","","","","","","","","","","","","","","","","","",""
"8402","","image-button-response","202","2305239","0.0-200.0-0.0","A2KS62ZCHB0RLZ","img_art/14.jpg","0","","","","","","","","","","","","","","","","","","","","","","","","",""
"null","","html-keyboard-response","203","2306244","0.0-201.0","A2KS62ZCHB0RLZ","<p style=""font-size: 48px;"">+</p>","","","","","null","allTrialResponses","1000","1","22","img_art/14.jpg","35","Gentle, yet quite expressive. Beautiful.","Taylor,Stephanie,Catherine,Kelsey,Christina,Maria","Makes me think of my plants growing,11,340,20","Late Winter when things are just starting to bloom.,21,300,20","Tornado, nature. trees falling and displaced creatures. Love the colors though.,1,160,20","i like this one!,23,240,20","has a tree look to it and it's colors are happy,9,240,20","I enjoy what comes across as a playful take on nature themes,26,120,20","Christina","has a tree look to it and it's colors are happy,9,240,20","Maria","I enjoy what comes across as a playful take on nature themes,26,120,20","Taylor","Makes me think of my plants growing,11,340,20","4"
"13264","","survey-text","204","2319515","0.0-202.0-0.0","A2KS62ZCHB0RLZ","","","","{""Q0"":""This is cute and creative!""}","","","","","","","","","","","","","","","","","","","","","","",""
"3417.2000000029802","","image-slider-response","205","2322935","0.0-203.0","A2KS62ZCHB0RLZ","","","","","27","","","","","","","","","","","","","","","","","","","","","",""
"null","","image-button-response","206","2327940","0.0-204.0","A2KS62ZCHB0RLZ","img_art/16.jpg","null","","","","","","","","","","","","","","","","","","","","","","","","",""
"715","","image-button-response","207","2328658","0.0-205.0","A2KS62ZCHB0RLZ","img_art/16.jpg","3","","","","","","","","","","","","","","","","","","","","","","","","",""
"3500","","image-button-response","208","2332160","0.0-206.0-0.0","A2KS62ZCHB0RLZ","img_art/16.jpg","2","","","","","","","","","","","","","","","","","","","","","","","","",""
"9453","","image-button-response","209","2341616","0.0-207.0-0.0","A2KS62ZCHB0RLZ","img_art/16.jpg","1","","","","","","","","","","","","","","","","","","","","","","","","",""
"null","","html-keyboard-response","210","2342627","0.0-208.0","A2KS62ZCHB0RLZ","<p style=""font-size: 48px;"">+</p>","","","","","null","allTrialResponses","1000","1","23","img_art/16.jpg","27","This is cute and creative!","Taylor,Makayla,Alexa,Margaret,Christina,Maria","It just makes me feel uncomfortable,-25,340,20","It's a little unsettling,2,80,20","I can't figure out the meaning of this painting but it is pleasant to look at,40,40,20","i like how it incorporates mixed visual art with the photo of the bear and the drawings,30,100,20","very creepy with a bear and a gun,-50,240,20","feel a little creeped out,-20,120,20","Margaret","i like how it incorporates mixed visual art with the photo of the bear and the drawings,30,100,20","Alexa","I can't figure out the meaning of this painting but it is pleasant to look at,40,40,20","Makayla","It's a little unsettling,2,80,20","4"
"27558","","survey-text","211","2370194","0.0-209.0-0.0","A2KS62ZCHB0RLZ","","","","{""Q0"":""It's weird, but the colors and shades are gorgeous.""}","","","","","","","","","","","","","","","","","","","","","","",""
"3209.10000000149","","image-slider-response","212","2373405","0.0-210.0","A2KS62ZCHB0RLZ","","","","","12","","","","","","","","","","","","","","","","","","","","","",""
"null","","image-button-response","213","2378412","0.0-211.0","A2KS62ZCHB0RLZ","img_art/18.jpg","null","","","","","","","","","","","","","","","","","","","","","","","","",""
"5263","","image-button-response","214","2383678","0.0-212.0","A2KS62ZCHB0RLZ","img_art/18.jpg","5","","","","","","","","","","","","","","","","","","","","","","","","",""
"1455","","image-button-response","215","2385135","0.0-213.0-0.0","A2KS62ZCHB0RLZ","img_art/18.jpg","3","","","","","","","","","","","","","","","","","","","","","","","","",""
"3997","","image-button-response","216","2389134","0.0-214.0-0.0","A2KS62ZCHB0RLZ","img_art/18.jpg","4","","","","","","","","","","","","","","","","","","","","","","","","",""
"null","","html-keyboard-response","217","2390638","0.0-215.0","A2KS62ZCHB0RLZ","<p style=""font-size: 48px;"">+</p>","","","","","null","allTrialResponses","1500","1","24","img_art/18.jpg","12","It's weird, but the colors and shades are gorgeous.","Sierra,Makayla,Alexa,Margaret,Sara,Gabriela","it looks like people,9,260,20","I'm not partial to the design, unsettling,2,80,20","Very wild and abstract. I love it and would definitely hang this up in my home,50,40,20","reminds me of dying at sea in the 1700s,-8,100,20","Too abstract and swirly,-21,160,20","It's possibly of a mermaid luring in a ship,15,140,20","Gabriela","It's possibly of a mermaid luring in a ship,15,140,20","Margaret","reminds me of dying at sea in the 1700s,-8,100,20","Sara","Too abstract and swirly,-21,160,20","4"
"19575","","survey-text","218","2410221","0.0-216.0-0.0","A2KS62ZCHB0RLZ","","","","{""Q0"":""It's alright, but nothing really special.""}","","","","","","","","","","","","","","","","","","","","","","",""
"2305.5","","image-slider-response","219","2412529","0.0-217.0","A2KS62ZCHB0RLZ","","","","","6","","","","","","","","","","","","","","","","","","","","","",""
"2279","","image-button-response","220","2417543","0.0-218.0","A2KS62ZCHB0RLZ","img_art/26.jpg","1","","","","","","","","","","","","","","","","","","","","","","","","",""
"2345","","image-button-response","221","2419891","0.0-219.0","A2KS62ZCHB0RLZ","img_art/26.jpg","1","","","","","","","","","","","","","","","","","","","","","","","","",""
"14749","","image-button-response","222","2434643","0.0-220.0-0.0","A2KS62ZCHB0RLZ","img_art/26.jpg","3","","","","","","","","","","","","","","","","","","","","","","","","",""
"3698","","image-button-response","223","2438346","0.0-221.0-0.0","A2KS62ZCHB0RLZ","img_art/26.jpg","4","","","","","","","","","","","","","","","","","","","","","","","","",""
"null","","html-keyboard-response","224","2438847","0.0-222.0","A2KS62ZCHB0RLZ","<p style=""font-size: 48px;"">+</p>","","","","","null","allTrialResponses","500","1","25","img_art/26.jpg","6","It's alright, but nothing really special.","Angelica,Claire,Samantha,Margaret,Sara,Gabriela","It's not ugly but not beautiful at all.,-3,280,20","very impressionistic,11,260,20","I like the colors and trees. Seems cheap vintage retail store art but i love it anyways,50,140,20","its boring and i dont like the color palette,3,100,20","I can somewhat city a city in this drawing,11,160,20","it makes me feel normal and calm, I like the busy city street,10,140,20","Claire","very impressionistic,11,260,20","Margaret","its boring and i dont like the color palette,3,100,20","Sara","I can somewhat city a city in this drawing,11,160,20","4"
"4234","","survey-text","225","2443097","0.0-223.0-0.0","A2KS62ZCHB0RLZ","","","","{""Q0"":""table""}","","","","","","","","","","","","","","","","","","","","","","",""
"31988","","survey-text","226","2475088","0.0-224.0-0.0","A2KS62ZCHB0RLZ","","","","{""Q0"":""Quite strange and a bit too chaotic for my taste.""}","","","","","","","","","","","","","","","","","","","","","","",""
"3578","","image-slider-response","227","2478670","0.0-225.0","A2KS62ZCHB0RLZ","","","","","-4","","","","","","","","","","","","","","","","","","","","","",""
"null","","image-button-response","228","2483686","0.0-226.0","A2KS62ZCHB0RLZ","img_art/28.jpg","null","","","","","","","","","","","","","","","","","","","","","","","","",""
"6701","","image-button-response","229","2490390","0.0-227.0","A2KS62ZCHB0RLZ","img_art/28.jpg","4","","","","","","","","","","","","","","","","","","","","","","","","",""
"4341","","image-button-response","230","2494733","0.0-228.0-0.0","A2KS62ZCHB0RLZ","img_art/28.jpg","1","","","","","","","","","","","","","","","","","","","","","","","","",""
"1184","","image-button-response","231","2495920","0.0-229.0-0.0","A2KS62ZCHB0RLZ","img_art/28.jpg","2","","","","","","","","","","","","","","","","","","","","","","","","",""
"null","","html-keyboard-response","232","2497422","0.0-230.0","A2KS62ZCHB0RLZ","<p style=""font-size: 48px;"">+</p>","","","","","null","allTrialResponses","1500","1","26","img_art/28.jpg","-4","Quite strange and a bit too chaotic for my taste.","Cheyenne,Claire,Abigail,Margaret,Sara,Caroline","Good use of shapes.,7,200,20","not a fan of the colors or strokes used,-27,260,20","A messy bed room,-7,20,20","i like the neutral color pallette but i dont know what i am looking at,26,100,20","This swirly drawing i snot my type I get confused and dizzy,-20,160,20","Colors are pleasing. Made me think of two people kneeling and talking. A curious feeling.,15,100,20","Sara","This swirly drawing i snot my type I get confused and dizzy,-20,160,20","Claire","not a fan of the colors or strokes used,-27,260,20","Abigail","A messy bed room,-7,20,20","4"
"25980","","survey-text","233","2523410","0.0-231.0-0.0","A2KS62ZCHB0RLZ","","","","{""Q0"":""Weird, but I love the background color.""}","","","","","","","","","","","","","","","","","","","","","","",""
"4586.800000000745","","image-slider-response","234","2528000","0.0-232.0","A2KS62ZCHB0RLZ","","","","","7","","","","","","","","","","","","","","","","","","","","","",""
"4947","","image-button-response","235","2533018","0.0-233.0","A2KS62ZCHB0RLZ","img_art/4.jpg","4","","","","","","","","","","","","","","","","","","","","","","","","",""
"795","","image-button-response","236","2533817","0.0-234.0","A2KS62ZCHB0RLZ","img_art/4.jpg","4","","","","","","","","","","","","","","","","","","","","","","","","",""
"2247","","image-button-response","237","2536067","0.0-235.0-0.0","A2KS62ZCHB0RLZ","img_art/4.jpg","5","","","","","","","","","","","","","","","","","","","","","","","","",""
"3466","","image-button-response","238","2539536","0.0-236.0-0.0","A2KS62ZCHB0RLZ","img_art/4.jpg","2","","","","","","","","","","","","","","","","","","","","","","","","",""
"null","","html-keyboard-response","239","2541040","0.0-237.0","A2KS62ZCHB0RLZ","<p style=""font-size: 48px;"">+</p>","","","","","null","allTrialResponses","1500","1","27","img_art/4.jpg","7","Weird, but I love the background color.","Allison,Claire,Abigail,Chelsea,Sara,Erin","McDonald's French Fries.,-10,140,20","I really don't like the colors,-26,260,20","A hand reaching for something it cannot obtain,-9,20,20","The colors remind me of McDonalds.,-41,180,20","Random swirls again,-30,160,20","Seems simplistic,-8,120,20","Sara","Random swirls again,-30,160,20","Erin","Seems simplistic,-8,120,20","Abigail","A hand reaching for something it cannot obtain,-9,20,20","4"
"31540","","survey-text","240","2572594","0.0-238.0-0.0","A2KS62ZCHB0RLZ","","","","{""Q0"":""Nice colors. Could be a nature scene with a waterfall.""}","","","","","","","","","","","","","","","","","","","","","","",""
"3469.60000000149","","image-slider-response","241","2576066","0.0-239.0","A2KS62ZCHB0RLZ","","","","","36","","","","","","","","","","","","","","","","","","","","","",""
"3527","","image-button-response","242","2581079","0.0-240.0","A2KS62ZCHB0RLZ","img_art/24.jpg","1","","","","","","","","","","","","","","","","","","","","","","","","",""
"127","","image-button-response","243","2581210","0.0-241.0","A2KS62ZCHB0RLZ","img_art/24.jpg","1","","","","","","","","","","","","","","","","","","","","","","","","",""
"4957","","image-button-response","244","2586170","0.0-242.0-0.0","A2KS62ZCHB0RLZ","img_art/24.jpg","0","","","","","","","","","","","","","","","","","","","","","","","","",""
"663","","image-button-response","245","2586836","0.0-243.0-0.0","A2KS62ZCHB0RLZ","img_art/24.jpg","0","","","","","","","","","","","","","","","","","","","","","","","","",""
"5704","","image-button-response","246","2595322","0.0-243.1-0.1","A2KS62ZCHB0RLZ","img_art/24.jpg","3","","","","","","","","","","","","","","","","","","","","","","","","",""
"null","","html-keyboard-response","247","2596829","0.0-244.0","A2KS62ZCHB0RLZ","<p style=""font-size: 48px;"">+</p>","","","","","null","allTrialResponses","1500","1","28","img_art/24.jpg","36","Nice colors. Could be a nature scene with a waterfall.","Jordan,Katelyn,Abigail,Natalie,Sara,Erin","It's beautiful! I love it! I see a waterfall, and they are my favorite things in the world,50,20,20","Love the colors and contrast. Feels peaceful.,33,100,20","Beautiful waterfall I like waterfalls,39,20,20","I like the waterfall,22,400,20","Beautiful scenic drawing with perfect color coordination,43,160,20","Too literal, not abstract,-29,120,20","Katelyn","Love the colors and contrast. Feels peaceful.,33,100,20","Jordan","It's beautiful! I love it! I see a waterfall, and they are my favorite things in the world,50,20,20","Natalie","I like the waterfall,22,400,20","6"
"26408","","survey-text","248","2623254","0.0-245.0-0.0","A2KS62ZCHB0RLZ","","","","{""Q0"":""I looks simplistic, but slightly intriguing.""}","","","","","","","","","","","","","","","","","","","","","","",""
"7719.39999999851","","image-slider-response","249","2630976","0.0-246.0","A2KS62ZCHB0RLZ","","","","","3","","","","","","","","","","","","","","","","","","","","","",""
"null","","image-button-response","250","2635984","0.0-247.0","A2KS62ZCHB0RLZ","img_art/5.jpg","null","","","","","","","","","","","","","","","","","","","","","","","","",""
"397","","image-button-response","251","2636384","0.0-248.0","A2KS62ZCHB0RLZ","img_art/5.jpg","3","","","","","","","","","","","","","","","","","","","","","","","","",""
"2223","","image-button-response","252","2638610","0.0-249.0-0.0","A2KS62ZCHB0RLZ","img_art/5.jpg","5","","","","","","","","","","","","","","","","","","","","","","","","",""
"3658","","image-button-response","253","2642272","0.0-250.0-0.0","A2KS62ZCHB0RLZ","img_art/5.jpg","1","","","","","","","","","","","","","","","","","","","","","","","","",""
"null","","html-keyboard-response","254","2643275","0.0-251.0","A2KS62ZCHB0RLZ","<p style=""font-size: 48px;"">+</p>","","","","","null","allTrialResponses","1000","1","29","img_art/5.jpg","3","I looks simplistic, but slightly intriguing.","Jordan,Katelyn,Alexandra,Natalie,Nicole,Jennifer","I dont really get anything from this,-25,20,20","I just dont get it. Means very little to me,-22,100,20","This looks like a twelve year old did it,-40,60,20","the picture looks ok,8,400,20","I hate the shapes,-30,20,20","This piece doesn't really stand out.,0,380,20","Natalie","the picture looks ok,8,400,20","Jennifer","This piece doesn't really stand out.,0,380,20","Katelyn","I just dont get it. Means very little to me,-22,100,20","6"
"16257","","survey-text","255","2659541","0.0-252.0-0.0","A2KS62ZCHB0RLZ","","","","{""Q0"":""Too dark and unsettling.""}","","","","","","","","","","","","","","","","","","","","","","",""
"3001.800000000745","","image-slider-response","256","2662545","0.0-253.0","A2KS62ZCHB0RLZ","","","","","-5","","","","","","","","","","","","","","","","","","","","","",""
"4228","","image-button-response","257","2667558","0.0-254.0","A2KS62ZCHB0RLZ","img_art/10.jpg","3","","","","","","","","","","","","","","","","","","","","","","","","",""
"760","","image-button-response","258","2668322","0.0-255.0","A2KS62ZCHB0RLZ","img_art/10.jpg","3","","","","","","","","","","","","","","","","","","","","","","","","",""
"4043","","image-button-response","259","2672368","0.0-256.0-0.0","A2KS62ZCHB0RLZ","img_art/10.jpg","5","","","","","","","","","","","","","","","","","","","","","","","","",""
"6783","","image-button-response","260","2679154","0.0-257.0-0.0","A2KS62ZCHB0RLZ","img_art/10.jpg","2","","","","","","","","","","","","","","","","","","","","","","","","",""
"null","","html-keyboard-response","261","2679657","0.0-258.0","A2KS62ZCHB0RLZ","<p style=""font-size: 48px;"">+</p>","","","","","null","allTrialResponses","500","1","30","img_art/10.jpg","-5","Too dark and unsettling.","Paige,Katelyn,Autumn,Natalie,Kylie,Jennifer","kind of happy. it is intriguing,23,60,20","It makes me think of music and i love the reflective aspect,29,100,20","It just looks like a dirty stain.,-38,340,20","I see a rollercoaster,23,400,20","Musical guitar whimsy,45,300,20","I am neutral towards the artwork,1,380,20","Natalie","I see a rollercoaster,23,400,20","Jennifer","I am neutral towards the artwork,1,380,20","Autumn","It just looks like a dirty stain.,-38,340,20","6"
"4505","","image-button-response_instructions","262","2684178","0.0-259.0","A2KS62ZCHB0RLZ","","0","instructions","","","","","","","","","","","","","","","","","","","","","","","",""
"928","","image-button-response","263","2685114","0.0-260.0","A2KS62ZCHB0RLZ","","0","","","","","","","","","","","","","","","","","","","","","","","","",""
