"rt","url","trial_type","trial_index","time_elapsed","internal_node_id","participant_id","stimulus","button_pressed","Name","responses","response","key_press","variableName","fixationTime","condition","trial","photo","subjectRating","subjectResponse","agentsNames","agent_1_Response","agent_2_Response","agent_3_Response","agent_4_Response","agent_5_Response","agent_6_Response","kept_1_name","kept_1_response","kept_2_name","kept_2_response","kept_3_name","kept_3_response","errorCounter"
"311561","external_page_harvard.html","external-html","0","312052","0.0-0.0","A2KW87ZD2ELYNG","","","","","","","","","","","","","","","","","","","","","","","","","","",""
"1552","","image-button-response","1","313606","0.0-1.0","A2KW87ZD2ELYNG","","0","","","","","","","","","","","","","","","","","","","","","","","","",""
"2669","","image-button-response","2","316280","0.0-2.0-0.0","A2KW87ZD2ELYNG","","1","phone","","","","","","","","","","","","","","","","","","","","","","","",""
"4812","","survey-text","3","321094","0.0-3.0-0.0","A2KW87ZD2ELYNG","","","","{""Q0"":""A2KW87ZD2ELYNG""}","","","","","","","","","","","","","","","","","","","","","","",""
"19350","","image-button-response_instructions","4","340447","0.0-4.0","A2KW87ZD2ELYNG","","0","instructions","","","","","","","","","","","","","","","","","","","","","","","",""
"21353","","image-button-response_instructions","5","361801","0.0-5.0","A2KW87ZD2ELYNG","img_art/ins/popularity/ins1.png","0","instructions","","","","","","","","","","","","","","","","","","","","","","","",""
"11005","","image-button-response_instructions","6","372806","0.0-6.0","A2KW87ZD2ELYNG","img_art/ins/popularity/ins2.png","0","instructions","","","","","","","","","","","","","","","","","","","","","","","",""
"10080","","image-button-response_instructions","7","382887","0.0-7.0","A2KW87ZD2ELYNG","img_art/ins/popularity/ins2Extreme.png","0","instructions","","","","","","","","","","","","","","","","","","","","","","","",""
"9089","","image-button-response_instructions","8","391977","0.0-8.0","A2KW87ZD2ELYNG","img_art/ins/popularity/ins3KEEPpop.PNG","0","instructions","","","","","","","","","","","","","","","","","","","","","","","",""
"8416","","image-button-response_instructions","9","400395","0.0-9.0","A2KW87ZD2ELYNG","img_art/ins/popularity/ins3ANamepop.PNG","0","instructions","","","","","","","","","","","","","","","","","","","","","","","",""
"8934","","image-button-response_instructions","10","409330","0.0-10.0","A2KW87ZD2ELYNG","img_art/ins/popularity/ins3ARatingpop.png","0","instructions","","","","","","","","","","","","","","","","","","","","","","","",""
"3178","","image-button-response_instructions","11","412509","0.0-11.0","A2KW87ZD2ELYNG","img_art/ins/popularity/ins3ATextpop.png","0","instructions","","","","","","","","","","","","","","","","","","","","","","","",""
"9841","","image-button-response_instructions","12","422351","0.0-12.0","A2KW87ZD2ELYNG","img_art/ins/popularity/ins3ALikespop.png","0","instructions","","","","","","","","","","","","","","","","","","","","","","","",""
"19706","","image-button-response_instructions","13","442059","0.0-13.0","A2KW87ZD2ELYNG","img_art/ins/popularity/ins3KEEPpop.PNG","0","instructions","","","","","","","","","","","","","","","","","","","","","","","",""
"16326","","image-button-response_instructions","14","458385","0.0-14.0","A2KW87ZD2ELYNG","img_art/ins/popularity/ins3_5RED.png","0","instructions","","","","","","","","","","","","","","","","","","","","","","","",""
"11757","","image-button-response_instructions","15","470143","0.0-15.0","A2KW87ZD2ELYNG","img_art/ins/popularity/ins3KEEPpop.PNG","0","instructions","","","","","","","","","","","","","","","","","","","","","","","",""
"11058","","image-button-response_instructions","16","481202","0.0-16.0","A2KW87ZD2ELYNG","img_art/ins/popularity/ins4KEEPpop.PNG","0","instructions","","","","","","","","","","","","","","","","","","","","","","","",""
"6150","","image-button-response_instructions","17","487354","0.0-17.0","A2KW87ZD2ELYNG","img_art/ins/popularity/ins5KEEPpop.PNG","0","instructions","","","","","","","","","","","","","","","","","","","","","","","",""
"1391","","image-button-response_instructions","18","488746","0.0-18.0","A2KW87ZD2ELYNG","","0","instructions","","","","","","","","","","","","","","","","","","","","","","","",""
"7115","","survey-text","19","495887","0.0-19.0-0.0","A2KW87ZD2ELYNG","","","","{""Q0"":""but""}","","","","","","","","","","","","","","","","","","","","","","",""
"21899","","survey-text","20","517788","0.0-20.0-0.0","A2KW87ZD2ELYNG","","","","{""Q0"":""Somebody spilled some paint here!""}","","","","","","","","","","","","","","","","","","","","","","",""
"8374","","image-slider-response","21","526164","0.0-21.0","A2KW87ZD2ELYNG","","","","","-45","","","","","","","","","","","","","","","","","","","","","",""
"null","","image-button-response","22","531169","0.0-22.0","A2KW87ZD2ELYNG","img_art/ins/1.jpg","null","","","","","","","","","","","","","","","","","","","","","","","","",""
"13471","","image-button-response","23","544641","0.0-23.0","A2KW87ZD2ELYNG","img_art/ins/1.jpg","0","","","","","","","","","","","","","","","","","","","","","","","","",""
"5133","","image-button-response","24","549777","0.0-24.0-0.0","A2KW87ZD2ELYNG","img_art/ins/1.jpg","2","","","","","","","","","","","","","","","","","","","","","","","","",""
"1678","","image-button-response","25","551458","0.0-25.0-0.0","A2KW87ZD2ELYNG","img_art/ins/1.jpg","0","","","","","","","","","","","","","","","","","","","","","","","","",""
"8544","","image-button-response","26","563405","0.0-25.1-0.1","A2KW87ZD2ELYNG","img_art/ins/1.jpg","4","","","","","","","","","","","","","","","","","","","","","","","","",""
"null","","html-keyboard-response","27","563908","0.0-26.0","A2KW87ZD2ELYNG","<p style=""font-size: 48px;"">+</p>","","","","","null","allTrialResponses","500","1","-2","img_art/ins/1.jpg","-45","Somebody spilled some paint here!","Adam,Alex,Ben,Carl,Daniel,Jack","Seems like doodles,-20,20,20","very creative work.,36,40,20","This color reminds me of poo,-46,60,20","very calming artwork,42,80,20","It looks like a murder scene.,-48,100,20","I like the sophisticated brushwork,40,120,20","Adam","Seems like doodles,-20,20,20","Ben","This color reminds me of poo,-46,60,20","Daniel","It looks like a murder scene.,-48,100,20","2"
"41785","","survey-text","28","605697","0.0-27.0-0.0","A2KW87ZD2ELYNG","","","","{""Q0"":""Looks like an AI was bored, meh.""}","","","","","","","","","","","","","","","","","","","","","","",""
"3995","","image-slider-response","29","609693","0.0-28.0","A2KW87ZD2ELYNG","","","","","-39","","","","","","","","","","","","","","","","","","","","","",""
"3955","","image-button-response","30","614696","0.0-29.0","A2KW87ZD2ELYNG","img_art/ins/2.jpg","0","","","","","","","","","","","","","","","","","","","","","","","","",""
"4431","","image-button-response","31","619129","0.0-30.0","A2KW87ZD2ELYNG","img_art/ins/2.jpg","2","","","","","","","","","","","","","","","","","","","","","","","","",""
"3645","","image-button-response","32","622776","0.0-31.0-0.0","A2KW87ZD2ELYNG","img_art/ins/2.jpg","4","","","","","","","","","","","","","","","","","","","","","","","","",""
"6685","","image-button-response","33","629464","0.0-32.0-0.0","A2KW87ZD2ELYNG","img_art/ins/2.jpg","5","","","","","","","","","","","","","","","","","","","","","","","","",""
"null","","html-keyboard-response","34","629956","0.0-33.0","A2KW87ZD2ELYNG","<p style=""font-size: 48px;"">+</p>","","","","","null","allTrialResponses","500","1","-1","img_art/ins/2.jpg","-39","Looks like an AI was bored, meh.","Adam,John,Ben,James,Daniel,Kyle","too much color,-18,20,20","love the texture of paint,48,160,20","meaningless painting,-45,60,20","looks too angry,-50,140,20","One of my pet peevs,-48,100,20","Idk, it is just annoying,-32,180,20","Ben","meaningless painting,-45,60,20","Daniel","One of my pet peevs,-48,100,20","Kyle","Idk, it is just annoying,-32,180,20","2"
"19015","","survey-text","35","648977","0.0-34.0-0.0","A2KW87ZD2ELYNG","","","","{""Q0"":""I like it, feels like I'm inside an ice cube!""}","","","","","","","","","","","","","","","","","","","","","","",""
"2920.7000000476837","","image-slider-response","36","651900","0.0-35.0","A2KW87ZD2ELYNG","","","","","39","","","","","","","","","","","","","","","","","","","","","",""
"null","","image-button-response","37","656902","0.0-36.0","A2KW87ZD2ELYNG","img_art/ins/3.jpg","null","","","","","","","","","","","","","","","","","","","","","","","","",""
"10358","","image-button-response","38","667261","0.0-37.0","A2KW87ZD2ELYNG","img_art/ins/3.jpg","0","","","","","","","","","","","","","","","","","","","","","","","","",""
"2924","","image-button-response","39","670188","0.0-38.0-0.0","A2KW87ZD2ELYNG","img_art/ins/3.jpg","3","","","","","","","","","","","","","","","","","","","","","","","","",""
"5522","","image-button-response","40","675712","0.0-39.0-0.0","A2KW87ZD2ELYNG","img_art/ins/3.jpg","5","","","","","","","","","","","","","","","","","","","","","","","","",""
"null","","html-keyboard-response","41","676714","0.0-40.0","A2KW87ZD2ELYNG","<p style=""font-size: 48px;"">+</p>","","","","","null","allTrialResponses","1000","1","0","img_art/ins/3.jpg","39","I like it, feels like I'm inside an ice cube!","Sam,Ron,Ben,Mike,Daniel,Kyle","I can feel a rainy day from this painting,18,240,20","It looks depressing,-26,220,20","This thing gives me anxiety,-41,60,20","enjoy the different shades of blue,22,200,20","looks like a murder room,-35,100,20","It looks like a playground for bats,-36,180,20","Sam","I can feel a rainy day from this painting,18,240,20","Mike","enjoy the different shades of blue,22,200,20","Kyle","It looks like a playground for bats,-36,180,20","2"
"9170","","image-button-response_instructions","42","685889","0.0-41.0","A2KW87ZD2ELYNG","","0","instructions","","","","","","","","","","","","","","","","","","","","","","","",""
"13375","","survey-likert","43","699265","0.0-42.0-0.0","A2KW87ZD2ELYNG","","","","{""Q0"":"""",""Q1"":0,""Q2"":1}","","","","","","","","","","","","","","","","","","","","","","",""
"4923","","survey-text","44","704194","0.0-43.0-0.0","A2KW87ZD2ELYNG","","","","{""Q0"":""rock""}","","","","","","","","","","","","","","","","","","","","","","",""
"50549","","survey-text","45","754745","0.0-44.0-0.0","A2KW87ZD2ELYNG","","","","{""Q0"":""It looks like a tornado went through mario land, meh!""}","","","","","","","","","","","","","","","","","","","","","","",""
"4080.5","","image-slider-response","46","758827","0.0-45.0","A2KW87ZD2ELYNG","","","","","-44","","","","","","","","","","","","","","","","","","","","","",""
"null","","image-button-response","47","763858","0.0-46.0","A2KW87ZD2ELYNG","img_art/14.jpg","null","","","","","","","","","","","","","","","","","","","","","","","","",""
"4607","","image-button-response","48","768467","0.0-47.0","A2KW87ZD2ELYNG","img_art/14.jpg","5","","","","","","","","","","","","","","","","","","","","","","","","",""
"492","","image-button-response","49","768963","0.0-48.0-0.0","A2KW87ZD2ELYNG","img_art/14.jpg","4","","","","","","","","","","","","","","","","","","","","","","","","",""
"8218","","image-button-response","50","777183","0.0-49.0-0.0","A2KW87ZD2ELYNG","img_art/14.jpg","0","","","","","","","","","","","","","","","","","","","","","","","","",""
"null","","html-keyboard-response","51","778685","0.0-50.0","A2KW87ZD2ELYNG","<p style=""font-size: 48px;"">+</p>","","","","","null","allTrialResponses","1500","1","1","img_art/14.jpg","-44","It looks like a tornado went through mario land, meh!","Charles,David,Marcus,Richard,Brendan,Aaron","In some ways it looks natural, but I'm just not feeling it,0,100,20","I like how balanced the piece is with its symmetrical design.,20,340,20","I like the colors and the shapes are interesting,11,60,20","the colors are peaceful and nature colors, soft,37,340,20","it looks like a tree on desert,23,340,20","It reminds me of a tree in the desert.,15,20,20","Aaron","It reminds me of a tree in the desert.,15,20,20","Brendan","it looks like a tree on desert,23,340,20","Charles","In some ways it looks natural, but I'm just not feeling it,0,100,20","2"
"38754","","survey-text","52","817443","0.0-51.0-0.0","A2KW87ZD2ELYNG","","","","{""Q0"":""A premium snail trail wannabe pretzel, eww.""}","","","","","","","","","","","","","","","","","","","","","","",""
"2853.399999976158","","image-slider-response","53","820299","0.0-52.0","A2KW87ZD2ELYNG","","","","","-48","","","","","","","","","","","","","","","","","","","","","",""
"null","","image-button-response","54","825302","0.0-53.0","A2KW87ZD2ELYNG","img_art/10.jpg","null","","","","","","","","","","","","","","","","","","","","","","","","",""
"7798","","image-button-response","55","833102","0.0-54.0","A2KW87ZD2ELYNG","img_art/10.jpg","2","","","","","","","","","","","","","","","","","","","","","","","","",""
"8616","","image-button-response","56","841720","0.0-55.0-0.0","A2KW87ZD2ELYNG","img_art/10.jpg","5","","","","","","","","","","","","","","","","","","","","","","","","",""
"2218","","image-button-response","57","843941","0.0-56.0-0.0","A2KW87ZD2ELYNG","img_art/10.jpg","0","","","","","","","","","","","","","","","","","","","","","","","","",""
"null","","html-keyboard-response","58","844442","0.0-57.0","A2KW87ZD2ELYNG","<p style=""font-size: 48px;"">+</p>","","","","","null","allTrialResponses","500","1","2","img_art/10.jpg","-48","A premium snail trail wannabe pretzel, eww.","Charles,Jose,Evan,Luis,Brendan,Aaron","Also too all over the place, I don't see any pattern or anything that's supposed to stand out,-19,100,20","This is pretty rad. The outline looks like a music staff,15,200,20","My immediate thought is WTF is this,-20,140,20","I love the dark and edgy nature of this,50,400,20","a blue whale on the sea,12,340,20","I like how simple but intricate it is.,30,20,20","Evan","My immediate thought is WTF is this,-20,140,20","Aaron","I like how simple but intricate it is.,30,20,20","Charles","Also too all over the place, I don't see any pattern or anything that's supposed to stand out,-19,100,20","2"
"39601","","survey-text","59","884049","0.0-58.0-0.0","A2KW87ZD2ELYNG","","","","{""Q0"":""Out of control ketchup bottle, meh.""}","","","","","","","","","","","","","","","","","","","","","","",""
"3863.100000023842","","image-slider-response","60","887914","0.0-59.0","A2KW87ZD2ELYNG","","","","","-33","","","","","","","","","","","","","","","","","","","","","",""
"4507","","image-button-response","61","892917","0.0-60.0","A2KW87ZD2ELYNG","img_art/3.jpg","1","","","","","","","","","","","","","","","","","","","","","","","","",""
"216","","image-button-response","62","893136","0.0-61.0","A2KW87ZD2ELYNG","img_art/3.jpg","1","","","","","","","","","","","","","","","","","","","","","","","","",""
"7660","","image-button-response","63","900798","0.0-62.0-0.0","A2KW87ZD2ELYNG","img_art/3.jpg","4","","","","","","","","","","","","","","","","","","","","","","","","",""
"4491","","image-button-response","64","905292","0.0-63.0-0.0","A2KW87ZD2ELYNG","img_art/3.jpg","5","","","","","","","","","","","","","","","","","","","","","","","","",""
"null","","html-keyboard-response","65","905793","0.0-64.0","A2KW87ZD2ELYNG","<p style=""font-size: 48px;"">+</p>","","","","","null","allTrialResponses","500","1","3","img_art/3.jpg","-33","Out of control ketchup bottle, meh.","Charles,Blake,Evan,Dakota,Grant,Aaron","I like that it feels kind of simple but still chaotic,6,100,20","painted by a 2 year old. cold and boring,-30,280,20","It feels like a half assed and failed imitation of Japanese signatures on old paintings,-22,140,20","wild scribbling, freedom, expression,40,280,20","It looks like the artist was trying too hard to make it chaotic and emotional.,-25,200,20","Definition of mediocre abstract art,-12,20,20","Blake","painted by a 2 year old. cold and boring,-30,280,20","Grant","It looks like the artist was trying too hard to make it chaotic and emotional.,-25,200,20","Aaron","Definition of mediocre abstract art,-12,20,20","2"
"17346","","survey-text","66","923147","0.0-65.0-0.0","A2KW87ZD2ELYNG","","","","{""Q0"":""Reminds me of one of those bugs bunny desert cartoons.""}","","","","","","","","","","","","","","","","","","","","","","",""
"3163.5","","image-slider-response","67","926312","0.0-66.0","A2KW87ZD2ELYNG","","","","","20","","","","","","","","","","","","","","","","","","","","","",""
"null","","image-button-response","68","931304","0.0-67.0","A2KW87ZD2ELYNG","img_art/20.jpg","null","","","","","","","","","","","","","","","","","","","","","","","","",""
"2843","","image-button-response","69","934150","0.0-68.0","A2KW87ZD2ELYNG","img_art/20.jpg","1","","","","","","","","","","","","","","","","","","","","","","","","",""
"8455","","image-button-response","70","942609","0.0-69.0-0.0","A2KW87ZD2ELYNG","img_art/20.jpg","5","","","","","","","","","","","","","","","","","","","","","","","","",""
"1546","","image-button-response","71","944156","0.0-70.0-0.0","A2KW87ZD2ELYNG","img_art/20.jpg","0","","","","","","","","","","","","","","","","","","","","","","","","",""
"null","","html-keyboard-response","72","945658","0.0-71.0","A2KW87ZD2ELYNG","<p style=""font-size: 48px;"">+</p>","","","","","null","allTrialResponses","1500","1","4","img_art/20.jpg","20","Reminds me of one of those bugs bunny desert cartoons.","Peter,Blake,Antonio,Bryan,Grant,Aaron","Little picturesque town that I would like to visit,19,320,20","reminds me of a dead animal in the west. ugly,-25,280,20","Makes me feel weary,21,220,20","Reminds me of Georgia O'Keefe.,11,400,20","This elicits no reaction in me.,0,200,20","I would like it more without the frame.,10,20,20","Blake","reminds me of a dead animal in the west. ugly,-25,280,20","Aaron","I would like it more without the frame.,10,20,20","Peter","Little picturesque town that I would like to visit,19,320,20","2"
"29993","","survey-text","73","975656","0.0-72.0-0.0","A2KW87ZD2ELYNG","","","","{""Q0"":""Looks like a space rock to me.""}","","","","","","","","","","","","","","","","","","","","","","",""
"3203.6999999284744","","image-slider-response","74","978861","0.0-73.0","A2KW87ZD2ELYNG","","","","","10","","","","","","","","","","","","","","","","","","","","","",""
"null","","image-button-response","75","983863","0.0-74.0","A2KW87ZD2ELYNG","img_art/7.jpg","null","","","","","","","","","","","","","","","","","","","","","","","","",""
"907","","image-button-response","76","984772","0.0-75.0","A2KW87ZD2ELYNG","img_art/7.jpg","5","","","","","","","","","","","","","","","","","","","","","","","","",""
"1611","","image-button-response","77","986384","0.0-76.0-0.0","A2KW87ZD2ELYNG","img_art/7.jpg","1","","","","","","","","","","","","","","","","","","","","","","","","",""
"5274","","image-button-response","78","991660","0.0-77.0-0.0","A2KW87ZD2ELYNG","img_art/7.jpg","0","","","","","","","","","","","","","","","","","","","","","","","","",""
"null","","html-keyboard-response","79","992662","0.0-78.0","A2KW87ZD2ELYNG","<p style=""font-size: 48px;"">+</p>","","","","","null","allTrialResponses","1000","1","5","img_art/7.jpg","10","Looks like a space rock to me.","Peter,Blake,Spencer,Isaiah,Noah,Aaron","It's just like sand from the beach,2,320,20","hot desert with big rocks.,-19,280,20","I love it, it looks like a landscape photograph in desert or rocky mountain,50,120,20","I feel relaxed and a little nostalgic, like I'm exploring the wall of a very old building.,18,300,20","elicits no real response,0,260,20","It's kind of ugly but I like the texture.,10,20,20","Aaron","It's kind of ugly but I like the texture.,10,20,20","Blake","hot desert with big rocks.,-19,280,20","Peter","It's just like sand from the beach,2,320,20","2"
"4000","","survey-text","80","996669","0.0-79.0-0.0","A2KW87ZD2ELYNG","","","","{""Q0"":""sky""}","","","","","","","","","","","","","","","","","","","","","","",""
"19694","","survey-text","81","1016365","0.0-80.0-0.0","A2KW87ZD2ELYNG","","","","{""Q0"":""It makes me feel bored.""}","","","","","","","","","","","","","","","","","","","","","","",""
"2543.100000023842","","image-slider-response","82","1018910","0.0-81.0","A2KW87ZD2ELYNG","","","","","-33","","","","","","","","","","","","","","","","","","","","","",""
"1990","","image-button-response","83","1023912","0.0-82.0","A2KW87ZD2ELYNG","img_art/27.jpg","0","","","","","","","","","","","","","","","","","","","","","","","","",""
"1754","","image-button-response","84","1025668","0.0-83.0","A2KW87ZD2ELYNG","img_art/27.jpg","0","","","","","","","","","","","","","","","","","","","","","","","","",""
"6354","","image-button-response","85","1032024","0.0-84.0-0.0","A2KW87ZD2ELYNG","img_art/27.jpg","2","","","","","","","","","","","","","","","","","","","","","","","","",""
"2620","","image-button-response","86","1034647","0.0-85.0-0.0","A2KW87ZD2ELYNG","img_art/27.jpg","5","","","","","","","","","","","","","","","","","","","","","","","","",""
"null","","html-keyboard-response","87","1035148","0.0-86.0","A2KW87ZD2ELYNG","<p style=""font-size: 48px;"">+</p>","","","","","null","allTrialResponses","500","1","6","img_art/27.jpg","-33","It makes me feel bored.","Peter,Blake,Cameron,Benjamin,Steven,Aaron","Calming sky , relaxing,23,320,20","fruity and sweet. warm and juicy,10,280,20","Like it, autumn colors, trees and foliage scene.,25,60,20","I like the colors.,6,260,20","two warring cities, separated by a small desert,50,160,20","It looks like when my little sister took magic markers to the wall.,-11,20,20","Peter","Calming sky , relaxing,23,320,20","Cameron","Like it, autumn colors, trees and foliage scene.,25,60,20","Aaron","It looks like when my little sister took magic markers to the wall.,-11,20,20","2"
"34758","","survey-text","88","1069912","0.0-87.0-0.0","A2KW87ZD2ELYNG","","","","{""Q0"":""My friends little sister scribbles better than this, yuck.""}","","","","","","","","","","","","","","","","","","","","","","",""
"2408.5","","image-slider-response","89","1072322","0.0-88.0","A2KW87ZD2ELYNG","","","","","-50","","","","","","","","","","","","","","","","","","","","","",""
"4938","","image-button-response","90","1077324","0.0-89.0","A2KW87ZD2ELYNG","img_art/2.jpg","2","","","","","","","","","","","","","","","","","","","","","","","","",""
"796","","image-button-response","91","1078121","0.0-90.0","A2KW87ZD2ELYNG","img_art/2.jpg","2","","","","","","","","","","","","","","","","","","","","","","","","",""
"4591","","image-button-response","92","1082715","0.0-91.0-0.0","A2KW87ZD2ELYNG","img_art/2.jpg","4","","","","","","","","","","","","","","","","","","","","","","","","",""
"3991","","image-button-response","93","1086709","0.0-92.0-0.0","A2KW87ZD2ELYNG","img_art/2.jpg","3","","","","","","","","","","","","","","","","","","","","","","","","",""
"null","","html-keyboard-response","94","1088210","0.0-93.0","A2KW87ZD2ELYNG","<p style=""font-size: 48px;"">+</p>","","","","","null","allTrialResponses","1500","1","7","img_art/2.jpg","-50","My friends little sister scribbles better than this, yuck.","Peter,Nicholas,Cameron,Michael,Miguel,Aaron","I don't feel indifferent,4,320,20","Cute and happy,22,240,20","Ugly version of that park painting.,-31,60,20","Random colors and shapes mashed together. Nothing artistic, but better than some of the other ones.,-37,140,20","7 year old painted?,-35,160,20","The colors are pretty but I don't really like the shapes in it.,-20,20,20","Cameron","Ugly version of that park painting.,-31,60,20","Miguel","7 year old painted?,-35,160,20","Michael","Random colors and shapes mashed together. Nothing artistic, but better than some of the other ones.,-37,140,20","2"
"65194","","survey-text","95","1153411","0.0-94.0-0.0","A2KW87ZD2ELYNG","","","","{""Q0"":""Hmmm, better get a gardener for those trees.""}","","","","","","","","","","","","","","","","","","","","","","",""
"2347.399999976158","","image-slider-response","96","1155760","0.0-95.0","A2KW87ZD2ELYNG","","","","","-28","","","","","","","","","","","","","","","","","","","","","",""
"3951","","image-button-response","97","1160763","0.0-96.0","A2KW87ZD2ELYNG","img_art/26.jpg","1","","","","","","","","","","","","","","","","","","","","","","","","",""
"1068","","image-button-response","98","1161833","0.0-97.0","A2KW87ZD2ELYNG","img_art/26.jpg","1","","","","","","","","","","","","","","","","","","","","","","","","",""
"1038","","image-button-response","99","1162872","0.0-98.0-0.0","A2KW87ZD2ELYNG","img_art/26.jpg","2","","","","","","","","","","","","","","","","","","","","","","","","",""
"2257","","image-button-response","100","1165132","0.0-99.0-0.0","A2KW87ZD2ELYNG","img_art/26.jpg","3","","","","","","","","","","","","","","","","","","","","","","","","",""
"null","","html-keyboard-response","101","1165634","0.0-100.0","A2KW87ZD2ELYNG","<p style=""font-size: 48px;"">+</p>","","","","","null","allTrialResponses","500","1","8","img_art/26.jpg","-28","Hmmm, better get a gardener for those trees.","Andrew,Victor,Cameron,Michael,Miguel,Jacob","Makes me want to walk down a cool street,20,160,20","the trees are cool,1,340,20","street scene is okay?,15,60,20","Not much skil went into this one either.,-41,140,20","Murky, messy, kid like.,-45,160,20","It doesn't look so vibrant, I'm not sure what feelings they were trying to capture,-41,340,20","Victor","the trees are cool,1,340,20","Cameron","street scene is okay?,15,60,20","Michael","Not much skil went into this one either.,-41,140,20","2"
"35678","","survey-text","102","1201317","0.0-101.0-0.0","A2KW87ZD2ELYNG","","","","{""Q0"":""I just can't get into abstract art it's always a big yuck from me.""}","","","","","","","","","","","","","","","","","","","","","","",""
"2841.7999999523163","","image-slider-response","103","1204160","0.0-102.0","A2KW87ZD2ELYNG","","","","","-50","","","","","","","","","","","","","","","","","","","","","",""
"4953","","image-button-response","104","1209162","0.0-103.0","A2KW87ZD2ELYNG","img_art/19.jpg","1","","","","","","","","","","","","","","","","","","","","","","","","",""
"803","","image-button-response","105","1209966","0.0-104.0","A2KW87ZD2ELYNG","img_art/19.jpg","1","","","","","","","","","","","","","","","","","","","","","","","","",""
"3797","","image-button-response","106","1213765","0.0-105.0-0.0","A2KW87ZD2ELYNG","img_art/19.jpg","4","","","","","","","","","","","","","","","","","","","","","","","","",""
"2307","","image-button-response","107","1216074","0.0-106.0-0.0","A2KW87ZD2ELYNG","img_art/19.jpg","3","","","","","","","","","","","","","","","","","","","","","","","","",""
"null","","html-keyboard-response","108","1217075","0.0-107.0","A2KW87ZD2ELYNG","<p style=""font-size: 48px;"">+</p>","","","","","null","allTrialResponses","1000","1","9","img_art/19.jpg","-50","I just can't get into abstract art it's always a big yuck from me.","Ethan,Victor,Cameron,Michael,Jorge,Bradley","I interpret an outdoor scene. It's good because it makes me want to look longer.,22,120,20","too much going on, can't tell what it is,-14,340,20","Snowy winter scene,25,60,20","Loks like an amature did it, Not pleasing.,-45,140,20","confused and emotional,-4,180,20","This looks like a child's piece. I appreciate the artistic value, but not for me.,-20,300,20","Victor","too much going on, can't tell what it is,-14,340,20","Jorge","confused and emotional,-4,180,20","Michael","Loks like an amature did it, Not pleasing.,-45,140,20","2"
"36307","","survey-text","109","1253386","0.0-108.0-0.0","A2KW87ZD2ELYNG","","","","{""Q0"":""I hate it when paint drips on my canvas, eww.""}","","","","","","","","","","","","","","","","","","","","","","",""
"3042.1999999284744","","image-slider-response","110","1256430","0.0-109.0","A2KW87ZD2ELYNG","","","","","-47","","","","","","","","","","","","","","","","","","","","","",""
"4573","","image-button-response","111","1261433","0.0-110.0","A2KW87ZD2ELYNG","img_art/13.jpg","3","","","","","","","","","","","","","","","","","","","","","","","","",""
"384","","image-button-response","112","1261819","0.0-111.0","A2KW87ZD2ELYNG","img_art/13.jpg","3","","","","","","","","","","","","","","","","","","","","","","","","",""
"5846","","image-button-response","113","1267667","0.0-112.0-0.0","A2KW87ZD2ELYNG","img_art/13.jpg","5","","","","","","","","","","","","","","","","","","","","","","","","",""
"750","","image-button-response","114","1268419","0.0-113.0-0.0","A2KW87ZD2ELYNG","img_art/13.jpg","4","","","","","","","","","","","","","","","","","","","","","","","","",""
"null","","html-keyboard-response","115","1269921","0.0-114.0","A2KW87ZD2ELYNG","<p style=""font-size: 48px;"">+</p>","","","","","null","allTrialResponses","1500","1","10","img_art/13.jpg","-47","I hate it when paint drips on my canvas, eww.","Zachary,Victor,Matthew,Michael,Jorge,Cole","Peaceful colors.,20,400,20","Great color balance. I like the splatter, and how the vertical lines go from sharper to more blended.,31,340,20","AWESOME! Pollack but with more direction.,32,120,20","I don't car for it but it does seem organized and like it took considereably more skill that others.,9,140,20","It reminds me of rain,11,180,20","The blue colors are very calming. Reminds me of water,33,200,20","Michael","I don't car for it but it does seem organized and like it took considereably more skill that others.,9,140,20","Cole","The blue colors are very calming. Reminds me of water,33,200,20","Jorge","It reminds me of rain,11,180,20","2"
"3183","","survey-text","116","1273111","0.0-115.0-0.0","A2KW87ZD2ELYNG","","","","{""Q0"":""our""}","","","","","","","","","","","","","","","","","","","","","","",""
"32226","","survey-text","117","1305338","0.0-116.0-0.0","A2KW87ZD2ELYNG","","","","{""Q0"":""Terrible except the teddy bear looks ok.""}","","","","","","","","","","","","","","","","","","","","","","",""
"5333.5","","image-slider-response","118","1310673","0.0-117.0","A2KW87ZD2ELYNG","","","","","-46","","","","","","","","","","","","","","","","","","","","","",""
"4757","","image-button-response","119","1315676","0.0-118.0","A2KW87ZD2ELYNG","img_art/16.jpg","1","","","","","","","","","","","","","","","","","","","","","","","","",""
"573","","image-button-response","120","1316251","0.0-119.0","A2KW87ZD2ELYNG","img_art/16.jpg","1","","","","","","","","","","","","","","","","","","","","","","","","",""
"1705","","image-button-response","121","1317958","0.0-120.0-0.0","A2KW87ZD2ELYNG","img_art/16.jpg","2","","","","","","","","","","","","","","","","","","","","","","","","",""
"2875","","image-button-response","122","1320836","0.0-121.0-0.0","A2KW87ZD2ELYNG","img_art/16.jpg","3","","","","","","","","","","","","","","","","","","","","","","","","",""
"null","","html-keyboard-response","123","1321837","0.0-122.0","A2KW87ZD2ELYNG","<p style=""font-size: 48px;"">+</p>","","","","","null","allTrialResponses","1000","1","11","img_art/16.jpg","-46","Terrible except the teddy bear looks ok.","James,Tyler,John,Michael,Jorge,Cole","It is interesting to say the least,0,380,20","Pop art, Tate Modern horse dung.,-50,320,20","It creeps me out.,-50,120,20","Looks like a kid did itt and ti looks disturbing.,-45,140,20","Dreamy and chaotic,-9,180,20","Weird mixed media piece,-50,200,20","Tyler","Pop art, Tate Modern horse dung.,-50,320,20","John","It creeps me out.,-50,120,20","Michael","Looks like a kid did itt and ti looks disturbing.,-45,140,20","2"
"33226","","survey-text","124","1355067","0.0-123.0-0.0","A2KW87ZD2ELYNG","","","","{""Q0"":""That volcano wrecked that island, I kinda like it.""}","","","","","","","","","","","","","","","","","","","","","","",""
"3489.7000000476837","","image-slider-response","125","1358559","0.0-124.0","A2KW87ZD2ELYNG","","","","","33","","","","","","","","","","","","","","","","","","","","","",""
"4116","","image-button-response","126","1363562","0.0-125.0","A2KW87ZD2ELYNG","img_art/9.jpg","3","","","","","","","","","","","","","","","","","","","","","","","","",""
"448","","image-button-response","127","1364012","0.0-126.0","A2KW87ZD2ELYNG","img_art/9.jpg","3","","","","","","","","","","","","","","","","","","","","","","","","",""
"12626","","image-button-response","128","1376640","0.0-127.0-0.0","A2KW87ZD2ELYNG","img_art/9.jpg","2","","","","","","","","","","","","","","","","","","","","","","","","",""
"2831","","image-button-response","129","1379474","0.0-128.0-0.0","A2KW87ZD2ELYNG","img_art/9.jpg","4","","","","","","","","","","","","","","","","","","","","","","","","",""
"null","","html-keyboard-response","130","1379975","0.0-129.0","A2KW87ZD2ELYNG","<p style=""font-size: 48px;"">+</p>","","","","","null","allTrialResponses","500","1","12","img_art/9.jpg","33","That volcano wrecked that island, I kinda like it.","Shawn,Tyler,John,Michael,Christopher,Nathaniel","Cheesy. Looks unprofessional,-20,100,20","No cohesive form whatsoever. Hard pass.,-31,320,20","Unpleasant, alot of dark colors and strange lines,-26,120,20","Looks like a young child drew it.,-45,140,20","I really like the color balance but the image is odd,-5,160,20","Not very enticing. No real substance other than a lady laying down,-35,220,20","Michael","Looks like a young child drew it.,-45,140,20","John","Unpleasant, alot of dark colors and strange lines,-26,120,20","Christopher","I really like the color balance but the image is odd,-5,160,20","2"
"36911","","survey-text","131","1416890","0.0-130.0-0.0","A2KW87ZD2ELYNG","","","","{""Q0"":""Looks like the aftermath of a nuclear strike.""}","","","","","","","","","","","","","","","","","","","","","","",""
"3958.1999999284744","","image-slider-response","132","1420850","0.0-131.0","A2KW87ZD2ELYNG","","","","","-12","","","","","","","","","","","","","","","","","","","","","",""
"4229","","image-button-response","133","1425853","0.0-132.0","A2KW87ZD2ELYNG","img_art/22.jpg","0","","","","","","","","","","","","","","","","","","","","","","","","",""
"992","","image-button-response","134","1426847","0.0-133.0","A2KW87ZD2ELYNG","img_art/22.jpg","0","","","","","","","","","","","","","","","","","","","","","","","","",""
"1115","","image-button-response","135","1427964","0.0-134.0-0.0","A2KW87ZD2ELYNG","img_art/22.jpg","0","","","","","","","","","","","","","","","","","","","","","","","","",""
"2023","","image-button-response","136","1437238","0.0-134.1-0.1","A2KW87ZD2ELYNG","img_art/22.jpg","3","","","","","","","","","","","","","","","","","","","","","","","","",""
"5917","","image-button-response","137","1443159","0.0-135.0-0.0","A2KW87ZD2ELYNG","img_art/22.jpg","2","","","","","","","","","","","","","","","","","","","","","","","","",""
"null","","html-keyboard-response","138","1444160","0.0-136.0","A2KW87ZD2ELYNG","<p style=""font-size: 48px;"">+</p>","","","","","null","allTrialResponses","1000","1","13","img_art/22.jpg","-12","Looks like the aftermath of a nuclear strike.","Jesse,Alex,John,Michael,Christopher,Travis","I usually dont like blurry pieces but the colors are amazing in this,14,80,20","Not a huge fan of the blocks, also very abstract, I have no idea what it is,8,100,20","Its okay,it doesnt make me feel any sort of strong emotion,1,120,20","There is some flow and organization.,10,140,20","boring, too many red and yellow tones for my taste,-15,160,20","Don't like it...too much red,-17,260,20","Jesse","I usually dont like blurry pieces but the colors are amazing in this,14,80,20","Michael","There is some flow and organization.,10,140,20","John","Its okay,it doesnt make me feel any sort of strong emotion,1,120,20","4"
"30121","","survey-text","139","1474288","0.0-137.0-0.0","A2KW87ZD2ELYNG","","","","{""Q0"":""Meh more random abstract garbage.""}","","","","","","","","","","","","","","","","","","","","","","",""
"2337.399999976158","","image-slider-response","140","1476627","0.0-138.0","A2KW87ZD2ELYNG","","","","","-50","","","","","","","","","","","","","","","","","","","","","",""
"3597","","image-button-response","141","1481630","0.0-139.0","A2KW87ZD2ELYNG","img_art/28.jpg","0","","","","","","","","","","","","","","","","","","","","","","","","",""
"615","","image-button-response","142","1482247","0.0-140.0","A2KW87ZD2ELYNG","img_art/28.jpg","3","","","","","","","","","","","","","","","","","","","","","","","","",""
"1163","","image-button-response","143","1483413","0.0-141.0-0.0","A2KW87ZD2ELYNG","img_art/28.jpg","0","","","","","","","","","","","","","","","","","","","","","","","","",""
"2963","","image-button-response","144","1486378","0.0-142.0-0.0","A2KW87ZD2ELYNG","img_art/28.jpg","1","","","","","","","","","","","","","","","","","","","","","","","","",""
"null","","html-keyboard-response","145","1487380","0.0-143.0","A2KW87ZD2ELYNG","<p style=""font-size: 48px;"">+</p>","","","","","null","allTrialResponses","1000","1","14","img_art/28.jpg","-50","Meh more random abstract garbage.","Jesse,Jonathan,John,Michael,Edward,Kevin","Just all blurs together for me. No substance.,-23,80,20","The lack of color variance leaves it looking ugly even if I like the brush strokes,-10,140,20","Not a fan of the bleak and dreary colors,-10,120,20","Incoherent ugly mess.,-50,140,20","Salvador Dali called and he thinks this looks pretty good,27,60,20","Looks like some guys in s band playing at a busy park.,18,320,20","Michael","Incoherent ugly mess.,-50,140,20","Jesse","Just all blurs together for me. No substance.,-23,80,20","Jonathan","The lack of color variance leaves it looking ugly even if I like the brush strokes,-10,140,20","4"
"29477","","survey-text","146","1516863","0.0-144.0-0.0","A2KW87ZD2ELYNG","","","","{""Q0"":""Somebody hit the off switch on the AI that made this please, yuck.""}","","","","","","","","","","","","","","","","","","","","","","",""
"2254.2000000476837","","image-slider-response","147","1519119","0.0-145.0","A2KW87ZD2ELYNG","","","","","-50","","","","","","","","","","","","","","","","","","","","","",""
"2093","","image-button-response","148","1524122","0.0-146.0","A2KW87ZD2ELYNG","img_art/12.jpg","0","","","","","","","","","","","","","","","","","","","","","","","","",""
"2179","","image-button-response","149","1526303","0.0-147.0","A2KW87ZD2ELYNG","img_art/12.jpg","0","","","","","","","","","","","","","","","","","","","","","","","","",""
"3363","","image-button-response","150","1529668","0.0-148.0-0.0","A2KW87ZD2ELYNG","img_art/12.jpg","2","","","","","","","","","","","","","","","","","","","","","","","","",""
"3467","","image-button-response","151","1533138","0.0-149.0-0.0","A2KW87ZD2ELYNG","img_art/12.jpg","3","","","","","","","","","","","","","","","","","","","","","","","","",""
"null","","html-keyboard-response","152","1534640","0.0-150.0","A2KW87ZD2ELYNG","<p style=""font-size: 48px;"">+</p>","","","","","null","allTrialResponses","1500","1","15","img_art/12.jpg","-50","Somebody hit the off switch on the AI that made this please, yuck.","Jesse,Jonathan,Jordan,Michael,Trevor,Garrett","Just confuses me overall,-11,80,20","I like all the squares and the colors but it feels too cluttered to me,20,140,20","Made me uncomfortable, reminded me of the 90s,-9,160,20","Not quite my style but there more of a pattern and it is interesting to look at.,15,140,20","way too 90s/80s for me,-9,280,20","This image doesn't have anything going on. The top half is really ugly, I kind of like the bottom a little.,-20,180,20","Jesse","Just confuses me overall,-11,80,20","Jordan","Made me uncomfortable, reminded me of the 90s,-9,160,20","Michael","Not quite my style but there more of a pattern and it is interesting to look at.,15,140,20","4"
"3734","","survey-text","153","1538384","0.0-151.0-0.0","A2KW87ZD2ELYNG","","","","{""Q0"":""course""}","","","","","","","","","","","","","","","","","","","","","","",""
"24395","","survey-text","154","1562781","0.0-152.0-0.0","A2KW87ZD2ELYNG","","","","{""Q0"":""A steaming cheese pen, how nice.""}","","","","","","","","","","","","","","","","","","","","","","",""
"2092.2999999523163","","image-slider-response","155","1564875","0.0-153.0","A2KW87ZD2ELYNG","","","","","-34","","","","","","","","","","","","","","","","","","","","","",""
"2281","","image-button-response","156","1569878","0.0-154.0","A2KW87ZD2ELYNG","img_art/5.jpg","0","","","","","","","","","","","","","","","","","","","","","","","","",""
"1533","","image-button-response","157","1571413","0.0-155.0","A2KW87ZD2ELYNG","img_art/5.jpg","1","","","","","","","","","","","","","","","","","","","","","","","","",""
"2197","","image-button-response","158","1573612","0.0-156.0-0.0","A2KW87ZD2ELYNG","img_art/5.jpg","3","","","","","","","","","","","","","","","","","","","","","","","","",""
"3580","","image-button-response","159","1577194","0.0-157.0-0.0","A2KW87ZD2ELYNG","img_art/5.jpg","4","","","","","","","","","","","","","","","","","","","","","","","","",""
"null","","html-keyboard-response","160","1577697","0.0-158.0","A2KW87ZD2ELYNG","<p style=""font-size: 48px;"">+</p>","","","","","null","allTrialResponses","500","1","16","img_art/5.jpg","-34","A steaming cheese pen, how nice.","Jesse,Jeremy,Jordan,Michael,Joseph,Timothy","I just dont get it. Means very little to me,-22,80,20","I don't hate it but I can't relate to it,1,60,20","Reminds me of a broken umbrella,-9,160,20","Complete garbage. Looks like a kid drew it.,-50,140,20","I like that the pyramid is putting off a beacon of light.,11,220,20","This feels joyful,39,240,20","Jeremy","I don't hate it but I can't relate to it,1,60,20","Michael","Complete garbage. Looks like a kid drew it.,-50,140,20","Joseph","I like that the pyramid is putting off a beacon of light.,11,220,20","4"
"24085","","survey-text","161","1601787","0.0-159.0-0.0","A2KW87ZD2ELYNG","","","","{""Q0"":""I bet there's a dinosaur in that tar pit!""}","","","","","","","","","","","","","","","","","","","","","","",""
"2327.1999999284744","","image-slider-response","162","1604116","0.0-160.0","A2KW87ZD2ELYNG","","","","","17","","","","","","","","","","","","","","","","","","","","","",""
"null","","image-button-response","163","1609118","0.0-161.0","A2KW87ZD2ELYNG","img_art/29.jpg","null","","","","","","","","","","","","","","","","","","","","","","","","",""
"2405","","image-button-response","164","1611525","0.0-162.0","A2KW87ZD2ELYNG","img_art/29.jpg","0","","","","","","","","","","","","","","","","","","","","","","","","",""
"5686","","image-button-response","165","1617214","0.0-163.0-0.0","A2KW87ZD2ELYNG","img_art/29.jpg","3","","","","","","","","","","","","","","","","","","","","","","","","",""
"1659","","image-button-response","166","1618875","0.0-164.0-0.0","A2KW87ZD2ELYNG","img_art/29.jpg","5","","","","","","","","","","","","","","","","","","","","","","","","",""
"null","","html-keyboard-response","167","1620378","0.0-165.0","A2KW87ZD2ELYNG","<p style=""font-size: 48px;"">+</p>","","","","","null","allTrialResponses","1500","1","17","img_art/29.jpg","17","I bet there's a dinosaur in that tar pit!","Jake,Jeremy,Jack,Michael,Joseph,Derek","This is very gross and odd looking.,-8,360,20","unhappy. Looking at this all the time would depress me.,-11,60,20","risks well taken. the brush is hilarious. feels like an artist's frustration, which is relatable.,50,320,20","Looks literally like garbage.,-45,140,20","It looks like graffiti in a subway tunnel- destruction.,-20,220,20","Very wild and I like it,20,360,20","Jake","This is very gross and odd looking.,-8,360,20","Michael","Looks literally like garbage.,-45,140,20","Derek","Very wild and I like it,20,360,20","4"
"21829","","survey-text","168","1642214","0.0-166.0-0.0","A2KW87ZD2ELYNG","","","","{""Q0"":""More random incomprehensible jibberish, blah""}","","","","","","","","","","","","","","","","","","","","","","",""
"2912.7000000476837","","image-slider-response","169","1645128","0.0-167.0","A2KW87ZD2ELYNG","","","","","-50","","","","","","","","","","","","","","","","","","","","","",""
"null","","image-button-response","170","1650131","0.0-168.0","A2KW87ZD2ELYNG","img_art/18.jpg","null","","","","","","","","","","","","","","","","","","","","","","","","",""
"1588","","image-button-response","171","1651721","0.0-169.0","A2KW87ZD2ELYNG","img_art/18.jpg","5","","","","","","","","","","","","","","","","","","","","","","","","",""
"2417","","image-button-response","172","1654139","0.0-170.0-0.0","A2KW87ZD2ELYNG","img_art/18.jpg","2","","","","","","","","","","","","","","","","","","","","","","","","",""
"1525","","image-button-response","173","1655667","0.0-171.0-0.0","A2KW87ZD2ELYNG","img_art/18.jpg","1","","","","","","","","","","","","","","","","","","","","","","","","",""
"null","","html-keyboard-response","174","1656668","0.0-172.0","A2KW87ZD2ELYNG","<p style=""font-size: 48px;"">+</p>","","","","","null","allTrialResponses","1000","1","18","img_art/18.jpg","-50","More random incomprehensible jibberish, blah","Jake,Luke,Tanner,Michael,Jesus,Derek","It looks grotesque and violent.,-50,360,20","the harsh lines with the smooth lines makes me think of wild animals,20,20,20","pegssus going into battle,25,180,20","Not my style but I can see some serious skill went int it.,21,140,20","The shapes are very fun to interpret,30,100,20","Very wild and abstract. I love it and would definitely hang this up in my home,50,360,20","Derek","Very wild and abstract. I love it and would definitely hang this up in my home,50,360,20","Tanner","pegssus going into battle,25,180,20","Luke","the harsh lines with the smooth lines makes me think of wild animals,20,20,20","4"
"18588","","survey-text","175","1675263","0.0-173.0-0.0","A2KW87ZD2ELYNG","","","","{""Q0"":""This one actually took some skill, I like it.""}","","","","","","","","","","","","","","","","","","","","","","",""
"2836.100000023842","","image-slider-response","176","1678101","0.0-174.0","A2KW87ZD2ELYNG","","","","","39","","","","","","","","","","","","","","","","","","","","","",""
"null","","image-button-response","177","1683103","0.0-175.0","A2KW87ZD2ELYNG","img_art/8.jpg","null","","","","","","","","","","","","","","","","","","","","","","","","",""
"4029","","image-button-response","178","1687134","0.0-176.0","A2KW87ZD2ELYNG","img_art/8.jpg","5","","","","","","","","","","","","","","","","","","","","","","","","",""
"3724","","image-button-response","179","1690859","0.0-177.0-0.0","A2KW87ZD2ELYNG","img_art/8.jpg","1","","","","","","","","","","","","","","","","","","","","","","","","",""
"2919","","image-button-response","180","1693781","0.0-178.0-0.0","A2KW87ZD2ELYNG","img_art/8.jpg","0","","","","","","","","","","","","","","","","","","","","","","","","",""
"null","","html-keyboard-response","181","1694783","0.0-179.0","A2KW87ZD2ELYNG","<p style=""font-size: 48px;"">+</p>","","","","","null","allTrialResponses","1000","1","19","img_art/8.jpg","39","This one actually took some skill, I like it.","William,Luke,Tanner,Malik,Tristan,Derek","makes me think of a busy city,-18,380,20","It is very colorful with a deeper meaning,25,20,20","mothe nature/godess, watching over you,21,180,20","Striking, but not my taste,20,40,20","The definition and the colors give make this painting accessible and thought provoking.,30,300,20","It's simply gorgeous. This artist is very talented,50,360,20","Derek","It's simply gorgeous. This artist is very talented,50,360,20","Luke","It is very colorful with a deeper meaning,25,20,20","William","makes me think of a busy city,-18,380,20","4"
"20839","","survey-text","182","1715627","0.0-180.0-0.0","A2KW87ZD2ELYNG","","","","{""Q0"":""A nature scene with not so well functioning gravity, nice!""}","","","","","","","","","","","","","","","","","","","","","","",""
"2984.399999976158","","image-slider-response","183","1718614","0.0-181.0","A2KW87ZD2ELYNG","","","","","32","","","","","","","","","","","","","","","","","","","","","",""
"4098","","image-button-response","184","1723616","0.0-182.0","A2KW87ZD2ELYNG","img_art/24.jpg","3","","","","","","","","","","","","","","","","","","","","","","","","",""
"1149","","image-button-response","185","1724767","0.0-183.0","A2KW87ZD2ELYNG","img_art/24.jpg","3","","","","","","","","","","","","","","","","","","","","","","","","",""
"3958","","image-button-response","186","1728727","0.0-184.0-0.0","A2KW87ZD2ELYNG","img_art/24.jpg","2","","","","","","","","","","","","","","","","","","","","","","","","",""
"2676","","image-button-response","187","1731405","0.0-185.0-0.0","A2KW87ZD2ELYNG","img_art/24.jpg","1","","","","","","","","","","","","","","","","","","","","","","","","",""
"null","","html-keyboard-response","188","1731908","0.0-186.0","A2KW87ZD2ELYNG","<p style=""font-size: 48px;"">+</p>","","","","","null","allTrialResponses","500","1","20","img_art/24.jpg","32","A nature scene with not so well functioning gravity, nice!","William,Luke,Mark,Nathan,Angel,Derek","very peaceful and serene,47,380,20","very colorful and intricate and makes me feel at peace,50,20,20","Waterfall, and I love the coloring.,48,80,20","Looks like a mystical type of forest/waterfall. Love it,40,200,20","This is clear and healthy. It makes me think of unspoiled nature.,20,180,20","I absolutely adore this painting. The colors, designs, everything. It's phenomenal,50,360,20","Nathan","Looks like a mystical type of forest/waterfall. Love it,40,200,20","Mark","Waterfall, and I love the coloring.,48,80,20","Luke","very colorful and intricate and makes me feel at peace,50,20,20","4"
"2347","","survey-text","189","1734265","0.0-187.0-0.0","A2KW87ZD2ELYNG","","","","{""Q0"":""we""}","","","","","","","","","","","","","","","","","","","","","","",""
"23914","","survey-text","190","1758181","0.0-188.0-0.0","A2KW87ZD2ELYNG","","","","{""Q0"":""Halloween necromancer party, love it""}","","","","","","","","","","","","","","","","","","","","","","",""
"1866.2000000476837","","image-slider-response","191","1760049","0.0-189.0","A2KW87ZD2ELYNG","","","","","50","","","","","","","","","","","","","","","","","","","","","",""
"3056","","image-button-response","192","1765051","0.0-190.0","A2KW87ZD2ELYNG","img_art/25.jpg","3","","","","","","","","","","","","","","","","","","","","","","","","",""
"713","","image-button-response","193","1765767","0.0-191.0","A2KW87ZD2ELYNG","img_art/25.jpg","3","","","","","","","","","","","","","","","","","","","","","","","","",""
"6893","","image-button-response","194","1772663","0.0-192.0-0.0","A2KW87ZD2ELYNG","img_art/25.jpg","5","","","","","","","","","","","","","","","","","","","","","","","","",""
"4784","","image-button-response","195","1777450","0.0-193.0-0.0","A2KW87ZD2ELYNG","img_art/25.jpg","0","","","","","","","","","","","","","","","","","","","","","","","","",""
"null","","html-keyboard-response","196","1778952","0.0-194.0","A2KW87ZD2ELYNG","<p style=""font-size: 48px;"">+</p>","","","","","null","allTrialResponses","1500","1","21","img_art/25.jpg","50","Halloween necromancer party, love it","Samuel,Luke,Mark,Nathan,Devin,Vincent","reminds me of burning man,18,400,20","the contrasting colors are very interesting,24,20,20","Looks like Burning Man, dont care for the colors.,-5,80,20","I like it, a bit cryptic and obscene, I enjoy that,30,200,20","It looks a bit strange to me, neck too long,-19,380,20","Iike this picture; it speaks to me on a personal level. But seems to scare the ones around me.,7,360,20","Nathan","I like it, a bit cryptic and obscene, I enjoy that,30,200,20","Vincent","Iike this picture; it speaks to me on a personal level. But seems to scare the ones around me.,7,360,20","Samuel","reminds me of burning man,18,400,20","4"
"25537","","survey-text","197","1804495","0.0-195.0-0.0","A2KW87ZD2ELYNG","","","","{""Q0"":""That's one crazy disco party.""}","","","","","","","","","","","","","","","","","","","","","","",""
"3071.2999999523163","","image-slider-response","198","1807568","0.0-196.0","A2KW87ZD2ELYNG","","","","","14","","","","","","","","","","","","","","","","","","","","","",""
"2085","","image-button-response","199","1812571","0.0-197.0","A2KW87ZD2ELYNG","img_art/23.jpg","4","","","","","","","","","","","","","","","","","","","","","","","","",""
"1472","","image-button-response","200","1814045","0.0-198.0","A2KW87ZD2ELYNG","img_art/23.jpg","4","","","","","","","","","","","","","","","","","","","","","","","","",""
"3898","","image-button-response","201","1817945","0.0-199.0-0.0","A2KW87ZD2ELYNG","img_art/23.jpg","3","","","","","","","","","","","","","","","","","","","","","","","","",""
"6721","","image-button-response","202","1824669","0.0-200.0-0.0","A2KW87ZD2ELYNG","img_art/23.jpg","1","","","","","","","","","","","","","","","","","","","","","","","","",""
"null","","html-keyboard-response","203","1826171","0.0-201.0","A2KW87ZD2ELYNG","<p style=""font-size: 48px;"">+</p>","","","","","null","allTrialResponses","1500","1","22","img_art/23.jpg","14","That's one crazy disco party.","Samuel,Robert,Kenneth,Nathan,Connor,Vincent","happiness in the universe,28,400,20","This makes me think of an orchestra playing a forth of july song,12,360,20","Love this. I love the white, really pops with the colors surrounding it.,44,300,20","While I don't normally enjoy these color schemes all together, I kind of like this one,10,200,20","Confetti dancer,-7,240,20","Very happy , busy , free, and full of Hope,28,360,20","Connor","Confetti dancer,-7,240,20","Nathan","While I don't normally enjoy these color schemes all together, I kind of like this one,10,200,20","Robert","This makes me think of an orchestra playing a forth of july song,12,360,20","4"
"28044","","survey-text","204","1854222","0.0-202.0-0.0","A2KW87ZD2ELYNG","","","","{""Q0"":""Meh too blended and smoothed together for my taste.""}","","","","","","","","","","","","","","","","","","","","","","",""
"2453.3000000715256","","image-slider-response","205","1856677","0.0-203.0","A2KW87ZD2ELYNG","","","","","-44","","","","","","","","","","","","","","","","","","","","","",""
"4072","","image-button-response","206","1861680","0.0-204.0","A2KW87ZD2ELYNG","img_art/1.jpg","3","","","","","","","","","","","","","","","","","","","","","","","","",""
"1169","","image-button-response","207","1862851","0.0-205.0","A2KW87ZD2ELYNG","img_art/1.jpg","3","","","","","","","","","","","","","","","","","","","","","","","","",""
"4448","","image-button-response","208","1867301","0.0-206.0-0.0","A2KW87ZD2ELYNG","img_art/1.jpg","5","","","","","","","","","","","","","","","","","","","","","","","","",""
"2996","","image-button-response","209","1870299","0.0-207.0-0.0","A2KW87ZD2ELYNG","img_art/1.jpg","0","","","","","","","","","","","","","","","","","","","","","","","","",""
"null","","html-keyboard-response","210","1871801","0.0-208.0","A2KW87ZD2ELYNG","<p style=""font-size: 48px;"">+</p>","","","","","null","allTrialResponses","1500","1","23","img_art/1.jpg","-44","Meh too blended and smoothed together for my taste.","Alejandro,Robert,Devon,Nathan,Connor,Sean","Interesting color scheme but to bled to me,11,80,20","Pretty colors. Fall day in the East Coast of USA.,42,360,20","I see happiness from different aspects of life,31,400,20","Not a fan of the mood, overly party-ish and bright colors do not suit my taste,-40,200,20","Love the coloration and abstract figures,18,240,20","my reaction is that the picture is that Ive seen it before,-14,40,20","Nathan","Not a fan of the mood, overly party-ish and bright colors do not suit my taste,-40,200,20","Sean","my reaction is that the picture is that Ive seen it before,-14,40,20","Alejandro","Interesting color scheme but to bled to me,11,80,20","4"
"20241","","survey-text","211","1892050","0.0-209.0-0.0","A2KW87ZD2ELYNG","","","","{""Q0"":""Reminds me of the Crystal Entity from ST:TNG!""}","","","","","","","","","","","","","","","","","","","","","","",""
"2181.7000000476837","","image-slider-response","212","1894226","0.0-210.0","A2KW87ZD2ELYNG","","","","","50","","","","","","","","","","","","","","","","","","","","","",""
"null","","image-button-response","213","1899229","0.0-211.0","A2KW87ZD2ELYNG","img_art/17.jpg","null","","","","","","","","","","","","","","","","","","","","","","","","",""
"1791","","image-button-response","214","1901022","0.0-212.0","A2KW87ZD2ELYNG","img_art/17.jpg","4","","","","","","","","","","","","","","","","","","","","","","","","",""
"2074","","image-button-response","215","1903098","0.0-213.0-0.0","A2KW87ZD2ELYNG","img_art/17.jpg","5","","","","","","","","","","","","","","","","","","","","","","","","",""
"1924","","image-button-response","216","1905025","0.0-214.0-0.0","A2KW87ZD2ELYNG","img_art/17.jpg","2","","","","","","","","","","","","","","","","","","","","","","","","",""
"null","","html-keyboard-response","217","1906027","0.0-215.0","A2KW87ZD2ELYNG","<p style=""font-size: 48px;"">+</p>","","","","","null","allTrialResponses","1000","1","24","img_art/17.jpg","50","Reminds me of the Crystal Entity from ST:TNG!","Alejandro,Austin,Alexander,Nathan,Dustin,Sean","Embodies beauty and complexity and in simplicity as well,50,80,20","Has a unique vibe to it,50,240,20","Tree of knowledge in a quiet school.,17,120,20","It's alright, nothing I particularly like but it's just fine,-10,200,20","Is it a tree/plant of some sort?  Or, I see hair?  I don't get it. But, the colors are pleasing to me.,1,20,20","my response to the picture is that it looks beautiful,27,40,20","Dustin","Is it a tree/plant of some sort?  Or, I see hair?  I don't get it. But, the colors are pleasing to me.,1,20,20","Sean","my response to the picture is that it looks beautiful,27,40,20","Alexander","Tree of knowledge in a quiet school.,17,120,20","4"
"18048","","survey-text","218","1924082","0.0-216.0-0.0","A2KW87ZD2ELYNG","","","","{""Q0"":""This one just confuses me.""}","","","","","","","","","","","","","","","","","","","","","","",""
"2527","","image-slider-response","219","1926611","0.0-217.0","A2KW87ZD2ELYNG","","","","","-38","","","","","","","","","","","","","","","","","","","","","",""
"null","","image-button-response","220","1931614","0.0-218.0","A2KW87ZD2ELYNG","img_art/11.jpg","null","","","","","","","","","","","","","","","","","","","","","","","","",""
"2203","","image-button-response","221","1933819","0.0-219.0","A2KW87ZD2ELYNG","img_art/11.jpg","1","","","","","","","","","","","","","","","","","","","","","","","","",""
"2742","","image-button-response","222","1936563","0.0-220.0-0.0","A2KW87ZD2ELYNG","img_art/11.jpg","0","","","","","","","","","","","","","","","","","","","","","","","","",""
"1792","","image-button-response","223","1938358","0.0-221.0-0.0","A2KW87ZD2ELYNG","img_art/11.jpg","0","","","","","","","","","","","","","","","","","","","","","","","","",""
"1468","","image-button-response","224","1942065","0.0-221.1-0.1","A2KW87ZD2ELYNG","img_art/11.jpg","4","","","","","","","","","","","","","","","","","","","","","","","","",""
"null","","html-keyboard-response","225","1943067","0.0-222.0","A2KW87ZD2ELYNG","<p style=""font-size: 48px;"">+</p>","","","","","null","allTrialResponses","1000","1","25","img_art/11.jpg","-38","This one just confuses me.","Paul,Corey,Alexander,Jeffrey,Dustin,Sean","I like how it reminds me of music and at the same time it looks like colorful train tracks.,10,300,20","dont like the colors. Its a gloomy day in london and this is the transit system,-26,260,20","Waves of signs.,15,120,20","a lot of dark colours,-8,40,20","Dark and dreary. Makes me think of rain/water. I see grey clouds and high waves. Looks unsettling.,-20,20,20","pic looks alright,8,40,20","Corey","dont like the colors. Its a gloomy day in london and this is the transit system,-26,260,20","Paul","I like how it reminds me of music and at the same time it looks like colorful train tracks.,10,300,20","Dustin","Dark and dreary. Makes me think of rain/water. I see grey clouds and high waves. Looks unsettling.,-20,20,20","6"
"3847","","survey-text","226","1946925","0.0-223.0-0.0","A2KW87ZD2ELYNG","","","","{""Q0"":""table""}","","","","","","","","","","","","","","","","","","","","","","",""
"29528","","survey-text","227","1976454","0.0-224.0-0.0","A2KW87ZD2ELYNG","","","","{""Q0"":""Look a chicken horse flying through the sky!""}","","","","","","","","","","","","","","","","","","","","","","",""
"2621","","image-slider-response","228","1979077","0.0-225.0","A2KW87ZD2ELYNG","","","","","19","","","","","","","","","","","","","","","","","","","","","",""
"3936","","image-button-response","229","1984080","0.0-226.0","A2KW87ZD2ELYNG","img_art/21.jpg","5","","","","","","","","","","","","","","","","","","","","","","","","",""
"481","","image-button-response","230","1984564","0.0-227.0","A2KW87ZD2ELYNG","img_art/21.jpg","5","","","","","","","","","","","","","","","","","","","","","","","","",""
"3500","","image-button-response","231","1988066","0.0-228.0-0.0","A2KW87ZD2ELYNG","img_art/21.jpg","1","","","","","","","","","","","","","","","","","","","","","","","","",""
"2199","","image-button-response","232","1990267","0.0-229.0-0.0","A2KW87ZD2ELYNG","img_art/21.jpg","2","","","","","","","","","","","","","","","","","","","","","","","","",""
"null","","html-keyboard-response","233","1991269","0.0-230.0","A2KW87ZD2ELYNG","<p style=""font-size: 48px;"">+</p>","","","","","null","allTrialResponses","1000","1","26","img_art/21.jpg","19","Look a chicken horse flying through the sky!","Paul,Corey,Brandon,Kyle,Dustin,Gregory","I like the dark blue in the lower right which reminds me of a storm but the orange is ugly,12,300,20","i like the colors and the blending,17,260,20","I love this. Reminds me of a coast. The colors flow beautifully,40,320,20","The blues make me feel sadder as my mood is already not the best right now,-10,340,20","Immediately a positive response! I like the muted colors. the blurriness calms me. It's serene,40,20,20","Contrast of fire and water looks cool,20,220,20","Gregory","Contrast of fire and water looks cool,20,220,20","Corey","i like the colors and the blending,17,260,20","Brandon","I love this. Reminds me of a coast. The colors flow beautifully,40,320,20","6"
"24580","","survey-text","234","2015860","0.0-231.0-0.0","A2KW87ZD2ELYNG","","","","{""Q0"":""Meh, boring.""}","","","","","","","","","","","","","","","","","","","","","","",""
"4399.799999952316","","image-slider-response","235","2020261","0.0-232.0","A2KW87ZD2ELYNG","","","","","-50","","","","","","","","","","","","","","","","","","","","","",""
"2309","","image-button-response","236","2025264","0.0-233.0","A2KW87ZD2ELYNG","img_art/30.jpg","1","","","","","","","","","","","","","","","","","","","","","","","","",""
"729","","image-button-response","237","2025995","0.0-234.0","A2KW87ZD2ELYNG","img_art/30.jpg","2","","","","","","","","","","","","","","","","","","","","","","","","",""
"570","","image-button-response","238","2026567","0.0-235.0-0.0","A2KW87ZD2ELYNG","img_art/30.jpg","1","","","","","","","","","","","","","","","","","","","","","","","","",""
"1740","","image-button-response","239","2028309","0.0-236.0-0.0","A2KW87ZD2ELYNG","img_art/30.jpg","0","","","","","","","","","","","","","","","","","","","","","","","","",""
"null","","html-keyboard-response","240","2029810","0.0-237.0","A2KW87ZD2ELYNG","<p style=""font-size: 48px;"">+</p>","","","","","null","allTrialResponses","1500","1","27","img_art/30.jpg","-50","Meh, boring.","Carlos,Corey,Brandon,Cody,Elijah,Gregory","It just feels hasty and not well composed. Has an angsty teen feel,-31,80,20","I dont like the colors whatsoever,-15,260,20","Too abstract, looks like something I could paint,-50,320,20","Like the design, not a big fan of the colors,20,180,20","Paint scribbled on canvas,-25,80,20","Cool design and contrast of colors,30,220,20","Brandon","Too abstract, looks like something I could paint,-50,320,20","Corey","I dont like the colors whatsoever,-15,260,20","Carlos","It just feels hasty and not well composed. Has an angsty teen feel,-31,80,20","6"
"23041","","survey-text","241","2052859","0.0-238.0-0.0","A2KW87ZD2ELYNG","","","","{""Q0"":""That crow is going to burn his feet landing on the sun! meh.""}","","","","","","","","","","","","","","","","","","","","","","",""
"1895.2999999523163","","image-slider-response","242","2054756","0.0-239.0","A2KW87ZD2ELYNG","","","","","-28","","","","","","","","","","","","","","","","","","","","","",""
"3725","","image-button-response","243","2059758","0.0-240.0","A2KW87ZD2ELYNG","img_art/6.jpg","1","","","","","","","","","","","","","","","","","","","","","","","","",""
"586","","image-button-response","244","2060346","0.0-241.0","A2KW87ZD2ELYNG","img_art/6.jpg","1","","","","","","","","","","","","","","","","","","","","","","","","",""
"4863","","image-button-response","245","2065210","0.0-242.0-0.0","A2KW87ZD2ELYNG","img_art/6.jpg","4","","","","","","","","","","","","","","","","","","","","","","","","",""
"2804","","image-button-response","246","2068017","0.0-243.0-0.0","A2KW87ZD2ELYNG","img_art/6.jpg","5","","","","","","","","","","","","","","","","","","","","","","","","",""
"null","","html-keyboard-response","247","2069518","0.0-244.0","A2KW87ZD2ELYNG","<p style=""font-size: 48px;"">+</p>","","","","","null","allTrialResponses","1500","1","28","img_art/6.jpg","-28","That crow is going to burn his feet landing on the sun! meh.","Carlos,Corey,Brandon,Ryan,Chase,Dalton","Clean and simple, a pleasant resting place for the eyes.,21,80,20","reminds me of a happy edgar allen poe poem,8,260,20","The feeling of isolation with so little objects. Great,20,320,20","Makes me feel lonely,-22,380,20","It's a bit bland, but looks like a bird standing.,11,120,20","it looks like a stick holding a wig on a cliff,21,300,20","Corey","reminds me of a happy edgar allen poe poem,8,260,20","Chase","It's a bit bland, but looks like a bird standing.,11,120,20","Dalton","it looks like a stick holding a wig on a cliff,21,300,20","6"
"14094","","survey-text","248","2083621","0.0-245.0-0.0","A2KW87ZD2ELYNG","","","","{""Q0"":""That's a lot of tadpoles!""}","","","","","","","","","","","","","","","","","","","","","","",""
"2458","","image-slider-response","249","2086081","0.0-246.0","A2KW87ZD2ELYNG","","","","","24","","","","","","","","","","","","","","","","","","","","","",""
"null","","image-button-response","250","2091084","0.0-247.0","A2KW87ZD2ELYNG","img_art/15.jpg","null","","","","","","","","","","","","","","","","","","","","","","","","",""
"1714","","image-button-response","251","2092800","0.0-248.0","A2KW87ZD2ELYNG","img_art/15.jpg","5","","","","","","","","","","","","","","","","","","","","","","","","",""
"2724","","image-button-response","252","2095526","0.0-249.0-0.0","A2KW87ZD2ELYNG","img_art/15.jpg","2","","","","","","","","","","","","","","","","","","","","","","","","",""
"1229","","image-button-response","253","2096758","0.0-250.0-0.0","A2KW87ZD2ELYNG","img_art/15.jpg","0","","","","","","","","","","","","","","","","","","","","","","","","",""
"null","","html-keyboard-response","254","2097260","0.0-251.0","A2KW87ZD2ELYNG","<p style=""font-size: 48px;"">+</p>","","","","","null","allTrialResponses","500","1","29","img_art/15.jpg","24","That's a lot of tadpoles!","Thomas,Corey,Alexis,Caleb,Chase,Dalton","Interesting, and I don't dislike it.,9,220,20","i like the pop of blue within all the black,8,260,20","it is dark and gloomy,-9,140,20","Love the accent colors in this piece!,20,40,20","I don't like how the black dots are aligned.,-20,120,20","black leaves makes the blue birds stand out.,1,300,20","Dalton","black leaves makes the blue birds stand out.,1,300,20","Alexis","it is dark and gloomy,-9,140,20","Thomas","Interesting, and I don't dislike it.,9,220,20","6"
"21677","","survey-text","255","2118945","0.0-252.0-0.0","A2KW87ZD2ELYNG","","","","{""Q0"":""Those fingernails are too long, yuck.""}","","","","","","","","","","","","","","","","","","","","","","",""
"2657.5","","image-slider-response","256","2121605","0.0-253.0","A2KW87ZD2ELYNG","","","","","-39","","","","","","","","","","","","","","","","","","","","","",""
"3010","","image-button-response","257","2126607","0.0-254.0","A2KW87ZD2ELYNG","img_art/4.jpg","0","","","","","","","","","","","","","","","","","","","","","","","","",""
"607","","image-button-response","258","2127216","0.0-255.0","A2KW87ZD2ELYNG","img_art/4.jpg","0","","","","","","","","","","","","","","","","","","","","","","","","",""
"3729","","image-button-response","259","2130948","0.0-256.0-0.0","A2KW87ZD2ELYNG","img_art/4.jpg","2","","","","","","","","","","","","","","","","","","","","","","","","",""
"3707","","image-button-response","260","2134658","0.0-257.0-0.0","A2KW87ZD2ELYNG","img_art/4.jpg","4","","","","","","","","","","","","","","","","","","","","","","","","",""
"null","","html-keyboard-response","261","2135160","0.0-258.0","A2KW87ZD2ELYNG","<p style=""font-size: 48px;"">+</p>","","","","","null","allTrialResponses","500","1","30","img_art/4.jpg","-39","Those fingernails are too long, yuck.","Thomas,Colton,Alexis,Eric,Adrian,Dalton","This image doesn't invoke anything in me,-9,220,20","I really don't like the colors,-26,220,20","The bold colors are exciting. It looks like a statue on someone's mantle.,18,140,20","This piece catches my eye, but it's strange to me.,10,100,20","Looks like feces smeared on the canvas. I hate it.,-50,60,20","looks like an award from an award show.,22,300,20","Thomas","This image doesn't invoke anything in me,-9,220,20","Alexis","The bold colors are exciting. It looks like a statue on someone's mantle.,18,140,20","Adrian","Looks like feces smeared on the canvas. I hate it.,-50,60,20","6"
"6700","","image-button-response_instructions","262","2141867","0.0-259.0","A2KW87ZD2ELYNG","","0","instructions","","","","","","","","","","","","","","","","","","","","","","","",""
"1962","","image-button-response","263","2143835","0.0-260.0","A2KW87ZD2ELYNG","","0","","","","","","","","","","","","","","","","","","","","","","","","",""
