"rt","url","trial_type","trial_index","time_elapsed","internal_node_id","participant_id","stimulus","button_pressed","Name","responses","response","key_press","variableName","fixationTime","condition","trial","photo","subjectRating","subjectResponse","agentsNames","agent_1_Response","agent_2_Response","agent_3_Response","agent_4_Response","agent_5_Response","agent_6_Response","kept_1_name","kept_1_response","kept_2_name","kept_2_response","kept_3_name","kept_3_response","errorCounter"
"13345","external_page_harvard.html","external-html","0","13637","0.0-0.0","A2L37GML92D0V6","","","","","","","","","","","","","","","","","","","","","","","","","","",""
"1757","","image-button-response","1","15396","0.0-1.0","A2L37GML92D0V6","","1","","","","","","","","","","","","","","","","","","","","","","","","",""
"1410","","image-button-response","2","16811","0.0-2.0-0.0","A2L37GML92D0V6","","1","phone","","","","","","","","","","","","","","","","","","","","","","","",""
"3926","","survey-text","3","20739","0.0-3.0-0.0","A2L37GML92D0V6","","","","{""Q0"":""A2L37GML92D0V6""}","","","","","","","","","","","","","","","","","","","","","","",""
"8086","","image-button-response_instructions","4","28828","0.0-4.0","A2L37GML92D0V6","","0","instructions","","","","","","","","","","","","","","","","","","","","","","","",""
"24295","","image-button-response_instructions","5","53124","0.0-5.0","A2L37GML92D0V6","img_art/ins/popularity/ins1.png","0","instructions","","","","","","","","","","","","","","","","","","","","","","","",""
"5510","","image-button-response_instructions","6","58635","0.0-6.0","A2L37GML92D0V6","img_art/ins/popularity/ins2.png","0","instructions","","","","","","","","","","","","","","","","","","","","","","","",""
"9991","","image-button-response_instructions","7","68627","0.0-7.0","A2L37GML92D0V6","img_art/ins/popularity/ins2Extreme.png","0","instructions","","","","","","","","","","","","","","","","","","","","","","","",""
"23183","","image-button-response_instructions","8","91811","0.0-8.0","A2L37GML92D0V6","img_art/ins/popularity/ins3KEEPpop.PNG","0","instructions","","","","","","","","","","","","","","","","","","","","","","","",""
"5807","","image-button-response_instructions","9","97619","0.0-9.0","A2L37GML92D0V6","img_art/ins/popularity/ins3ANamepop.PNG","0","instructions","","","","","","","","","","","","","","","","","","","","","","","",""
"6343","","image-button-response_instructions","10","103963","0.0-10.0","A2L37GML92D0V6","img_art/ins/popularity/ins3ARatingpop.png","0","instructions","","","","","","","","","","","","","","","","","","","","","","","",""
"8015","","image-button-response_instructions","11","111980","0.0-11.0","A2L37GML92D0V6","img_art/ins/popularity/ins3ATextpop.png","0","instructions","","","","","","","","","","","","","","","","","","","","","","","",""
"10063","","image-button-response_instructions","12","122043","0.0-12.0","A2L37GML92D0V6","img_art/ins/popularity/ins3ALikespop.png","0","instructions","","","","","","","","","","","","","","","","","","","","","","","",""
"28631","","image-button-response_instructions","13","150675","0.0-13.0","A2L37GML92D0V6","img_art/ins/popularity/ins3KEEPpop.PNG","0","instructions","","","","","","","","","","","","","","","","","","","","","","","",""
"17863","","image-button-response_instructions","14","168539","0.0-14.0","A2L37GML92D0V6","img_art/ins/popularity/ins3_5RED.png","0","instructions","","","","","","","","","","","","","","","","","","","","","","","",""
"14767","","image-button-response_instructions","15","183307","0.0-15.0","A2L37GML92D0V6","img_art/ins/popularity/ins3KEEPpop.PNG","0","instructions","","","","","","","","","","","","","","","","","","","","","","","",""
"21694","","image-button-response_instructions","16","205003","0.0-16.0","A2L37GML92D0V6","img_art/ins/popularity/ins4KEEPpop.PNG","0","instructions","","","","","","","","","","","","","","","","","","","","","","","",""
"10808","","image-button-response_instructions","17","215811","0.0-17.0","A2L37GML92D0V6","img_art/ins/popularity/ins5KEEPpop.PNG","0","instructions","","","","","","","","","","","","","","","","","","","","","","","",""
"3511","","image-button-response_instructions","18","219323","0.0-18.0","A2L37GML92D0V6","","0","instructions","","","","","","","","","","","","","","","","","","","","","","","",""
"109638","","survey-text","19","328987","0.0-19.0-0.0","A2L37GML92D0V6","","","","{""Q0"":""but""}","","","","","","","","","","","","","","","","","","","","","","",""
"64213","","survey-text","20","393203","0.0-20.0-0.0","A2L37GML92D0V6","","","","{""Q0"":""I love the depiction of movement simply created by different colors and paint strokes. Unique. ""}","","","","","","","","","","","","","","","","","","","","","","",""
"15141.5","","image-slider-response","21","408347","0.0-21.0","A2L37GML92D0V6","","","","","25","","","","","","","","","","","","","","","","","","","","","",""
"null","","image-button-response","22","413351","0.0-22.0","A2L37GML92D0V6","img_art/ins/1.jpg","null","","","","","","","","","","","","","","","","","","","","","","","","",""
"9354","","image-button-response","23","422708","0.0-23.0","A2L37GML92D0V6","img_art/ins/1.jpg","5","","","","","","","","","","","","","","","","","","","","","","","","",""
"7685","","image-button-response","24","430395","0.0-24.0-0.0","A2L37GML92D0V6","img_art/ins/1.jpg","2","","","","","","","","","","","","","","","","","","","","","","","","",""
"5661","","image-button-response","25","436059","0.0-25.0-0.0","A2L37GML92D0V6","img_art/ins/1.jpg","3","","","","","","","","","","","","","","","","","","","","","","","","",""
"null","","html-keyboard-response","26","436563","0.0-26.0","A2L37GML92D0V6","<p style=""font-size: 48px;"">+</p>","","","","","null","allTrialResponses","500","1","-2","img_art/ins/1.jpg","25","I love the depiction of movement simply created by different colors and paint strokes. Unique. ","Allison,Ashley,Beth,Dora,Erika,Jen","looks like a lot of things going on in the mist,20,20,20","I just don't get why these type of art would be popular,-32,40,20","This color reminds me of poo,-46,60,20","looks like what my niece in 3rd grade did this afternoon,-50,80,20","I like the sophisticated brushwork,40,100,20","It reminds me of a candy land dream I had,36,120,20","Jen","It reminds me of a candy land dream I had,36,120,20","Beth","This color reminds me of poo,-46,60,20","Dora","looks like what my niece in 3rd grade did this afternoon,-50,80,20","0"
"30300","","survey-text","27","466892","0.0-27.0-0.0","A2L37GML92D0V6","","","","{""Q0"":""Looks like nothing. I don't understand it.""}","","","","","","","","","","","","","","","","","","","","","","",""
"4020.7000000476837","","image-slider-response","28","470915","0.0-28.0","A2L37GML92D0V6","","","","","-38","","","","","","","","","","","","","","","","","","","","","",""
"null","","image-button-response","29","475919","0.0-29.0","A2L37GML92D0V6","img_art/ins/2.jpg","null","","","","","","","","","","","","","","","","","","","","","","","","",""
"4250","","image-button-response","30","480172","0.0-30.0","A2L37GML92D0V6","img_art/ins/2.jpg","0","","","","","","","","","","","","","","","","","","","","","","","","",""
"590","","image-button-response","31","480764","0.0-31.0-0.0","A2L37GML92D0V6","img_art/ins/2.jpg","1","","","","","","","","","","","","","","","","","","","","","","","","",""
"1246","","image-button-response","32","482011","0.0-32.0-0.0","A2L37GML92D0V6","img_art/ins/2.jpg","0","","","","","","","","","","","","","","","","","","","","","","","","",""
"1158","","image-button-response","33","490244","0.0-32.1-0.1","A2L37GML92D0V6","img_art/ins/2.jpg","0","","","","","","","","","","","","","","","","","","","","","","","","",""
"1807","","image-button-response","34","494876","0.0-32.2-0.2","A2L37GML92D0V6","img_art/ins/2.jpg","4","","","","","","","","","","","","","","","","","","","","","","","","",""
"null","","html-keyboard-response","35","495879","0.0-33.0","A2L37GML92D0V6","<p style=""font-size: 48px;"">+</p>","","","","","null","allTrialResponses","1000","1","-1","img_art/ins/2.jpg","-38","Looks like nothing. I don't understand it.","Katie,Jenna,Beth,Dora,Kara,Jen","too much color!,-28,180,20","One of my pet peevs,-48,140,20","meaningless painting,-45,60,20","looks too angry,-50,80,20","I like the blocks of color arrangements,30,160,20","It reminds me of a fireplace,36,120,20","Katie","too much color!,-28,180,20","Jenna","One of my pet peevs,-48,140,20","Kara","I like the blocks of color arrangements,30,160,20","4"
"39295","","survey-text","36","535178","0.0-34.0-0.0","A2L37GML92D0V6","","","","{""Q0"":""I love the brightness and the randomness of this art. Pure happiness.""}","","","","","","","","","","","","","","","","","","","","","","",""
"6198.400000095367","","image-slider-response","37","541378","0.0-35.0","A2L37GML92D0V6","","","","","50","","","","","","","","","","","","","","","","","","","","","",""
"2550","","image-button-response","38","546382","0.0-36.0","A2L37GML92D0V6","img_art/ins/3.jpg","4","","","","","","","","","","","","","","","","","","","","","","","","",""
"3545","","image-button-response","39","549931","0.0-37.0","A2L37GML92D0V6","img_art/ins/3.jpg","2","","","","","","","","","","","","","","","","","","","","","","","","",""
"10726","","image-button-response","40","560659","0.0-38.0-0.0","A2L37GML92D0V6","img_art/ins/3.jpg","0","","","","","","","","","","","","","","","","","","","","","","","","",""
"2966","","image-button-response","41","563627","0.0-39.0-0.0","A2L37GML92D0V6","img_art/ins/3.jpg","2","","","","","","","","","","","","","","","","","","","","","","","","",""
"3935","","image-button-response","42","574379","0.0-39.1-0.1","A2L37GML92D0V6","img_art/ins/3.jpg","3","","","","","","","","","","","","","","","","","","","","","","","","",""
"null","","html-keyboard-response","43","574883","0.0-40.0","A2L37GML92D0V6","<p style=""font-size: 48px;"">+</p>","","","","","null","allTrialResponses","500","1","0","img_art/ins/3.jpg","50","I love the brightness and the randomness of this art. Pure happiness.","Katie,Jenna,Mary,Leslie,Kara,Rose","It looks depressing,-26,180,20","looks like a murder room,-35,140,20","I like the overlapping of brushes,41,220,20","It's an alright work,15,200,20","calming blue is very nice,36,160,20","My daily routine, it's depressing,-20,240,20","Mary","I like the overlapping of brushes,41,220,20","Katie","It looks depressing,-26,180,20","Leslie","It's an alright work,15,200,20","6"
"14525","","image-button-response_instructions","44","589411","0.0-41.0","A2L37GML92D0V6","","0","instructions","","","","","","","","","","","","","","","","","","","","","","","",""
"13663","","survey-likert","45","603076","0.0-42.0-0.0","A2L37GML92D0V6","","","","{""Q0"":"""",""Q1"":0,""Q2"":1}","","","","","","","","","","","","","","","","","","","","","","",""
"8536","","survey-text","46","611619","0.0-43.0-0.0","A2L37GML92D0V6","","","","{""Q0"":""rock""}","","","","","","","","","","","","","","","","","","","","","","",""
"20670","","survey-text","47","632291","0.0-44.0-0.0","A2L37GML92D0V6","","","","{""Q0"":""Looks like a sketch awaiting for the actual work.""}","","","","","","","","","","","","","","","","","","","","","","",""
"9966.399999856949","","image-slider-response","48","642259","0.0-45.0","A2L37GML92D0V6","","","","","3","","","","","","","","","","","","","","","","","","","","","",""
"null","","image-button-response","49","647283","0.0-46.0","A2L37GML92D0V6","img_art/26.jpg","null","","","","","","","","","","","","","","","","","","","","","","","","",""
"4340","","image-button-response","50","651627","0.0-47.0","A2L37GML92D0V6","img_art/26.jpg","4","","","","","","","","","","","","","","","","","","","","","","","","",""
"6414","","image-button-response","51","658043","0.0-48.0-0.0","A2L37GML92D0V6","img_art/26.jpg","1","","","","","","","","","","","","","","","","","","","","","","","","",""
"9333","","image-button-response","52","667379","0.0-49.0-0.0","A2L37GML92D0V6","img_art/26.jpg","2","","","","","","","","","","","","","","","","","","","","","","","","",""
"null","","html-keyboard-response","53","668381","0.0-50.0","A2L37GML92D0V6","<p style=""font-size: 48px;"">+</p>","","","","","null","allTrialResponses","1000","1","1","img_art/26.jpg","3","Looks like a sketch awaiting for the actual work.","Paige,Kaitlyn,Sarah,Makayla,Chloe,Kylie","somewhat happy, like being outside on a nice day,30,60,20","The colors look faded and blurry,2,80,20","too hard to figure out if it's meant to be actual objects or impressions,-36,180,20","Reminds me of a European street, I desire to walk in this picture,28,80,20","Not great use of space and brush strokes seem indistinct/accidental,-30,220,20","Picturesque little town,45,300,20","Chloe","Not great use of space and brush strokes seem indistinct/accidental,-30,220,20","Kaitlyn","The colors look faded and blurry,2,80,20","Sarah","too hard to figure out if it's meant to be actual objects or impressions,-36,180,20","6"
"21371","","survey-text","54","689771","0.0-51.0-0.0","A2L37GML92D0V6","","","","{""Q0"":""I don't know what it is. Not a fan.""}","","","","","","","","","","","","","","","","","","","","","","",""
"4150.199999809265","","image-slider-response","55","693922","0.0-52.0","A2L37GML92D0V6","","","","","-50","","","","","","","","","","","","","","","","","","","","","",""
"null","","image-button-response","56","698927","0.0-53.0","A2L37GML92D0V6","img_art/14.jpg","null","","","","","","","","","","","","","","","","","","","","","","","","",""
"904","","image-button-response","57","699834","0.0-54.0","A2L37GML92D0V6","img_art/14.jpg","0","","","","","","","","","","","","","","","","","","","","","","","","",""
"1855","","image-button-response","58","701690","0.0-55.0-0.0","A2L37GML92D0V6","img_art/14.jpg","0","","","","","","","","","","","","","","","","","","","","","","","","",""
"2494","","image-button-response","59","706482","0.0-55.1-0.1","A2L37GML92D0V6","img_art/14.jpg","2","","","","","","","","","","","","","","","","","","","","","","","","",""
"4214","","image-button-response","60","710699","0.0-56.0-0.0","A2L37GML92D0V6","img_art/14.jpg","5","","","","","","","","","","","","","","","","","","","","","","","","",""
"null","","html-keyboard-response","61","711701","0.0-57.0","A2L37GML92D0V6","<p style=""font-size: 48px;"">+</p>","","","","","null","allTrialResponses","1000","1","2","img_art/14.jpg","-50","I don't know what it is. Not a fan.","Jamie,Kaitlyn,Sarah,Angelica,Chloe,Hannah","Not as cool as other tree looking paintings,-5,320,20","Focal point is interesting,5,80,20","this looks pretty childish,-15,180,20","This is poorly done and not aesthetically appealing.,-2,280,20","Like the brushstrokes but not the composition,9,220,20","This doesn't speak to me on an emotional level,-6,240,20","Jamie","Not as cool as other tree looking paintings,-5,320,20","Sarah","this looks pretty childish,-15,180,20","Hannah","This doesn't speak to me on an emotional level,-6,240,20","8"
"27307","","survey-text","62","739018","0.0-58.0-0.0","A2L37GML92D0V6","","","","{""Q0"":""Nice. I love the randomness of this piece. Great work.""}","","","","","","","","","","","","","","","","","","","","","","",""
"4022.2999999523163","","image-slider-response","63","743042","0.0-59.0","A2L37GML92D0V6","","","","","33","","","","","","","","","","","","","","","","","","","","","",""
"null","","image-button-response","64","748046","0.0-60.0","A2L37GML92D0V6","img_art/16.jpg","null","","","","","","","","","","","","","","","","","","","","","","","","",""
"5938","","image-button-response","65","753987","0.0-61.0","A2L37GML92D0V6","img_art/16.jpg","0","","","","","","","","","","","","","","","","","","","","","","","","",""
"2886","","image-button-response","66","756875","0.0-62.0-0.0","A2L37GML92D0V6","img_art/16.jpg","1","","","","","","","","","","","","","","","","","","","","","","","","",""
"997","","image-button-response","67","757875","0.0-63.0-0.0","A2L37GML92D0V6","img_art/16.jpg","2","","","","","","","","","","","","","","","","","","","","","","","","",""
"null","","html-keyboard-response","68","759379","0.0-64.0","A2L37GML92D0V6","<p style=""font-size: 48px;"">+</p>","","","","","null","allTrialResponses","1500","1","3","img_art/16.jpg","33","Nice. I love the randomness of this piece. Great work.","Jamie,Crystal,Sarah,Alyssa,Jacqueline,Hannah","Weird and funny,40,320,20","Garble and nonsense,-50,300,20","i don't like the collage aspect,-25,180,20","It creeps me out.,-50,160,20","Seems very twisted and dark.,-35,300,20","This is weird and a little creepy.,6,240,20","Jamie","Weird and funny,40,320,20","Crystal","Garble and nonsense,-50,300,20","Sarah","i don't like the collage aspect,-25,180,20","8"
"44152","","survey-text","69","803547","0.0-65.0-0.0","A2L37GML92D0V6","","","","{""Q0"":""Looks like a slum in African documentaries. Love it.""}","","","","","","","","","","","","","","","","","","","","","","",""
"2414.2999999523163","","image-slider-response","70","805963","0.0-66.0","A2L37GML92D0V6","","","","","50","","","","","","","","","","","","","","","","","","","","","",""
"null","","image-button-response","71","810966","0.0-67.0","A2L37GML92D0V6","img_art/11.jpg","null","","","","","","","","","","","","","","","","","","","","","","","","",""
"1090","","image-button-response","72","812059","0.0-68.0","A2L37GML92D0V6","img_art/11.jpg","0","","","","","","","","","","","","","","","","","","","","","","","","",""
"3246","","image-button-response","73","815307","0.0-69.0-0.0","A2L37GML92D0V6","img_art/11.jpg","1","","","","","","","","","","","","","","","","","","","","","","","","",""
"5102","","image-button-response","74","820411","0.0-70.0-0.0","A2L37GML92D0V6","img_art/11.jpg","4","","","","","","","","","","","","","","","","","","","","","","","","",""
"null","","html-keyboard-response","75","821914","0.0-71.0","A2L37GML92D0V6","<p style=""font-size: 48px;"">+</p>","","","","","null","allTrialResponses","1500","1","4","img_art/11.jpg","50","Looks like a slum in African documentaries. Love it.","Jamie,Crystal,Sarah,Megan,Alexis,Madison","Looks like a cityscape,25,320,20","Enjoyed the lines representing different paths that encompass different entities,20,300,20","i like the gray tones with black lines and bits of color,23,180,20","Some interesting color but scratchy train mess.,-14,200,20","Don't like cityscapes, which this picture reminds me of,-29,100,20","Rainy day at an urban sea port. Portugal?,30,60,20","Jamie","Looks like a cityscape,25,320,20","Crystal","Enjoyed the lines representing different paths that encompass different entities,20,300,20","Alexis","Don't like cityscapes, which this picture reminds me of,-29,100,20","8"
"20573","","survey-text","76","842491","0.0-72.0-0.0","A2L37GML92D0V6","","","","{""Q0"":""I love the brightness and the randomness of this art. ""}","","","","","","","","","","","","","","","","","","","","","","",""
"4598.300000190735","","image-slider-response","77","847091","0.0-73.0","A2L37GML92D0V6","","","","","33","","","","","","","","","","","","","","","","","","","","","",""
"2598","","image-button-response","78","852093","0.0-74.0","A2L37GML92D0V6","img_art/1.jpg","0","","","","","","","","","","","","","","","","","","","","","","","","",""
"1124","","image-button-response","79","853219","0.0-75.0","A2L37GML92D0V6","img_art/1.jpg","0","","","","","","","","","","","","","","","","","","","","","","","","",""
"10030","","image-button-response","80","863251","0.0-76.0-0.0","A2L37GML92D0V6","img_art/1.jpg","5","","","","","","","","","","","","","","","","","","","","","","","","",""
"8077","","image-button-response","81","871331","0.0-77.0-0.0","A2L37GML92D0V6","img_art/1.jpg","1","","","","","","","","","","","","","","","","","","","","","","","","",""
"null","","html-keyboard-response","82","872833","0.0-78.0","A2L37GML92D0V6","<p style=""font-size: 48px;"">+</p>","","","","","null","allTrialResponses","1500","1","5","img_art/1.jpg","33","I love the brightness and the randomness of this art. ","Jamie,Crystal,Savannah,Meghan,Alexis,Sydney","Looks like just a bunch of colors with no real point,-5,320,20","Interesting color scheme but to bled to me,11,300,20","Its simply okay.,3,200,20","good colors and contrast,31,220,20","Taco Bell wallpaper. Doesn't really make me feel anything,3,100,20","I like the way that the colors blend.,35,320,20","Jamie","Looks like just a bunch of colors with no real point,-5,320,20","Sydney","I like the way that the colors blend.,35,320,20","Crystal","Interesting color scheme but to bled to me,11,300,20","8"
"8208","","survey-text","83","881067","0.0-79.0-0.0","A2L37GML92D0V6","","","","{""Q0"":""sky""}","","","","","","","","","","","","","","","","","","","","","","",""
"39750","","survey-text","84","920819","0.0-80.0-0.0","A2L37GML92D0V6","","","","{""Q0"":""An accident captured vaguely, quite impressive""}","","","","","","","","","","","","","","","","","","","","","","",""
"3277.899999856949","","image-slider-response","85","924099","0.0-81.0","A2L37GML92D0V6","","","","","48","","","","","","","","","","","","","","","","","","","","","",""
"null","","image-button-response","86","929102","0.0-82.0","A2L37GML92D0V6","img_art/20.jpg","null","","","","","","","","","","","","","","","","","","","","","","","","",""
"8594","","image-button-response","87","937699","0.0-83.0","A2L37GML92D0V6","img_art/20.jpg","2","","","","","","","","","","","","","","","","","","","","","","","","",""
"6214","","image-button-response","88","943915","0.0-84.0-0.0","A2L37GML92D0V6","img_art/20.jpg","4","","","","","","","","","","","","","","","","","","","","","","","","",""
"1702","","image-button-response","89","945619","0.0-85.0-0.0","A2L37GML92D0V6","img_art/20.jpg","5","","","","","","","","","","","","","","","","","","","","","","","","",""
"null","","html-keyboard-response","90","947121","0.0-86.0","A2L37GML92D0V6","<p style=""font-size: 48px;"">+</p>","","","","","null","allTrialResponses","1500","1","6","img_art/20.jpg","48","An accident captured vaguely, quite impressive","Jamie,Crystal,Shannon,Tiffany,Margaret,Sydney","Looks like some type of future dystopian civilization,35,320,20","The pulling and sagging nature is very beautiful.,30,300,20","I really like this. There are lots of objects the artist wanted to show and the colors are good.,38,220,20","I feel powerful, like I am looking out a window at this machine, that I am in charge.,17,360,20","It seems to be a neutral cool toned art piece. Gives me alamo/desert vibes,2,100,20","I love the color choice.,25,320,20","Shannon","I really like this. There are lots of objects the artist wanted to show and the colors are good.,38,220,20","Margaret","It seems to be a neutral cool toned art piece. Gives me alamo/desert vibes,2,100,20","Sydney","I love the color choice.,25,320,20","8"
"47904","","survey-text","91","995042","0.0-87.0-0.0","A2L37GML92D0V6","","","","{""Q0"":""Whatever this is. Looks like my kid's drawing on the refrigerator. ""}","","","","","","","","","","","","","","","","","","","","","","",""
"3614.2999999523163","","image-slider-response","92","998658","0.0-88.0","A2L37GML92D0V6","","","","","50","","","","","","","","","","","","","","","","","","","","","",""
"null","","image-button-response","93","1003662","0.0-89.0","A2L37GML92D0V6","img_art/19.jpg","null","","","","","","","","","","","","","","","","","","","","","","","","",""
"19930","","image-button-response","94","1023595","0.0-90.0","A2L37GML92D0V6","img_art/19.jpg","2","","","","","","","","","","","","","","","","","","","","","","","","",""
"1670","","image-button-response","95","1025267","0.0-91.0-0.0","A2L37GML92D0V6","img_art/19.jpg","5","","","","","","","","","","","","","","","","","","","","","","","","",""
"8246","","image-button-response","96","1033515","0.0-92.0-0.0","A2L37GML92D0V6","img_art/19.jpg","1","","","","","","","","","","","","","","","","","","","","","","","","",""
"null","","html-keyboard-response","97","1034517","0.0-93.0","A2L37GML92D0V6","<p style=""font-size: 48px;"">+</p>","","","","","null","allTrialResponses","1000","1","7","img_art/19.jpg","50","Whatever this is. Looks like my kid's drawing on the refrigerator. ","Alexandria,Heather,Shannon,Catherine,Margaret,Sydney","it draws my eye and my mind fills in the spaces,14,80,20","love the images I can pick out of this art,1,260,20","This looks like a bunch of weird blobs and the colors don't go great together.,-10,220,20","Higher power looking down at its creation with a half smile and some hurt.,45,160,20","i think it is ugly and hate the colors,-35,100,20","I like the color and the mix of sketches along with paint.,30,320,20","Shannon","This looks like a bunch of weird blobs and the colors don't go great together.,-10,220,20","Sydney","I like the color and the mix of sketches along with paint.,30,320,20","Heather","love the images I can pick out of this art,1,260,20","8"
"32633","","survey-text","98","1067162","0.0-94.0-0.0","A2L37GML92D0V6","","","","{""Q0"":""Weird but okay. Looks fancy.""}","","","","","","","","","","","","","","","","","","","","","","",""
"3734.399999856949","","image-slider-response","99","1070899","0.0-95.0","A2L37GML92D0V6","","","","","50","","","","","","","","","","","","","","","","","","","","","",""
"null","","image-button-response","100","1075902","0.0-96.0","A2L37GML92D0V6","img_art/4.jpg","null","","","","","","","","","","","","","","","","","","","","","","","","",""
"994","","image-button-response","101","1076899","0.0-97.0","A2L37GML92D0V6","img_art/4.jpg","0","","","","","","","","","","","","","","","","","","","","","","","","",""
"5270","","image-button-response","102","1082171","0.0-98.0-0.0","A2L37GML92D0V6","img_art/4.jpg","1","","","","","","","","","","","","","","","","","","","","","","","","",""
"3678","","image-button-response","103","1085851","0.0-99.0-0.0","A2L37GML92D0V6","img_art/4.jpg","5","","","","","","","","","","","","","","","","","","","","","","","","",""
"null","","html-keyboard-response","104","1086853","0.0-100.0","A2L37GML92D0V6","<p style=""font-size: 48px;"">+</p>","","","","","null","allTrialResponses","1000","1","8","img_art/4.jpg","50","Weird but okay. Looks fancy.","Ashley,Heather,Shannon,Nicole,Courtney,Sydney","It looks like a hand.,25,320,20","looks like an award from an award show.,22,260,20","I think that this picture is too boring in terms of color and it looks ugly.,-41,220,20","Mcdonald's french fries :(,-40,20,20","A leaning trophy,-9,280,20","This piece catches my eye, but it's strange to me.,10,320,20","Ashley","It looks like a hand.,25,320,20","Heather","looks like an award from an award show.,22,260,20","Sydney","This piece catches my eye, but it's strange to me.,10,320,20","8"
"36266","","survey-text","105","1123130","0.0-101.0-0.0","A2L37GML92D0V6","","","","{""Q0"":""Wow. Great texture. This right here is great talent.""}","","","","","","","","","","","","","","","","","","","","","","",""
"13198","","image-slider-response","106","1136330","0.0-102.0","A2L37GML92D0V6","","","","","40","","","","","","","","","","","","","","","","","","","","","",""
"null","","image-button-response","107","1141334","0.0-103.0","A2L37GML92D0V6","img_art/7.jpg","null","","","","","","","","","","","","","","","","","","","","","","","","",""
"13962","","image-button-response","108","1155299","0.0-104.0","A2L37GML92D0V6","img_art/7.jpg","4","","","","","","","","","","","","","","","","","","","","","","","","",""
"3646","","image-button-response","109","1158947","0.0-105.0-0.0","A2L37GML92D0V6","img_art/7.jpg","3","","","","","","","","","","","","","","","","","","","","","","","","",""
"1694","","image-button-response","110","1160643","0.0-106.0-0.0","A2L37GML92D0V6","img_art/7.jpg","5","","","","","","","","","","","","","","","","","","","","","","","","",""
"null","","html-keyboard-response","111","1161145","0.0-107.0","A2L37GML92D0V6","<p style=""font-size: 48px;"">+</p>","","","","","null","allTrialResponses","500","1","9","img_art/7.jpg","40","Wow. Great texture. This right here is great talent.","Ashley,Heather,Natalie,Leah,Mariah,Sydney","landscape of amrs, yawn.,-25,320,20","i dont like it. it looks like rocks,-40,260,20","does not look good,-42,400,20","I love it, it looks like a landscape photograph in desert or rocky mountain,50,360,20","The dried bottom of a puddle in July.,-41,140,20","This piece is really simple but the colors and texture work well together.,20,320,20","Mariah","The dried bottom of a puddle in July.,-41,140,20","Leah","I love it, it looks like a landscape photograph in desert or rocky mountain,50,360,20","Sydney","This piece is really simple but the colors and texture work well together.,20,320,20","8"
"10318","","survey-text","112","1171474","0.0-108.0-0.0","A2L37GML92D0V6","","","","{""Q0"":""I love the brightness and the randomness of this art. Pure happiness.""}","","","","","","","","","","","","","","","","","","","","","","",""
"2926.100000143051","","image-slider-response","113","1174402","0.0-109.0","A2L37GML92D0V6","","","","","50","","","","","","","","","","","","","","","","","","","","","",""
"null","","image-button-response","114","1179405","0.0-110.0","A2L37GML92D0V6","img_art/22.jpg","null","","","","","","","","","","","","","","","","","","","","","","","","",""
"11880","","image-button-response","115","1191290","0.0-111.0","A2L37GML92D0V6","img_art/22.jpg","1","","","","","","","","","","","","","","","","","","","","","","","","",""
"5629","","image-button-response","116","1196922","0.0-112.0-0.0","A2L37GML92D0V6","img_art/22.jpg","3","","","","","","","","","","","","","","","","","","","","","","","","",""
"2229","","image-button-response","117","1199154","0.0-113.0-0.0","A2L37GML92D0V6","img_art/22.jpg","4","","","","","","","","","","","","","","","","","","","","","","","","",""
"null","","html-keyboard-response","118","1200656","0.0-114.0","A2L37GML92D0V6","<p style=""font-size: 48px;"">+</p>","","","","","null","allTrialResponses","1500","1","10","img_art/22.jpg","50","I love the brightness and the randomness of this art. Pure happiness.","Elizabeth,Katherine,Gabrielle,Leah,Mariah,Sydney","Great color palette,29,20,20","Cool squares but what's the circle?,38,120,20","another OK work, mostly because of the blend of colors,12,160,20","Pretty colors but too blocky for me,-19,360,20","The colors are pleasant, the shapes are inviting.,21,140,20","I don't normally like bright colors, but I like them in this. Don't like the random black paint.,30,320,20","Katherine","Cool squares but what's the circle?,38,120,20","Leah","Pretty colors but too blocky for me,-19,360,20","Mariah","The colors are pleasant, the shapes are inviting.,21,140,20","8"
"9773","","survey-text","119","1210450","0.0-115.0-0.0","A2L37GML92D0V6","","","","{""Q0"":""our""}","","","","","","","","","","","","","","","","","","","","","","",""
"28430","","survey-text","120","1238882","0.0-116.0-0.0","A2L37GML92D0V6","","","","{""Q0"":""Wow. I don't know what it is but its expensive.""}","","","","","","","","","","","","","","","","","","","","","","",""
"5406.400000095367","","image-slider-response","121","1244290","0.0-117.0","A2L37GML92D0V6","","","","","50","","","","","","","","","","","","","","","","","","","","","",""
"null","","image-button-response","122","1249294","0.0-118.0","A2L37GML92D0V6","img_art/10.jpg","null","","","","","","","","","","","","","","","","","","","","","","","","",""
"385","","image-button-response","123","1249682","0.0-119.0","A2L37GML92D0V6","img_art/10.jpg","0","","","","","","","","","","","","","","","","","","","","","","","","",""
"7942","","image-button-response","124","1257626","0.0-120.0-0.0","A2L37GML92D0V6","img_art/10.jpg","4","","","","","","","","","","","","","","","","","","","","","","","","",""
"6773","","image-button-response","125","1264402","0.0-121.0-0.0","A2L37GML92D0V6","img_art/10.jpg","2","","","","","","","","","","","","","","","","","","","","","","","","",""
"null","","html-keyboard-response","126","1265404","0.0-122.0","A2L37GML92D0V6","<p style=""font-size: 48px;"">+</p>","","","","","null","allTrialResponses","1000","1","11","img_art/10.jpg","50","Wow. I don't know what it is but its expensive.","Angela,Katherine,Amber,Leah,Mariah,Briana","This makes me think of a city, specifically London.,20,260,20","This is pretty rad. The outline looks like a music staff,15,120,20","This picture just seems depressing.,-26,200,20","Dark with no object, looks like experimentation, slightly like a storm on the ocean,-21,360,20","The colors and shapes are soothing but also disconcerting.,21,140,20","It confuses me. I dont know whats going on,14,400,20","Angela","This makes me think of a city, specifically London.,20,260,20","Mariah","The colors and shapes are soothing but also disconcerting.,21,140,20","Amber","This picture just seems depressing.,-26,200,20","8"
"34937","","survey-text","127","1300354","0.0-123.0-0.0","A2L37GML92D0V6","","","","{""Q0"":""A waterfall scenery in abstract form.""}","","","","","","","","","","","","","","","","","","","","","","",""
"9558.400000095367","","image-slider-response","128","1309914","0.0-124.0","A2L37GML92D0V6","","","","","30","","","","","","","","","","","","","","","","","","","","","",""
"null","","image-button-response","129","1314918","0.0-125.0","A2L37GML92D0V6","img_art/24.jpg","null","","","","","","","","","","","","","","","","","","","","","","","","",""
"2521","","image-button-response","130","1317442","0.0-126.0","A2L37GML92D0V6","img_art/24.jpg","3","","","","","","","","","","","","","","","","","","","","","","","","",""
"5902","","image-button-response","131","1323346","0.0-127.0-0.0","A2L37GML92D0V6","img_art/24.jpg","0","","","","","","","","","","","","","","","","","","","","","","","","",""
"6221","","image-button-response","132","1329570","0.0-128.0-0.0","A2L37GML92D0V6","img_art/24.jpg","1","","","","","","","","","","","","","","","","","","","","","","","","",""
"null","","html-keyboard-response","133","1330073","0.0-129.0","A2L37GML92D0V6","<p style=""font-size: 48px;"">+</p>","","","","","null","allTrialResponses","500","1","12","img_art/24.jpg","30","A waterfall scenery in abstract form.","Angela,Hailey,Amber,Jennifer,Mariah,Madeline","Love the colors in this work, and the sense of motion in the water,36,260,20","warm spring day after a rain. soft,20,200,20","peaceful and calm yet joyous.,50,200,20","This piece resembles a waterfall surrounded by trees.,21,380,20","It is like a really bad impressionist painting.,-40,140,20","colors are good but the style is iffy,12,40,20","Jennifer","This piece resembles a waterfall surrounded by trees.,21,380,20","Angela","Love the colors in this work, and the sense of motion in the water,36,260,20","Hailey","warm spring day after a rain. soft,20,200,20","8"
"65342","","survey-text","134","1395426","0.0-130.0-0.0","A2L37GML92D0V6","","","","{""Q0"":""Yeah. I luck words. I've seen a lot of weird art.""}","","","","","","","","","","","","","","","","","","","","","","",""
"5990.299999952316","","image-slider-response","135","1401418","0.0-131.0","A2L37GML92D0V6","","","","","50","","","","","","","","","","","","","","","","","","","","","",""
"null","","image-button-response","136","1406421","0.0-132.0","A2L37GML92D0V6","img_art/17.jpg","null","","","","","","","","","","","","","","","","","","","","","","","","",""
"6146","","image-button-response","137","1412570","0.0-133.0","A2L37GML92D0V6","img_art/17.jpg","5","","","","","","","","","","","","","","","","","","","","","","","","",""
"16478","","image-button-response","138","1429050","0.0-134.0-0.0","A2L37GML92D0V6","img_art/17.jpg","0","","","","","","","","","","","","","","","","","","","","","","","","",""
"3366","","image-button-response","139","1432418","0.0-135.0-0.0","A2L37GML92D0V6","img_art/17.jpg","1","","","","","","","","","","","","","","","","","","","","","","","","",""
"null","","html-keyboard-response","140","1433920","0.0-136.0","A2L37GML92D0V6","<p style=""font-size: 48px;"">+</p>","","","","","null","allTrialResponses","1500","1","13","img_art/17.jpg","50","Yeah. I luck words. I've seen a lot of weird art.","Angela,Hailey,Alicia,Jennifer,Katie,Vanessa","I like this, but it's a bit bland.,10,260,20","soft and warm light colors are relaxing,12,200,20","Like this one, super creative, calming.,43,120,20","Very elegant, this design reminds me of trees,31,380,20","Is it a tree/plant of some sort?  Or, I see hair?  I don't get it. But, the colors are pleasing to me.,1,160,20","I want to know more about this picture and where it leads if you could get inside it.,27,380,20","Vanessa","I want to know more about this picture and where it leads if you could get inside it.,27,380,20","Angela","I like this, but it's a bit bland.,10,260,20","Hailey","soft and warm light colors are relaxing,12,200,20","8"
"31365","","survey-text","141","1465298","0.0-137.0-0.0","A2L37GML92D0V6","","","","{""Q0"":""Nice work men. Or woman""}","","","","","","","","","","","","","","","","","","","","","","",""
"5438.299999952316","","image-slider-response","142","1470738","0.0-138.0","A2L37GML92D0V6","","","","","-40","","","","","","","","","","","","","","","","","","","","","",""
"null","","image-button-response","143","1475741","0.0-139.0","A2L37GML92D0V6","img_art/12.jpg","null","","","","","","","","","","","","","","","","","","","","","","","","",""
"1139","","image-button-response","144","1476883","0.0-140.0","A2L37GML92D0V6","img_art/12.jpg","0","","","","","","","","","","","","","","","","","","","","","","","","",""
"1966","","image-button-response","145","1478851","0.0-141.0-0.0","A2L37GML92D0V6","img_art/12.jpg","5","","","","","","","","","","","","","","","","","","","","","","","","",""
"1406","","image-button-response","146","1480258","0.0-142.0-0.0","A2L37GML92D0V6","img_art/12.jpg","2","","","","","","","","","","","","","","","","","","","","","","","","",""
"null","","html-keyboard-response","147","1481261","0.0-143.0","A2L37GML92D0V6","<p style=""font-size: 48px;"">+</p>","","","","","null","allTrialResponses","1000","1","14","img_art/12.jpg","-40","Nice work men. Or woman","Angela,Hailey,Sophia,Miranda,Kelly,Vanessa","I like the colors in the bottom half of the painting,10,260,20","negative feelings with these blocks,-20,200,20","Good technique. It's just not my thing.,2,280,20","This is like going to a really old mcdoanlds in a tiny town and it's never been renovated so it's breaking down,-31,320,20","It's pretty, I find it interesting to look at.,10,220,20","This is too abstract and the colors are too worn out.,-23,380,20","Angela","I like the colors in the bottom half of the painting,10,260,20","Vanessa","This is too abstract and the colors are too worn out.,-23,380,20","Sophia","Good technique. It's just not my thing.,2,280,20","8"
"28233","","survey-text","148","1509506","0.0-144.0-0.0","A2L37GML92D0V6","","","","{""Q0"":""Looks ancient and gothic. I love this.""}","","","","","","","","","","","","","","","","","","","","","","",""
"3878.199999809265","","image-slider-response","149","1513386","0.0-145.0","A2L37GML92D0V6","","","","","50","","","","","","","","","","","","","","","","","","","","","",""
"null","","image-button-response","150","1518390","0.0-146.0","A2L37GML92D0V6","img_art/25.jpg","null","","","","","","","","","","","","","","","","","","","","","","","","",""
"690","","image-button-response","151","1519083","0.0-147.0","A2L37GML92D0V6","img_art/25.jpg","2","","","","","","","","","","","","","","","","","","","","","","","","",""
"5182","","image-button-response","152","1524267","0.0-148.0-0.0","A2L37GML92D0V6","img_art/25.jpg","1","","","","","","","","","","","","","","","","","","","","","","","","",""
"1550","","image-button-response","153","1525819","0.0-149.0-0.0","A2L37GML92D0V6","img_art/25.jpg","4","","","","","","","","","","","","","","","","","","","","","","","","",""
"null","","html-keyboard-response","154","1527320","0.0-150.0","A2L37GML92D0V6","<p style=""font-size: 48px;"">+</p>","","","","","null","allTrialResponses","1500","1","15","img_art/25.jpg","50","Looks ancient and gothic. I love this.","Angela,Marissa,Sophia,Claire,Kelsey,Vanessa","Ugly green color and don't like it at all,-30,260,20","I really like the green and the fact that it is tattered on the edges,23,160,20","This one just has a dark feeling to me.,-50,280,20","the colors are pretty,11,260,20","quite unnerving,-15,240,20","I don't like the color. I don't like the abstract-ness of it.,-22,380,20","Sophia","This one just has a dark feeling to me.,-50,280,20","Marissa","I really like the green and the fact that it is tattered on the edges,23,160,20","Kelsey","quite unnerving,-15,240,20","8"
"8335","","survey-text","155","1535681","0.0-151.0-0.0","A2L37GML92D0V6","","","","{""Q0"":""course""}","","","","","","","","","","","","","","","","","","","","","","",""
"29470","","survey-text","156","1565153","0.0-152.0-0.0","A2L37GML92D0V6","","","","{""Q0"":""Looks fancy and expensive. I love fancy and expensive things. ""}","","","","","","","","","","","","","","","","","","","","","","",""
"4766.299999952316","","image-slider-response","157","1569921","0.0-153.0","A2L37GML92D0V6","","","","","24","","","","","","","","","","","","","","","","","","","","","",""
"null","","image-button-response","158","1574926","0.0-154.0","A2L37GML92D0V6","img_art/18.jpg","null","","","","","","","","","","","","","","","","","","","","","","","","",""
"7241","","image-button-response","159","1582170","0.0-155.0","A2L37GML92D0V6","img_art/18.jpg","0","","","","","","","","","","","","","","","","","","","","","","","","",""
"4494","","image-button-response","160","1586666","0.0-156.0-0.0","A2L37GML92D0V6","img_art/18.jpg","2","","","","","","","","","","","","","","","","","","","","","","","","",""
"1182","","image-button-response","161","1587850","0.0-157.0-0.0","A2L37GML92D0V6","img_art/18.jpg","3","","","","","","","","","","","","","","","","","","","","","","","","",""
"null","","html-keyboard-response","162","1589351","0.0-158.0","A2L37GML92D0V6","<p style=""font-size: 48px;"">+</p>","","","","","null","allTrialResponses","1500","1","16","img_art/18.jpg","24","Looks fancy and expensive. I love fancy and expensive things. ","Lauren,Marissa,Sophia,Grace,Kelsey,Mackenzie","I like how the image gives off an impression of bravery.,25,340,20","This brings to mind the four horsemen of the apocalypse,8,160,20","This one is very dark and apocalyptic indeed!,-30,280,20","First saw sailing ship in bad weather but then saw woman in upper left - not sure what I'm seeing.,21,180,20","its messy, it seems angry,-21,240,20","The shapes are very fun to interpret,30,20,20","Lauren","I like how the image gives off an impression of bravery.,25,340,20","Sophia","This one is very dark and apocalyptic indeed!,-30,280,20","Grace","First saw sailing ship in bad weather but then saw woman in upper left - not sure what I'm seeing.,21,180,20","8"
"34933","","survey-text","163","1624298","0.0-159.0-0.0","A2L37GML92D0V6","","","","{""Q0"":""Blue berries. I love it.""}","","","","","","","","","","","","","","","","","","","","","","",""
"5062.700000047684","","image-slider-response","164","1629362","0.0-160.0","A2L37GML92D0V6","","","","","5","","","","","","","","","","","","","","","","","","","","","",""
"2998","","image-button-response","165","1634365","0.0-161.0","A2L37GML92D0V6","img_art/15.jpg","1","","","","","","","","","","","","","","","","","","","","","","","","",""
"376","","image-button-response","166","1634746","0.0-162.0","A2L37GML92D0V6","img_art/15.jpg","5","","","","","","","","","","","","","","","","","","","","","","","","",""
"854","","image-button-response","167","1635602","0.0-163.0-0.0","A2L37GML92D0V6","img_art/15.jpg","1","","","","","","","","","","","","","","","","","","","","","","","","",""
"1038","","image-button-response","168","1636642","0.0-164.0-0.0","A2L37GML92D0V6","img_art/15.jpg","3","","","","","","","","","","","","","","","","","","","","","","","","",""
"null","","html-keyboard-response","169","1638144","0.0-165.0","A2L37GML92D0V6","<p style=""font-size: 48px;"">+</p>","","","","","null","allTrialResponses","1500","1","17","img_art/15.jpg","5","Blue berries. I love it.","Lauren,Morgan,Sophia,Grace,Rachel,Katelyn","Hard to tell what I'm looking at, but it does a gives a slight impression of a of garden.,5,340,20","Leafs spread on the ground.,27,380,20","I feel like there's ski jumping going on here.,2,280,20","Interesting. Reminds me of a biopsy slide.,21,180,20","Reminds me of blue birds in a tree at night. I love nature.,40,80,20","Doesnt trigger much of a reaction overall,-2,100,20","Katelyn","Doesnt trigger much of a reaction overall,-2,100,20","Morgan","Leafs spread on the ground.,27,380,20","Grace","Interesting. Reminds me of a biopsy slide.,21,180,20","8"
"21604","","survey-text","170","1659762","0.0-166.0-0.0","A2L37GML92D0V6","","","","{""Q0"":""Come on now, you can do better.""}","","","","","","","","","","","","","","","","","","","","","","",""
"4654.200000047684","","image-slider-response","171","1664418","0.0-167.0","A2L37GML92D0V6","","","","","-50","","","","","","","","","","","","","","","","","","","","","",""
"null","","image-button-response","172","1669421","0.0-168.0","A2L37GML92D0V6","img_art/6.jpg","null","","","","","","","","","","","","","","","","","","","","","","","","",""
"8395","","image-button-response","173","1677820","0.0-169.0","A2L37GML92D0V6","img_art/6.jpg","4","","","","","","","","","","","","","","","","","","","","","","","","",""
"1579","","image-button-response","174","1679402","0.0-170.0-0.0","A2L37GML92D0V6","img_art/6.jpg","2","","","","","","","","","","","","","","","","","","","","","","","","",""
"917","","image-button-response","175","1680322","0.0-171.0-0.0","A2L37GML92D0V6","img_art/6.jpg","3","","","","","","","","","","","","","","","","","","","","","","","","",""
"null","","html-keyboard-response","176","1681325","0.0-172.0","A2L37GML92D0V6","<p style=""font-size: 48px;"">+</p>","","","","","null","allTrialResponses","1000","1","18","img_art/6.jpg","-50","Come on now, you can do better.","Brooke,Morgan,Amy,Grace,Maria,Katelyn","Kind of neat, but then that's a weird looking bird. too weird.,0,60,20","Desert that's too simple.,-15,380,20","Lack of context makes this painting 1-d for me. The headless bird is mysterious and indecipherable.,-10,220,20","Growth in the desert?  Don't care for it very much.,-26,180,20","intrigues me - not sure what I'm seeing, but I like combination of colour and texture,21,120,20","Nothing grabs at me here,-11,100,20","Maria","intrigues me - not sure what I'm seeing, but I like combination of colour and texture,21,120,20","Amy","Lack of context makes this painting 1-d for me. The headless bird is mysterious and indecipherable.,-10,220,20","Grace","Growth in the desert?  Don't care for it very much.,-26,180,20","8"
"34041","","survey-text","177","1715378","0.0-173.0-0.0","A2L37GML92D0V6","","","","{""Q0"":""Looks like Harley Quinn. Great choice of colors dude.""}","","","","","","","","","","","","","","","","","","","","","","",""
"3134.9000000953674","","image-slider-response","178","1718514","0.0-174.0","A2L37GML92D0V6","","","","","50","","","","","","","","","","","","","","","","","","","","","",""
"null","","image-button-response","179","1723518","0.0-175.0","A2L37GML92D0V6","img_art/21.jpg","null","","","","","","","","","","","","","","","","","","","","","","","","",""
"641","","image-button-response","180","1724162","0.0-176.0","A2L37GML92D0V6","img_art/21.jpg","0","","","","","","","","","","","","","","","","","","","","","","","","",""
"1174","","image-button-response","181","1725338","0.0-177.0-0.0","A2L37GML92D0V6","img_art/21.jpg","5","","","","","","","","","","","","","","","","","","","","","","","","",""
"1295","","image-button-response","182","1726634","0.0-178.0-0.0","A2L37GML92D0V6","img_art/21.jpg","1","","","","","","","","","","","","","","","","","","","","","","","","",""
"null","","html-keyboard-response","183","1727636","0.0-179.0","A2L37GML92D0V6","<p style=""font-size: 48px;"">+</p>","","","","","null","allTrialResponses","1000","1","19","img_art/21.jpg","50","Looks like Harley Quinn. Great choice of colors dude.","Anna,Amanda,Amy,Grace,Maria,Cheyenne","I love the colors and the differences between the left and right sides.,22,300,20","Very calming and nice to look at,30,180,20","A landscape that leaves me inspired and hopeful.,20,220,20","Like the colors, the cloudy, airy effects. Nice.,46,180,20","brings up imagery of the sea and clashing, though not in a negative way,31,120,20","Don't see anything special about it,-21,200,20","Anna","I love the colors and the differences between the left and right sides.,22,300,20","Cheyenne","Don't see anything special about it,-21,200,20","Amanda","Very calming and nice to look at,30,180,20","8"
"15614","","survey-text","184","1743266","0.0-180.0-0.0","A2L37GML92D0V6","","","","{""Q0"":""Whatever this is.""}","","","","","","","","","","","","","","","","","","","","","","",""
"2494.2000000476837","","image-slider-response","185","1745762","0.0-181.0","A2L37GML92D0V6","","","","","-50","","","","","","","","","","","","","","","","","","","","","",""
"null","","image-button-response","186","1750765","0.0-182.0","A2L37GML92D0V6","img_art/27.jpg","null","","","","","","","","","","","","","","","","","","","","","","","","",""
"2769","","image-button-response","187","1753538","0.0-183.0","A2L37GML92D0V6","img_art/27.jpg","1","","","","","","","","","","","","","","","","","","","","","","","","",""
"1862","","image-button-response","188","1755402","0.0-184.0-0.0","A2L37GML92D0V6","img_art/27.jpg","4","","","","","","","","","","","","","","","","","","","","","","","","",""
"597","","image-button-response","189","1756002","0.0-185.0-0.0","A2L37GML92D0V6","img_art/27.jpg","5","","","","","","","","","","","","","","","","","","","","","","","","",""
"null","","html-keyboard-response","190","1757004","0.0-186.0","A2L37GML92D0V6","<p style=""font-size: 48px;"">+</p>","","","","","null","allTrialResponses","1000","1","20","img_art/27.jpg","-50","Whatever this is.","Anna,Amanda,Michelle,Dominique,Jasmine,Cheyenne","It looks like when my little sister took magic markers to the wall.,-11,300,20","I love the childish aspect to it,37,180,20","very abstract, I don't understand it, but I like the bright, cheerful colors,14,280,20","A beautiful day full of Hope and Inspiritation. The warmth of hot cocoa with the family gathering around,33,400,20","I have no strong reactions to this,-1,340,20","This one does nothing for me.,2,200,20","Amanda","I love the childish aspect to it,37,180,20","Jasmine","I have no strong reactions to this,-1,340,20","Cheyenne","This one does nothing for me.,2,200,20","8"
"4372","","survey-text","191","1761402","0.0-187.0-0.0","A2L37GML92D0V6","","","","{""Q0"":""we""}","","","","","","","","","","","","","","","","","","","","","","",""
"49078","","survey-text","192","1810481","0.0-188.0-0.0","A2L37GML92D0V6","","","","{""Q0"":""This is nice. You forgot your paint brush LOL.""}","","","","","","","","","","","","","","","","","","","","","","",""
"2886.2000000476837","","image-slider-response","193","1813369","0.0-189.0","A2L37GML92D0V6","","","","","50","","","","","","","","","","","","","","","","","","","","","",""
"null","","image-button-response","194","1818374","0.0-190.0","A2L37GML92D0V6","img_art/29.jpg","null","","","","","","","","","","","","","","","","","","","","","","","","",""
"425","","image-button-response","195","1818802","0.0-191.0","A2L37GML92D0V6","img_art/29.jpg","1","","","","","","","","","","","","","","","","","","","","","","","","",""
"910","","image-button-response","196","1819714","0.0-192.0-0.0","A2L37GML92D0V6","img_art/29.jpg","5","","","","","","","","","","","","","","","","","","","","","","","","",""
"726","","image-button-response","197","1820442","0.0-193.0-0.0","A2L37GML92D0V6","img_art/29.jpg","3","","","","","","","","","","","","","","","","","","","","","","","","",""
"null","","html-keyboard-response","198","1820944","0.0-194.0","A2L37GML92D0V6","<p style=""font-size: 48px;"">+</p>","","","","","null","allTrialResponses","500","1","21","img_art/29.jpg","50","This is nice. You forgot your paint brush LOL.","Autumn,Amanda,Sierra,Brianna,Jasmine,Cheyenne","It's too messy.,-25,340,20","Once again, very modern, activists will love,27,180,20","not digging the paintbrush,1,260,20","It has a red X on there, and x's mean bad in my perspective,-29,20,20","I like the usage of blacks and greys in this,8,340,20","Really enjoy everything about this one.,50,200,20","Amanda","Once again, very modern, activists will love,27,180,20","Cheyenne","Really enjoy everything about this one.,50,200,20","Brianna","It has a red X on there, and x's mean bad in my perspective,-29,20,20","8"
"35969","","survey-text","199","1856930","0.0-195.0-0.0","A2L37GML92D0V6","","","","{""Q0"":""Pure talent. Unique, colorful, abstract and tasteful.""}","","","","","","","","","","","","","","","","","","","","","","",""
"2622.699999809265","","image-slider-response","200","1859554","0.0-196.0","A2L37GML92D0V6","","","","","50","","","","","","","","","","","","","","","","","","","","","",""
"null","","image-button-response","201","1864557","0.0-197.0","A2L37GML92D0V6","img_art/23.jpg","null","","","","","","","","","","","","","","","","","","","","","","","","",""
"1825","","image-button-response","202","1866386","0.0-198.0","A2L37GML92D0V6","img_art/23.jpg","5","","","","","","","","","","","","","","","","","","","","","","","","",""
"1605","","image-button-response","203","1867994","0.0-199.0-0.0","A2L37GML92D0V6","img_art/23.jpg","2","","","","","","","","","","","","","","","","","","","","","","","","",""
"1014","","image-button-response","204","1869010","0.0-200.0-0.0","A2L37GML92D0V6","img_art/23.jpg","1","","","","","","","","","","","","","","","","","","","","","","","","",""
"null","","html-keyboard-response","205","1870512","0.0-201.0","A2L37GML92D0V6","<p style=""font-size: 48px;"">+</p>","","","","","null","allTrialResponses","1500","1","22","img_art/23.jpg","50","Pure talent. Unique, colorful, abstract and tasteful.","Brittany,Amanda,Allison,Brianna,Erica,Cheyenne","The white paint through the middle really draws the eye.,30,40,20","One of my favorites, love the colors and how the white looks like humans,50,180,20","I like the color contrast, though I'm unable to tell what the white shapes are.,25,140,20","I love the rainbow!,12,20,20","Very energetic, seems like it is pulling me in,24,80,20","Solid colors but the white throws it off for me.,4,200,20","Cheyenne","Solid colors but the white throws it off for me.,4,200,20","Allison","I like the color contrast, though I'm unable to tell what the white shapes are.,25,140,20","Amanda","One of my favorites, love the colors and how the white looks like humans,50,180,20","8"
"42043","","survey-text","206","1912570","0.0-202.0-0.0","A2L37GML92D0V6","","","","{""Q0"":""Yeah, crayons. I hate them too.""}","","","","","","","","","","","","","","","","","","","","","","",""
"2438.7000000476837","","image-slider-response","207","1915010","0.0-203.0","A2L37GML92D0V6","","","","","-50","","","","","","","","","","","","","","","","","","","","","",""
"null","","image-button-response","208","1920013","0.0-204.0","A2L37GML92D0V6","img_art/9.jpg","null","","","","","","","","","","","","","","","","","","","","","","","","",""
"546","","image-button-response","209","1920562","0.0-205.0","A2L37GML92D0V6","img_art/9.jpg","1","","","","","","","","","","","","","","","","","","","","","","","","",""
"1198","","image-button-response","210","1921762","0.0-206.0-0.0","A2L37GML92D0V6","img_art/9.jpg","5","","","","","","","","","","","","","","","","","","","","","","","","",""
"726","","image-button-response","211","1922490","0.0-207.0-0.0","A2L37GML92D0V6","img_art/9.jpg","3","","","","","","","","","","","","","","","","","","","","","","","","",""
"null","","html-keyboard-response","212","1923493","0.0-208.0","A2L37GML92D0V6","<p style=""font-size: 48px;"">+</p>","","","","","null","allTrialResponses","1000","1","23","img_art/9.jpg","-50","Yeah, crayons. I hate them too.","Kayla,Amanda,Allison,Emily,Cassidy,Cheyenne","It's nice. Peaceful. Calming.,11,180,20","Makes me feel angry, its not very clear,-50,180,20","Very eclectic and messy. Not my preference, but may work for some.,-20,140,20","Looks like a young child drew it.,-45,40,20","The colors are okay, but this looks like someone scribbled with a crayon,1,140,20","Too much going on, don't know what the focus is,-11,200,20","Amanda","Makes me feel angry, its not very clear,-50,180,20","Cheyenne","Too much going on, don't know what the focus is,-11,200,20","Emily","Looks like a young child drew it.,-45,40,20","8"
"8638","","survey-text","213","1932146","0.0-209.0-0.0","A2L37GML92D0V6","","","","{""Q0"":""Great work.""}","","","","","","","","","","","","","","","","","","","","","","",""
"3654.2000000476837","","image-slider-response","214","1935802","0.0-210.0","A2L37GML92D0V6","","","","","32","","","","","","","","","","","","","","","","","","","","","",""
"null","","image-button-response","215","1940805","0.0-211.0","A2L37GML92D0V6","img_art/28.jpg","null","","","","","","","","","","","","","","","","","","","","","","","","",""
"481","","image-button-response","216","1941290","0.0-212.0","A2L37GML92D0V6","img_art/28.jpg","1","","","","","","","","","","","","","","","","","","","","","","","","",""
"1150","","image-button-response","217","1942442","0.0-213.0-0.0","A2L37GML92D0V6","img_art/28.jpg","5","","","","","","","","","","","","","","","","","","","","","","","","",""
"1310","","image-button-response","218","1943754","0.0-214.0-0.0","A2L37GML92D0V6","img_art/28.jpg","3","","","","","","","","","","","","","","","","","","","","","","","","",""
"null","","html-keyboard-response","219","1945256","0.0-215.0","A2L37GML92D0V6","<p style=""font-size: 48px;"">+</p>","","","","","null","allTrialResponses","1500","1","24","img_art/28.jpg","32","Great work.","Michaela,Amanda,Jordan,Emily,Kaitlin,Cheyenne","Salvador Dali called and he thinks this looks pretty good,27,260,20","Colors look too muddy for my liking,-33,180,20","It's a bike that was left abandoned by someone who doesnt care for it,1,20,20","Incoherent ugly mess.,-50,40,20","i'm not too impressed with this one.,-10,60,20","Good use of shapes.,7,200,20","Amanda","Colors look too muddy for my liking,-33,180,20","Cheyenne","Good use of shapes.,7,200,20","Emily","Incoherent ugly mess.,-50,40,20","8"
"33035","","survey-text","220","1978305","0.0-216.0-0.0","A2L37GML92D0V6","","","","{""Q0"":""Wow. I love this. An ancient city with the \""watcher\"".""}","","","","","","","","","","","","","","","","","","","","","","",""
"4262.5","","image-slider-response","221","1982569","0.0-217.0","A2L37GML92D0V6","","","","","29","","","","","","","","","","","","","","","","","","","","","",""
"null","","image-button-response","222","1987573","0.0-218.0","A2L37GML92D0V6","img_art/8.jpg","null","","","","","","","","","","","","","","","","","","","","","","","","",""
"12674","","image-button-response","223","2000250","0.0-219.0","A2L37GML92D0V6","img_art/8.jpg","1","","","","","","","","","","","","","","","","","","","","","","","","",""
"1078","","image-button-response","224","2001330","0.0-220.0-0.0","A2L37GML92D0V6","img_art/8.jpg","3","","","","","","","","","","","","","","","","","","","","","","","","",""
"966","","image-button-response","225","2002298","0.0-221.0-0.0","A2L37GML92D0V6","img_art/8.jpg","5","","","","","","","","","","","","","","","","","","","","","","","","",""
"null","","html-keyboard-response","226","2003299","0.0-222.0","A2L37GML92D0V6","<p style=""font-size: 48px;"">+</p>","","","","","null","allTrialResponses","1000","1","25","img_art/8.jpg","29","Wow. I love this. An ancient city with the ""watcher"".","Stephanie,Amanda,Gabriela,Emily,Andrea,Cheyenne","I like the colors and geometrical shapes but the face in the sky makes it look scary,-10,300,20","I love architectural paintings,46,180,20","I like that it sort of looks like a cityscape,9,140,20","It is interesting to look at. Abstract but ordered.,9,40,20","The face makes me think its a statement of the almighty of big brother watching us. onfuCsion limits my enjoyment.,6,240,20","Has nice depth to it.,12,200,20","Amanda","I love architectural paintings,46,180,20","Emily","It is interesting to look at. Abstract but ordered.,9,40,20","Cheyenne","Has nice depth to it.,12,200,20","8"
"7456","","survey-text","227","2010785","0.0-223.0-0.0","A2L37GML92D0V6","","","","{""Q0"":""table""}","","","","","","","","","","","","","","","","","","","","","","",""
"26975","","survey-text","228","2037761","0.0-224.0-0.0","A2L37GML92D0V6","","","","{""Q0"":""At this point, I just lack words.""}","","","","","","","","","","","","","","","","","","","","","","",""
"3638.5","","image-slider-response","229","2041401","0.0-225.0","A2L37GML92D0V6","","","","","-50","","","","","","","","","","","","","","","","","","","","","",""
"null","","image-button-response","230","2046405","0.0-226.0","A2L37GML92D0V6","img_art/2.jpg","null","","","","","","","","","","","","","","","","","","","","","","","","",""
"554","","image-button-response","231","2046961","0.0-227.0","A2L37GML92D0V6","img_art/2.jpg","0","","","","","","","","","","","","","","","","","","","","","","","","",""
"1215","","image-button-response","232","2048177","0.0-228.0-0.0","A2L37GML92D0V6","img_art/2.jpg","4","","","","","","","","","","","","","","","","","","","","","","","","",""
"1174","","image-button-response","233","2049353","0.0-229.0-0.0","A2L37GML92D0V6","img_art/2.jpg","2","","","","","","","","","","","","","","","","","","","","","","","","",""
"null","","html-keyboard-response","234","2050856","0.0-230.0","A2L37GML92D0V6","<p style=""font-size: 48px;"">+</p>","","","","","null","allTrialResponses","1500","1","26","img_art/2.jpg","-50","At this point, I just lack words.","Christina,Amanda,Alexandra,Emily,Destiny,Cheyenne","It looks like a little kids primary color picture,3,240,20","Very simple and childish,40,180,20","This is ugly- too plain and busy at the same time,-9,60,20","Random colors and shapes mashed together. Nothing artistic, but better than some of the other ones.,-37,40,20","omg she's so cute look at that little smile those eyelashes ugh love it,30,360,20","Colors mix nicely.,5,200,20","Christina","It looks like a little kids primary color picture,3,240,20","Destiny","omg she's so cute look at that little smile those eyelashes ugh love it,30,360,20","Alexandra","This is ugly- too plain and busy at the same time,-9,60,20","8"
"41986","","survey-text","235","2092857","0.0-231.0-0.0","A2L37GML92D0V6","","","","{""Q0"":""I don't know why I like this one. Great work men. Or woman lol.""}","","","","","","","","","","","","","","","","","","","","","","",""
"3190.100000143051","","image-slider-response","236","2096049","0.0-232.0","A2L37GML92D0V6","","","","","50","","","","","","","","","","","","","","","","","","","","","",""
"null","","image-button-response","237","2101053","0.0-233.0","A2L37GML92D0V6","img_art/5.jpg","null","","","","","","","","","","","","","","","","","","","","","","","","",""
"417","","image-button-response","238","2101473","0.0-234.0","A2L37GML92D0V6","img_art/5.jpg","1","","","","","","","","","","","","","","","","","","","","","","","","",""
"1063","","image-button-response","239","2102537","0.0-235.0-0.0","A2L37GML92D0V6","img_art/5.jpg","4","","","","","","","","","","","","","","","","","","","","","","","","",""
"814","","image-button-response","240","2103353","0.0-236.0-0.0","A2L37GML92D0V6","img_art/5.jpg","5","","","","","","","","","","","","","","","","","","","","","","","","",""
"null","","html-keyboard-response","241","2104856","0.0-237.0","A2L37GML92D0V6","<p style=""font-size: 48px;"">+</p>","","","","","null","allTrialResponses","1500","1","27","img_art/5.jpg","50","I don't know why I like this one. Great work men. Or woman lol.","Christina,Mary,Alexandra,Kimberly,Destiny,Monica","looks like a little kids painting,-50,240,20","This piece has a good flow. I like the yellow with black combo.,11,180,20","This looks like a twelve year old did it,-40,60,20","It feels positive and kind of uplifting,24,260,20","Just doesn't do a whole lot for me. I see Cinderellas broom,-11,360,20","I like how simple it is and the pink brushstrokes are nice,27,360,20","Mary","This piece has a good flow. I like the yellow with black combo.,11,180,20","Destiny","Just doesn't do a whole lot for me. I see Cinderellas broom,-11,360,20","Monica","I like how simple it is and the pink brushstrokes are nice,27,360,20","8"
"63954","","survey-text","242","2168826","0.0-238.0-0.0","A2L37GML92D0V6","","","","{""Q0"":""My 5 year-old brother drew this too. I guess I could sell it too.""}","","","","","","","","","","","","","","","","","","","","","","",""
"5020.599999904633","","image-slider-response","243","2173849","0.0-239.0","A2L37GML92D0V6","","","","","-50","","","","","","","","","","","","","","","","","","","","","",""
"null","","image-button-response","244","2178853","0.0-240.0","A2L37GML92D0V6","img_art/30.jpg","null","","","","","","","","","","","","","","","","","","","","","","","","",""
"393","","image-button-response","245","2179249","0.0-241.0","A2L37GML92D0V6","img_art/30.jpg","0","","","","","","","","","","","","","","","","","","","","","","","","",""
"1206","","image-button-response","246","2180457","0.0-242.0-0.0","A2L37GML92D0V6","img_art/30.jpg","4","","","","","","","","","","","","","","","","","","","","","","","","",""
"1117","","image-button-response","247","2181577","0.0-243.0-0.0","A2L37GML92D0V6","img_art/30.jpg","2","","","","","","","","","","","","","","","","","","","","","","","","",""
"null","","html-keyboard-response","248","2183079","0.0-244.0","A2L37GML92D0V6","<p style=""font-size: 48px;"">+</p>","","","","","null","allTrialResponses","1500","1","28","img_art/30.jpg","-50","My 5 year-old brother drew this too. I guess I could sell it too.","Laura,Mary,Jessica,Alexa,Destiny,Monica","sloppy, unintentional,-20,320,20","I hate this piece. It looks like a child created it. The colors are awful.,-46,180,20","Looks cool , but no meaning,1,400,20","Looks quite basic but the colors are nice and there is a wildness about it that I love,0,40,20","literally stupid I made this with as seen on tv products when I was 7,-42,360,20","It looked like a random scribble but I can see a person's face in it now and I think it's clever,13,360,20","Laura","sloppy, unintentional,-20,320,20","Destiny","literally stupid I made this with as seen on tv products when I was 7,-42,360,20","Jessica","Looks cool , but no meaning,1,400,20","8"
"39598","","survey-text","249","2222697","0.0-245.0-0.0","A2L37GML92D0V6","","","","{""Q0"":""Looks like blood and manila. ""}","","","","","","","","","","","","","","","","","","","","","","",""
"3390.4000000953674","","image-slider-response","250","2226090","0.0-246.0","A2L37GML92D0V6","","","","","-50","","","","","","","","","","","","","","","","","","","","","",""
"null","","image-button-response","251","2231093","0.0-247.0","A2L37GML92D0V6","img_art/3.jpg","null","","","","","","","","","","","","","","","","","","","","","","","","",""
"873","","image-button-response","252","2231970","0.0-248.0","A2L37GML92D0V6","img_art/3.jpg","1","","","","","","","","","","","","","","","","","","","","","","","","",""
"1478","","image-button-response","253","2233450","0.0-249.0-0.0","A2L37GML92D0V6","img_art/3.jpg","5","","","","","","","","","","","","","","","","","","","","","","","","",""
"1238","","image-button-response","254","2234689","0.0-250.0-0.0","A2L37GML92D0V6","img_art/3.jpg","3","","","","","","","","","","","","","","","","","","","","","","","","",""
"null","","html-keyboard-response","255","2235691","0.0-251.0","A2L37GML92D0V6","<p style=""font-size: 48px;"">+</p>","","","","","null","allTrialResponses","1000","1","29","img_art/3.jpg","-50","Looks like blood and manila. ","Laura,Samantha,Jessica,Rebecca,Destiny,Abigail","wild scribbling, freedom, expression,40,320,20","Too angry and scribbly,-43,140,20","Don't get the scribbles.,-13,400,20","sorry do not understand,-26,100,20","im just getting more agitated and less appreciative of art. I have absolutely no scale to base on,-34,360,20","Reminded me of blood or something bad,-21,20,20","Samantha","Too angry and scribbly,-43,140,20","Abigail","Reminded me of blood or something bad,-21,20,20","Rebecca","sorry do not understand,-26,100,20","8"
"12916","","survey-text","256","2248625","0.0-252.0-0.0","A2L37GML92D0V6","","","","{""Q0"":""Great work. ""}","","","","","","","","","","","","","","","","","","","","","","",""
"3110.0999999046326","","image-slider-response","257","2251737","0.0-253.0","A2L37GML92D0V6","","","","","50","","","","","","","","","","","","","","","","","","","","","",""
"null","","image-button-response","258","2256740","0.0-254.0","A2L37GML92D0V6","img_art/13.jpg","null","","","","","","","","","","","","","","","","","","","","","","","","",""
"714","","image-button-response","259","2257458","0.0-255.0","A2L37GML92D0V6","img_art/13.jpg","3","","","","","","","","","","","","","","","","","","","","","","","","",""
"1428","","image-button-response","260","2258889","0.0-256.0-0.0","A2L37GML92D0V6","img_art/13.jpg","5","","","","","","","","","","","","","","","","","","","","","","","","",""
"1173","","image-button-response","261","2260065","0.0-257.0-0.0","A2L37GML92D0V6","img_art/13.jpg","1","","","","","","","","","","","","","","","","","","","","","","","","",""
"null","","html-keyboard-response","262","2261067","0.0-258.0","A2L37GML92D0V6","<p style=""font-size: 48px;"">+</p>","","","","","null","allTrialResponses","1000","1","30","img_art/13.jpg","50","Great work. ","Emma,Samantha,Julia,Rebecca,Leslie,Abigail","It's pretty ...........,41,60,20","Nice colors. beautiful blue,50,140,20","I don't really care for splatter paintings; the spectral colors underneath are nice.,-18,40,20","love the style but not very novel,9,100,20","This elicits no reaction in me.,0,380,20","This is easy to look at,46,20,20","Rebecca","love the style but not very novel,9,100,20","Abigail","This is easy to look at,46,20,20","Samantha","Nice colors. beautiful blue,50,140,20","8"
"5125","","image-button-response_instructions","263","2266209","0.0-259.0","A2L37GML92D0V6","","0","instructions","","","","","","","","","","","","","","","","","","","","","","","",""
"1442","","image-button-response","264","2267657","0.0-260.0","A2L37GML92D0V6","","0","","","","","","","","","","","","","","","","","","","","","","","","",""
