"rt","url","trial_type","trial_index","time_elapsed","internal_node_id","participant_id","stimulus","button_pressed","Name","responses","response","key_press","variableName","fixationTime","condition","trial","photo","subjectRating","subjectResponse","agentsNames","agent_1_Response","agent_2_Response","agent_3_Response","agent_4_Response","agent_5_Response","agent_6_Response","kept_1_name","kept_1_response","kept_2_name","kept_2_response","kept_3_name","kept_3_response","errorCounter"
"4131","external_page_harvard.html","external-html","0","4219","0.0-0.0","A2MCG5W6LHSRG9","","","","","","","","","","","","","","","","","","","","","","","","","","",""
"1222","","image-button-response","1","5442","0.0-1.0","A2MCG5W6LHSRG9","","0","","","","","","","","","","","","","","","","","","","","","","","","",""
"1573","","image-button-response","2","7018","0.0-2.0-0.0","A2MCG5W6LHSRG9","","1","phone","","","","","","","","","","","","","","","","","","","","","","","",""
"2175","","survey-text","3","9194","0.0-3.0-0.0","A2MCG5W6LHSRG9","","","","{""Q0"":""A2MCG5W6LHSRG9""}","","","","","","","","","","","","","","","","","","","","","","",""
"6536","","image-button-response_instructions","4","15730","0.0-4.0","A2MCG5W6LHSRG9","","0","instructions","","","","","","","","","","","","","","","","","","","","","","","",""
"7583","","image-button-response_instructions","5","23314","0.0-5.0","A2MCG5W6LHSRG9","img_art/ins/popularity/ins1.png","0","instructions","","","","","","","","","","","","","","","","","","","","","","","",""
"6759","","image-button-response_instructions","6","30074","0.0-6.0","A2MCG5W6LHSRG9","img_art/ins/popularity/ins2.png","0","instructions","","","","","","","","","","","","","","","","","","","","","","","",""
"3711","","image-button-response_instructions","7","33786","0.0-7.0","A2MCG5W6LHSRG9","img_art/ins/popularity/ins2Extreme.png","0","instructions","","","","","","","","","","","","","","","","","","","","","","","",""
"20470","","image-button-response_instructions","8","54258","0.0-8.0","A2MCG5W6LHSRG9","img_art/ins/popularity/ins3KEEPpop.PNG","0","instructions","","","","","","","","","","","","","","","","","","","","","","","",""
"7711","","image-button-response_instructions","9","61970","0.0-9.0","A2MCG5W6LHSRG9","img_art/ins/popularity/ins3ANamepop.PNG","0","instructions","","","","","","","","","","","","","","","","","","","","","","","",""
"5160","","image-button-response_instructions","10","67130","0.0-10.0","A2MCG5W6LHSRG9","img_art/ins/popularity/ins3ARatingpop.png","0","instructions","","","","","","","","","","","","","","","","","","","","","","","",""
"4959","","image-button-response_instructions","11","72090","0.0-11.0","A2MCG5W6LHSRG9","img_art/ins/popularity/ins3ATextpop.png","0","instructions","","","","","","","","","","","","","","","","","","","","","","","",""
"9183","","image-button-response_instructions","12","81274","0.0-12.0","A2MCG5W6LHSRG9","img_art/ins/popularity/ins3ALikespop.png","0","instructions","","","","","","","","","","","","","","","","","","","","","","","",""
"16552","","image-button-response_instructions","13","97826","0.0-13.0","A2MCG5W6LHSRG9","img_art/ins/popularity/ins3KEEPpop.PNG","0","instructions","","","","","","","","","","","","","","","","","","","","","","","",""
"14168","","image-button-response_instructions","14","111994","0.0-14.0","A2MCG5W6LHSRG9","img_art/ins/popularity/ins3_5RED.png","0","instructions","","","","","","","","","","","","","","","","","","","","","","","",""
"3918","","image-button-response_instructions","15","115914","0.0-15.0","A2MCG5W6LHSRG9","img_art/ins/popularity/ins3KEEPpop.PNG","0","instructions","","","","","","","","","","","","","","","","","","","","","","","",""
"9319","","image-button-response_instructions","16","125234","0.0-16.0","A2MCG5W6LHSRG9","img_art/ins/popularity/ins4KEEPpop.PNG","0","instructions","","","","","","","","","","","","","","","","","","","","","","","",""
"4095","","image-button-response_instructions","17","129330","0.0-17.0","A2MCG5W6LHSRG9","img_art/ins/popularity/ins5KEEPpop.PNG","0","instructions","","","","","","","","","","","","","","","","","","","","","","","",""
"1503","","image-button-response_instructions","18","130834","0.0-18.0","A2MCG5W6LHSRG9","","0","instructions","","","","","","","","","","","","","","","","","","","","","","","",""
"7793","","survey-text","19","138642","0.0-19.0-0.0","A2MCG5W6LHSRG9","","","","{""Q0"":""but""}","","","","","","","","","","","","","","","","","","","","","","",""
"7734","","survey-text","20","146378","0.0-20.0-0.0","A2MCG5W6LHSRG9","","","","{""Q0"":""ugly, looks like a mess""}","","","","","","","","","","","","","","","","","","","","","","",""
"2070.5999999046326","","image-slider-response","21","148450","0.0-21.0","A2MCG5W6LHSRG9","","","","","-36","","","","","","","","","","","","","","","","","","","","","",""
"null","","image-button-response","22","153452","0.0-22.0","A2MCG5W6LHSRG9","img_art/ins/1.jpg","null","","","","","","","","","","","","","","","","","","","","","","","","",""
"478","","image-button-response","23","153931","0.0-23.0","A2MCG5W6LHSRG9","img_art/ins/1.jpg","4","","","","","","","","","","","","","","","","","","","","","","","","",""
"3927","","image-button-response","24","157858","0.0-24.0-0.0","A2MCG5W6LHSRG9","img_art/ins/1.jpg","2","","","","","","","","","","","","","","","","","","","","","","","","",""
"3599","","image-button-response","25","161458","0.0-25.0-0.0","A2MCG5W6LHSRG9","img_art/ins/1.jpg","0","","","","","","","","","","","","","","","","","","","","","","","","",""
"null","","html-keyboard-response","26","162460","0.0-26.0","A2MCG5W6LHSRG9","<p style=""font-size: 48px;"">+</p>","","","","","null","allTrialResponses","1000","1","-2","img_art/ins/1.jpg","-36","ugly, looks like a mess","Adam,Alex,Ben,Carl,Daniel,Jack","Seems like doodles,-20,20,20","very creative work.,36,40,20","This color reminds me of poo,-46,60,20","very calming artwork,42,80,20","It looks like a murder scene.,-48,100,20","I like the sophisticated brushwork,40,120,20","Daniel","It looks like a murder scene.,-48,100,20","Ben","This color reminds me of poo,-46,60,20","Adam","Seems like doodles,-20,20,20","0"
"9980","","survey-text","27","172442","0.0-27.0-0.0","A2MCG5W6LHSRG9","","","","{""Q0"":""It has interesting colors""}","","","","","","","","","","","","","","","","","","","","","","",""
"3567","","image-slider-response","28","176010","0.0-28.0","A2MCG5W6LHSRG9","","","","","13","","","","","","","","","","","","","","","","","","","","","",""
"null","","image-button-response","29","181012","0.0-29.0","A2MCG5W6LHSRG9","img_art/ins/2.jpg","null","","","","","","","","","","","","","","","","","","","","","","","","",""
"4892","","image-button-response","30","185906","0.0-30.0","A2MCG5W6LHSRG9","img_art/ins/2.jpg","1","","","","","","","","","","","","","","","","","","","","","","","","",""
"7974","","image-button-response","31","193882","0.0-31.0-0.0","A2MCG5W6LHSRG9","img_art/ins/2.jpg","3","","","","","","","","","","","","","","","","","","","","","","","","",""
"5879","","image-button-response","32","199762","0.0-32.0-0.0","A2MCG5W6LHSRG9","img_art/ins/2.jpg","2","","","","","","","","","","","","","","","","","","","","","","","","",""
"null","","html-keyboard-response","33","200264","0.0-33.0","A2MCG5W6LHSRG9","<p style=""font-size: 48px;"">+</p>","","","","","null","allTrialResponses","500","1","-1","img_art/ins/2.jpg","13","It has interesting colors","Adam,John,Ben,James,Daniel,Kyle","too much color,-18,20,20","love the texture of paint,48,160,20","meaningless painting,-45,60,20","looks too angry,-50,140,20","One of my pet peevs,-48,100,20","Idk, it is just annoying,-32,180,20","John","love the texture of paint,48,160,20","James","looks too angry,-50,140,20","Ben","meaningless painting,-45,60,20","0"
"29191","","survey-text","34","229458","0.0-34.0-0.0","A2MCG5W6LHSRG9","","","","{""Q0"":""very refreshing and cool""}","","","","","","","","","","","","","","","","","","","","","","",""
"2151.2000000476837","","image-slider-response","35","231610","0.0-35.0","A2MCG5W6LHSRG9","","","","","13","","","","","","","","","","","","","","","","","","","","","",""
"4015","","image-button-response","36","236613","0.0-36.0","A2MCG5W6LHSRG9","img_art/ins/3.jpg","0","","","","","","","","","","","","","","","","","","","","","","","","",""
"4748","","image-button-response","37","241363","0.0-37.0","A2MCG5W6LHSRG9","img_art/ins/3.jpg","0","","","","","","","","","","","","","","","","","","","","","","","","",""
"599","","image-button-response","38","241963","0.0-38.0-0.0","A2MCG5W6LHSRG9","img_art/ins/3.jpg","1","","","","","","","","","","","","","","","","","","","","","","","","",""
"1543","","image-button-response","39","243507","0.0-39.0-0.0","A2MCG5W6LHSRG9","img_art/ins/3.jpg","5","","","","","","","","","","","","","","","","","","","","","","","","",""
"null","","html-keyboard-response","40","244009","0.0-40.0","A2MCG5W6LHSRG9","<p style=""font-size: 48px;"">+</p>","","","","","null","allTrialResponses","500","1","0","img_art/ins/3.jpg","13","very refreshing and cool","Mike,John,Ben,James,Ron,Sam","enjoy the different shades of blue,22,200,20","I like the overlapping of brushes,41,160,20","This thing gives me anxiety,-41,60,20","My worst nightmare,-42,140,20","It looks depressing,-26,220,20","I can feel a rainy day from this painting,18,240,20","Mike","enjoy the different shades of blue,22,200,20","John","I like the overlapping of brushes,41,160,20","Sam","I can feel a rainy day from this painting,18,240,20","0"
"6071","","image-button-response_instructions","41","250083","0.0-41.0","A2MCG5W6LHSRG9","","0","instructions","","","","","","","","","","","","","","","","","","","","","","","",""
"14351","","survey-likert","42","264435","0.0-42.0-0.0","A2MCG5W6LHSRG9","","","","{""Q0"":"""",""Q1"":0,""Q2"":1}","","","","","","","","","","","","","","","","","","","","","","",""
"4349","","survey-text","43","268786","0.0-43.0-0.0","A2MCG5W6LHSRG9","","","","{""Q0"":""rock""}","","","","","","","","","","","","","","","","","","","","","","",""
"10943","","survey-text","44","279730","0.0-44.0-0.0","A2MCG5W6LHSRG9","","","","{""Q0"":""a tiny bit to muddy and messy""}","","","","","","","","","","","","","","","","","","","","","","",""
"2262.699999809265","","image-slider-response","45","281994","0.0-45.0","A2MCG5W6LHSRG9","","","","","-17","","","","","","","","","","","","","","","","","","","","","",""
"null","","image-button-response","46","287009","0.0-46.0","A2MCG5W6LHSRG9","img_art/1.jpg","null","","","","","","","","","","","","","","","","","","","","","","","","",""
"3297","","image-button-response","47","290307","0.0-47.0","A2MCG5W6LHSRG9","img_art/1.jpg","3","","","","","","","","","","","","","","","","","","","","","","","","",""
"3350","","image-button-response","48","293659","0.0-48.0-0.0","A2MCG5W6LHSRG9","img_art/1.jpg","4","","","","","","","","","","","","","","","","","","","","","","","","",""
"15846","","image-button-response","49","309507","0.0-49.0-0.0","A2MCG5W6LHSRG9","img_art/1.jpg","5","","","","","","","","","","","","","","","","","","","","","","","","",""
"null","","html-keyboard-response","50","311009","0.0-50.0","A2MCG5W6LHSRG9","<p style=""font-size: 48px;"">+</p>","","","","","null","allTrialResponses","1500","1","1","img_art/1.jpg","-17","a tiny bit to muddy and messy","Angel,Isaiah,Luis,Brian,Antonio,Kenneth","For some reason this makes me want to go ice skating. It's whimsical and free but also very smooth.,20,180,20","I feel relaxed, like I'm watching the leaves change color.,17,300,20","I love the calming comfort and safe feeling of this,50,400,20","I don't feel like much is happening in this painting,-25,380,20","Felt nothing in response to this painting,3,220,20","I love colorful photos and I like this one a lot.,25,300,20","Brian","I don't feel like much is happening in this painting,-25,380,20","Antonio","Felt nothing in response to this painting,3,220,20","Kenneth","I love colorful photos and I like this one a lot.,25,300,20","0"
"11778","","survey-text","51","322794","0.0-51.0-0.0","A2MCG5W6LHSRG9","","","","{""Q0"":""did a toddler paint this""}","","","","","","","","","","","","","","","","","","","","","","",""
"1927","","image-slider-response","52","324723","0.0-52.0","A2MCG5W6LHSRG9","","","","","-25","","","","","","","","","","","","","","","","","","","","","",""
"2726","","image-button-response","53","329725","0.0-53.0","A2MCG5W6LHSRG9","img_art/30.jpg","1","","","","","","","","","","","","","","","","","","","","","","","","",""
"3868","","image-button-response","54","333595","0.0-54.0","A2MCG5W6LHSRG9","img_art/30.jpg","3","","","","","","","","","","","","","","","","","","","","","","","","",""
"1062","","image-button-response","55","334659","0.0-55.0-0.0","A2MCG5W6LHSRG9","img_art/30.jpg","1","","","","","","","","","","","","","","","","","","","","","","","","",""
"6135","","image-button-response","56","340795","0.0-56.0-0.0","A2MCG5W6LHSRG9","img_art/30.jpg","5","","","","","","","","","","","","","","","","","","","","","","","","",""
"null","","html-keyboard-response","57","342297","0.0-57.0","A2MCG5W6LHSRG9","<p style=""font-size: 48px;"">+</p>","","","","","null","allTrialResponses","1500","1","2","img_art/30.jpg","-25","did a toddler paint this","Alexis,Corey,Zachary,Brian,Antonio,Kenneth","I like the strong lines or brush strokes. It looks modern and bold,21,140,20","I dont like the colors whatsoever,-15,260,20","I like this one because I am a mom and it reminds me of a child finger-painting.,20,400,20","this is probably part of a neat series, but the abstraction doesn't speak to me,-17,380,20","Fear. It looks like snakes in the picture,13,220,20","The red helps it to pop.,13,300,20","Brian","this is probably part of a neat series, but the abstraction doesn't speak to me,-17,380,20","Corey","I dont like the colors whatsoever,-15,260,20","Kenneth","The red helps it to pop.,13,300,20","0"
"10432","","survey-text","58","352730","0.0-58.0-0.0","A2MCG5W6LHSRG9","","","","{""Q0"":""reminds me of a cactus""}","","","","","","","","","","","","","","","","","","","","","","",""
"2175","","image-slider-response","59","354906","0.0-59.0","A2MCG5W6LHSRG9","","","","","6","","","","","","","","","","","","","","","","","","","","","",""
"null","","image-button-response","60","359908","0.0-60.0","A2MCG5W6LHSRG9","img_art/4.jpg","null","","","","","","","","","","","","","","","","","","","","","","","","",""
"2645","","image-button-response","61","362555","0.0-61.0","A2MCG5W6LHSRG9","img_art/4.jpg","4","","","","","","","","","","","","","","","","","","","","","","","","",""
"1310","","image-button-response","62","363867","0.0-62.0-0.0","A2MCG5W6LHSRG9","img_art/4.jpg","0","","","","","","","","","","","","","","","","","","","","","","","","",""
"2367","","image-button-response","63","366235","0.0-63.0-0.0","A2MCG5W6LHSRG9","img_art/4.jpg","0","","","","","","","","","","","","","","","","","","","","","","","","",""
"2711","","image-button-response","64","374147","0.0-63.1-0.1","A2MCG5W6LHSRG9","img_art/4.jpg","1","","","","","","","","","","","","","","","","","","","","","","","","",""
"null","","html-keyboard-response","65","375149","0.0-64.0","A2MCG5W6LHSRG9","<p style=""font-size: 48px;"">+</p>","","","","","null","allTrialResponses","1000","1","3","img_art/4.jpg","6","reminds me of a cactus","Joseph,Corey,Patrick,Brian,Charles,Kenneth","It's okay, I guess. Nothing much either way.,5,220,20","doesn't do anything for me,-4,260,20","Random swirls again,-30,280,20","it reminds me of McDonalds, and not in a good way.,-34,380,20","It's ok, theres nothing that draws me away from it I guess,0,100,20","The longer I stare at this the less I like it.,-19,300,20","Charles","It's ok, theres nothing that draws me away from it I guess,0,100,20","Joseph","It's okay, I guess. Nothing much either way.,5,220,20","Corey","doesn't do anything for me,-4,260,20","2"
"20875","","survey-text","66","396026","0.0-65.0-0.0","A2MCG5W6LHSRG9","","","","{""Q0"":""So bad how anyone would think this is good""}","","","","","","","","","","","","","","","","","","","","","","",""
"1774.7999999523163","","image-slider-response","67","397802","0.0-66.0","A2MCG5W6LHSRG9","","","","","-33","","","","","","","","","","","","","","","","","","","","","",""
"null","","image-button-response","68","402805","0.0-67.0","A2MCG5W6LHSRG9","img_art/29.jpg","null","","","","","","","","","","","","","","","","","","","","","","","","",""
"1931","","image-button-response","69","404739","0.0-68.0","A2MCG5W6LHSRG9","img_art/29.jpg","2","","","","","","","","","","","","","","","","","","","","","","","","",""
"1839","","image-button-response","70","406579","0.0-69.0-0.0","A2MCG5W6LHSRG9","img_art/29.jpg","1","","","","","","","","","","","","","","","","","","","","","","","","",""
"8584","","image-button-response","71","415164","0.0-70.0-0.0","A2MCG5W6LHSRG9","img_art/29.jpg","5","","","","","","","","","","","","","","","","","","","","","","","","",""
"null","","html-keyboard-response","72","415665","0.0-71.0","A2MCG5W6LHSRG9","<p style=""font-size: 48px;"">+</p>","","","","","null","allTrialResponses","500","1","4","img_art/29.jpg","-33","So bad how anyone would think this is good","Joseph,Corey,Adrian,Anthony,Charles,Marcus","It looks like graffiti in a subway tunnel- destruction.,-20,220,20","this does nothing for me. hate the colors. hate the design,-50,260,20","Again, ugly colors and I'm not a fan of abstract. This looks like the view into a garbage dump.,-50,60,20","Very interesting composition,41,200,20","I like the usage of a physical object,33,100,20","I would like this piece better without the red X across it,-10,60,20","Adrian","Again, ugly colors and I'm not a fan of abstract. This looks like the view into a garbage dump.,-50,60,20","Corey","this does nothing for me. hate the colors. hate the design,-50,260,20","Marcus","I would like this piece better without the red X across it,-10,60,20","2"
"14432","","survey-text","73","430099","0.0-72.0-0.0","A2MCG5W6LHSRG9","","","","{""Q0"":""reminds me of a naval battle""}","","","","","","","","","","","","","","","","","","","","","","",""
"2031.0999999046326","","image-slider-response","74","432131","0.0-73.0","A2MCG5W6LHSRG9","","","","","42","","","","","","","","","","","","","","","","","","","","","",""
"null","","image-button-response","75","437134","0.0-74.0","A2MCG5W6LHSRG9","img_art/21.jpg","null","","","","","","","","","","","","","","","","","","","","","","","","",""
"1780","","image-button-response","76","438915","0.0-75.0","A2MCG5W6LHSRG9","img_art/21.jpg","3","","","","","","","","","","","","","","","","","","","","","","","","",""
"3999","","image-button-response","77","442915","0.0-76.0-0.0","A2MCG5W6LHSRG9","img_art/21.jpg","0","","","","","","","","","","","","","","","","","","","","","","","","",""
"9783","","image-button-response","78","452700","0.0-77.0-0.0","A2MCG5W6LHSRG9","img_art/21.jpg","5","","","","","","","","","","","","","","","","","","","","","","","","",""
"null","","html-keyboard-response","79","453700","0.0-78.0","A2MCG5W6LHSRG9","<p style=""font-size: 48px;"">+</p>","","","","","null","allTrialResponses","1000","1","5","img_art/21.jpg","42","reminds me of a naval battle","Cody,Corey,Adrian,Benjamin,Jordan,Marcus","Pretty, good colors,30,180,20","i like the colors and the blending,17,260,20","I like this piece more the more I look at. Still wouldn't want it in my home, though.,8,60,20","sunset after the rain,49,260,20","Beautiful colors, remind me of my yoga studio,50,160,20","I feel like I'm looking at two different paintings mashed together in the middle.,20,60,20","Benjamin","sunset after the rain,49,260,20","Cody","Pretty, good colors,30,180,20","Marcus","I feel like I'm looking at two different paintings mashed together in the middle.,20,60,20","2"
"6042","","survey-text","80","459747","0.0-79.0-0.0","A2MCG5W6LHSRG9","","","","{""Q0"":""sky""}","","","","","","","","","","","","","","","","","","","","","","",""
"9919","","survey-text","81","469667","0.0-80.0-0.0","A2MCG5W6LHSRG9","","","","{""Q0"":""this is what acid feels like""}","","","","","","","","","","","","","","","","","","","","","","",""
"3111","","image-slider-response","82","472779","0.0-81.0","A2MCG5W6LHSRG9","","","","","17","","","","","","","","","","","","","","","","","","","","","",""
"null","","image-button-response","83","477780","0.0-82.0","A2MCG5W6LHSRG9","img_art/8.jpg","null","","","","","","","","","","","","","","","","","","","","","","","","",""
"7566","","image-button-response","84","485347","0.0-83.0","A2MCG5W6LHSRG9","img_art/8.jpg","5","","","","","","","","","","","","","","","","","","","","","","","","",""
"3334","","image-button-response","85","488683","0.0-84.0-0.0","A2MCG5W6LHSRG9","img_art/8.jpg","3","","","","","","","","","","","","","","","","","","","","","","","","",""
"2342","","image-button-response","86","491027","0.0-85.0-0.0","A2MCG5W6LHSRG9","img_art/8.jpg","0","","","","","","","","","","","","","","","","","","","","","","","","",""
"null","","html-keyboard-response","87","492528","0.0-86.0","A2MCG5W6LHSRG9","<p style=""font-size: 48px;"">+</p>","","","","","null","allTrialResponses","1500","1","6","img_art/8.jpg","17","this is what acid feels like","Cody,Jack,Blake,Benjamin,Spencer,Marcus","Love the colors & block-style,50,180,20","beautiful colors & details. love the surrealism & strange angle. the faces are interesting.,50,320,20","cold city controlled by evil gods,-17,280,20","Very colorful. Looks like the hustle and bustle of a city.,11,260,20","Nice formats, I just don't like it much,-16,120,20","Like the colors and the energy, but the face feels jarring to me,13,60,20","Marcus","Like the colors and the energy, but the face feels jarring to me,13,60,20","Benjamin","Very colorful. Looks like the hustle and bustle of a city.,11,260,20","Cody","Love the colors & block-style,50,180,20","2"
"10149","","survey-text","88","502683","0.0-87.0-0.0","A2MCG5W6LHSRG9","","","","{""Q0"":""nice colors but otherwise boring""}","","","","","","","","","","","","","","","","","","","","","","",""
"2527.100000143051","","image-slider-response","89","505211","0.0-88.0","A2MCG5W6LHSRG9","","","","","3","","","","","","","","","","","","","","","","","","","","","",""
"null","","image-button-response","90","510213","0.0-89.0","A2MCG5W6LHSRG9","img_art/5.jpg","null","","","","","","","","","","","","","","","","","","","","","","","","",""
"3174","","image-button-response","91","513388","0.0-90.0","A2MCG5W6LHSRG9","img_art/5.jpg","3","","","","","","","","","","","","","","","","","","","","","","","","",""
"2062","","image-button-response","92","515452","0.0-91.0-0.0","A2MCG5W6LHSRG9","img_art/5.jpg","4","","","","","","","","","","","","","","","","","","","","","","","","",""
"815","","image-button-response","93","516267","0.0-92.0-0.0","A2MCG5W6LHSRG9","img_art/5.jpg","0","","","","","","","","","","","","","","","","","","","","","","","","",""
"null","","html-keyboard-response","94","517769","0.0-93.0","A2MCG5W6LHSRG9","<p style=""font-size: 48px;"">+</p>","","","","","null","allTrialResponses","1500","1","7","img_art/5.jpg","3","nice colors but otherwise boring","Cody,Justin,Vincent,Benjamin,Tanner,Marcus","Kind of ugly ....,-21,180,20","Although it's very simple, there's something about the colors that really draws the eye.,11,280,20","It speaks volumes to some. It's also a conversational piece. And very different ideas,34,360,20","Missing something,-5,260,20","sharp, painful yet playful,-5,180,20","I really dislike this. It's ugly and looks dirty.,-44,60,20","Benjamin","Missing something,-5,260,20","Tanner","sharp, painful yet playful,-5,180,20","Cody","Kind of ugly ....,-21,180,20","2"
"13583","","survey-text","95","531355","0.0-94.0-0.0","A2MCG5W6LHSRG9","","","","{""Q0"":""i just don't get it, ugly""}","","","","","","","","","","","","","","","","","","","","","","",""
"2055","","image-slider-response","96","533411","0.0-95.0","A2MCG5W6LHSRG9","","","","","-22","","","","","","","","","","","","","","","","","","","","","",""
"null","","image-button-response","97","538413","0.0-96.0","A2MCG5W6LHSRG9","img_art/28.jpg","null","","","","","","","","","","","","","","","","","","","","","","","","",""
"446","","image-button-response","98","538859","0.0-97.0","A2MCG5W6LHSRG9","img_art/28.jpg","0","","","","","","","","","","","","","","","","","","","","","","","","",""
"583","","image-button-response","99","539443","0.0-98.0-0.0","A2MCG5W6LHSRG9","img_art/28.jpg","2","","","","","","","","","","","","","","","","","","","","","","","","",""
"6135","","image-button-response","100","545580","0.0-99.0-0.0","A2MCG5W6LHSRG9","img_art/28.jpg","5","","","","","","","","","","","","","","","","","","","","","","","","",""
"null","","html-keyboard-response","101","546581","0.0-100.0","A2MCG5W6LHSRG9","<p style=""font-size: 48px;"">+</p>","","","","","null","allTrialResponses","1000","1","8","img_art/28.jpg","-22","i just don't get it, ugly","Cody,Brett,Trevor,Benjamin,Tanner,Bryce","Don't love the colors,-10,180,20","Overpopulated city,35,360,20","very blah colors and it's not fun,-27,280,20","Colors are too dull.,-30,260,20","almost reminds me of thomas becket getting his head cut off,21,180,20","It gives me weird vibes.,-25,20,20","Cody","Don't love the colors,-10,180,20","Trevor","very blah colors and it's not fun,-27,280,20","Bryce","It gives me weird vibes.,-25,20,20","2"
"14684","","survey-text","102","561267","0.0-101.0-0.0","A2MCG5W6LHSRG9","","","","{""Q0"":""it looks fine but simple""}","","","","","","","","","","","","","","","","","","","","","","",""
"2223","","image-slider-response","103","563491","0.0-102.0","A2MCG5W6LHSRG9","","","","","3","","","","","","","","","","","","","","","","","","","","","",""
"null","","image-button-response","104","568492","0.0-103.0","A2MCG5W6LHSRG9","img_art/15.jpg","null","","","","","","","","","","","","","","","","","","","","","","","","",""
"5654","","image-button-response","105","574147","0.0-104.0","A2MCG5W6LHSRG9","img_art/15.jpg","3","","","","","","","","","","","","","","","","","","","","","","","","",""
"4751","","image-button-response","106","578900","0.0-105.0-0.0","A2MCG5W6LHSRG9","img_art/15.jpg","2","","","","","","","","","","","","","","","","","","","","","","","","",""
"6615","","image-button-response","107","585515","0.0-106.0-0.0","A2MCG5W6LHSRG9","img_art/15.jpg","0","","","","","","","","","","","","","","","","","","","","","","","","",""
"null","","html-keyboard-response","108","586516","0.0-107.0","A2MCG5W6LHSRG9","<p style=""font-size: 48px;"">+</p>","","","","","null","allTrialResponses","1000","1","9","img_art/15.jpg","3","it looks fine but simple","Cody,Noah,Trevor,James,Eric,Bryce","Don't love it but it's cute,16,180,20","i enjoy its apaprent simplicity (of colour and shape),32,260,20","I really like the colors,14,280,20","No opinion truthfully,1,380,20","This picture is too confusing for me. I wouldn't want to stare at it to figure it out.,-10,100,20","The dots are cool with the blue accents.,24,20,20","James","No opinion truthfully,1,380,20","Trevor","I really like the colors,14,280,20","Cody","Don't love it but it's cute,16,180,20","2"
"579118","","survey-text","109","1165636","0.0-108.0-0.0","A2MCG5W6LHSRG9","","","","{""Q0"":""this one is laughable bad""}","","","","","","","","","","","","","","","","","","","","","","",""
"2118.4000000953674","","image-slider-response","110","1167756","0.0-109.0","A2MCG5W6LHSRG9","","","","","-21","","","","","","","","","","","","","","","","","","","","","",""
"4815","","image-button-response","111","1172758","0.0-110.0","A2MCG5W6LHSRG9","img_art/16.jpg","1","","","","","","","","","","","","","","","","","","","","","","","","",""
"5061","","image-button-response","112","1177821","0.0-111.0","A2MCG5W6LHSRG9","img_art/16.jpg","5","","","","","","","","","","","","","","","","","","","","","","","","",""
"1887","","image-button-response","113","1179709","0.0-112.0-0.0","A2MCG5W6LHSRG9","img_art/16.jpg","1","","","","","","","","","","","","","","","","","","","","","","","","",""
"7831","","image-button-response","114","1187540","0.0-113.0-0.0","A2MCG5W6LHSRG9","img_art/16.jpg","0","","","","","","","","","","","","","","","","","","","","","","","","",""
"null","","html-keyboard-response","115","1188042","0.0-114.0","A2MCG5W6LHSRG9","<p style=""font-size: 48px;"">+</p>","","","","","null","allTrialResponses","500","1","10","img_art/16.jpg","-21","this one is laughable bad","Cody,Steven,Trevor,James,John,Seth","Kind of creepyyyyyy,-41,180,20","Not interested at all,-15,160,20","very creepy with a bear and a gun,-50,280,20","It is interesting to say the least,0,380,20","It creeps me out.,-50,120,20","This one isn't for me. It came off as strange but not in a good way.,-44,60,20","Seth","This one isn't for me. It came off as strange but not in a good way.,-44,60,20","Steven","Not interested at all,-15,160,20","Cody","Kind of creepyyyyyy,-41,180,20","2"
"7049","","survey-text","116","1195100","0.0-115.0-0.0","A2MCG5W6LHSRG9","","","","{""Q0"":""our""}","","","","","","","","","","","","","","","","","","","","","","",""
"13991","","survey-text","117","1209092","0.0-116.0-0.0","A2MCG5W6LHSRG9","","","","{""Q0"":""i like the gradient""}","","","","","","","","","","","","","","","","","","","","","","",""
"2991","","image-slider-response","118","1212084","0.0-117.0","A2MCG5W6LHSRG9","","","","","16","","","","","","","","","","","","","","","","","","","","","",""
"null","","image-button-response","119","1217086","0.0-118.0","A2MCG5W6LHSRG9","img_art/13.jpg","null","","","","","","","","","","","","","","","","","","","","","","","","",""
"685","","image-button-response","120","1217773","0.0-119.0","A2MCG5W6LHSRG9","img_art/13.jpg","5","","","","","","","","","","","","","","","","","","","","","","","","",""
"1199","","image-button-response","121","1218972","0.0-120.0-0.0","A2MCG5W6LHSRG9","img_art/13.jpg","0","","","","","","","","","","","","","","","","","","","","","","","","",""
"5431","","image-button-response","122","1224405","0.0-121.0-0.0","A2MCG5W6LHSRG9","img_art/13.jpg","4","","","","","","","","","","","","","","","","","","","","","","","","",""
"null","","html-keyboard-response","123","1224906","0.0-122.0","A2MCG5W6LHSRG9","<p style=""font-size: 48px;"">+</p>","","","","","null","allTrialResponses","500","1","11","img_art/13.jpg","16","i like the gradient","Cody,Steven,Nathaniel,Richard,Dustin,Seth","It's pretty ...........,41,180,20","It's just paint splatter, no real meaning to me,-50,160,20","Looks like an upclose dried set of water droplets. Boring.,-25,220,20","kind of like the pattern and colors but don't love it,13,340,20","Cool and calming colors. I like splatter art.,10,20,20","I really loved the color contrast. Having the white stripe in the center makes the it appear 3D.,11,60,20","Seth","I really loved the color contrast. Having the white stripe in the center makes the it appear 3D.,11,60,20","Cody","It's pretty ...........,41,180,20","Dustin","Cool and calming colors. I like splatter art.,10,20,20","2"
"9608","","survey-text","124","1234516","0.0-123.0-0.0","A2MCG5W6LHSRG9","","","","{""Q0"":""reminds me of an island""}","","","","","","","","","","","","","","","","","","","","","","",""
"1991.1000001430511","","image-slider-response","125","1236508","0.0-124.0","A2MCG5W6LHSRG9","","","","","-10","","","","","","","","","","","","","","","","","","","","","",""
"null","","image-button-response","126","1241510","0.0-125.0","A2MCG5W6LHSRG9","img_art/9.jpg","null","","","","","","","","","","","","","","","","","","","","","","","","",""
"6366","","image-button-response","127","1247877","0.0-126.0","A2MCG5W6LHSRG9","img_art/9.jpg","3","","","","","","","","","","","","","","","","","","","","","","","","",""
"1111","","image-button-response","128","1248989","0.0-127.0-0.0","A2MCG5W6LHSRG9","img_art/9.jpg","5","","","","","","","","","","","","","","","","","","","","","","","","",""
"3863","","image-button-response","129","1252852","0.0-128.0-0.0","A2MCG5W6LHSRG9","img_art/9.jpg","1","","","","","","","","","","","","","","","","","","","","","","","","",""
"null","","html-keyboard-response","130","1254353","0.0-129.0","A2MCG5W6LHSRG9","<p style=""font-size: 48px;"">+</p>","","","","","null","allTrialResponses","1500","1","12","img_art/9.jpg","-10","reminds me of an island","Cody,Kyle,Malik,Chase,Dustin,Seth","Feels angry .....,-40,180,20","I like abstract art that looks that there is more than random brush strokes. This one looks the former,10,340,20","Colorful and expressive,15,40,20","Looks like a sloppy iguana.,-11,120,20","I like the blues and pinks. The woman lying down communicates relaxation. It is a serene, calming scene,30,20,20","I think it's sleeping beauty but I'm not sure. I didn't care for this piece.,-30,60,20","Chase","Looks like a sloppy iguana.,-11,120,20","Seth","I think it's sleeping beauty but I'm not sure. I didn't care for this piece.,-30,60,20","Kyle","I like abstract art that looks that there is more than random brush strokes. This one looks the former,10,340,20","2"
"9928","","survey-text","131","1264284","0.0-130.0-0.0","A2MCG5W6LHSRG9","","","","{""Q0"":""the red really pops""}","","","","","","","","","","","","","","","","","","","","","","",""
"2566.9000000953674","","image-slider-response","132","1266852","0.0-131.0","A2MCG5W6LHSRG9","","","","","-9","","","","","","","","","","","","","","","","","","","","","",""
"null","","image-button-response","133","1271853","0.0-132.0","A2MCG5W6LHSRG9","img_art/2.jpg","null","","","","","","","","","","","","","","","","","","","","","","","","",""
"3438","","image-button-response","134","1275293","0.0-133.0","A2MCG5W6LHSRG9","img_art/2.jpg","4","","","","","","","","","","","","","","","","","","","","","","","","",""
"2287","","image-button-response","135","1277581","0.0-134.0-0.0","A2MCG5W6LHSRG9","img_art/2.jpg","3","","","","","","","","","","","","","","","","","","","","","","","","",""
"2703","","image-button-response","136","1280285","0.0-135.0-0.0","A2MCG5W6LHSRG9","img_art/2.jpg","1","","","","","","","","","","","","","","","","","","","","","","","","",""
"null","","html-keyboard-response","137","1281286","0.0-136.0","A2MCG5W6LHSRG9","<p style=""font-size: 48px;"">+</p>","","","","","null","allTrialResponses","1000","1","13","img_art/2.jpg","-9","the red really pops","Logan,Kyle,Connor,Chase,Jason,Seth","omg she's so cute look at that little smile those eyelashes ugh love it,30,360,20","Color picks are a bad mesh with each other,-17,340,20","There is an odd face here that is creepy,-4,240,20","A bit ugly with the greens.,-20,120,20","Too jumbled and disorienting,-13,20,20","I think I see people sitting in lawn chairs in a circle watching an event. Not really sure so I rated it lower.,-35,60,20","Jason","Too jumbled and disorienting,-13,20,20","Chase","A bit ugly with the greens.,-20,120,20","Kyle","Color picks are a bad mesh with each other,-17,340,20","2"
"9828","","survey-text","138","1291116","0.0-137.0-0.0","A2MCG5W6LHSRG9","","","","{""Q0"":""looks like a murder""}","","","","","","","","","","","","","","","","","","","","","","",""
"2959","","image-slider-response","139","1294076","0.0-138.0","A2MCG5W6LHSRG9","","","","","-5","","","","","","","","","","","","","","","","","","","","","",""
"null","","image-button-response","140","1299078","0.0-139.0","A2MCG5W6LHSRG9","img_art/3.jpg","null","","","","","","","","","","","","","","","","","","","","","","","","",""
"5606","","image-button-response","141","1304685","0.0-140.0","A2MCG5W6LHSRG9","img_art/3.jpg","3","","","","","","","","","","","","","","","","","","","","","","","","",""
"2951","","image-button-response","142","1307636","0.0-141.0-0.0","A2MCG5W6LHSRG9","img_art/3.jpg","1","","","","","","","","","","","","","","","","","","","","","","","","",""
"6247","","image-button-response","143","1313884","0.0-142.0-0.0","A2MCG5W6LHSRG9","img_art/3.jpg","0","","","","","","","","","","","","","","","","","","","","","","","","",""
"null","","html-keyboard-response","144","1315385","0.0-143.0","A2MCG5W6LHSRG9","<p style=""font-size: 48px;"">+</p>","","","","","null","allTrialResponses","1500","1","14","img_art/3.jpg","-5","looks like a murder","Thomas,Kyle,Alex,Chase,Jason,Samuel","Too messy and structure-less,-10,220,20","I don't really have a strong reaction to this one,0,340,20","Ok, just a bunch of red lines and a grey smudge. Would pass this right by in a gallery,-12,100,20","Looks like a bloody head with teeth.,-16,120,20","Too much red; very bland,-26,20,20","confusing taking over,-15,400,20","Chase","Looks like a bloody head with teeth.,-16,120,20","Kyle","I don't really have a strong reaction to this one,0,340,20","Thomas","Too messy and structure-less,-10,220,20","2"
"14009","","survey-text","145","1329396","0.0-144.0-0.0","A2MCG5W6LHSRG9","","","","{""Q0"":""reminds me of a factory by water""}","","","","","","","","","","","","","","","","","","","","","","",""
"3638.899999856949","","image-slider-response","146","1333036","0.0-145.0","A2MCG5W6LHSRG9","","","","","18","","","","","","","","","","","","","","","","","","","","","",""
"null","","image-button-response","147","1338039","0.0-146.0","A2MCG5W6LHSRG9","img_art/20.jpg","null","","","","","","","","","","","","","","","","","","","","","","","","",""
"4421","","image-button-response","148","1342461","0.0-147.0","A2MCG5W6LHSRG9","img_art/20.jpg","4","","","","","","","","","","","","","","","","","","","","","","","","",""
"6175","","image-button-response","149","1348637","0.0-148.0-0.0","A2MCG5W6LHSRG9","img_art/20.jpg","2","","","","","","","","","","","","","","","","","","","","","","","","",""
"5110","","image-button-response","150","1353749","0.0-149.0-0.0","A2MCG5W6LHSRG9","img_art/20.jpg","0","","","","","","","","","","","","","","","","","","","","","","","","",""
"null","","html-keyboard-response","151","1354750","0.0-150.0","A2MCG5W6LHSRG9","<p style=""font-size: 48px;"">+</p>","","","","","null","allTrialResponses","1000","1","15","img_art/20.jpg","18","reminds me of a factory by water","Thomas,Kyle,Elijah,Chase,Mitchell,Victor","I really enjoy the contrast of colors (blue/red/orange),30,220,20","This one is okay but I don't really care for it,5,340,20","Makes me feel impressed,9,80,20","Looks like a refinery dumping shit into the water.,-40,120,20","Interesting. Empty place, wondering what happened, leaving what you used to know.,10,180,20","sort of pleasant to look at, but can't tell if it's supposed to be something,13,340,20","Mitchell","Interesting. Empty place, wondering what happened, leaving what you used to know.,10,180,20","Elijah","Makes me feel impressed,9,80,20","Thomas","I really enjoy the contrast of colors (blue/red/orange),30,220,20","2"
"5937","","survey-text","152","1360692","0.0-151.0-0.0","A2MCG5W6LHSRG9","","","","{""Q0"":""course""}","","","","","","","","","","","","","","","","","","","","","","",""
"17959","","survey-text","153","1378652","0.0-152.0-0.0","A2MCG5W6LHSRG9","","","","{""Q0"":""Not impressed at all""}","","","","","","","","","","","","","","","","","","","","","","",""
"1535","","image-slider-response","154","1380188","0.0-153.0","A2MCG5W6LHSRG9","","","","","-14","","","","","","","","","","","","","","","","","","","","","",""
"null","","image-button-response","155","1385190","0.0-154.0","A2MCG5W6LHSRG9","img_art/19.jpg","null","","","","","","","","","","","","","","","","","","","","","","","","",""
"1853","","image-button-response","156","1387045","0.0-155.0","A2MCG5W6LHSRG9","img_art/19.jpg","0","","","","","","","","","","","","","","","","","","","","","","","","",""
"1439","","image-button-response","157","1388485","0.0-156.0-0.0","A2MCG5W6LHSRG9","img_art/19.jpg","1","","","","","","","","","","","","","","","","","","","","","","","","",""
"5031","","image-button-response","158","1393517","0.0-157.0-0.0","A2MCG5W6LHSRG9","img_art/19.jpg","5","","","","","","","","","","","","","","","","","","","","","","","","",""
"null","","html-keyboard-response","159","1394019","0.0-158.0","A2MCG5W6LHSRG9","<p style=""font-size: 48px;"">+</p>","","","","","null","allTrialResponses","500","1","16","img_art/19.jpg","-14","Not impressed at all","Thomas,Sean,Elijah,Shane,Mitchell,Brendan","I like this as a whole, but the longer I look at it, the less it pleases me,-10,220,20","the picture gave me anxiety,-38,40,20","The details are amazing,36,80,20","A day in a small city,45,80,20","Higher power looking down at its creation with a half smile and some hurt.,45,180,20","beautiful old town,37,340,20","Thomas","I like this as a whole, but the longer I look at it, the less it pleases me,-10,220,20","Sean","the picture gave me anxiety,-38,40,20","Brendan","beautiful old town,37,340,20","2"
"14006","","survey-text","160","1408029","0.0-159.0-0.0","A2MCG5W6LHSRG9","","","","{""Q0"":""colors are really cool. a can see figures""}","","","","","","","","","","","","","","","","","","","","","","",""
"8623","","image-slider-response","161","1416653","0.0-160.0","A2MCG5W6LHSRG9","","","","","35","","","","","","","","","","","","","","","","","","","","","",""
"4582","","image-button-response","162","1421656","0.0-161.0","A2MCG5W6LHSRG9","img_art/18.jpg","0","","","","","","","","","","","","","","","","","","","","","","","","",""
"1555","","image-button-response","163","1423213","0.0-162.0","A2MCG5W6LHSRG9","img_art/18.jpg","0","","","","","","","","","","","","","","","","","","","","","","","","",""
"2759","","image-button-response","164","1425973","0.0-163.0-0.0","A2MCG5W6LHSRG9","img_art/18.jpg","4","","","","","","","","","","","","","","","","","","","","","","","","",""
"5182","","image-button-response","165","1431157","0.0-164.0-0.0","A2MCG5W6LHSRG9","img_art/18.jpg","3","","","","","","","","","","","","","","","","","","","","","","","","",""
"null","","html-keyboard-response","166","1432659","0.0-165.0","A2MCG5W6LHSRG9","<p style=""font-size: 48px;"">+</p>","","","","","null","allTrialResponses","1500","1","17","img_art/18.jpg","35","colors are really cool. a can see figures","Thomas,Sean,Adam,David,Grant,Brendan","I could stare at this for long stretches of time and still find new details. I love it.,40,220,20","my response to the picture is a little bit of anxiety but I like the detail,16,40,20","Colors are okay. Reminds me of cavalry.,10,40,20","I like how the image gives off an impression of bravery.,25,340,20","This is a very energetic painting, and brings to mind scenes of battle.,50,200,20","looks like a war,22,340,20","Thomas","I could stare at this for long stretches of time and still find new details. I love it.,40,220,20","Grant","This is a very energetic painting, and brings to mind scenes of battle.,50,200,20","David","I like how the image gives off an impression of bravery.,25,340,20","2"
"21310","","survey-text","167","1453973","0.0-166.0-0.0","A2MCG5W6LHSRG9","","","","{""Q0"":""feels like the building is growing""}","","","","","","","","","","","","","","","","","","","","","","",""
"1567.1999998092651","","image-slider-response","168","1455541","0.0-167.0","A2MCG5W6LHSRG9","","","","","10","","","","","","","","","","","","","","","","","","","","","",""
"null","","image-button-response","169","1460543","0.0-168.0","A2MCG5W6LHSRG9","img_art/17.jpg","null","","","","","","","","","","","","","","","","","","","","","","","","",""
"2973","","image-button-response","170","1463517","0.0-169.0","A2MCG5W6LHSRG9","img_art/17.jpg","3","","","","","","","","","","","","","","","","","","","","","","","","",""
"3230","","image-button-response","171","1466748","0.0-170.0-0.0","A2MCG5W6LHSRG9","img_art/17.jpg","1","","","","","","","","","","","","","","","","","","","","","","","","",""
"959","","image-button-response","172","1467709","0.0-171.0-0.0","A2MCG5W6LHSRG9","img_art/17.jpg","5","","","","","","","","","","","","","","","","","","","","","","","","",""
"null","","html-keyboard-response","173","1468711","0.0-172.0","A2MCG5W6LHSRG9","<p style=""font-size: 48px;"">+</p>","","","","","null","allTrialResponses","1000","1","18","img_art/17.jpg","10","feels like the building is growing","Thomas,Cameron,Cole,David,Grant,Tristan","Colors and composition are beautiful. I would hang this in my home.,50,220,20","doorways and trees are pleasant,30,60,20","It looks unfinished,-7,200,20","I like how the image gives an impression of gaseous tree.,15,340,20","This makes me feel trapped.,5,200,20","peaceful. contemplative. balanced. old,10,300,20","David","I like how the image gives an impression of gaseous tree.,15,340,20","Cameron","doorways and trees are pleasant,30,60,20","Tristan","peaceful. contemplative. balanced. old,10,300,20","2"
"17898","","survey-text","174","1486612","0.0-173.0-0.0","A2MCG5W6LHSRG9","","","","{""Q0"":""to much is going on for me""}","","","","","","","","","","","","","","","","","","","","","","",""
"2615.2000000476837","","image-slider-response","175","1489229","0.0-174.0","A2MCG5W6LHSRG9","","","","","-4","","","","","","","","","","","","","","","","","","","","","",""
"null","","image-button-response","176","1494231","0.0-175.0","A2MCG5W6LHSRG9","img_art/23.jpg","null","","","","","","","","","","","","","","","","","","","","","","","","",""
"1476","","image-button-response","177","1495709","0.0-176.0","A2MCG5W6LHSRG9","img_art/23.jpg","1","","","","","","","","","","","","","","","","","","","","","","","","",""
"3447","","image-button-response","178","1499157","0.0-177.0-0.0","A2MCG5W6LHSRG9","img_art/23.jpg","0","","","","","","","","","","","","","","","","","","","","","","","","",""
"3238","","image-button-response","179","1502397","0.0-178.0-0.0","A2MCG5W6LHSRG9","img_art/23.jpg","2","","","","","","","","","","","","","","","","","","","","","","","","",""
"null","","html-keyboard-response","180","1503898","0.0-179.0","A2MCG5W6LHSRG9","<p style=""font-size: 48px;"">+</p>","","","","","null","allTrialResponses","1500","1","19","img_art/23.jpg","-4","to much is going on for me","Robert,Cameron,Devon,David,Nicholas,Tristan","This makes me think of an orchestra playing a forth of july song,12,360,20","looks like those paper chain things.,0,60,20","i cannot breath in this,-10,400,20","I like the symmetrical design and how it portrays the liveliness of a musical environment.,30,340,20","The more i look at it the more i like it  the dots of color and very interesting,50,240,20","So exciting and full of the night.,20,300,20","Cameron","looks like those paper chain things.,0,60,20","Robert","This makes me think of an orchestra playing a forth of july song,12,360,20","Devon","i cannot breath in this,-10,400,20","2"
"13503","","survey-text","181","1517404","0.0-180.0-0.0","A2MCG5W6LHSRG9","","","","{""Q0"":""not too impressed but i like the shapes""}","","","","","","","","","","","","","","","","","","","","","","",""
"3526.9000000953674","","image-slider-response","182","1520932","0.0-181.0","A2MCG5W6LHSRG9","","","","","-5","","","","","","","","","","","","","","","","","","","","","",""
"null","","image-button-response","183","1525935","0.0-182.0","A2MCG5W6LHSRG9","img_art/22.jpg","null","","","","","","","","","","","","","","","","","","","","","","","","",""
"1884","","image-button-response","184","1527821","0.0-183.0","A2MCG5W6LHSRG9","img_art/22.jpg","4","","","","","","","","","","","","","","","","","","","","","","","","",""
"1231","","image-button-response","185","1529053","0.0-184.0-0.0","A2MCG5W6LHSRG9","img_art/22.jpg","0","","","","","","","","","","","","","","","","","","","","","","","","",""
"743","","image-button-response","186","1529797","0.0-185.0-0.0","A2MCG5W6LHSRG9","img_art/22.jpg","5","","","","","","","","","","","","","","","","","","","","","","","","",""
"null","","html-keyboard-response","187","1530798","0.0-186.0","A2MCG5W6LHSRG9","<p style=""font-size: 48px;"">+</p>","","","","","null","allTrialResponses","1000","1","20","img_art/22.jpg","-5","not too impressed but i like the shapes","Robert,Cameron,Devon,Timothy,Andrew,Hunter","I don't get much of a reaction.,11,360,20","Like this one, like a sunset,30,60,20","This represents the hopes in my life.,21,400,20","This painting has a very nostalgic feel,20,240,20","Doesn't make me feel anything,-4,160,20","strong blending skills,7,240,20","Andrew","Doesn't make me feel anything,-4,160,20","Robert","I don't get much of a reaction.,11,360,20","Hunter","strong blending skills,7,240,20","2"
"5633","","survey-text","188","1536436","0.0-187.0-0.0","A2MCG5W6LHSRG9","","","","{""Q0"":""we""}","","","","","","","","","","","","","","","","","","","","","","",""
"10239","","survey-text","189","1546676","0.0-188.0-0.0","A2MCG5W6LHSRG9","","","","{""Q0"":""worshiping a god""}","","","","","","","","","","","","","","","","","","","","","","",""
"1951.1000001430511","","image-slider-response","190","1548628","0.0-189.0","A2MCG5W6LHSRG9","","","","","38","","","","","","","","","","","","","","","","","","","","","",""
"null","","image-button-response","191","1553631","0.0-190.0","A2MCG5W6LHSRG9","img_art/25.jpg","null","","","","","","","","","","","","","","","","","","","","","","","","",""
"6604","","image-button-response","192","1560237","0.0-191.0","A2MCG5W6LHSRG9","img_art/25.jpg","1","","","","","","","","","","","","","","","","","","","","","","","","",""
"383","","image-button-response","193","1560621","0.0-192.0-0.0","A2MCG5W6LHSRG9","img_art/25.jpg","0","","","","","","","","","","","","","","","","","","","","","","","","",""
"2646","","image-button-response","194","1563269","0.0-193.0-0.0","A2MCG5W6LHSRG9","img_art/25.jpg","4","","","","","","","","","","","","","","","","","","","","","","","","",""
"null","","html-keyboard-response","195","1563770","0.0-194.0","A2MCG5W6LHSRG9","<p style=""font-size: 48px;"">+</p>","","","","","null","allTrialResponses","500","1","21","img_art/25.jpg","38","worshiping a god","Robert,Ethan,Jeffrey,Scott,Andrew,Hunter","It made me think of healing.,22,360,20","The artist was daring to create this. Don't love the green and black combo though.,9,120,20","reminds me of a demon,-25,40,20","reminds me of a zombie,-36,20,20","It makes me feel a little uneasy, but I like the painting,11,160,20","do not like that color of green,-11,240,20","Ethan","The artist was daring to create this. Don't love the green and black combo though.,9,120,20","Robert","It made me think of healing.,22,360,20","Andrew","It makes me feel a little uneasy, but I like the painting,11,160,20","2"
"9112","","survey-text","196","1572885","0.0-195.0-0.0","A2MCG5W6LHSRG9","","","","{""Q0"":""boring watercolor""}","","","","","","","","","","","","","","","","","","","","","","",""
"1918.7999999523163","","image-slider-response","197","1574804","0.0-196.0","A2MCG5W6LHSRG9","","","","","-7","","","","","","","","","","","","","","","","","","","","","",""
"3623","","image-button-response","198","1579807","0.0-197.0","A2MCG5W6LHSRG9","img_art/26.jpg","1","","","","","","","","","","","","","","","","","","","","","","","","",""
"364","","image-button-response","199","1580173","0.0-198.0","A2MCG5W6LHSRG9","img_art/26.jpg","1","","","","","","","","","","","","","","","","","","","","","","","","",""
"3382","","image-button-response","200","1583557","0.0-199.0-0.0","A2MCG5W6LHSRG9","img_art/26.jpg","5","","","","","","","","","","","","","","","","","","","","","","","","",""
"1998","","image-button-response","201","1585556","0.0-200.0-0.0","A2MCG5W6LHSRG9","img_art/26.jpg","2","","","","","","","","","","","","","","","","","","","","","","","","",""
"null","","html-keyboard-response","202","1586059","0.0-201.0","A2MCG5W6LHSRG9","<p style=""font-size: 48px;"">+</p>","","","","","null","allTrialResponses","500","1","22","img_art/26.jpg","-7","boring watercolor","Robert,Ethan,Caleb,Dylan,Andrew,Michael","Day just begun in the city and the stores are opening their doors.,41,360,20","I can tell it's some sort of outdoor scene. It looks very amateurish.,-9,120,20","Appears childish and unfinished.,-20,40,20","I like the colors but it is still a little boring,22,40,20","Makes me want to walk down a cool street,20,160,20","Not much skil went into this one either.,-41,140,20","Ethan","I can tell it's some sort of outdoor scene. It looks very amateurish.,-9,120,20","Michael","Not much skil went into this one either.,-41,140,20","Caleb","Appears childish and unfinished.,-20,40,20","2"
"15887","","survey-text","203","1601948","0.0-202.0-0.0","A2MCG5W6LHSRG9","","","","{""Q0"":""some sort of water or river""}","","","","","","","","","","","","","","","","","","","","","","",""
"2174.899999856949","","image-slider-response","204","1604124","0.0-203.0","A2MCG5W6LHSRG9","","","","","-7","","","","","","","","","","","","","","","","","","","","","",""
"null","","image-button-response","205","1609125","0.0-204.0","A2MCG5W6LHSRG9","img_art/24.jpg","null","","","","","","","","","","","","","","","","","","","","","","","","",""
"502","","image-button-response","206","1609628","0.0-205.0","A2MCG5W6LHSRG9","img_art/24.jpg","1","","","","","","","","","","","","","","","","","","","","","","","","",""
"1535","","image-button-response","207","1611165","0.0-206.0-0.0","A2MCG5W6LHSRG9","img_art/24.jpg","4","","","","","","","","","","","","","","","","","","","","","","","","",""
"3590","","image-button-response","208","1614757","0.0-207.0-0.0","A2MCG5W6LHSRG9","img_art/24.jpg","3","","","","","","","","","","","","","","","","","","","","","","","","",""
"null","","html-keyboard-response","209","1615759","0.0-208.0","A2MCG5W6LHSRG9","<p style=""font-size: 48px;"">+</p>","","","","","null","allTrialResponses","1000","1","23","img_art/24.jpg","-7","some sort of water or river","Ian,Ethan,Caleb,Miguel,Evan,Michael","I find the colors work really well. It's very pretty but I have no idea as what it is.,34,260,20","This is sort of interesting. I think it's a bit busy. Less is more.,3,120,20","This is gorgeous. Strong, saturated colors and clear meaning.,50,40,20","Very cute amateur piece.,18,160,20","It feels very serene,19,140,20","It's not super high uality  but there is some skill and talent in it I see.,15,140,20","Ethan","This is sort of interesting. I think it's a bit busy. Less is more.,3,120,20","Evan","It feels very serene,19,140,20","Miguel","Very cute amateur piece.,18,160,20","2"
"16122","","survey-text","210","1631884","0.0-209.0-0.0","A2MCG5W6LHSRG9","","","","{""Q0"":""a bit too crazy and much""}","","","","","","","","","","","","","","","","","","","","","","",""
"1942.6000001430511","","image-slider-response","211","1633828","0.0-210.0","A2MCG5W6LHSRG9","","","","","-9","","","","","","","","","","","","","","","","","","","","","",""
"null","","image-button-response","212","1638829","0.0-211.0","A2MCG5W6LHSRG9","img_art/27.jpg","null","","","","","","","","","","","","","","","","","","","","","","","","",""
"7982","","image-button-response","213","1646813","0.0-212.0","A2MCG5W6LHSRG9","img_art/27.jpg","3","","","","","","","","","","","","","","","","","","","","","","","","",""
"5054","","image-button-response","214","1651869","0.0-213.0-0.0","A2MCG5W6LHSRG9","img_art/27.jpg","0","","","","","","","","","","","","","","","","","","","","","","","","",""
"8270","","image-button-response","215","1660142","0.0-214.0-0.0","A2MCG5W6LHSRG9","img_art/27.jpg","5","","","","","","","","","","","","","","","","","","","","","","","","",""
"null","","html-keyboard-response","216","1660643","0.0-215.0","A2MCG5W6LHSRG9","<p style=""font-size: 48px;"">+</p>","","","","","null","allTrialResponses","500","1","24","img_art/27.jpg","-9","a bit too crazy and much","Brandon,Ethan,Alejandro,Miguel,Evan,Jesse","Too abstract, doesn't remind me of anything,-42,320,20","I like the layer upon layer of different mediums used here.,21,120,20","Muddied and directionless. Like someone dragged a brush across the paper for the sake of doing something.,-50,80,20","Adult contemporary painting with child.,-33,160,20","I am bothered by the green doodles,-20,140,20","Doesnt look like anything to me. Doesnt capture my attention.,-25,80,20","Miguel","Adult contemporary painting with child.,-33,160,20","Brandon","Too abstract, doesn't remind me of anything,-42,320,20","Jesse","Doesnt look like anything to me. Doesnt capture my attention.,-25,80,20","2"
"9143","","survey-text","217","1669789","0.0-216.0-0.0","A2MCG5W6LHSRG9","","","","{""Q0"":""this reminds me of a tree""}","","","","","","","","","","","","","","","","","","","","","","",""
"3566.9000000953674","","image-slider-response","218","1673357","0.0-217.0","A2MCG5W6LHSRG9","","","","","21","","","","","","","","","","","","","","","","","","","","","",""
"null","","image-button-response","219","1678359","0.0-218.0","A2MCG5W6LHSRG9","img_art/14.jpg","null","","","","","","","","","","","","","","","","","","","","","","","","",""
"11022","","image-button-response","220","1689381","0.0-219.0","A2MCG5W6LHSRG9","img_art/14.jpg","2","","","","","","","","","","","","","","","","","","","","","","","","",""
"4071","","image-button-response","221","1693453","0.0-220.0-0.0","A2MCG5W6LHSRG9","img_art/14.jpg","4","","","","","","","","","","","","","","","","","","","","","","","","",""
"4351","","image-button-response","222","1697806","0.0-221.0-0.0","A2MCG5W6LHSRG9","img_art/14.jpg","5","","","","","","","","","","","","","","","","","","","","","","","","",""
"null","","html-keyboard-response","223","1699307","0.0-222.0","A2MCG5W6LHSRG9","<p style=""font-size: 48px;"">+</p>","","","","","null","allTrialResponses","1500","1","25","img_art/14.jpg","21","this reminds me of a tree","Brandon,Ryan,Austin,Miguel,Edward,Jesse","Don't like the colors on this. Too simple,-20,320,20","Gorgeous use of water color,50,380,20","Love the abstractness of this painting,39,240,20","It's too basic.,23,160,20","I just really like light and wispy things,33,60,20","Its cute. Not striking but i would keep it in my home.,10,80,20","Austin","Love the abstractness of this painting,39,240,20","Edward","I just really like light and wispy things,33,60,20","Jesse","Its cute. Not striking but i would keep it in my home.,10,80,20","2"
"11532","","survey-text","224","1710845","0.0-223.0-0.0","A2MCG5W6LHSRG9","","","","{""Q0"":""table""}","","","","","","","","","","","","","","","","","","","","","","",""
"11703","","survey-text","225","1722549","0.0-224.0-0.0","A2MCG5W6LHSRG9","","","","{""Q0"":""i love the color and the shapes""}","","","","","","","","","","","","","","","","","","","","","","",""
"1847","","image-slider-response","226","1724397","0.0-225.0","A2MCG5W6LHSRG9","","","","","40","","","","","","","","","","","","","","","","","","","","","",""
"null","","image-button-response","227","1729399","0.0-226.0","A2MCG5W6LHSRG9","img_art/6.jpg","null","","","","","","","","","","","","","","","","","","","","","","","","",""
"374","","image-button-response","228","1729773","0.0-227.0","A2MCG5W6LHSRG9","img_art/6.jpg","0","","","","","","","","","","","","","","","","","","","","","","","","",""
"727","","image-button-response","229","1730501","0.0-228.0-0.0","A2MCG5W6LHSRG9","img_art/6.jpg","2","","","","","","","","","","","","","","","","","","","","","","","","",""
"2406","","image-button-response","230","1732910","0.0-229.0-0.0","A2MCG5W6LHSRG9","img_art/6.jpg","4","","","","","","","","","","","","","","","","","","","","","","","","",""
"null","","html-keyboard-response","231","1734411","0.0-230.0","A2MCG5W6LHSRG9","<p style=""font-size: 48px;"">+</p>","","","","","null","allTrialResponses","1500","1","26","img_art/6.jpg","40","i love the color and the shapes","Carlos,Derek,Austin,Bryan,Edward,Jesse","Clean and simple, a pleasant resting place for the eyes.,21,80,20","Too basic for me,-20,360,20","Love the simplicity of it,41,240,20","Growth in the desert?  Don't care for it very much.,-26,400,20","It looks like a bird looking away,32,60,20","Nothing grabs at me here,-11,80,20","Carlos","Clean and simple, a pleasant resting place for the eyes.,21,80,20","Austin","Love the simplicity of it,41,240,20","Edward","It looks like a bird looking away,32,60,20","2"
"11654","","survey-text","232","1746069","0.0-231.0-0.0","A2MCG5W6LHSRG9","","","","{""Q0"":""nice texture but very boring""}","","","","","","","","","","","","","","","","","","","","","","",""
"1559","","image-slider-response","233","1747629","0.0-232.0","A2MCG5W6LHSRG9","","","","","-21","","","","","","","","","","","","","","","","","","","","","",""
"4655","","image-button-response","234","1752630","0.0-233.0","A2MCG5W6LHSRG9","img_art/7.jpg","0","","","","","","","","","","","","","","","","","","","","","","","","",""
"2134","","image-button-response","235","1754765","0.0-234.0","A2MCG5W6LHSRG9","img_art/7.jpg","3","","","","","","","","","","","","","","","","","","","","","","","","",""
"3551","","image-button-response","236","1758317","0.0-235.0-0.0","A2MCG5W6LHSRG9","img_art/7.jpg","0","","","","","","","","","","","","","","","","","","","","","","","","",""
"1135","","image-button-response","237","1759454","0.0-236.0-0.0","A2MCG5W6LHSRG9","img_art/7.jpg","5","","","","","","","","","","","","","","","","","","","","","","","","",""
"null","","html-keyboard-response","238","1760955","0.0-237.0","A2MCG5W6LHSRG9","<p style=""font-size: 48px;"">+</p>","","","","","null","allTrialResponses","1500","1","27","img_art/7.jpg","-21","nice texture but very boring","Carlos,Jonathan,Austin,Matthew,Edward,Taylor","The dried bottom of a puddle in July.,-41,80,20","Looks like the surface of mars,29,140,20","The picture is just random,-8,240,20","landscape of amrs, yawn.,-25,120,20","It looks like maybe some seeds?,14,60,20","Looks like a photo taken from the moon.,-6,200,20","Matthew","landscape of amrs, yawn.,-25,120,20","Carlos","The dried bottom of a puddle in July.,-41,80,20","Taylor","Looks like a photo taken from the moon.,-6,200,20","2"
"17156","","survey-text","239","1778117","0.0-238.0-0.0","A2MCG5W6LHSRG9","","","","{""Q0"":""looks like a city connected by trains""}","","","","","","","","","","","","","","","","","","","","","","",""
"1895","","image-slider-response","240","1780013","0.0-239.0","A2MCG5W6LHSRG9","","","","","13","","","","","","","","","","","","","","","","","","","","","",""
"null","","image-button-response","241","1785014","0.0-240.0","A2MCG5W6LHSRG9","img_art/11.jpg","null","","","","","","","","","","","","","","","","","","","","","","","","",""
"8046","","image-button-response","242","1793061","0.0-241.0","A2MCG5W6LHSRG9","img_art/11.jpg","4","","","","","","","","","","","","","","","","","","","","","","","","",""
"5390","","image-button-response","243","1798453","0.0-242.0-0.0","A2MCG5W6LHSRG9","img_art/11.jpg","2","","","","","","","","","","","","","","","","","","","","","","","","",""
"5279","","image-button-response","244","1803733","0.0-243.0-0.0","A2MCG5W6LHSRG9","img_art/11.jpg","3","","","","","","","","","","","","","","","","","","","","","","","","",""
"null","","html-keyboard-response","245","1804735","0.0-244.0","A2MCG5W6LHSRG9","<p style=""font-size: 48px;"">+</p>","","","","","null","allTrialResponses","1000","1","28","img_art/11.jpg","13","looks like a city connected by trains","Carlos,Stephen,Luke,Matthew,Lucas,Taylor","The colors are lovely. February getting ready to yield to March.,41,80,20","Very good use of colors,44,140,20","it reminds me of music,43,20,20","Dark but bright, city but ocean, musical scales.,50,120,20","Astounding, extraordinary.,25,380,20","Busy, busy oceanside city.,-10,200,20","Lucas","Astounding, extraordinary.,25,380,20","Luke","it reminds me of music,43,20,20","Matthew","Dark but bright, city but ocean, musical scales.,50,120,20","2"
"12459","","survey-text","246","1817197","0.0-245.0-0.0","A2MCG5W6LHSRG9","","","","{""Q0"":""looks like a musical instrument ""}","","","","","","","","","","","","","","","","","","","","","","",""
"1975","","image-slider-response","247","1819173","0.0-246.0","A2MCG5W6LHSRG9","","","","","2","","","","","","","","","","","","","","","","","","","","","",""
"null","","image-button-response","248","1824175","0.0-247.0","A2MCG5W6LHSRG9","img_art/10.jpg","null","","","","","","","","","","","","","","","","","","","","","","","","",""
"2461","","image-button-response","249","1826638","0.0-248.0","A2MCG5W6LHSRG9","img_art/10.jpg","3","","","","","","","","","","","","","","","","","","","","","","","","",""
"5534","","image-button-response","250","1832174","0.0-249.0-0.0","A2MCG5W6LHSRG9","img_art/10.jpg","5","","","","","","","","","","","","","","","","","","","","","","","","",""
"1438","","image-button-response","251","1833614","0.0-250.0-0.0","A2MCG5W6LHSRG9","img_art/10.jpg","2","","","","","","","","","","","","","","","","","","","","","","","","",""
"null","","html-keyboard-response","252","1834115","0.0-251.0","A2MCG5W6LHSRG9","<p style=""font-size: 48px;"">+</p>","","","","","null","allTrialResponses","500","1","29","img_art/10.jpg","2","looks like a musical instrument ","Nathan,Garrett,Luke,Matthew,Lucas,Colton","Seems very lovecraftian, which I love that style,25,200,20","I can't tell what this picture is supposed to mean and I think the colors are lacking variety.,-42,180,20","it reminds me of a musical instrument,19,20,20","AWESOME VIOLIN!`,26,120,20","For me, it looks like a giant ship on the sea and it's astonishing.,30,380,20","it looks very musical,24,220,20","Matthew","AWESOME VIOLIN!`,26,120,20","Colton","it looks very musical,24,220,20","Luke","it reminds me of a musical instrument,19,20,20","2"
"12134","","survey-text","253","1846253","0.0-252.0-0.0","A2MCG5W6LHSRG9","","","","{""Q0"":""i like the pattern but not the colors""}","","","","","","","","","","","","","","","","","","","","","","",""
"1638.8999998569489","","image-slider-response","254","1847893","0.0-253.0","A2MCG5W6LHSRG9","","","","","-19","","","","","","","","","","","","","","","","","","","","","",""
"null","","image-button-response","255","1852894","0.0-254.0","A2MCG5W6LHSRG9","img_art/12.jpg","null","","","","","","","","","","","","","","","","","","","","","","","","",""
"13526","","image-button-response","256","1866422","0.0-255.0","A2MCG5W6LHSRG9","img_art/12.jpg","5","","","","","","","","","","","","","","","","","","","","","","","","",""
"14182","","image-button-response","257","1880606","0.0-256.0-0.0","A2MCG5W6LHSRG9","img_art/12.jpg","2","","","","","","","","","","","","","","","","","","","","","","","","",""
"534","","image-button-response","258","1881141","0.0-257.0-0.0","A2MCG5W6LHSRG9","img_art/12.jpg","0","","","","","","","","","","","","","","","","","","","","","","","","",""
"null","","html-keyboard-response","259","1882642","0.0-258.0","A2MCG5W6LHSRG9","<p style=""font-size: 48px;"">+</p>","","","","","null","allTrialResponses","1500","1","30","img_art/12.jpg","-19","i like the pattern but not the colors","Tyler,Gregory,Luke,Matthew,Christian,Colton","Different enough to be memorable. The gradient of hues is appealing and appeasing.,32,320,20","Black and white contrast with color looks nice,15,220,20","don't feel a lot but it seems very simple,-6,20,20","It's boxy, cubist immpressionism? Very ncie.,32,120,20","so many different available interpretations for this, would love to closer.,24,140,20","i like the repetition,30,220,20","Colton","i like the repetition,30,220,20","Luke","don't feel a lot but it seems very simple,-6,20,20","Tyler","Different enough to be memorable. The gradient of hues is appealing and appeasing.,32,320,20","2"
"4318","","image-button-response_instructions","260","1886965","0.0-259.0","A2MCG5W6LHSRG9","","0","instructions","","","","","","","","","","","","","","","","","","","","","","","",""
"1396","","image-button-response","261","1888365","0.0-260.0","A2MCG5W6LHSRG9","","0","","","","","","","","","","","","","","","","","","","","","","","","",""
