"rt","url","trial_type","trial_index","time_elapsed","internal_node_id","participant_id","stimulus","button_pressed","Name","responses","response","key_press","variableName","fixationTime","condition","trial","photo","subjectRating","subjectResponse","agentsNames","agent_1_Response","agent_2_Response","agent_3_Response","agent_4_Response","agent_5_Response","agent_6_Response","kept_1_name","kept_1_response","kept_2_name","kept_2_response","kept_3_name","kept_3_response","errorCounter"
"7552","external_page_harvard.html","external-html","0","7651","0.0-0.0","A2ML4TEAJTDQD0","","","","","","","","","","","","","","","","","","","","","","","","","","",""
"2137","","image-button-response","1","9791","0.0-1.0","A2ML4TEAJTDQD0","","0","","","","","","","","","","","","","","","","","","","","","","","","",""
"2523","","image-button-response","2","12319","0.0-2.0-0.0","A2ML4TEAJTDQD0","","1","phone","","","","","","","","","","","","","","","","","","","","","","","",""
"5734","","survey-text","3","18055","0.0-3.0-0.0","A2ML4TEAJTDQD0","","","","{""Q0"":""A2ML4TEAJTDQD0""}","","","","","","","","","","","","","","","","","","","","","","",""
"11733","","image-button-response_instructions","4","29791","0.0-4.0","A2ML4TEAJTDQD0","","0","instructions","","","","","","","","","","","","","","","","","","","","","","","",""
"15782","","image-button-response_instructions","5","45575","0.0-5.0","A2ML4TEAJTDQD0","img_art/ins/popularity/ins1.png","0","instructions","","","","","","","","","","","","","","","","","","","","","","","",""
"8790","","image-button-response_instructions","6","54367","0.0-6.0","A2ML4TEAJTDQD0","img_art/ins/popularity/ins2.png","0","instructions","","","","","","","","","","","","","","","","","","","","","","","",""
"3934","","image-button-response_instructions","7","58303","0.0-7.0","A2ML4TEAJTDQD0","img_art/ins/popularity/ins2Extreme.png","0","instructions","","","","","","","","","","","","","","","","","","","","","","","",""
"9022","","image-button-response_instructions","8","67326","0.0-8.0","A2ML4TEAJTDQD0","img_art/ins/popularity/ins3KEEPpop.PNG","0","instructions","","","","","","","","","","","","","","","","","","","","","","","",""
"5351","","image-button-response_instructions","9","72679","0.0-9.0","A2ML4TEAJTDQD0","img_art/ins/popularity/ins3ANamepop.PNG","0","instructions","","","","","","","","","","","","","","","","","","","","","","","",""
"6990","","image-button-response_instructions","10","79670","0.0-10.0","A2ML4TEAJTDQD0","img_art/ins/popularity/ins3ARatingpop.png","0","instructions","","","","","","","","","","","","","","","","","","","","","","","",""
"5031","","image-button-response_instructions","11","84702","0.0-11.0","A2ML4TEAJTDQD0","img_art/ins/popularity/ins3ATextpop.png","0","instructions","","","","","","","","","","","","","","","","","","","","","","","",""
"7351","","image-button-response_instructions","12","92055","0.0-12.0","A2ML4TEAJTDQD0","img_art/ins/popularity/ins3ALikespop.png","0","instructions","","","","","","","","","","","","","","","","","","","","","","","",""
"7399","","image-button-response_instructions","13","99454","0.0-13.0","A2ML4TEAJTDQD0","img_art/ins/popularity/ins3KEEPpop.PNG","0","instructions","","","","","","","","","","","","","","","","","","","","","","","",""
"5047","","image-button-response_instructions","14","104502","0.0-14.0","A2ML4TEAJTDQD0","img_art/ins/popularity/ins3_5RED.png","0","instructions","","","","","","","","","","","","","","","","","","","","","","","",""
"4607","","image-button-response_instructions","15","109111","0.0-15.0","A2ML4TEAJTDQD0","img_art/ins/popularity/ins3KEEPpop.PNG","0","instructions","","","","","","","","","","","","","","","","","","","","","","","",""
"7567","","image-button-response_instructions","16","116678","0.0-16.0","A2ML4TEAJTDQD0","img_art/ins/popularity/ins4KEEPpop.PNG","0","instructions","","","","","","","","","","","","","","","","","","","","","","","",""
"4271","","image-button-response_instructions","17","120950","0.0-17.0","A2ML4TEAJTDQD0","img_art/ins/popularity/ins5KEEPpop.PNG","0","instructions","","","","","","","","","","","","","","","","","","","","","","","",""
"1927","","image-button-response_instructions","18","122879","0.0-18.0","A2ML4TEAJTDQD0","","0","instructions","","","","","","","","","","","","","","","","","","","","","","","",""
"9555","","survey-text","19","132454","0.0-19.0-0.0","A2ML4TEAJTDQD0","","","","{""Q0"":""but""}","","","","","","","","","","","","","","","","","","","","","","",""
"7038","","survey-text","20","139494","0.0-20.0-0.0","A2ML4TEAJTDQD0","","","","{""Q0"":""confusing""}","","","","","","","","","","","","","","","","","","","","","","",""
"5004.199999988079","","image-slider-response","21","144502","0.0-21.0","A2ML4TEAJTDQD0","","","","","-36","","","","","","","","","","","","","","","","","","","","","",""
"null","","image-button-response","22","149506","0.0-22.0","A2ML4TEAJTDQD0","img_art/ins/1.jpg","null","","","","","","","","","","","","","","","","","","","","","","","","",""
"2987","","image-button-response","23","152496","0.0-23.0","A2ML4TEAJTDQD0","img_art/ins/1.jpg","4","","","","","","","","","","","","","","","","","","","","","","","","",""
"9803","","image-button-response","24","162302","0.0-24.0-0.0","A2ML4TEAJTDQD0","img_art/ins/1.jpg","1","","","","","","","","","","","","","","","","","","","","","","","","",""
"2678","","image-button-response","25","164983","0.0-25.0-0.0","A2ML4TEAJTDQD0","img_art/ins/1.jpg","5","","","","","","","","","","","","","","","","","","","","","","","","",""
"null","","html-keyboard-response","26","165986","0.0-26.0","A2ML4TEAJTDQD0","<p style=""font-size: 48px;"">+</p>","","","","","null","allTrialResponses","1000","1","-2","img_art/ins/1.jpg","-36","confusing","Adam,Alex,Ben,Carl,Daniel,Jack","Seems like doodles,-20,20,20","very creative work.,36,40,20","This color reminds me of poo,-46,60,20","very calming artwork,42,80,20","It looks like a murder scene.,-48,100,20","I like the sophisticated brushwork,40,120,20","Daniel","It looks like a murder scene.,-48,100,20","Alex","very creative work.,36,40,20","Jack","I like the sophisticated brushwork,40,120,20","0"
"44287","","survey-text","27","210278","0.0-27.0-0.0","A2ML4TEAJTDQD0","","","","{""Q0"":""the colors and strokes makes this painting seem still, stagnant""}","","","","","","","","","","","","","","","","","","","","","","",""
"2701.300000011921","","image-slider-response","28","212982","0.0-28.0","A2ML4TEAJTDQD0","","","","","-27","","","","","","","","","","","","","","","","","","","","","",""
"2462","","image-button-response","29","217987","0.0-29.0","A2ML4TEAJTDQD0","img_art/ins/2.jpg","0","","","","","","","","","","","","","","","","","","","","","","","","",""
"7026","","image-button-response","30","225014","0.0-30.0","A2ML4TEAJTDQD0","img_art/ins/2.jpg","0","","","","","","","","","","","","","","","","","","","","","","","","",""
"5214","","image-button-response","31","230231","0.0-31.0-0.0","A2ML4TEAJTDQD0","img_art/ins/2.jpg","2","","","","","","","","","","","","","","","","","","","","","","","","",""
"1253","","image-button-response","32","231487","0.0-32.0-0.0","A2ML4TEAJTDQD0","img_art/ins/2.jpg","3","","","","","","","","","","","","","","","","","","","","","","","","",""
"null","","html-keyboard-response","33","232489","0.0-33.0","A2ML4TEAJTDQD0","<p style=""font-size: 48px;"">+</p>","","","","","null","allTrialResponses","1000","1","-1","img_art/ins/2.jpg","-27","the colors and strokes makes this painting seem still, stagnant","John,Alex,Kyle,James,Daniel,Jack","love the texture of paint,48,160,20","I like the blocks of color arrangements,30,40,20","Idk, it is just annoying,-32,180,20","looks too angry,-50,140,20","One of my pet peevs,-48,100,20","I would never be able to compose a sophisticated pallete like this,48,120,20","John","love the texture of paint,48,160,20","Kyle","Idk, it is just annoying,-32,180,20","James","looks too angry,-50,140,20","0"
"12992","","survey-text","34","245486","0.0-34.0-0.0","A2ML4TEAJTDQD0","","","","{""Q0"":""it looks cold and feels cold""}","","","","","","","","","","","","","","","","","","","","","","",""
"2270.099999964237","","image-slider-response","35","247758","0.0-35.0","A2ML4TEAJTDQD0","","","","","30","","","","","","","","","","","","","","","","","","","","","",""
"null","","image-button-response","36","252762","0.0-36.0","A2ML4TEAJTDQD0","img_art/ins/3.jpg","null","","","","","","","","","","","","","","","","","","","","","","","","",""
"1378","","image-button-response","37","254142","0.0-37.0","A2ML4TEAJTDQD0","img_art/ins/3.jpg","5","","","","","","","","","","","","","","","","","","","","","","","","",""
"5453","","image-button-response","38","259598","0.0-38.0-0.0","A2ML4TEAJTDQD0","img_art/ins/3.jpg","1","","","","","","","","","","","","","","","","","","","","","","","","",""
"2165","","image-button-response","39","261766","0.0-39.0-0.0","A2ML4TEAJTDQD0","img_art/ins/3.jpg","0","","","","","","","","","","","","","","","","","","","","","","","","",""
"null","","html-keyboard-response","40","263268","0.0-40.0","A2ML4TEAJTDQD0","<p style=""font-size: 48px;"">+</p>","","","","","null","allTrialResponses","1500","1","0","img_art/ins/3.jpg","30","it looks cold and feels cold","John,Mike,Kyle,James,Ron,Sam","I like the overlapping of brushes,41,160,20","enjoy the different shades of blue,22,200,20","It looks like a playground for bats,-36,180,20","My worst nightmare,-42,140,20","It looks depressing,-26,220,20","I can feel a rainy day from this painting,18,240,20","Sam","I can feel a rainy day from this painting,18,240,20","Mike","enjoy the different shades of blue,22,200,20","John","I like the overlapping of brushes,41,160,20","0"
"8459","","image-button-response_instructions","41","271734","0.0-41.0","A2ML4TEAJTDQD0","","0","instructions","","","","","","","","","","","","","","","","","","","","","","","",""
"18758","","survey-likert","42","290495","0.0-42.0-0.0","A2ML4TEAJTDQD0","","","","{""Q0"":"""",""Q1"":0,""Q2"":1}","","","","","","","","","","","","","","","","","","","","","","",""
"4199","","survey-text","43","294702","0.0-43.0-0.0","A2ML4TEAJTDQD0","","","","{""Q0"":""rock""}","","","","","","","","","","","","","","","","","","","","","","",""
"20317","","survey-text","44","315022","0.0-44.0-0.0","A2ML4TEAJTDQD0","","","","{""Q0"":""this feels uncomfortable to look at""}","","","","","","","","","","","","","","","","","","","","","","",""
"2565.7000000476837","","image-slider-response","45","317590","0.0-45.0","A2ML4TEAJTDQD0","","","","","-45","","","","","","","","","","","","","","","","","","","","","",""
"null","","image-button-response","46","322612","0.0-46.0","A2ML4TEAJTDQD0","img_art/4.jpg","null","","","","","","","","","","","","","","","","","","","","","","","","",""
"712","","image-button-response","47","323327","0.0-47.0","A2ML4TEAJTDQD0","img_art/4.jpg","2","","","","","","","","","","","","","","","","","","","","","","","","",""
"2309","","image-button-response","48","325639","0.0-48.0-0.0","A2ML4TEAJTDQD0","img_art/4.jpg","4","","","","","","","","","","","","","","","","","","","","","","","","",""
"2165","","image-button-response","49","327807","0.0-49.0-0.0","A2ML4TEAJTDQD0","img_art/4.jpg","5","","","","","","","","","","","","","","","","","","","","","","","","",""
"null","","html-keyboard-response","50","329323","0.0-50.0","A2ML4TEAJTDQD0","<p style=""font-size: 48px;"">+</p>","","","","","null","allTrialResponses","1500","1","1","img_art/4.jpg","-45","this feels uncomfortable to look at","Jeffrey,Taylor,Stephen,Lucas,Blake,Angel","Easy and relaxing,23,40,20","They give out trophies now for fighting with brass knuckles?,-20,200,20","Just doesn't look nice.,-40,140,20","Not bad at all.,20,380,20","ugly puke yellow is cold and dark,-29,280,20","I feel kind of guilty looking at this, like I'm receiving a reward I don't I deserve.,-10,180,20","Stephen","Just doesn't look nice.,-40,140,20","Blake","ugly puke yellow is cold and dark,-29,280,20","Angel","I feel kind of guilty looking at this, like I'm receiving a reward I don't I deserve.,-10,180,20","0"
"35318","","survey-text","51","364647","0.0-51.0-0.0","A2ML4TEAJTDQD0","","","","{""Q0"":""It looks like city skyline""}","","","","","","","","","","","","","","","","","","","","","","",""
"2005.300000011921","","image-slider-response","52","366655","0.0-52.0","A2ML4TEAJTDQD0","","","","","36","","","","","","","","","","","","","","","","","","","","","",""
"null","","image-button-response","53","371666","0.0-53.0","A2ML4TEAJTDQD0","img_art/11.jpg","null","","","","","","","","","","","","","","","","","","","","","","","","",""
"2106","","image-button-response","54","373775","0.0-54.0","A2ML4TEAJTDQD0","img_art/11.jpg","0","","","","","","","","","","","","","","","","","","","","","","","","",""
"2246","","image-button-response","55","376023","0.0-55.0-0.0","A2ML4TEAJTDQD0","img_art/11.jpg","0","","","","","","","","","","","","","","","","","","","","","","","","",""
"647","","image-button-response","56","379927","0.0-55.1-0.1","A2ML4TEAJTDQD0","img_art/11.jpg","3","","","","","","","","","","","","","","","","","","","","","","","","",""
"8085","","image-button-response","57","388015","0.0-56.0-0.0","A2ML4TEAJTDQD0","img_art/11.jpg","1","","","","","","","","","","","","","","","","","","","","","","","","",""
"null","","html-keyboard-response","58","389519","0.0-57.0","A2ML4TEAJTDQD0","<p style=""font-size: 48px;"">+</p>","","","","","null","allTrialResponses","1500","1","2","img_art/11.jpg","36","It looks like city skyline","Benjamin,Richard,Stephen,Colton,Blake,Angel","Look like it's in constant movement.,10,260,20","I like this one mostly a good combination of colors and light and dark,12,340,20","Very good use of colors,44,140,20","the wavy lines are nice and pleasing,13,220,20","a train going around the country,14,280,20","This is disorienting, like motion sickness.,-20,180,20","Benjamin","Look like it's in constant movement.,10,260,20","Colton","the wavy lines are nice and pleasing,13,220,20","Richard","I like this one mostly a good combination of colors and light and dark,12,340,20","2"
"20673","","survey-text","59","410198","0.0-58.0-0.0","A2ML4TEAJTDQD0","","","","{""Q0"":""feels like evening time""}","","","","","","","","","","","","","","","","","","","","","","",""
"1693.7000000476837","","image-slider-response","60","411894","0.0-59.0","A2ML4TEAJTDQD0","","","","","-43","","","","","","","","","","","","","","","","","","","","","",""
"null","","image-button-response","61","416897","0.0-60.0","A2ML4TEAJTDQD0","img_art/22.jpg","null","","","","","","","","","","","","","","","","","","","","","","","","",""
"2036","","image-button-response","62","418935","0.0-61.0","A2ML4TEAJTDQD0","img_art/22.jpg","1","","","","","","","","","","","","","","","","","","","","","","","","",""
"6142","","image-button-response","63","425078","0.0-62.0-0.0","A2ML4TEAJTDQD0","img_art/22.jpg","3","","","","","","","","","","","","","","","","","","","","","","","","",""
"2277","","image-button-response","64","427359","0.0-63.0-0.0","A2ML4TEAJTDQD0","img_art/22.jpg","5","","","","","","","","","","","","","","","","","","","","","","","","",""
"null","","html-keyboard-response","65","428366","0.0-64.0","A2ML4TEAJTDQD0","<p style=""font-size: 48px;"">+</p>","","","","","null","allTrialResponses","1000","1","3","img_art/22.jpg","-43","feels like evening time","Benjamin,Richard,Mitchell,Colton,Jorge,Christian","Colors are bright and cheerful.,5,260,20","another OK work, mostly because of the blend of colors,12,340,20","Scary monsters lurking causing confusion.,-40,180,20","I enjoy the colors used,24,220,20","A key to the unknown,15,180,20","colorful water (in front of castle?),17,140,20","Richard","another OK work, mostly because of the blend of colors,12,340,20","Colton","I enjoy the colors used,24,220,20","Christian","colorful water (in front of castle?),17,140,20","2"
"17386","","survey-text","66","445758","0.0-65.0-0.0","A2ML4TEAJTDQD0","","","","{""Q0"":""I like how this has depth to it""}","","","","","","","","","","","","","","","","","","","","","","",""
"4653.800000011921","","image-slider-response","67","450414","0.0-66.0","A2ML4TEAJTDQD0","","","","","46","","","","","","","","","","","","","","","","","","","","","",""
"null","","image-button-response","68","455426","0.0-67.0","A2ML4TEAJTDQD0","img_art/13.jpg","null","","","","","","","","","","","","","","","","","","","","","","","","",""
"801","","image-button-response","69","456231","0.0-68.0","A2ML4TEAJTDQD0","img_art/13.jpg","2","","","","","","","","","","","","","","","","","","","","","","","","",""
"7413","","image-button-response","70","463646","0.0-69.0-0.0","A2ML4TEAJTDQD0","img_art/13.jpg","3","","","","","","","","","","","","","","","","","","","","","","","","",""
"2934","","image-button-response","71","466583","0.0-70.0-0.0","A2ML4TEAJTDQD0","img_art/13.jpg","0","","","","","","","","","","","","","","","","","","","","","","","","",""
"null","","html-keyboard-response","72","467085","0.0-71.0","A2ML4TEAJTDQD0","<p style=""font-size: 48px;"">+</p>","","","","","null","allTrialResponses","500","1","4","img_art/13.jpg","46","I like how this has depth to it","Peter,Richard,Mark,Colton,Edward,Christian","Reminds me of the aquarium,4,320,20","kind of like the pattern and colors but don't love it,13,340,20","Raindrops on a window. Makes me feel like traveling.,31,80,20","love the colors and splatters,44,220,20","The colors are really pretty together,39,60,20","love the style but not very novel,9,140,20","Mark","Raindrops on a window. Makes me feel like traveling.,31,80,20","Colton","love the colors and splatters,44,220,20","Peter","Reminds me of the aquarium,4,320,20","2"
"14995","","survey-text","73","482086","0.0-72.0-0.0","A2ML4TEAJTDQD0","","","","{""Q0"":""feels too cartoonish""}","","","","","","","","","","","","","","","","","","","","","","",""
"2653.5","","image-slider-response","74","484742","0.0-73.0","A2ML4TEAJTDQD0","","","","","-50","","","","","","","","","","","","","","","","","","","","","",""
"null","","image-button-response","75","489749","0.0-74.0","A2ML4TEAJTDQD0","img_art/8.jpg","null","","","","","","","","","","","","","","","","","","","","","","","","",""
"8055","","image-button-response","76","497807","0.0-75.0","A2ML4TEAJTDQD0","img_art/8.jpg","0","","","","","","","","","","","","","","","","","","","","","","","","",""
"2564","","image-button-response","77","500374","0.0-76.0-0.0","A2ML4TEAJTDQD0","img_art/8.jpg","1","","","","","","","","","","","","","","","","","","","","","","","","",""
"9550","","image-button-response","78","509927","0.0-77.0-0.0","A2ML4TEAJTDQD0","img_art/8.jpg","4","","","","","","","","","","","","","","","","","","","","","","","","",""
"null","","html-keyboard-response","79","510929","0.0-78.0","A2ML4TEAJTDQD0","<p style=""font-size: 48px;"">+</p>","","","","","null","allTrialResponses","1000","1","5","img_art/8.jpg","-50","feels too cartoonish","Peter,Jack,Mark,Colton,Jared,Jose","I see water and structures that resemble Ancient Rome,15,320,20","beautiful colors & details. love the surrealism & strange angle. the faces are interesting.,50,320,20","The face makes me think its a statement of the almighty of big brother watching us. onfuCsion limits my enjoyment.,6,80,20","looks like an aerial view, very pretty,32,220,20","i love the colors, the church and the face,42,400,20","This is really cool, I love the fragments of faces,38,200,20","Peter","I see water and structures that resemble Ancient Rome,15,320,20","Jack","beautiful colors & details. love the surrealism & strange angle. the faces are interesting.,50,320,20","Jared","i love the colors, the church and the face,42,400,20","2"
"3900","","survey-text","80","514837","0.0-79.0-0.0","A2ML4TEAJTDQD0","","","","{""Q0"":""sky""}","","","","","","","","","","","","","","","","","","","","","","",""
"26782","","survey-text","81","541622","0.0-80.0-0.0","A2ML4TEAJTDQD0","","","","{""Q0"":""interesting stroke variations and textures.""}","","","","","","","","","","","","","","","","","","","","","","",""
"1949.8999999761581","","image-slider-response","82","543574","0.0-81.0","A2ML4TEAJTDQD0","","","","","32","","","","","","","","","","","","","","","","","","","","","",""
"null","","image-button-response","83","548581","0.0-82.0","A2ML4TEAJTDQD0","img_art/10.jpg","null","","","","","","","","","","","","","","","","","","","","","","","","",""
"4200","","image-button-response","84","552783","0.0-83.0","A2ML4TEAJTDQD0","img_art/10.jpg","3","","","","","","","","","","","","","","","","","","","","","","","","",""
"3237","","image-button-response","85","556022","0.0-84.0-0.0","A2ML4TEAJTDQD0","img_art/10.jpg","5","","","","","","","","","","","","","","","","","","","","","","","","",""
"7381","","image-button-response","86","563406","0.0-85.0-0.0","A2ML4TEAJTDQD0","img_art/10.jpg","2","","","","","","","","","","","","","","","","","","","","","","","","",""
"null","","html-keyboard-response","87","564409","0.0-86.0","A2ML4TEAJTDQD0","<p style=""font-size: 48px;"">+</p>","","","","","null","allTrialResponses","1000","1","6","img_art/10.jpg","32","interesting stroke variations and textures.","Peter,Jack,Tanner,Thomas,Jared,Jacob","I don't hate but don't like it because it looks like a oil slick,2,320,20","this piece is okay. I wish it was more colorful, but it is certainly intriguing.,23,320,20","music, serenity, love,33,180,20","Makes me want to know more about it, and potentially the artist.,20,220,20","it just doesnt appeal to me.,-10,400,20","I feel like this has a cool concept behind it.,11,340,20","Thomas","Makes me want to know more about it, and potentially the artist.,20,220,20","Jacob","I feel like this has a cool concept behind it.,11,340,20","Tanner","music, serenity, love,33,180,20","2"
"27320","","survey-text","88","591734","0.0-87.0-0.0","A2ML4TEAJTDQD0","","","","{""Q0"":""There are great cloudy textures and color dramatics.""}","","","","","","","","","","","","","","","","","","","","","","",""
"2741.600000023842","","image-slider-response","89","594478","0.0-88.0","A2ML4TEAJTDQD0","","","","","40","","","","","","","","","","","","","","","","","","","","","",""
"null","","image-button-response","90","599493","0.0-89.0","A2ML4TEAJTDQD0","img_art/21.jpg","null","","","","","","","","","","","","","","","","","","","","","","","","",""
"1040","","image-button-response","91","600534","0.0-90.0","A2ML4TEAJTDQD0","img_art/21.jpg","0","","","","","","","","","","","","","","","","","","","","","","","","",""
"10685","","image-button-response","92","611223","0.0-91.0-0.0","A2ML4TEAJTDQD0","img_art/21.jpg","5","","","","","","","","","","","","","","","","","","","","","","","","",""
"8437","","image-button-response","93","619663","0.0-92.0-0.0","A2ML4TEAJTDQD0","img_art/21.jpg","1","","","","","","","","","","","","","","","","","","","","","","","","",""
"null","","html-keyboard-response","94","620674","0.0-93.0","A2ML4TEAJTDQD0","<p style=""font-size: 48px;"">+</p>","","","","","null","allTrialResponses","1000","1","7","img_art/21.jpg","40","There are great cloudy textures and color dramatics.","Brendan,Carlos,Tanner,Thomas,Shane,Jacob","looks like a sea during some war,27,340,20","Motion, the light marks in the lower right corner are very appealing.,15,80,20","calm, ship at sea, sunset,16,180,20","Again, I love the use of color,50,220,20","It reminds me of war, red blood and dark blue reminds me of an army,-20,80,20","I like how the colors blend together like a beautiful sunset.,25,340,20","Brendan","looks like a sea during some war,27,340,20","Jacob","I like how the colors blend together like a beautiful sunset.,25,340,20","Carlos","Motion, the light marks in the lower right corner are very appealing.,15,80,20","2"
"20118","","survey-text","95","640798","0.0-94.0-0.0","A2ML4TEAJTDQD0","","","","{""Q0"":""There is good motion in this piece.""}","","","","","","","","","","","","","","","","","","","","","","",""
"1541.300000011921","","image-slider-response","96","642342","0.0-95.0","A2ML4TEAJTDQD0","","","","","-14","","","","","","","","","","","","","","","","","","","","","",""
"null","","image-button-response","97","647361","0.0-96.0","A2ML4TEAJTDQD0","img_art/30.jpg","null","","","","","","","","","","","","","","","","","","","","","","","","",""
"1026","","image-button-response","98","648390","0.0-97.0","A2ML4TEAJTDQD0","img_art/30.jpg","1","","","","","","","","","","","","","","","","","","","","","","","","",""
"7342","","image-button-response","99","655735","0.0-98.0-0.0","A2ML4TEAJTDQD0","img_art/30.jpg","5","","","","","","","","","","","","","","","","","","","","","","","","",""
"6132","","image-button-response","100","661870","0.0-99.0-0.0","A2ML4TEAJTDQD0","img_art/30.jpg","2","","","","","","","","","","","","","","","","","","","","","","","","",""
"null","","html-keyboard-response","101","662875","0.0-100.0","A2ML4TEAJTDQD0","<p style=""font-size: 48px;"">+</p>","","","","","null","allTrialResponses","1000","1","8","img_art/30.jpg","-14","There is good motion in this piece.","Brendan,Carlos,Jesus,Jeremy,Cole,Jacob","i cant really get it,-35,340,20","It just feels hasty and not well composed. Has an angsty teen feel,-31,80,20","I like the forefront design.,10,100,20","Happy. Makes me think of childhood finger painting,49,60,20","Its ugly. Too simple,-23,200,20","Looks cool , but no meaning,1,340,20","Carlos","It just feels hasty and not well composed. Has an angsty teen feel,-31,80,20","Jacob","Looks cool , but no meaning,1,340,20","Jesus","I like the forefront design.,10,100,20","2"
"17118","","survey-text","102","679998","0.0-101.0-0.0","A2ML4TEAJTDQD0","","","","{""Q0"":""it reminds me of a dinner table""}","","","","","","","","","","","","","","","","","","","","","","",""
"2542.199999988079","","image-slider-response","103","682542","0.0-102.0","A2ML4TEAJTDQD0","","","","","-48","","","","","","","","","","","","","","","","","","","","","",""
"null","","image-button-response","104","687552","0.0-103.0","A2ML4TEAJTDQD0","img_art/2.jpg","null","","","","","","","","","","","","","","","","","","","","","","","","",""
"3109","","image-button-response","105","690663","0.0-104.0","A2ML4TEAJTDQD0","img_art/2.jpg","5","","","","","","","","","","","","","","","","","","","","","","","","",""
"2565","","image-button-response","106","693231","0.0-105.0-0.0","A2ML4TEAJTDQD0","img_art/2.jpg","2","","","","","","","","","","","","","","","","","","","","","","","","",""
"2285","","image-button-response","107","695519","0.0-106.0-0.0","A2ML4TEAJTDQD0","img_art/2.jpg","1","","","","","","","","","","","","","","","","","","","","","","","","",""
"null","","html-keyboard-response","108","696525","0.0-107.0","A2ML4TEAJTDQD0","<p style=""font-size: 48px;"">+</p>","","","","","null","allTrialResponses","1000","1","9","img_art/2.jpg","-48","it reminds me of a dinner table","Anthony,Carlos,Jesus,Spencer,Derek,Jacob","Ugly color scheme,-50,200,20","The colors are soothing, but the composition feels thoughtless.,-11,80,20","Muted green is overpowering,-10,100,20","Kind of looks upside down, I need a focal point,-29,120,20","Not my favorite but I can see this being hung in a art museum,25,360,20","I don't get the meaning of this piece either.,-13,340,20","Jacob","I don't get the meaning of this piece either.,-13,340,20","Jesus","Muted green is overpowering,-10,100,20","Carlos","The colors are soothing, but the composition feels thoughtless.,-11,80,20","2"
"17590","","survey-text","109","714118","0.0-108.0-0.0","A2ML4TEAJTDQD0","","","","{""Q0"":""this piece is very busy""}","","","","","","","","","","","","","","","","","","","","","","",""
"1661.6000000238419","","image-slider-response","110","715783","0.0-109.0","A2ML4TEAJTDQD0","","","","","-27","","","","","","","","","","","","","","","","","","","","","",""
"null","","image-button-response","111","720790","0.0-110.0","A2ML4TEAJTDQD0","img_art/19.jpg","null","","","","","","","","","","","","","","","","","","","","","","","","",""
"935","","image-button-response","112","721727","0.0-111.0","A2ML4TEAJTDQD0","img_art/19.jpg","0","","","","","","","","","","","","","","","","","","","","","","","","",""
"9478","","image-button-response","113","731207","0.0-112.0-0.0","A2ML4TEAJTDQD0","img_art/19.jpg","3","","","","","","","","","","","","","","","","","","","","","","","","",""
"5229","","image-button-response","114","736439","0.0-113.0-0.0","A2ML4TEAJTDQD0","img_art/19.jpg","1","","","","","","","","","","","","","","","","","","","","","","","","",""
"null","","html-keyboard-response","115","736946","0.0-114.0","A2ML4TEAJTDQD0","<p style=""font-size: 48px;"">+</p>","","","","","null","allTrialResponses","500","1","10","img_art/19.jpg","-27","this piece is very busy","Devon,Carlos,Jesus,John,Steven,Jacob","this looks like a busy city lifestyle,24,400,20","I like the watercolor and colors, do not like the deconstructed city scene feel.,0,80,20","Shapes give it a feeling of being crowded,-18,100,20","There's alot of elements to it bordering on clutter and chaotic,-20,120,20","I like it, I see someone walking his dog in the early morning time,23,160,20","Vibrant and colorful,13,340,20","Devon","this looks like a busy city lifestyle,24,400,20","John","There's alot of elements to it bordering on clutter and chaotic,-20,120,20","Carlos","I like the watercolor and colors, do not like the deconstructed city scene feel.,0,80,20","2"
"3844","","survey-text","116","740798","0.0-115.0-0.0","A2ML4TEAJTDQD0","","","","{""Q0"":""our""}","","","","","","","","","","","","","","","","","","","","","","",""
"22342","","survey-text","117","763142","0.0-116.0-0.0","A2ML4TEAJTDQD0","","","","{""Q0"":""this piece is lacking something""}","","","","","","","","","","","","","","","","","","","","","","",""
"1645.6000000238419","","image-slider-response","118","764790","0.0-117.0","A2ML4TEAJTDQD0","","","","","-37","","","","","","","","","","","","","","","","","","","","","",""
"null","","image-button-response","119","769798","0.0-118.0","A2ML4TEAJTDQD0","img_art/5.jpg","null","","","","","","","","","","","","","","","","","","","","","","","","",""
"719","","image-button-response","120","770519","0.0-119.0","A2ML4TEAJTDQD0","img_art/5.jpg","0","","","","","","","","","","","","","","","","","","","","","","","","",""
"6110","","image-button-response","121","776631","0.0-120.0-0.0","A2ML4TEAJTDQD0","img_art/5.jpg","5","","","","","","","","","","","","","","","","","","","","","","","","",""
"949","","image-button-response","122","777583","0.0-121.0-0.0","A2ML4TEAJTDQD0","img_art/5.jpg","2","","","","","","","","","","","","","","","","","","","","","","","","",""
"null","","html-keyboard-response","123","779086","0.0-122.0","A2ML4TEAJTDQD0","<p style=""font-size: 48px;"">+</p>","","","","","null","allTrialResponses","1500","1","11","img_art/5.jpg","-37","this piece is lacking something","Devon,Carlos,Daniel,John,Jordan,Andrew","a bit confused about this picture,-9,400,20","It feels very strong and open.,31,80,20","Cop out, easy money for artist for a 4 min piece,-29,320,20","It has a sense of vague familiarity that i like.Like a stick starting a fire at a campsite.,30,120,20","Reminds me of a broken umbrella,-9,160,20","Doesn't make me think anything,-1,160,20","Devon","a bit confused about this picture,-9,400,20","Andrew","Doesn't make me think anything,-1,160,20","Daniel","Cop out, easy money for artist for a 4 min piece,-29,320,20","2"
"36579","","survey-text","124","815670","0.0-123.0-0.0","A2ML4TEAJTDQD0","","","","{""Q0"":""structured yet organic""}","","","","","","","","","","","","","","","","","","","","","","",""
"2525.699999988079","","image-slider-response","125","818199","0.0-124.0","A2ML4TEAJTDQD0","","","","","-30","","","","","","","","","","","","","","","","","","","","","",""
"null","","image-button-response","126","823215","0.0-125.0","A2ML4TEAJTDQD0","img_art/28.jpg","null","","","","","","","","","","","","","","","","","","","","","","","","",""
"3862","","image-button-response","127","827079","0.0-126.0","A2ML4TEAJTDQD0","img_art/28.jpg","4","","","","","","","","","","","","","","","","","","","","","","","","",""
"2701","","image-button-response","128","829783","0.0-127.0-0.0","A2ML4TEAJTDQD0","img_art/28.jpg","5","","","","","","","","","","","","","","","","","","","","","","","","",""
"2437","","image-button-response","129","832223","0.0-128.0-0.0","A2ML4TEAJTDQD0","img_art/28.jpg","2","","","","","","","","","","","","","","","","","","","","","","","","",""
"null","","html-keyboard-response","130","833726","0.0-129.0","A2ML4TEAJTDQD0","<p style=""font-size: 48px;"">+</p>","","","","","null","allTrialResponses","1500","1","12","img_art/28.jpg","-30","structured yet organic","Devon,Scott,Daniel,Brandon,Devin,Andrew","i'm not too impressed with this one.,-10,400,20","I don't like the color choice,-30,20,20","Compact grey mess lack negative space,-10,320,20","Interesting. I like the ""old woman"" on the left. Lots of different entities to look at,21,320,20","It is a bit drab,-10,380,20","Doesn't give me an emotional response,0,160,20","Devin","It is a bit drab,-10,380,20","Andrew","Doesn't give me an emotional response,0,160,20","Daniel","Compact grey mess lack negative space,-10,320,20","2"
"20618","","survey-text","131","854350","0.0-130.0-0.0","A2ML4TEAJTDQD0","","","","{""Q0"":""looks like a dead shrub""}","","","","","","","","","","","","","","","","","","","","","","",""
"2079.100000023842","","image-slider-response","132","856430","0.0-131.0","A2ML4TEAJTDQD0","","","","","-32","","","","","","","","","","","","","","","","","","","","","",""
"null","","image-button-response","133","861440","0.0-132.0","A2ML4TEAJTDQD0","img_art/14.jpg","null","","","","","","","","","","","","","","","","","","","","","","","","",""
"981","","image-button-response","134","862423","0.0-133.0","A2ML4TEAJTDQD0","img_art/14.jpg","2","","","","","","","","","","","","","","","","","","","","","","","","",""
"7734","","image-button-response","135","870159","0.0-134.0-0.0","A2ML4TEAJTDQD0","img_art/14.jpg","5","","","","","","","","","","","","","","","","","","","","","","","","",""
"4460","","image-button-response","136","874622","0.0-135.0-0.0","A2ML4TEAJTDQD0","img_art/14.jpg","0","","","","","","","","","","","","","","","","","","","","","","","","",""
"null","","html-keyboard-response","137","875625","0.0-136.0","A2ML4TEAJTDQD0","<p style=""font-size: 48px;"">+</p>","","","","","null","allTrialResponses","1000","1","13","img_art/14.jpg","-32","looks like a dead shrub","Charles,Hunter,Daniel,Juan,Devin,Andrew","In some ways it looks natural, but I'm just not feeling it,0,100,20","makes me feel sad,-2,240,20","Baby's room palette with tree confusion in a more confused substrate.,-15,320,20","I don't like the colors, but I espeically don't like all the negative space.,-20,260,20","It looks nice colorwise but detail is lacking,18,380,20","Makes me think of my plants growing,11,160,20","Daniel","Baby's room palette with tree confusion in a more confused substrate.,-15,320,20","Andrew","Makes me think of my plants growing,11,160,20","Charles","In some ways it looks natural, but I'm just not feeling it,0,100,20","2"
"9016","","survey-text","138","884646","0.0-137.0-0.0","A2ML4TEAJTDQD0","","","","{""Q0"":""looks like beach sand""}","","","","","","","","","","","","","","","","","","","","","","",""
"2053.300000011921","","image-slider-response","139","886703","0.0-138.0","A2ML4TEAJTDQD0","","","","","-42","","","","","","","","","","","","","","","","","","","","","",""
"null","","image-button-response","140","891715","0.0-139.0","A2ML4TEAJTDQD0","img_art/7.jpg","null","","","","","","","","","","","","","","","","","","","","","","","","",""
"1738","","image-button-response","141","893455","0.0-140.0","A2ML4TEAJTDQD0","img_art/7.jpg","0","","","","","","","","","","","","","","","","","","","","","","","","",""
"1446","","image-button-response","142","894902","0.0-141.0-0.0","A2ML4TEAJTDQD0","img_art/7.jpg","3","","","","","","","","","","","","","","","","","","","","","","","","",""
"7423","","image-button-response","143","902327","0.0-142.0-0.0","A2ML4TEAJTDQD0","img_art/7.jpg","1","","","","","","","","","","","","","","","","","","","","","","","","",""
"null","","html-keyboard-response","144","903328","0.0-143.0","A2ML4TEAJTDQD0","<p style=""font-size: 48px;"">+</p>","","","","","null","allTrialResponses","1000","1","14","img_art/7.jpg","-42","looks like beach sand","Charles,Dalton,Daniel,Kyle,Caleb,Andrew","Looks like a bad picture of a beach,-21,100,20","i dont like it. it looks like rocks,-40,300,20","Great portrayal of solid surface,19,320,20","It just reminds me of dirt,-10,340,20","More saturated color, even more interpretations to have.,44,40,20","It makes me think of new archaeology discoveries,15,160,20","Charles","Looks like a bad picture of a beach,-21,100,20","Kyle","It just reminds me of dirt,-10,340,20","Dalton","i dont like it. it looks like rocks,-40,300,20","2"
"39039","","survey-text","145","942374","0.0-144.0-0.0","A2ML4TEAJTDQD0","","","","{""Q0"":""i don't like the concept or the overused style.""}","","","","","","","","","","","","","","","","","","","","","","",""
"2421.900000035763","","image-slider-response","146","944798","0.0-145.0","A2ML4TEAJTDQD0","","","","","-50","","","","","","","","","","","","","","","","","","","","","",""
"null","","image-button-response","147","949801","0.0-146.0","A2ML4TEAJTDQD0","img_art/25.jpg","null","","","","","","","","","","","","","","","","","","","","","","","","",""
"13644","","image-button-response","148","963447","0.0-147.0","A2ML4TEAJTDQD0","img_art/25.jpg","4","","","","","","","","","","","","","","","","","","","","","","","","",""
"2316","","image-button-response","149","965766","0.0-148.0-0.0","A2ML4TEAJTDQD0","img_art/25.jpg","5","","","","","","","","","","","","","","","","","","","","","","","","",""
"1669","","image-button-response","150","967438","0.0-149.0-0.0","A2ML4TEAJTDQD0","img_art/25.jpg","0","","","","","","","","","","","","","","","","","","","","","","","","",""
"null","","html-keyboard-response","151","968942","0.0-150.0","A2ML4TEAJTDQD0","<p style=""font-size: 48px;"">+</p>","","","","","null","allTrialResponses","1500","1","15","img_art/25.jpg","-50","i don't like the concept or the overused style.","Charles,Dalton,Alexander,Kyle,Bryan,Justin","Cult-like, which to me makes it kind of creepy,-21,100,20","This reminds me of royalty and servants.,32,300,20","Ancient gods above you.,20,120,20","I liked it as it seems unique in a way,21,340,20","Scary. Something out of a Stephen King book/movie.,-31,400,20","It's a rather intriguing design,12,280,20","Bryan","Scary. Something out of a Stephen King book/movie.,-31,400,20","Justin","It's a rather intriguing design,12,280,20","Charles","Cult-like, which to me makes it kind of creepy,-21,100,20","2"
"4343","","survey-text","152","973294","0.0-151.0-0.0","A2ML4TEAJTDQD0","","","","{""Q0"":""course""}","","","","","","","","","","","","","","","","","","","","","","",""
"11711","","survey-text","153","985006","0.0-152.0-0.0","A2ML4TEAJTDQD0","","","","{""Q0"":""looks like an oyster""}","","","","","","","","","","","","","","","","","","","","","","",""
"2741.800000011921","","image-slider-response","154","987750","0.0-153.0","A2ML4TEAJTDQD0","","","","","-50","","","","","","","","","","","","","","","","","","","","","",""
"null","","image-button-response","155","992755","0.0-154.0","A2ML4TEAJTDQD0","img_art/9.jpg","null","","","","","","","","","","","","","","","","","","","","","","","","",""
"489","","image-button-response","156","993247","0.0-155.0","A2ML4TEAJTDQD0","img_art/9.jpg","0","","","","","","","","","","","","","","","","","","","","","","","","",""
"2470","","image-button-response","157","995719","0.0-156.0-0.0","A2ML4TEAJTDQD0","img_art/9.jpg","3","","","","","","","","","","","","","","","","","","","","","","","","",""
"1612","","image-button-response","158","997335","0.0-157.0-0.0","A2ML4TEAJTDQD0","img_art/9.jpg","4","","","","","","","","","","","","","","","","","","","","","","","","",""
"null","","html-keyboard-response","159","998343","0.0-158.0","A2ML4TEAJTDQD0","<p style=""font-size: 48px;"">+</p>","","","","","null","allTrialResponses","1000","1","16","img_art/9.jpg","-50","looks like an oyster","Charles,David,Michael,Bryce,Bryan,Justin","It's too all over the place,-37,100,20","I like how design can be interpreted differently, I see a person sleeping or a mountainous region.,10,340,20","Looks like a young child drew it.,-45,140,20","Looks like a crayon drawing.,21,20,20","Huh?  Doesn't invoke much.,-37,400,20","It reminds me of an illustration for a fairy tale.,19,280,20","Charles","It's too all over the place,-37,100,20","Bryce","Looks like a crayon drawing.,21,20,20","Bryan","Huh?  Doesn't invoke much.,-37,400,20","2"
"9497","","survey-text","160","1007846","0.0-159.0-0.0","A2ML4TEAJTDQD0","","","","{""Q0"":""blue bonnets""}","","","","","","","","","","","","","","","","","","","","","","",""
"2389.900000035763","","image-slider-response","161","1010238","0.0-160.0","A2ML4TEAJTDQD0","","","","","-50","","","","","","","","","","","","","","","","","","","","","",""
"null","","image-button-response","162","1015254","0.0-161.0","A2ML4TEAJTDQD0","img_art/15.jpg","null","","","","","","","","","","","","","","","","","","","","","","","","",""
"1670","","image-button-response","163","1016927","0.0-162.0","A2ML4TEAJTDQD0","img_art/15.jpg","0","","","","","","","","","","","","","","","","","","","","","","","","",""
"5022","","image-button-response","164","1021951","0.0-163.0-0.0","A2ML4TEAJTDQD0","img_art/15.jpg","5","","","","","","","","","","","","","","","","","","","","","","","","",""
"3357","","image-button-response","165","1025311","0.0-164.0-0.0","A2ML4TEAJTDQD0","img_art/15.jpg","1","","","","","","","","","","","","","","","","","","","","","","","","",""
"null","","html-keyboard-response","166","1026822","0.0-165.0","A2ML4TEAJTDQD0","<p style=""font-size: 48px;"">+</p>","","","","","null","allTrialResponses","1500","1","17","img_art/15.jpg","-50","blue bonnets","Charles,Sean,Brett,Bryce,Bryan,James","it looks like lavender,10,100,20","my response to the picture is that I dont know what I am looking at,-25,40,20","I don't know how I feel about this,31,360,20","The dots are cool with the blue accents.,24,20,20","Interesting. Reminds me of a biopsy slide.,21,400,20","No opinion truthfully,1,380,20","Charles","it looks like lavender,10,100,20","James","No opinion truthfully,1,380,20","Sean","my response to the picture is that I dont know what I am looking at,-25,40,20","2"
"13098","","survey-text","167","1039926","0.0-166.0-0.0","A2ML4TEAJTDQD0","","","","{""Q0"":""reminds me of a growing plant""}","","","","","","","","","","","","","","","","","","","","","","",""
"2861","","image-slider-response","168","1042790","0.0-167.0","A2ML4TEAJTDQD0","","","","","-50","","","","","","","","","","","","","","","","","","","","","",""
"null","","image-button-response","169","1047798","0.0-168.0","A2ML4TEAJTDQD0","img_art/6.jpg","null","","","","","","","","","","","","","","","","","","","","","","","","",""
"3966","","image-button-response","170","1051767","0.0-169.0","A2ML4TEAJTDQD0","img_art/6.jpg","3","","","","","","","","","","","","","","","","","","","","","","","","",""
"3141","","image-button-response","171","1054911","0.0-170.0-0.0","A2ML4TEAJTDQD0","img_art/6.jpg","4","","","","","","","","","","","","","","","","","","","","","","","","",""
"1253","","image-button-response","172","1056167","0.0-171.0-0.0","A2ML4TEAJTDQD0","img_art/6.jpg","1","","","","","","","","","","","","","","","","","","","","","","","","",""
"null","","html-keyboard-response","173","1056669","0.0-172.0","A2ML4TEAJTDQD0","<p style=""font-size: 48px;"">+</p>","","","","","null","allTrialResponses","500","1","18","img_art/6.jpg","-50","reminds me of a growing plant","Charles,Sean,Mason,Antonio,Ryan,James","It's pretty dour,-10,100,20","reminds me a giant peach,19,40,20","kids book cover, uninteresting.,-10,100,20","Lonely and kinda sad,-25,220,20","Makes me feel lonely,-22,380,20","Nice desert scene,10,380,20","Antonio","Lonely and kinda sad,-25,220,20","Ryan","Makes me feel lonely,-22,380,20","Sean","reminds me a giant peach,19,40,20","2"
"20075","","survey-text","174","1076750","0.0-173.0-0.0","A2ML4TEAJTDQD0","","","","{""Q0"":""i like the gradual blend of style and color""}","","","","","","","","","","","","","","","","","","","","","","",""
"1773.6000000238419","","image-slider-response","175","1078526","0.0-174.0","A2ML4TEAJTDQD0","","","","","11","","","","","","","","","","","","","","","","","","","","","",""
"null","","image-button-response","176","1083541","0.0-175.0","A2ML4TEAJTDQD0","img_art/12.jpg","null","","","","","","","","","","","","","","","","","","","","","","","","",""
"1672","","image-button-response","177","1085215","0.0-176.0","A2ML4TEAJTDQD0","img_art/12.jpg","3","","","","","","","","","","","","","","","","","","","","","","","","",""
"1358","","image-button-response","178","1086575","0.0-177.0-0.0","A2ML4TEAJTDQD0","img_art/12.jpg","4","","","","","","","","","","","","","","","","","","","","","","","","",""
"964","","image-button-response","179","1087542","0.0-178.0-0.0","A2ML4TEAJTDQD0","img_art/12.jpg","5","","","","","","","","","","","","","","","","","","","","","","","","",""
"null","","html-keyboard-response","180","1089047","0.0-179.0","A2ML4TEAJTDQD0","<p style=""font-size: 48px;"">+</p>","","","","","null","allTrialResponses","1500","1","19","img_art/12.jpg","11","i like the gradual blend of style and color","Cameron,Sean,Trevor,Antonio,Ryan,Adam","Dislike the style, the sharp rectangular pattern very jarring.,-20,60,20","my reaction is that the picture is wierd,-11,40,20","way too 90s/80s for me,-9,280,20","I like the colors in both sections, brights compared to neutrals. Each block has a different view. I think of the future,11,220,20","The colors are beautiful and it has great composition,50,380,20","Minimalist colors and shapes.,-5,40,20","Antonio","I like the colors in both sections, brights compared to neutrals. Each block has a different view. I think of the future,11,220,20","Ryan","The colors are beautiful and it has great composition,50,380,20","Adam","Minimalist colors and shapes.,-5,40,20","2"
"17649","","survey-text","181","1106702","0.0-180.0-0.0","A2ML4TEAJTDQD0","","","","{""Q0"":""It's too artsy ""}","","","","","","","","","","","","","","","","","","","","","","",""
"2413.699999988079","","image-slider-response","182","1109118","0.0-181.0","A2ML4TEAJTDQD0","","","","","-50","","","","","","","","","","","","","","","","","","","","","",""
"null","","image-button-response","183","1114122","0.0-182.0","A2ML4TEAJTDQD0","img_art/16.jpg","null","","","","","","","","","","","","","","","","","","","","","","","","",""
"5442","","image-button-response","184","1119566","0.0-183.0","A2ML4TEAJTDQD0","img_art/16.jpg","3","","","","","","","","","","","","","","","","","","","","","","","","",""
"2909","","image-button-response","185","1122478","0.0-184.0-0.0","A2ML4TEAJTDQD0","img_art/16.jpg","1","","","","","","","","","","","","","","","","","","","","","","","","",""
"5501","","image-button-response","186","1127982","0.0-185.0-0.0","A2ML4TEAJTDQD0","img_art/16.jpg","5","","","","","","","","","","","","","","","","","","","","","","","","",""
"null","","html-keyboard-response","187","1128985","0.0-186.0","A2ML4TEAJTDQD0","<p style=""font-size: 48px;"">+</p>","","","","","null","allTrialResponses","1000","1","20","img_art/16.jpg","-50","It's too artsy ","Nathaniel,Joseph,Tristan,Antonio,Ryan,Adam","Creeps me out. Like..really creeps me out.,-48,220,20","Looks upsetting. Like it's actually graphic violence but you can't tell.,-24,220,20","visceral and a little disturbing.,10,300,20","Did not like at all. I think something sinister going on in the background and the bear a diversion,-50,220,20","Very modern, reminds me of bansky,43,380,20","Hard contrast, but no emotions towards any of the objects.,-6,40,20","Antonio","Did not like at all. I think something sinister going on in the background and the bear a diversion,-50,220,20","Joseph","Looks upsetting. Like it's actually graphic violence but you can't tell.,-24,220,20","Adam","Hard contrast, but no emotions towards any of the objects.,-6,40,20","2"
"2586","","survey-text","188","1131582","0.0-187.0-0.0","A2ML4TEAJTDQD0","","","","{""Q0"":""we""}","","","","","","","","","","","","","","","","","","","","","","",""
"43118","","survey-text","189","1174702","0.0-188.0-0.0","A2ML4TEAJTDQD0","","","","{""Q0"":""the colors are striking, complimentary and in contrast.""}","","","","","","","","","","","","","","","","","","","","","","",""
"2541.699999988079","","image-slider-response","190","1177246","0.0-189.0","A2ML4TEAJTDQD0","","","","","8","","","","","","","","","","","","","","","","","","","","","",""
"null","","image-button-response","191","1182252","0.0-190.0","A2ML4TEAJTDQD0","img_art/24.jpg","null","","","","","","","","","","","","","","","","","","","","","","","","",""
"2329","","image-button-response","192","1184583","0.0-191.0","A2ML4TEAJTDQD0","img_art/24.jpg","2","","","","","","","","","","","","","","","","","","","","","","","","",""
"1300","","image-button-response","193","1185886","0.0-192.0-0.0","A2ML4TEAJTDQD0","img_art/24.jpg","3","","","","","","","","","","","","","","","","","","","","","","","","",""
"2230","","image-button-response","194","1188118","0.0-193.0-0.0","A2ML4TEAJTDQD0","img_art/24.jpg","4","","","","","","","","","","","","","","","","","","","","","","","","",""
"null","","html-keyboard-response","195","1189121","0.0-194.0","A2ML4TEAJTDQD0","<p style=""font-size: 48px;"">+</p>","","","","","null","allTrialResponses","1000","1","21","img_art/24.jpg","8","the colors are striking, complimentary and in contrast.","Alejandro,Joseph,Jonathan,Antonio,Dustin,Adam","I don't like this painting because of its blottedness. It lacks conviction, direction and purpose.,-31,80,20","It looks like a poor dead bunny in a field of flowers. I don't want the bunny to be dead.,-37,220,20","The colors and brush strokes make it feel adventurous,20,140,20","Waterfalls and spring and gives me a sense of renewal,34,220,20","I see a waterfall, which is relaxing and peaceful!  I like the blue coloring,30,20,20","I appreciate the earth tones. Soothing.,5,40,20","Jonathan","The colors and brush strokes make it feel adventurous,20,140,20","Antonio","Waterfalls and spring and gives me a sense of renewal,34,220,20","Dustin","I see a waterfall, which is relaxing and peaceful!  I like the blue coloring,30,20,20","2"
"13391","","survey-text","196","1202518","0.0-195.0-0.0","A2ML4TEAJTDQD0","","","","{""Q0"":""intriguing, dark, gloomy.""}","","","","","","","","","","","","","","","","","","","","","","",""
"2325.5","","image-slider-response","197","1204845","0.0-196.0","A2ML4TEAJTDQD0","","","","","9","","","","","","","","","","","","","","","","","","","","","",""
"null","","image-button-response","198","1209862","0.0-197.0","A2ML4TEAJTDQD0","img_art/18.jpg","null","","","","","","","","","","","","","","","","","","","","","","","","",""
"3447","","image-button-response","199","1213311","0.0-198.0","A2ML4TEAJTDQD0","img_art/18.jpg","0","","","","","","","","","","","","","","","","","","","","","","","","",""
"3701","","image-button-response","200","1217015","0.0-199.0-0.0","A2ML4TEAJTDQD0","img_art/18.jpg","5","","","","","","","","","","","","","","","","","","","","","","","","",""
"5948","","image-button-response","201","1222966","0.0-200.0-0.0","A2ML4TEAJTDQD0","img_art/18.jpg","2","","","","","","","","","","","","","","","","","","","","","","","","",""
"null","","html-keyboard-response","202","1223468","0.0-201.0","A2ML4TEAJTDQD0","<p style=""font-size: 48px;"">+</p>","","","","","null","allTrialResponses","500","1","22","img_art/18.jpg","9","intriguing, dark, gloomy.","Bradley,Zachary,Jonathan,Antonio,Dustin,Logan","This one is very dark and apocalyptic indeed!,-30,300,20","This one seems rather ghoulish to me.,-41,400,20","There's danger in this painting and it's awesome,40,140,20","I think of the ocean and a boat tossed about on the waves. In the upper left is a figure. It is pleasant,30,220,20","Looks messy. Reminds me of a battle or war. I have an unpleasant feeling the more I look.,-20,20,20","Can't tell if I love it or hate it. That response warranted more than neutral so I gave it 20 but not sure,21,360,20","Bradley","This one is very dark and apocalyptic indeed!,-30,300,20","Logan","Can't tell if I love it or hate it. That response warranted more than neutral so I gave it 20 but not sure,21,360,20","Jonathan","There's danger in this painting and it's awesome,40,140,20","2"
"21379","","survey-text","203","1244854","0.0-202.0-0.0","A2ML4TEAJTDQD0","","","","{""Q0"":""Clear yet absurd.""}","","","","","","","","","","","","","","","","","","","","","","",""
"2397.7000000476837","","image-slider-response","204","1247255","0.0-203.0","A2ML4TEAJTDQD0","","","","","6","","","","","","","","","","","","","","","","","","","","","",""
"null","","image-button-response","205","1252273","0.0-204.0","A2ML4TEAJTDQD0","img_art/20.jpg","null","","","","","","","","","","","","","","","","","","","","","","","","",""
"5820","","image-button-response","206","1258095","0.0-205.0","A2ML4TEAJTDQD0","img_art/20.jpg","0","","","","","","","","","","","","","","","","","","","","","","","","",""
"5261","","image-button-response","207","1263359","0.0-206.0-0.0","A2ML4TEAJTDQD0","img_art/20.jpg","5","","","","","","","","","","","","","","","","","","","","","","","","",""
"9684","","image-button-response","208","1273046","0.0-207.0-0.0","A2ML4TEAJTDQD0","img_art/20.jpg","3","","","","","","","","","","","","","","","","","","","","","","","","",""
"null","","html-keyboard-response","209","1273548","0.0-208.0","A2ML4TEAJTDQD0","<p style=""font-size: 48px;"">+</p>","","","","","null","allTrialResponses","500","1","23","img_art/20.jpg","6","Clear yet absurd.","Bradley,Elijah,Jonathan,Travis,Corey,Logan","A truck rolled over?  I do like the pictures and the technique though.,25,300,20","Makes me feel impressed,9,80,20","This one feels scary in a bad way,-30,140,20","I liked this...I liked the blue and the black and I liked the smoothness to it.,31,260,20","It seems to be a neutral cool toned art piece. Gives me alamo/desert vibes,2,260,20","truck? train? dead cow? plane?,10,360,20","Bradley","A truck rolled over?  I do like the pictures and the technique though.,25,300,20","Logan","truck? train? dead cow? plane?,10,360,20","Travis","I liked this...I liked the blue and the black and I liked the smoothness to it.,31,260,20","2"
"27308","","survey-text","210","1300862","0.0-209.0-0.0","A2ML4TEAJTDQD0","","","","{""Q0"":""I like how the lines make this piece flow.""}","","","","","","","","","","","","","","","","","","","","","","",""
"1685.199999988079","","image-slider-response","211","1302550","0.0-210.0","A2ML4TEAJTDQD0","","","","","17","","","","","","","","","","","","","","","","","","","","","",""
"null","","image-button-response","212","1307565","0.0-211.0","A2ML4TEAJTDQD0","img_art/17.jpg","null","","","","","","","","","","","","","","","","","","","","","","","","",""
"1240","","image-button-response","213","1308807","0.0-212.0","A2ML4TEAJTDQD0","img_art/17.jpg","0","","","","","","","","","","","","","","","","","","","","","","","","",""
"12261","","image-button-response","214","1321070","0.0-213.0-0.0","A2ML4TEAJTDQD0","img_art/17.jpg","1","","","","","","","","","","","","","","","","","","","","","","","","",""
"1845","","image-button-response","215","1322918","0.0-214.0-0.0","A2ML4TEAJTDQD0","img_art/17.jpg","2","","","","","","","","","","","","","","","","","","","","","","","","",""
"null","","html-keyboard-response","216","1323920","0.0-215.0","A2ML4TEAJTDQD0","<p style=""font-size: 48px;"">+</p>","","","","","null","allTrialResponses","1000","1","24","img_art/17.jpg","17","I like how the lines make this piece flow.","Bradley,Luke,Patrick,Travis,Evan,Logan","It kind of pulls you in to float away with it.,9,300,20","it looks very intricate and colorful,50,20,20","Beautiful patterns but evokes sad emotions in me due to the color shades,31,280,20","Very pretty...the colors and good and flow well.,33,260,20","This reminds me of spring,24,140,20","similar to last one, still pretty cool but I liked arrangement of last one better,13,360,20","Bradley","It kind of pulls you in to float away with it.,9,300,20","Luke","it looks very intricate and colorful,50,20,20","Patrick","Beautiful patterns but evokes sad emotions in me due to the color shades,31,280,20","2"
"20959","","survey-text","217","1344886","0.0-216.0-0.0","A2ML4TEAJTDQD0","","","","{""Q0"":""It is too still.""}","","","","","","","","","","","","","","","","","","","","","","",""
"2093.699999988079","","image-slider-response","218","1346982","0.0-217.0","A2ML4TEAJTDQD0","","","","","-46","","","","","","","","","","","","","","","","","","","","","",""
"null","","image-button-response","219","1351993","0.0-218.0","A2ML4TEAJTDQD0","img_art/1.jpg","null","","","","","","","","","","","","","","","","","","","","","","","","",""
"459","","image-button-response","220","1352455","0.0-219.0","A2ML4TEAJTDQD0","img_art/1.jpg","2","","","","","","","","","","","","","","","","","","","","","","","","",""
"6269","","image-button-response","221","1358726","0.0-220.0-0.0","A2ML4TEAJTDQD0","img_art/1.jpg","4","","","","","","","","","","","","","","","","","","","","","","","","",""
"3261","","image-button-response","222","1361991","0.0-221.0-0.0","A2ML4TEAJTDQD0","img_art/1.jpg","3","","","","","","","","","","","","","","","","","","","","","","","","",""
"null","","html-keyboard-response","223","1362493","0.0-222.0","A2ML4TEAJTDQD0","<p style=""font-size: 48px;"">+</p>","","","","","null","allTrialResponses","500","1","25","img_art/1.jpg","-46","It is too still.","Bradley,Luke,Patrick,Cody,Isaiah,Jason","This is a great piece that has a lot more going on the longer you look at it. I like it!,30,300,20","it is very colorful and makes me happy,44,20,20","I feel uneasy looking at this,-41,280,20","Pretty, nice use of color,40,180,20","I feel relaxed, like I'm watching the leaves change color.,17,300,20","Interesting blend of colors,9,20,20","Patrick","I feel uneasy looking at this,-41,280,20","Isaiah","I feel relaxed, like I'm watching the leaves change color.,17,300,20","Cody","Pretty, nice use of color,40,180,20","2"
"4839","","survey-text","224","1367342","0.0-223.0-0.0","A2ML4TEAJTDQD0","","","","{""Q0"":""table""}","","","","","","","","","","","","","","","","","","","","","","",""
"8487","","survey-text","225","1375830","0.0-224.0-0.0","A2ML4TEAJTDQD0","","","","{""Q0"":""Too angsty.""}","","","","","","","","","","","","","","","","","","","","","","",""
"2709.899999976158","","image-slider-response","226","1378542","0.0-225.0","A2ML4TEAJTDQD0","","","","","-50","","","","","","","","","","","","","","","","","","","","","",""
"null","","image-button-response","227","1383554","0.0-226.0","A2ML4TEAJTDQD0","img_art/3.jpg","null","","","","","","","","","","","","","","","","","","","","","","","","",""
"539","","image-button-response","228","1384094","0.0-227.0","A2ML4TEAJTDQD0","img_art/3.jpg","0","","","","","","","","","","","","","","","","","","","","","","","","",""
"5975","","image-button-response","229","1390071","0.0-228.0-0.0","A2ML4TEAJTDQD0","img_art/3.jpg","5","","","","","","","","","","","","","","","","","","","","","","","","",""
"5411","","image-button-response","230","1395487","0.0-229.0-0.0","A2ML4TEAJTDQD0","img_art/3.jpg","2","","","","","","","","","","","","","","","","","","","","","","","","",""
"null","","html-keyboard-response","231","1395990","0.0-230.0","A2ML4TEAJTDQD0","<p style=""font-size: 48px;"">+</p>","","","","","null","allTrialResponses","500","1","26","img_art/3.jpg","-50","Too angsty.","Jesse,Vincent,Patrick,Cody,Isaiah,Adrian","No substance or feeling to it,-20,80,20","Iike this one it's a piece that I need to spend more time with to understand how i feel about it,20,360,20","Random use of red and looks scary,-50,280,20","Feels upset .......,-10,180,20","I feel uncomfortable, like I am looking at a crime scene.,-17,300,20","Angry red crayons, like a child throwing a tantrum. No thanks.,-10,60,20","Jesse","No substance or feeling to it,-20,80,20","Adrian","Angry red crayons, like a child throwing a tantrum. No thanks.,-10,60,20","Patrick","Random use of red and looks scary,-50,280,20","2"
"20729","","survey-text","232","1416726","0.0-231.0-0.0","A2ML4TEAJTDQD0","","","","{""Q0"":""It looks like people dancing.""}","","","","","","","","","","","","","","","","","","","","","","",""
"1829.3999999761581","","image-slider-response","233","1418558","0.0-232.0","A2ML4TEAJTDQD0","","","","","-27","","","","","","","","","","","","","","","","","","","","","",""
"null","","image-button-response","234","1423566","0.0-233.0","A2ML4TEAJTDQD0","img_art/23.jpg","null","","","","","","","","","","","","","","","","","","","","","","","","",""
"2942","","image-button-response","235","1426511","0.0-234.0","A2ML4TEAJTDQD0","img_art/23.jpg","2","","","","","","","","","","","","","","","","","","","","","","","","",""
"781","","image-button-response","236","1427295","0.0-235.0-0.0","A2ML4TEAJTDQD0","img_art/23.jpg","3","","","","","","","","","","","","","","","","","","","","","","","","",""
"7830","","image-button-response","237","1435127","0.0-236.0-0.0","A2ML4TEAJTDQD0","img_art/23.jpg","4","","","","","","","","","","","","","","","","","","","","","","","","",""
"null","","html-keyboard-response","238","1435629","0.0-237.0","A2ML4TEAJTDQD0","<p style=""font-size: 48px;"">+</p>","","","","","null","allTrialResponses","500","1","27","img_art/23.jpg","-27","It looks like people dancing.","Jesse,Isaac,Patrick,Connor,Chase,Adrian","Makes me want to stare at it for hours. Like there is something deeper to find.,37,80,20","I like the royal colors.,38,280,20","Beautiful color scheme,21,280,20","Confetti dancer,-7,240,20","It's kind of neat with the white slash marks.,13,120,20","Too much contrasting colors together. I hate it.,-50,60,20","Patrick","Beautiful color scheme,21,280,20","Connor","Confetti dancer,-7,240,20","Chase","It's kind of neat with the white slash marks.,13,120,20","2"
"43936","","survey-text","239","1479574","0.0-238.0-0.0","A2ML4TEAJTDQD0","","","","{""Q0"":""The style of this piece is done too death, it's not interesting.""}","","","","","","","","","","","","","","","","","","","","","","",""
"2109.600000023842","","image-slider-response","240","1481686","0.0-239.0","A2ML4TEAJTDQD0","","","","","-50","","","","","","","","","","","","","","","","","","","","","",""
"null","","image-button-response","241","1486693","0.0-240.0","A2ML4TEAJTDQD0","img_art/29.jpg","null","","","","","","","","","","","","","","","","","","","","","","","","",""
"790","","image-button-response","242","1487485","0.0-241.0","A2ML4TEAJTDQD0","img_art/29.jpg","0","","","","","","","","","","","","","","","","","","","","","","","","",""
"2599","","image-button-response","243","1490086","0.0-242.0-0.0","A2ML4TEAJTDQD0","img_art/29.jpg","4","","","","","","","","","","","","","","","","","","","","","","","","",""
"6372","","image-button-response","244","1496462","0.0-243.0-0.0","A2ML4TEAJTDQD0","img_art/29.jpg","2","","","","","","","","","","","","","","","","","","","","","","","","",""
"null","","html-keyboard-response","245","1496964","0.0-244.0","A2ML4TEAJTDQD0","<p style=""font-size: 48px;"">+</p>","","","","","null","allTrialResponses","500","1","28","img_art/29.jpg","-50","The style of this piece is done too death, it's not interesting.","Jake,Ethan,Patrick,Connor,Chase,Christopher","This is very gross and odd looking.,-8,360,20","I love the angry emotion to this art. I feel very drawn to it.,18,120,20","I don't like the black,-50,280,20","Red X is scary, like the bricks,7,240,20","This is ugly as fuck,-50,120,20","it's interesting but not my style,9,160,20","Jake","This is very gross and odd looking.,-8,360,20","Chase","This is ugly as fuck,-50,120,20","Patrick","I don't like the black,-50,280,20","2"
"19769","","survey-text","246","1516741","0.0-245.0-0.0","A2ML4TEAJTDQD0","","","","{""Q0"":""There is no passion for work in this piece.""}","","","","","","","","","","","","","","","","","","","","","","",""
"2038.1000000238419","","image-slider-response","247","1518782","0.0-246.0","A2ML4TEAJTDQD0","","","","","-50","","","","","","","","","","","","","","","","","","","","","",""
"null","","image-button-response","248","1523794","0.0-247.0","A2ML4TEAJTDQD0","img_art/26.jpg","null","","","","","","","","","","","","","","","","","","","","","","","","",""
"2633","","image-button-response","249","1526429","0.0-248.0","A2ML4TEAJTDQD0","img_art/26.jpg","0","","","","","","","","","","","","","","","","","","","","","","","","",""
"2919","","image-button-response","250","1529350","0.0-249.0-0.0","A2ML4TEAJTDQD0","img_art/26.jpg","4","","","","","","","","","","","","","","","","","","","","","","","","",""
"5445","","image-button-response","251","1534798","0.0-250.0-0.0","A2ML4TEAJTDQD0","img_art/26.jpg","3","","","","","","","","","","","","","","","","","","","","","","","","",""
"null","","html-keyboard-response","252","1536301","0.0-251.0","A2ML4TEAJTDQD0","<p style=""font-size: 48px;"">+</p>","","","","","null","allTrialResponses","1500","1","29","img_art/26.jpg","-50","There is no passion for work in this piece.","Jake,Nathan,Patrick,Alex,Chase,Marcus","It's not ugly but not beautiful at all.,-3,360,20","It's a little too yellow-y for me, I'm not a huge fan of the color schemes or setting it portrays.,-20,200,20","I can somewhat city a city in this drawing,11,280,20","I can make out a street view and I am a fan of watercolors but still too boring,15,100,20","I don't really see the point in this painting.,-16,120,20","Nice, but not very interesting. I do like the blue tree though.,6,60,20","Jake","It's not ugly but not beautiful at all.,-3,360,20","Chase","I don't really see the point in this painting.,-16,120,20","Alex","I can make out a street view and I am a fan of watercolors but still too boring,15,100,20","2"
"13537","","survey-text","253","1549846","0.0-252.0-0.0","A2ML4TEAJTDQD0","","","","{""Q0"":""This piece has no passion.""}","","","","","","","","","","","","","","","","","","","","","","",""
"2029.5","","image-slider-response","254","1551878","0.0-253.0","A2ML4TEAJTDQD0","","","","","-50","","","","","","","","","","","","","","","","","","","","","",""
"null","","image-button-response","255","1556896","0.0-254.0","A2ML4TEAJTDQD0","img_art/27.jpg","null","","","","","","","","","","","","","","","","","","","","","","","","",""
"2484","","image-button-response","256","1559382","0.0-255.0","A2ML4TEAJTDQD0","img_art/27.jpg","4","","","","","","","","","","","","","","","","","","","","","","","","",""
"2918","","image-button-response","257","1562302","0.0-256.0-0.0","A2ML4TEAJTDQD0","img_art/27.jpg","5","","","","","","","","","","","","","","","","","","","","","","","","",""
"6301","","image-button-response","258","1568606","0.0-257.0-0.0","A2ML4TEAJTDQD0","img_art/27.jpg","0","","","","","","","","","","","","","","","","","","","","","","","","",""
"null","","html-keyboard-response","259","1569108","0.0-258.0","A2ML4TEAJTDQD0","<p style=""font-size: 48px;"">+</p>","","","","","null","allTrialResponses","500","1","30","img_art/27.jpg","-50","This piece has no passion.","Jake,Nicholas,Alexis,Alex,Chase,Gabriel","This looks like a poor copy of Cy Twombly's style.,-3,360,20","I like all it has going but i wouldnt put it in my house unless my child did it,25,240,20","I like hoe it looks like a fall day in a city,45,140,20","very abstract, I don't understand it, but I like the bright, cheerful colors,14,100,20","I don't really see anything to this art.,-5,120,20","too messy dont like the color choices either,-17,160,20","Chase","I don't really see anything to this art.,-5,120,20","Gabriel","too messy dont like the color choices either,-17,160,20","Jake","This looks like a poor copy of Cy Twombly's style.,-3,360,20","2"
"4401","","image-button-response_instructions","260","1573518","0.0-259.0","A2ML4TEAJTDQD0","","0","instructions","","","","","","","","","","","","","","","","","","","","","","","",""
"1056","","image-button-response","261","1574582","0.0-260.0","A2ML4TEAJTDQD0","","0","","","","","","","","","","","","","","","","","","","","","","","","",""
