"rt","url","trial_type","trial_index","time_elapsed","internal_node_id","participant_id","stimulus","button_pressed","Name","responses","response","key_press","variableName","fixationTime","condition","trial","photo","subjectRating","subjectResponse","agentsNames","agent_1_Response","agent_2_Response","agent_3_Response","agent_4_Response","agent_5_Response","agent_6_Response","kept_1_name","kept_1_response","kept_2_name","kept_2_response","kept_3_name","kept_3_response","errorCounter"
"4552","external_page_harvard.html","external-html","0","4719","0.0-0.0","A2NAKIXS3DVGAA","","","","","","","","","","","","","","","","","","","","","","","","","","",""
"1553","","image-button-response","1","6278","0.0-1.0","A2NAKIXS3DVGAA","","0","","","","","","","","","","","","","","","","","","","","","","","","",""
"1859","","image-button-response","2","8150","0.0-2.0-0.0","A2NAKIXS3DVGAA","","1","phone","","","","","","","","","","","","","","","","","","","","","","","",""
"5653","","survey-text","3","13807","0.0-3.0-0.0","A2NAKIXS3DVGAA","","","","{""Q0"":""A2NAKIXS3DVGAA""}","","","","","","","","","","","","","","","","","","","","","","",""
"8087","","image-button-response_instructions","4","21898","0.0-4.0","A2NAKIXS3DVGAA","","0","instructions","","","","","","","","","","","","","","","","","","","","","","","",""
"6809","","image-button-response_instructions","5","28710","0.0-5.0","A2NAKIXS3DVGAA","img_art/ins/popularity/ins1.png","0","instructions","","","","","","","","","","","","","","","","","","","","","","","",""
"5149","","image-button-response_instructions","6","33862","0.0-6.0","A2NAKIXS3DVGAA","img_art/ins/popularity/ins2.png","0","instructions","","","","","","","","","","","","","","","","","","","","","","","",""
"3435","","image-button-response_instructions","7","37301","0.0-7.0","A2NAKIXS3DVGAA","img_art/ins/popularity/ins2Extreme.png","0","instructions","","","","","","","","","","","","","","","","","","","","","","","",""
"14931","","image-button-response_instructions","8","52233","0.0-8.0","A2NAKIXS3DVGAA","img_art/ins/popularity/ins3KEEPpop.PNG","0","instructions","","","","","","","","","","","","","","","","","","","","","","","",""
"1820","","image-button-response_instructions","9","54058","0.0-9.0","A2NAKIXS3DVGAA","img_art/ins/popularity/ins3ANamepop.PNG","0","instructions","","","","","","","","","","","","","","","","","","","","","","","",""
"1667","","image-button-response_instructions","10","55729","0.0-10.0","A2NAKIXS3DVGAA","img_art/ins/popularity/ins3ARatingpop.png","0","instructions","","","","","","","","","","","","","","","","","","","","","","","",""
"1406","","image-button-response_instructions","11","57138","0.0-11.0","A2NAKIXS3DVGAA","img_art/ins/popularity/ins3ATextpop.png","0","instructions","","","","","","","","","","","","","","","","","","","","","","","",""
"4384","","image-button-response_instructions","12","61524","0.0-12.0","A2NAKIXS3DVGAA","img_art/ins/popularity/ins3ALikespop.png","0","instructions","","","","","","","","","","","","","","","","","","","","","","","",""
"6958","","image-button-response_instructions","13","68486","0.0-13.0","A2NAKIXS3DVGAA","img_art/ins/popularity/ins3KEEPpop.PNG","0","instructions","","","","","","","","","","","","","","","","","","","","","","","",""
"8042","","image-button-response_instructions","14","76535","0.0-14.0","A2NAKIXS3DVGAA","img_art/ins/popularity/ins3_5RED.png","0","instructions","","","","","","","","","","","","","","","","","","","","","","","",""
"2349","","image-button-response_instructions","15","78888","0.0-15.0","A2NAKIXS3DVGAA","img_art/ins/popularity/ins3KEEPpop.PNG","0","instructions","","","","","","","","","","","","","","","","","","","","","","","",""
"17282","","image-button-response_instructions","16","96180","0.0-16.0","A2NAKIXS3DVGAA","img_art/ins/popularity/ins4KEEPpop.PNG","0","instructions","","","","","","","","","","","","","","","","","","","","","","","",""
"3352","","image-button-response_instructions","17","99537","0.0-17.0","A2NAKIXS3DVGAA","img_art/ins/popularity/ins5KEEPpop.PNG","0","instructions","","","","","","","","","","","","","","","","","","","","","","","",""
"1192","","image-button-response_instructions","18","100730","0.0-18.0","A2NAKIXS3DVGAA","","0","instructions","","","","","","","","","","","","","","","","","","","","","","","",""
"5472","","survey-text","19","106276","0.0-19.0-0.0","A2NAKIXS3DVGAA","","","","{""Q0"":""but""}","","","","","","","","","","","","","","","","","","","","","","",""
"16169","","survey-text","20","122447","0.0-20.0-0.0","A2NAKIXS3DVGAA","","","","{""Q0"":""It looks like some randomly drawn lines.""}","","","","","","","","","","","","","","","","","","","","","","",""
"2830","","image-slider-response","21","125280","0.0-21.0","A2NAKIXS3DVGAA","","","","","-10","","","","","","","","","","","","","","","","","","","","","",""
"4526","","image-button-response","22","130283","0.0-22.0","A2NAKIXS3DVGAA","img_art/ins/1.jpg","1","","","","","","","","","","","","","","","","","","","","","","","","",""
"3442","","image-button-response","23","133732","0.0-23.0","A2NAKIXS3DVGAA","img_art/ins/1.jpg","1","","","","","","","","","","","","","","","","","","","","","","","","",""
"1492","","image-button-response","24","135229","0.0-24.0-0.0","A2NAKIXS3DVGAA","img_art/ins/1.jpg","5","","","","","","","","","","","","","","","","","","","","","","","","",""
"768","","image-button-response","25","136001","0.0-25.0-0.0","A2NAKIXS3DVGAA","img_art/ins/1.jpg","3","","","","","","","","","","","","","","","","","","","","","","","","",""
"null","","html-keyboard-response","26","137005","0.0-26.0","A2NAKIXS3DVGAA","<p style=""font-size: 48px;"">+</p>","","","","","null","allTrialResponses","1000","1","-2","img_art/ins/1.jpg","-10","It looks like some randomly drawn lines.","Adam,Alex,Ben,Carl,Daniel,Jack","Seems like doodles,-20,20,20","very creative work.,36,40,20","This color reminds me of poo,-46,60,20","very calming artwork,42,80,20","It looks like a murder scene.,-48,100,20","I like the sophisticated brushwork,40,120,20","Alex","very creative work.,36,40,20","Jack","I like the sophisticated brushwork,40,120,20","Carl","very calming artwork,42,80,20","0"
"6439","","survey-text","27","143457","0.0-27.0-0.0","A2NAKIXS3DVGAA","","","","{""Q0"":""It looks like some randomly drawn lines.""}","","","","","","","","","","","","","","","","","","","","","","",""
"2136","","image-slider-response","28","145598","0.0-28.0","A2NAKIXS3DVGAA","","","","","-9","","","","","","","","","","","","","","","","","","","","","",""
"null","","image-button-response","29","150602","0.0-29.0","A2NAKIXS3DVGAA","img_art/ins/2.jpg","null","","","","","","","","","","","","","","","","","","","","","","","","",""
"1223","","image-button-response","30","151825","0.0-30.0","A2NAKIXS3DVGAA","img_art/ins/2.jpg","3","","","","","","","","","","","","","","","","","","","","","","","","",""
"521","","image-button-response","31","152350","0.0-31.0-0.0","A2NAKIXS3DVGAA","img_art/ins/2.jpg","4","","","","","","","","","","","","","","","","","","","","","","","","",""
"663","","image-button-response","32","153019","0.0-32.0-0.0","A2NAKIXS3DVGAA","img_art/ins/2.jpg","5","","","","","","","","","","","","","","","","","","","","","","","","",""
"null","","html-keyboard-response","33","153524","0.0-33.0","A2NAKIXS3DVGAA","<p style=""font-size: 48px;"">+</p>","","","","","null","allTrialResponses","500","1","-1","img_art/ins/2.jpg","-9","It looks like some randomly drawn lines.","James,Alex,Kyle,Carl,John,Jack","looks too angry,-50,140,20","I like the blocks of color arrangements,30,40,20","Idk, it is just annoying,-32,180,20","I can feel the artist's passion in it,45,80,20","love the texture of paint,48,160,20","I would never be able to compose a sophisticated pallete like this,48,120,20","Carl","I can feel the artist's passion in it,45,80,20","John","love the texture of paint,48,160,20","Jack","I would never be able to compose a sophisticated pallete like this,48,120,20","0"
"7097","","survey-text","34","160630","0.0-34.0-0.0","A2NAKIXS3DVGAA","","","","{""Q0"":""It looks like some randomly drawn lines.""}","","","","","","","","","","","","","","","","","","","","","","",""
"2003","","image-slider-response","35","162637","0.0-35.0","A2NAKIXS3DVGAA","","","","","-9","","","","","","","","","","","","","","","","","","","","","",""
"null","","image-button-response","36","167641","0.0-36.0","A2NAKIXS3DVGAA","img_art/ins/3.jpg","null","","","","","","","","","","","","","","","","","","","","","","","","",""
"1258","","image-button-response","37","168901","0.0-37.0","A2NAKIXS3DVGAA","img_art/ins/3.jpg","3","","","","","","","","","","","","","","","","","","","","","","","","",""
"584","","image-button-response","38","169488","0.0-38.0-0.0","A2NAKIXS3DVGAA","img_art/ins/3.jpg","4","","","","","","","","","","","","","","","","","","","","","","","","",""
"778","","image-button-response","39","170268","0.0-39.0-0.0","A2NAKIXS3DVGAA","img_art/ins/3.jpg","0","","","","","","","","","","","","","","","","","","","","","","","","",""
"null","","html-keyboard-response","40","170773","0.0-40.0","A2NAKIXS3DVGAA","<p style=""font-size: 48px;"">+</p>","","","","","null","allTrialResponses","500","1","0","img_art/ins/3.jpg","-9","It looks like some randomly drawn lines.","Mike,Sam,Ron,Carl,John,Jack","enjoy the different shades of blue,22,200,20","I can feel a rainy day from this painting,18,240,20","It looks depressing,-26,220,20","It's an alright work,15,80,20","I like the overlapping of brushes,41,160,20","I feel connected to the artist,40,120,20","Carl","It's an alright work,15,80,20","John","I like the overlapping of brushes,41,160,20","Mike","enjoy the different shades of blue,22,200,20","0"
"5519","","image-button-response_instructions","41","176303","0.0-41.0","A2NAKIXS3DVGAA","","0","instructions","","","","","","","","","","","","","","","","","","","","","","","",""
"6940","","survey-likert","42","183262","0.0-42.0-0.0","A2NAKIXS3DVGAA","","","","{""Q0"":"""",""Q1"":0,""Q2"":1}","","","","","","","","","","","","","","","","","","","","","","",""
"4119","","survey-text","43","187390","0.0-43.0-0.0","A2NAKIXS3DVGAA","","","","{""Q0"":""rock""}","","","","","","","","","","","","","","","","","","","","","","",""
"9768","","survey-text","44","197164","0.0-44.0-0.0","A2NAKIXS3DVGAA","","","","{""Q0"":""It looks like some randomly drawn lines and dots.""}","","","","","","","","","","","","","","","","","","","","","","",""
"1820","","image-slider-response","45","198987","0.0-45.0","A2NAKIXS3DVGAA","","","","","-8","","","","","","","","","","","","","","","","","","","","","",""
"4107","","image-button-response","46","204025","0.0-46.0","A2NAKIXS3DVGAA","img_art/21.jpg","4","","","","","","","","","","","","","","","","","","","","","","","","",""
"1089","","image-button-response","47","205118","0.0-47.0","A2NAKIXS3DVGAA","img_art/21.jpg","4","","","","","","","","","","","","","","","","","","","","","","","","",""
"619","","image-button-response","48","205740","0.0-48.0-0.0","A2NAKIXS3DVGAA","img_art/21.jpg","5","","","","","","","","","","","","","","","","","","","","","","","","",""
"1393","","image-button-response","49","207136","0.0-49.0-0.0","A2NAKIXS3DVGAA","img_art/21.jpg","2","","","","","","","","","","","","","","","","","","","","","","","","",""
"null","","html-keyboard-response","50","207641","0.0-50.0","A2NAKIXS3DVGAA","<p style=""font-size: 48px;"">+</p>","","","","","null","allTrialResponses","500","1","1","img_art/21.jpg","-8","It looks like some randomly drawn lines and dots.","Steven,Jake,Jonathan,Taylor,Richard,Joseph","Okay, I love the color schemes, I can't quite figure it out though,14,160,20","It looks epic and is nice to look at in terms of colors/style.,23,360,20","Makes me think of a natural disaster but I love how it looks. Makes you think,30,140,20","Remove the rocks(?) on the lower right.,5,200,20","setting sun sky? nice colors and blending,14,340,20","I like that it reminds me of an abstract version of a Bob Ross painting.,36,220,20","Richard","setting sun sky? nice colors and blending,14,340,20","Joseph","I like that it reminds me of an abstract version of a Bob Ross painting.,36,220,20","Jonathan","Makes me think of a natural disaster but I love how it looks. Makes you think,30,140,20","0"
"9483","","survey-text","51","217131","0.0-51.0-0.0","A2NAKIXS3DVGAA","","","","{""Q0"":""It looks like a person.""}","","","","","","","","","","","","","","","","","","","","","","",""
"3708","","image-slider-response","52","220842","0.0-52.0","A2NAKIXS3DVGAA","","","","","1","","","","","","","","","","","","","","","","","","","","","",""
"null","","image-button-response","53","225846","0.0-53.0","A2NAKIXS3DVGAA","img_art/9.jpg","null","","","","","","","","","","","","","","","","","","","","","","","","",""
"596","","image-button-response","54","226445","0.0-54.0","A2NAKIXS3DVGAA","img_art/9.jpg","5","","","","","","","","","","","","","","","","","","","","","","","","",""
"5017","","image-button-response","55","231465","0.0-55.0-0.0","A2NAKIXS3DVGAA","img_art/9.jpg","2","","","","","","","","","","","","","","","","","","","","","","","","",""
"1811","","image-button-response","56","233278","0.0-56.0-0.0","A2NAKIXS3DVGAA","img_art/9.jpg","1","","","","","","","","","","","","","","","","","","","","","","","","",""
"null","","html-keyboard-response","57","233780","0.0-57.0","A2NAKIXS3DVGAA","<p style=""font-size: 48px;"">+</p>","","","","","null","allTrialResponses","500","1","2","img_art/9.jpg","1","It looks like a person.","Mason,Jeffrey,Jonathan,Michael,Richard,Joseph","Abstract titanic scene. It's nice though. I like how it makes me feel.,28,100,20","Looks very relaxing; someone laying in a meadow,13,40,20","It's peaceful and relaxing,24,140,20","Looks like a young child drew it.,-45,140,20","looks like an imitation of a real piece of art, reclining lady,-1,340,20","It's nice. Peaceful. Calming.,11,220,20","Joseph","It's nice. Peaceful. Calming.,11,220,20","Jonathan","It's peaceful and relaxing,24,140,20","Jeffrey","Looks very relaxing; someone laying in a meadow,13,40,20","0"
"4527","","survey-text","58","238316","0.0-58.0-0.0","A2NAKIXS3DVGAA","","","","{""Q0"":""It looks like some randomly drawn lines.""}","","","","","","","","","","","","","","","","","","","","","","",""
"2510","","image-slider-response","59","240829","0.0-59.0","A2NAKIXS3DVGAA","","","","","-7","","","","","","","","","","","","","","","","","","","","","",""
"null","","image-button-response","60","245837","0.0-60.0","A2NAKIXS3DVGAA","img_art/2.jpg","null","","","","","","","","","","","","","","","","","","","","","","","","",""
"364","","image-button-response","61","246202","0.0-61.0","A2NAKIXS3DVGAA","img_art/2.jpg","3","","","","","","","","","","","","","","","","","","","","","","","","",""
"813","","image-button-response","62","247018","0.0-62.0-0.0","A2NAKIXS3DVGAA","img_art/2.jpg","1","","","","","","","","","","","","","","","","","","","","","","","","",""
"862","","image-button-response","63","247881","0.0-63.0-0.0","A2NAKIXS3DVGAA","img_art/2.jpg","5","","","","","","","","","","","","","","","","","","","","","","","","",""
"null","","html-keyboard-response","64","248385","0.0-64.0","A2NAKIXS3DVGAA","<p style=""font-size: 48px;"">+</p>","","","","","null","allTrialResponses","500","1","3","img_art/2.jpg","-7","It looks like some randomly drawn lines.","Nathan,Jeffrey,Jonathan,Kevin,Adam,Joseph","Not a fan of this style,-30,200,20","positive, seems like someone really happy and colourful is looking at me,22,40,20","It's a cool piece but honestly these color choices are the worst thing in the world,-31,140,20","That looks look a cartoon character of some kind.,11,320,20","Hate the vomit green.,-31,40,20","Different cultures. I like that it brings differences together.,4,220,20","Kevin","That looks look a cartoon character of some kind.,11,320,20","Jeffrey","positive, seems like someone really happy and colourful is looking at me,22,40,20","Joseph","Different cultures. I like that it brings differences together.,4,220,20","0"
"2227","","survey-text","65","250618","0.0-65.0-0.0","A2NAKIXS3DVGAA","","","","{""Q0"":""It looks like some randomly drawn lines.""}","","","","","","","","","","","","","","","","","","","","","","",""
"3049","","image-slider-response","66","253671","0.0-66.0","A2NAKIXS3DVGAA","","","","","-7","","","","","","","","","","","","","","","","","","","","","",""
"null","","image-button-response","67","258675","0.0-67.0","A2NAKIXS3DVGAA","img_art/3.jpg","null","","","","","","","","","","","","","","","","","","","","","","","","",""
"1108","","image-button-response","68","259784","0.0-68.0","A2NAKIXS3DVGAA","img_art/3.jpg","2","","","","","","","","","","","","","","","","","","","","","","","","",""
"1297","","image-button-response","69","261082","0.0-69.0-0.0","A2NAKIXS3DVGAA","img_art/3.jpg","5","","","","","","","","","","","","","","","","","","","","","","","","",""
"2460","","image-button-response","70","263547","0.0-70.0-0.0","A2NAKIXS3DVGAA","img_art/3.jpg","1","","","","","","","","","","","","","","","","","","","","","","","","",""
"null","","html-keyboard-response","71","264552","0.0-71.0","A2NAKIXS3DVGAA","<p style=""font-size: 48px;"">+</p>","","","","","null","allTrialResponses","1000","1","4","img_art/3.jpg","-7","It looks like some randomly drawn lines.","Colton,Jeffrey,Jack,Kevin,Cole,Joseph","looks like a kid scribbled with crayon,-35,220,20","Associates with blood and crime scene,-12,40,20","unique & stylized. interesting. another one I could keep staring at.,50,320,20","That just looks like a mess..,-18,320,20","Sharp peaks look like sharp teeth,-37,200,20","Really have no idea what I'm looking at.,1,220,20","Jack","unique & stylized. interesting. another one I could keep staring at.,50,320,20","Joseph","Really have no idea what I'm looking at.,1,220,20","Jeffrey","Associates with blood and crime scene,-12,40,20","0"
"8295","","survey-text","72","272857","0.0-72.0-0.0","A2NAKIXS3DVGAA","","","","{""Q0"":""It looks like a building.""}","","","","","","","","","","","","","","","","","","","","","","",""
"1918","","image-slider-response","73","274779","0.0-73.0","A2NAKIXS3DVGAA","","","","","1","","","","","","","","","","","","","","","","","","","","","",""
"3326","","image-button-response","74","279783","0.0-74.0","A2NAKIXS3DVGAA","img_art/17.jpg","2","","","","","","","","","","","","","","","","","","","","","","","","",""
"1809","","image-button-response","75","281594","0.0-75.0","A2NAKIXS3DVGAA","img_art/17.jpg","2","","","","","","","","","","","","","","","","","","","","","","","","",""
"1016","","image-button-response","76","282615","0.0-76.0-0.0","A2NAKIXS3DVGAA","img_art/17.jpg","1","","","","","","","","","","","","","","","","","","","","","","","","",""
"799","","image-button-response","77","283416","0.0-77.0-0.0","A2NAKIXS3DVGAA","img_art/17.jpg","5","","","","","","","","","","","","","","","","","","","","","","","","",""
"null","","html-keyboard-response","78","284920","0.0-78.0","A2NAKIXS3DVGAA","<p style=""font-size: 48px;"">+</p>","","","","","null","allTrialResponses","1500","1","5","img_art/17.jpg","1","It looks like a building.","Tyler,Jeffrey,Jack,Bryce,Patrick,Joseph","No strong reaction. Beautiful design, but hue appears taciturn. Bad photograph?,1,320,20","Makes me warm and cozy just by looking at it,29,40,20","stunning. makes me feel happy, hopeful, serene, and a little wistful.,50,320,20","Doesnt really do anythingb for me.,4,20,20","Beautiful patterns but evokes sad emotions in me due to the color shades,31,280,20","I like the way the forest is taking over the buildings.,21,220,20","Jack","stunning. makes me feel happy, hopeful, serene, and a little wistful.,50,320,20","Jeffrey","Makes me warm and cozy just by looking at it,29,40,20","Joseph","I like the way the forest is taking over the buildings.,21,220,20","0"
"2993","","survey-text","79","287933","0.0-79.0-0.0","A2NAKIXS3DVGAA","","","","{""Q0"":""sky""}","","","","","","","","","","","","","","","","","","","","","","",""
"4039","","survey-text","80","291975","0.0-80.0-0.0","A2NAKIXS3DVGAA","","","","{""Q0"":""It looks like some randomly drawn lines.""}","","","","","","","","","","","","","","","","","","","","","","",""
"1828","","image-slider-response","81","293806","0.0-81.0","A2NAKIXS3DVGAA","","","","","-5","","","","","","","","","","","","","","","","","","","","","",""
"null","","image-button-response","82","298816","0.0-82.0","A2NAKIXS3DVGAA","img_art/10.jpg","null","","","","","","","","","","","","","","","","","","","","","","","","",""
"403","","image-button-response","83","299220","0.0-83.0","A2NAKIXS3DVGAA","img_art/10.jpg","5","","","","","","","","","","","","","","","","","","","","","","","","",""
"727","","image-button-response","84","299953","0.0-84.0-0.0","A2NAKIXS3DVGAA","img_art/10.jpg","2","","","","","","","","","","","","","","","","","","","","","","","","",""
"415","","image-button-response","85","300372","0.0-85.0-0.0","A2NAKIXS3DVGAA","img_art/10.jpg","1","","","","","","","","","","","","","","","","","","","","","","","","",""
"null","","html-keyboard-response","86","301377","0.0-86.0","A2NAKIXS3DVGAA","<p style=""font-size: 48px;"">+</p>","","","","","null","allTrialResponses","1000","1","6","img_art/10.jpg","-5","It looks like some randomly drawn lines.","Trevor,Jeffrey,Jack,Kyle,Alex,Joseph","It's very dark and angry looking,-31,280,20","Relaxing; a lot of going on but colours make it easy to look at,20,40,20","this piece is okay. I wish it was more colorful, but it is certainly intriguing.,23,320,20","It's okay but not giving me the strongest reaction,6,340,20","This could be a guitar, or it could be a completely random shape.,-3,100,20","The loop type thing reminds me of interconnectedness and life and hope.,12,220,20","Joseph","The loop type thing reminds me of interconnectedness and life and hope.,12,220,20","Jack","this piece is okay. I wish it was more colorful, but it is certainly intriguing.,23,320,20","Jeffrey","Relaxing; a lot of going on but colours make it easy to look at,20,40,20","0"
"8058","","survey-text","87","309448","0.0-87.0-0.0","A2NAKIXS3DVGAA","","","","{""Q0"":""It looks like a teddy bear.""}","","","","","","","","","","","","","","","","","","","","","","",""
"1865","","image-slider-response","88","311319","0.0-88.0","A2NAKIXS3DVGAA","","","","","1","","","","","","","","","","","","","","","","","","","","","",""
"null","","image-button-response","89","316322","0.0-89.0","A2NAKIXS3DVGAA","img_art/16.jpg","null","","","","","","","","","","","","","","","","","","","","","","","","",""
"1267","","image-button-response","90","317592","0.0-90.0","A2NAKIXS3DVGAA","img_art/16.jpg","0","","","","","","","","","","","","","","","","","","","","","","","","",""
"2365","","image-button-response","91","319959","0.0-91.0-0.0","A2NAKIXS3DVGAA","img_art/16.jpg","1","","","","","","","","","","","","","","","","","","","","","","","","",""
"1530","","image-button-response","92","321491","0.0-92.0-0.0","A2NAKIXS3DVGAA","img_art/16.jpg","3","","","","","","","","","","","","","","","","","","","","","","","","",""
"null","","html-keyboard-response","93","322494","0.0-93.0","A2NAKIXS3DVGAA","<p style=""font-size: 48px;"">+</p>","","","","","null","allTrialResponses","1000","1","7","img_art/16.jpg","1","It looks like a teddy bear.","Derek,Jeffrey,Jack,Samuel,Daniel,Joseph","I can't figure out the meaning of this painting but it is pleasant to look at,40,360,20","Teddy bear calls positive emotional response but then I get worried about what is about to happen,18,40,20","very bizarre and confusing, but that feels purposeful, so i don't completely hate it.,-25,320,20","childhood horror,3,400,20","Ugly, broken up and mismatched,-50,320,20","Looks upsetting. Like it's actually graphic violence but you can't tell.,-24,220,20","Derek","I can't figure out the meaning of this painting but it is pleasant to look at,40,360,20","Jeffrey","Teddy bear calls positive emotional response but then I get worried about what is about to happen,18,40,20","Samuel","childhood horror,3,400,20","0"
"2437","","survey-text","94","324938","0.0-94.0-0.0","A2NAKIXS3DVGAA","","","","{""Q0"":""It looks like some randomly drawn lines.""}","","","","","","","","","","","","","","","","","","","","","","",""
"2091","","image-slider-response","95","327032","0.0-95.0","A2NAKIXS3DVGAA","","","","","-5","","","","","","","","","","","","","","","","","","","","","",""
"4267","","image-button-response","96","332037","0.0-96.0","A2NAKIXS3DVGAA","img_art/4.jpg","1","","","","","","","","","","","","","","","","","","","","","","","","",""
"2112","","image-button-response","97","334151","0.0-97.0","A2NAKIXS3DVGAA","img_art/4.jpg","1","","","","","","","","","","","","","","","","","","","","","","","","",""
"713","","image-button-response","98","334868","0.0-98.0-0.0","A2NAKIXS3DVGAA","img_art/4.jpg","5","","","","","","","","","","","","","","","","","","","","","","","","",""
"720","","image-button-response","99","335591","0.0-99.0-0.0","A2NAKIXS3DVGAA","img_art/4.jpg","2","","","","","","","","","","","","","","","","","","","","","","","","",""
"null","","html-keyboard-response","100","336096","0.0-100.0","A2NAKIXS3DVGAA","<p style=""font-size: 48px;"">+</p>","","","","","null","allTrialResponses","500","1","8","img_art/4.jpg","-5","It looks like some randomly drawn lines.","Derek,Jeffrey,Thomas,Samuel,Brian,Eric","A bit too plain for my tastes,-10,360,20","Easy and relaxing,23,40,20","This image doesn't invoke anything in me,-9,220,20","The muted tones,-11,400,20","it reminds me of McDonalds, and not in a good way.,-34,380,20","This piece catches my eye, but it's strange to me.,10,100,20","Jeffrey","Easy and relaxing,23,40,20","Eric","This piece catches my eye, but it's strange to me.,10,100,20","Thomas","This image doesn't invoke anything in me,-9,220,20","0"
"7775","","survey-text","101","343876","0.0-101.0-0.0","A2NAKIXS3DVGAA","","","","{""Q0"":""It looks like a building.""}","","","","","","","","","","","","","","","","","","","","","","",""
"3006","","image-slider-response","102","346886","0.0-102.0","A2NAKIXS3DVGAA","","","","","1","","","","","","","","","","","","","","","","","","","","","",""
"null","","image-button-response","103","351892","0.0-103.0","A2NAKIXS3DVGAA","img_art/8.jpg","null","","","","","","","","","","","","","","","","","","","","","","","","",""
"396","","image-button-response","104","352290","0.0-104.0","A2NAKIXS3DVGAA","img_art/8.jpg","1","","","","","","","","","","","","","","","","","","","","","","","","",""
"511","","image-button-response","105","352803","0.0-105.0-0.0","A2NAKIXS3DVGAA","img_art/8.jpg","2","","","","","","","","","","","","","","","","","","","","","","","","",""
"959","","image-button-response","106","353764","0.0-106.0-0.0","A2NAKIXS3DVGAA","img_art/8.jpg","3","","","","","","","","","","","","","","","","","","","","","","","","",""
"null","","html-keyboard-response","107","354268","0.0-107.0","A2NAKIXS3DVGAA","<p style=""font-size: 48px;"">+</p>","","","","","null","allTrialResponses","500","1","9","img_art/8.jpg","1","It looks like a building.","Jesus,Jeffrey,Thomas,Aaron,Marcus,Eric","The different shapes are fun to look for.,30,100,20","Very busy, I want to look at it and investigate,23,40,20","Gorgeous! I love the colors and the details.,50,220,20","The shapes and colors work well together.,40,20,20","Like the colors and the energy, but the face feels jarring to me,13,60,20","I love the colors in this piece.,25,100,20","Jeffrey","Very busy, I want to look at it and investigate,23,40,20","Thomas","Gorgeous! I love the colors and the details.,50,220,20","Aaron","The shapes and colors work well together.,40,20,20","0"
"8590","","survey-text","108","362865","0.0-108.0-0.0","A2NAKIXS3DVGAA","","","","{""Q0"":""It looks like some randomly drawn lines.""}","","","","","","","","","","","","","","","","","","","","","","",""
"1585","","image-slider-response","109","364451","0.0-109.0","A2NAKIXS3DVGAA","","","","","-6","","","","","","","","","","","","","","","","","","","","","",""
"null","","image-button-response","110","369455","0.0-110.0","A2NAKIXS3DVGAA","img_art/14.jpg","null","","","","","","","","","","","","","","","","","","","","","","","","",""
"561","","image-button-response","111","370019","0.0-111.0","A2NAKIXS3DVGAA","img_art/14.jpg","1","","","","","","","","","","","","","","","","","","","","","","","","",""
"1356","","image-button-response","112","371380","0.0-112.0-0.0","A2NAKIXS3DVGAA","img_art/14.jpg","4","","","","","","","","","","","","","","","","","","","","","","","","",""
"410","","image-button-response","113","371794","0.0-113.0-0.0","A2NAKIXS3DVGAA","img_art/14.jpg","5","","","","","","","","","","","","","","","","","","","","","","","","",""
"null","","html-keyboard-response","114","372297","0.0-114.0","A2NAKIXS3DVGAA","<p style=""font-size: 48px;"">+</p>","","","","","null","allTrialResponses","500","1","10","img_art/14.jpg","-6","It looks like some randomly drawn lines.","Jose,Jeffrey,Thomas,Aaron,Peter,Antonio","I don't like the color red,30,200,20","positive colours, makes me to look at it and investigate what is going on,27,40,20","I like the colors in the background, but not the bottom/center. It almost looks sloppy.,-20,220,20","It reminds me of a tree in the desert.,15,20,20","I like that it's like a snippet of a field in the desert,21,320,20","Makes me think of trees and spring. A good feeling,26,220,20","Jeffrey","positive colours, makes me to look at it and investigate what is going on,27,40,20","Peter","I like that it's like a snippet of a field in the desert,21,320,20","Antonio","Makes me think of trees and spring. A good feeling,26,220,20","0"
"2862","","survey-text","115","375172","0.0-115.0-0.0","A2NAKIXS3DVGAA","","","","{""Q0"":""our""}","","","","","","","","","","","","","","","","","","","","","","",""
"2285","","survey-text","116","377458","0.0-116.0-0.0","A2NAKIXS3DVGAA","","","","{""Q0"":""It looks like some randomly drawn lines.""}","","","","","","","","","","","","","","","","","","","","","","",""
"1635","","image-slider-response","117","379094","0.0-117.0","A2NAKIXS3DVGAA","","","","","-6","","","","","","","","","","","","","","","","","","","","","",""
"null","","image-button-response","118","384097","0.0-118.0","A2NAKIXS3DVGAA","img_art/19.jpg","null","","","","","","","","","","","","","","","","","","","","","","","","",""
"142","","image-button-response","119","384242","0.0-119.0","A2NAKIXS3DVGAA","img_art/19.jpg","1","","","","","","","","","","","","","","","","","","","","","","","","",""
"1471","","image-button-response","120","385716","0.0-120.0-0.0","A2NAKIXS3DVGAA","img_art/19.jpg","4","","","","","","","","","","","","","","","","","","","","","","","","",""
"3035","","image-button-response","121","388754","0.0-121.0-0.0","A2NAKIXS3DVGAA","img_art/19.jpg","0","","","","","","","","","","","","","","","","","","","","","","","","",""
"null","","html-keyboard-response","122","389756","0.0-122.0","A2NAKIXS3DVGAA","<p style=""font-size: 48px;"">+</p>","","","","","null","allTrialResponses","1000","1","11","img_art/19.jpg","-6","It looks like some randomly drawn lines.","Christian,Jeffrey,Bradley,Nicholas,Peter,Antonio","interesting take on depth (reminds me of those 1000 piece puzzles),2,140,20","very lively and colourful,21,40,20","This looks like a child's piece. I appreciate the artistic value, but not for me.,-20,300,20","Intersting but not for me,21,240,20","Looks like hustle and bustle ,,3,320,20","Chaotic. Too much going on in the picture,14,220,20","Jeffrey","very lively and colourful,21,40,20","Peter","Looks like hustle and bustle ,,3,320,20","Christian","interesting take on depth (reminds me of those 1000 piece puzzles),2,140,20","0"
"7600","","survey-text","123","397362","0.0-123.0-0.0","A2NAKIXS3DVGAA","","","","{""Q0"":""It looks like some randomly drawn lines and dots.""}","","","","","","","","","","","","","","","","","","","","","","",""
"1753","","image-slider-response","124","399121","0.0-124.0","A2NAKIXS3DVGAA","","","","","-5","","","","","","","","","","","","","","","","","","","","","",""
"null","","image-button-response","125","404123","0.0-125.0","A2NAKIXS3DVGAA","img_art/13.jpg","null","","","","","","","","","","","","","","","","","","","","","","","","",""
"134","","image-button-response","126","404258","0.0-126.0","A2NAKIXS3DVGAA","img_art/13.jpg","4","","","","","","","","","","","","","","","","","","","","","","","","",""
"667","","image-button-response","127","404928","0.0-127.0-0.0","A2NAKIXS3DVGAA","img_art/13.jpg","3","","","","","","","","","","","","","","","","","","","","","","","","",""
"1184","","image-button-response","128","406114","0.0-128.0-0.0","A2NAKIXS3DVGAA","img_art/13.jpg","0","","","","","","","","","","","","","","","","","","","","","","","","",""
"null","","html-keyboard-response","129","407618","0.0-129.0","A2NAKIXS3DVGAA","<p style=""font-size: 48px;"">+</p>","","","","","null","allTrialResponses","1500","1","12","img_art/13.jpg","-5","It looks like some randomly drawn lines and dots.","Christian,Jeffrey,Ethan,Cameron,Peter,Jared","love the style but not very novel,9,140,20","Messy but organised, helps me to relax and observe,8,40,20","I do not care for the colors in this art. it doesnt go well at all.,-15,120,20","Like the use of color, not a fan of the splatter,29,60,20","Reminds me of the aquarium,4,320,20","the blues are soothing but the splatters are too much,-3,400,20","Peter","Reminds me of the aquarium,4,320,20","Cameron","Like the use of color, not a fan of the splatter,29,60,20","Christian","love the style but not very novel,9,140,20","0"
"6453","","survey-text","130","414079","0.0-130.0-0.0","A2NAKIXS3DVGAA","","","","{""Q0"":""It looks like a person.""}","","","","","","","","","","","","","","","","","","","","","","",""
"1966","","image-slider-response","131","416047","0.0-131.0","A2NAKIXS3DVGAA","","","","","1","","","","","","","","","","","","","","","","","","","","","",""
"3999","","image-button-response","132","421051","0.0-132.0","A2NAKIXS3DVGAA","img_art/25.jpg","1","","","","","","","","","","","","","","","","","","","","","","","","",""
"1171","","image-button-response","133","422225","0.0-133.0","A2NAKIXS3DVGAA","img_art/25.jpg","1","","","","","","","","","","","","","","","","","","","","","","","","",""
"537","","image-button-response","134","422766","0.0-134.0-0.0","A2NAKIXS3DVGAA","img_art/25.jpg","2","","","","","","","","","","","","","","","","","","","","","","","","",""
"688","","image-button-response","135","423457","0.0-135.0-0.0","A2NAKIXS3DVGAA","img_art/25.jpg","5","","","","","","","","","","","","","","","","","","","","","","","","",""
"null","","html-keyboard-response","136","424465","0.0-136.0","A2NAKIXS3DVGAA","<p style=""font-size: 48px;"">+</p>","","","","","null","allTrialResponses","1000","1","13","img_art/25.jpg","1","It looks like a person.","Christian,Tristan,Corey,Cameron,Peter,Shane","I'm sorry but I don't uderstand this,-20,140,20","The limited palette make this figure mysterious and interpret-able.,20,300,20","love the color and the contrast of the black on teal,50,260,20","Like the color, but what is that thing.,-10,60,20","It's very mystical.,5,320,20","I love the green and the figure is black but the green makes it pop,29,80,20","Tristan","The limited palette make this figure mysterious and interpret-able.,20,300,20","Corey","love the color and the contrast of the black on teal,50,260,20","Shane","I love the green and the figure is black but the green makes it pop,29,80,20","0"
"8662","","survey-text","137","433137","0.0-137.0-0.0","A2NAKIXS3DVGAA","","","","{""Q0"":""It looks like a tree.""}","","","","","","","","","","","","","","","","","","","","","","",""
"1581","","image-slider-response","138","434720","0.0-138.0","A2NAKIXS3DVGAA","","","","","1","","","","","","","","","","","","","","","","","","","","","",""
"3277","","image-button-response","139","439724","0.0-139.0","A2NAKIXS3DVGAA","img_art/6.jpg","5","","","","","","","","","","","","","","","","","","","","","","","","",""
"691","","image-button-response","140","440417","0.0-140.0","A2NAKIXS3DVGAA","img_art/6.jpg","5","","","","","","","","","","","","","","","","","","","","","","","","",""
"699","","image-button-response","141","441119","0.0-141.0-0.0","A2NAKIXS3DVGAA","img_art/6.jpg","2","","","","","","","","","","","","","","","","","","","","","","","","",""
"572","","image-button-response","142","441695","0.0-142.0-0.0","A2NAKIXS3DVGAA","img_art/6.jpg","0","","","","","","","","","","","","","","","","","","","","","","","","",""
"null","","html-keyboard-response","143","442197","0.0-143.0","A2NAKIXS3DVGAA","<p style=""font-size: 48px;"">+</p>","","","","","null","allTrialResponses","500","1","14","img_art/6.jpg","1","It looks like a tree.","Isaiah,Tristan,Corey,Alejandro,Blake,Shane","The painting makes me happy. Like I'm looking at a little bird.,6,300,20","Lack of context makes this painting 1-d for me. The headless bird is mysterious and indecipherable.,-10,300,20","reminds me of a happy edgar allen poe poem,8,260,20","Gives me a feeling of solitude and nothingness,11,80,20","one lonely thing trying to grow,-24,280,20","A bird standing in the sun,37,80,20","Shane","A bird standing in the sun,37,80,20","Corey","reminds me of a happy edgar allen poe poem,8,260,20","Isaiah","The painting makes me happy. Like I'm looking at a little bird.,6,300,20","0"
"7888","","survey-text","144","450096","0.0-144.0-0.0","A2NAKIXS3DVGAA","","","","{""Q0"":""It looks like a forest.""}","","","","","","","","","","","","","","","","","","","","","","",""
"1484","","image-slider-response","145","451584","0.0-145.0","A2NAKIXS3DVGAA","","","","","1","","","","","","","","","","","","","","","","","","","","","",""
"null","","image-button-response","146","456588","0.0-146.0","A2NAKIXS3DVGAA","img_art/26.jpg","null","","","","","","","","","","","","","","","","","","","","","","","","",""
"1011","","image-button-response","147","457600","0.0-147.0","A2NAKIXS3DVGAA","img_art/26.jpg","4","","","","","","","","","","","","","","","","","","","","","","","","",""
"442","","image-button-response","148","458045","0.0-148.0-0.0","A2NAKIXS3DVGAA","img_art/26.jpg","3","","","","","","","","","","","","","","","","","","","","","","","","",""
"605","","image-button-response","149","458654","0.0-149.0-0.0","A2NAKIXS3DVGAA","img_art/26.jpg","0","","","","","","","","","","","","","","","","","","","","","","","","",""
"null","","html-keyboard-response","150","459656","0.0-150.0","A2NAKIXS3DVGAA","<p style=""font-size: 48px;"">+</p>","","","","","null","allTrialResponses","1000","1","15","img_art/26.jpg","1","It looks like a forest.","Isaiah,Jordan,Corey,Austin,Ian,Shane","It is very relaxing to look at, almost a relief.,21,300,20","Reminds me of walks in my dads city when I was little,22,160,20","its boring and i dont like the color palette,3,260,20","Like the soft blend of colors,26,240,20","This seems pretty and sweet, it's something I would like to actually see.,31,260,20","Colors are full and reminds me of a messy room,-9,80,20","Ian","This seems pretty and sweet, it's something I would like to actually see.,31,260,20","Austin","Like the soft blend of colors,26,240,20","Isaiah","It is very relaxing to look at, almost a relief.,21,300,20","0"
"3057","","survey-text","151","462738","0.0-151.0-0.0","A2NAKIXS3DVGAA","","","","{""Q0"":""course""}","","","","","","","","","","","","","","","","","","","","","","",""
"2187","","survey-text","152","464929","0.0-152.0-0.0","A2NAKIXS3DVGAA","","","","{""Q0"":""It looks like some randomly drawn lines.""}","","","","","","","","","","","","","","","","","","","","","","",""
"1664","","image-slider-response","153","466595","0.0-153.0","A2NAKIXS3DVGAA","","","","","-5","","","","","","","","","","","","","","","","","","","","","",""
"null","","image-button-response","154","471598","0.0-154.0","A2NAKIXS3DVGAA","img_art/22.jpg","null","","","","","","","","","","","","","","","","","","","","","","","","",""
"1277","","image-button-response","155","472876","0.0-155.0","A2NAKIXS3DVGAA","img_art/22.jpg","4","","","","","","","","","","","","","","","","","","","","","","","","",""
"638","","image-button-response","156","473516","0.0-156.0-0.0","A2NAKIXS3DVGAA","img_art/22.jpg","3","","","","","","","","","","","","","","","","","","","","","","","","",""
"1570","","image-button-response","157","475089","0.0-157.0-0.0","A2NAKIXS3DVGAA","img_art/22.jpg","2","","","","","","","","","","","","","","","","","","","","","","","","",""
"null","","html-keyboard-response","158","476592","0.0-158.0","A2NAKIXS3DVGAA","<p style=""font-size: 48px;"">+</p>","","","","","null","allTrialResponses","1500","1","16","img_art/22.jpg","-5","It looks like some randomly drawn lines.","Isaiah,Alexis,Anthony,Austin,Ian,Luis","The painting makes me feel a little sad.,12,300,20","Neither like nor dislike it. The red, yellow and blue colors are bright but I don't know what it's meant to be.,1,140,20","Colors are subdued yet vibrant,30,200,20","Great color palette,29,240,20","Its very warm, it reminds of someone not liking their painting so they destoryed it,26,260,20","Just not feeling it,-19,400,20","Ian","Its very warm, it reminds of someone not liking their painting so they destoryed it,26,260,20","Austin","Great color palette,29,240,20","Anthony","Colors are subdued yet vibrant,30,200,20","0"
"6087","","survey-text","159","482687","0.0-159.0-0.0","A2NAKIXS3DVGAA","","","","{""Q0"":""It looks like some randomly drawn lines.""}","","","","","","","","","","","","","","","","","","","","","","",""
"2502","","image-slider-response","160","485195","0.0-160.0","A2NAKIXS3DVGAA","","","","","-4","","","","","","","","","","","","","","","","","","","","","",""
"null","","image-button-response","161","490198","0.0-161.0","A2NAKIXS3DVGAA","img_art/7.jpg","null","","","","","","","","","","","","","","","","","","","","","","","","",""
"482","","image-button-response","162","490682","0.0-162.0","A2NAKIXS3DVGAA","img_art/7.jpg","5","","","","","","","","","","","","","","","","","","","","","","","","",""
"708","","image-button-response","163","491392","0.0-163.0-0.0","A2NAKIXS3DVGAA","img_art/7.jpg","1","","","","","","","","","","","","","","","","","","","","","","","","",""
"2298","","image-button-response","164","493694","0.0-164.0-0.0","A2NAKIXS3DVGAA","img_art/7.jpg","3","","","","","","","","","","","","","","","","","","","","","","","","",""
"null","","html-keyboard-response","165","495197","0.0-165.0","A2NAKIXS3DVGAA","<p style=""font-size: 48px;"">+</p>","","","","","null","allTrialResponses","1500","1","17","img_art/7.jpg","-4","It looks like some randomly drawn lines.","Elijah,Timothy,Anthony,Austin,Ian,Edward","Not highly impressed,-5,80,20","This feels very earthy and grounded,20,240,20","Very, very dull compared to the other paintings,-36,200,20","The picture is just random,-8,240,20","This looks like a literal picture of the ground so I'm really not too sure about this one.,-42,260,20","It looks like maybe some seeds?,14,60,20","Edward","It looks like maybe some seeds?,14,60,20","Timothy","This feels very earthy and grounded,20,240,20","Austin","The picture is just random,-8,240,20","0"
"6099","","survey-text","166","501318","0.0-166.0-0.0","A2NAKIXS3DVGAA","","","","{""Q0"":""It looks like a river.""}","","","","","","","","","","","","","","","","","","","","","","",""
"1798","","image-slider-response","167","503121","0.0-167.0","A2NAKIXS3DVGAA","","","","","1","","","","","","","","","","","","","","","","","","","","","",""
"null","","image-button-response","168","508124","0.0-168.0","A2NAKIXS3DVGAA","img_art/24.jpg","null","","","","","","","","","","","","","","","","","","","","","","","","",""
"366","","image-button-response","169","508493","0.0-169.0","A2NAKIXS3DVGAA","img_art/24.jpg","3","","","","","","","","","","","","","","","","","","","","","","","","",""
"303","","image-button-response","170","508797","0.0-170.0-0.0","A2NAKIXS3DVGAA","img_art/24.jpg","4","","","","","","","","","","","","","","","","","","","","","","","","",""
"330","","image-button-response","171","509130","0.0-171.0-0.0","A2NAKIXS3DVGAA","img_art/24.jpg","5","","","","","","","","","","","","","","","","","","","","","","","","",""
"null","","html-keyboard-response","172","509632","0.0-172.0","A2NAKIXS3DVGAA","<p style=""font-size: 48px;"">+</p>","","","","","null","allTrialResponses","500","1","18","img_art/24.jpg","1","It looks like a river.","Spencer,Timothy,Devin,Austin,Benjamin,Edward","Happy, the forest as I would love to see it,50,120,20","Earthy wonderful, love everything about it,50,240,20","colors are good but the style is iffy,12,380,20","Evokes pleasant feelings,50,240,20","peaceful and calm yet joyous.,50,260,20","Very pretty and soft,37,60,20","Austin","Evokes pleasant feelings,50,240,20","Benjamin","peaceful and calm yet joyous.,50,260,20","Edward","Very pretty and soft,37,60,20","0"
"5670","","survey-text","173","515314","0.0-173.0-0.0","A2NAKIXS3DVGAA","","","","{""Q0"":""It looks like some randomly drawn lines and dots.""}","","","","","","","","","","","","","","","","","","","","","","",""
"1690","","image-slider-response","174","517009","0.0-174.0","A2NAKIXS3DVGAA","","","","","-5","","","","","","","","","","","","","","","","","","","","","",""
"null","","image-button-response","175","522012","0.0-175.0","A2NAKIXS3DVGAA","img_art/15.jpg","null","","","","","","","","","","","","","","","","","","","","","","","","",""
"428","","image-button-response","176","522440","0.0-176.0","A2NAKIXS3DVGAA","img_art/15.jpg","3","","","","","","","","","","","","","","","","","","","","","","","","",""
"336","","image-button-response","177","522778","0.0-177.0-0.0","A2NAKIXS3DVGAA","img_art/15.jpg","4","","","","","","","","","","","","","","","","","","","","","","","","",""
"363","","image-button-response","178","523146","0.0-178.0-0.0","A2NAKIXS3DVGAA","img_art/15.jpg","5","","","","","","","","","","","","","","","","","","","","","","","","",""
"null","","html-keyboard-response","179","523651","0.0-179.0","A2NAKIXS3DVGAA","<p style=""font-size: 48px;"">+</p>","","","","","null","allTrialResponses","500","1","19","img_art/15.jpg","-5","It looks like some randomly drawn lines and dots.","Travis,David,John,Austin,Benjamin,Edward","Hate it...black dots.,-47,260,20","Hard to tell what I'm looking at, but it does a gives a slight impression of a of garden.,5,340,20","Uninteresting and too much black,-30,120,20","Perfect Abstract painting,50,240,20","Reminds me of blueberry bushes.,7,260,20","Reminds me of lilacs,26,60,20","Austin","Perfect Abstract painting,50,240,20","Benjamin","Reminds me of blueberry bushes.,7,260,20","Edward","Reminds me of lilacs,26,60,20","0"
"3301","","survey-text","180","526960","0.0-180.0-0.0","A2NAKIXS3DVGAA","","","","{""Q0"":""It looks like some randomly drawn lines.""}","","","","","","","","","","","","","","","","","","","","","","",""
"2631","","image-slider-response","181","529593","0.0-181.0","A2NAKIXS3DVGAA","","","","","-5","","","","","","","","","","","","","","","","","","","","","",""
"null","","image-button-response","182","534596","0.0-182.0","A2NAKIXS3DVGAA","img_art/20.jpg","null","","","","","","","","","","","","","","","","","","","","","","","","",""
"358","","image-button-response","183","534956","0.0-183.0","A2NAKIXS3DVGAA","img_art/20.jpg","3","","","","","","","","","","","","","","","","","","","","","","","","",""
"316","","image-button-response","184","535274","0.0-184.0-0.0","A2NAKIXS3DVGAA","img_art/20.jpg","4","","","","","","","","","","","","","","","","","","","","","","","","",""
"556","","image-button-response","185","535833","0.0-185.0-0.0","A2NAKIXS3DVGAA","img_art/20.jpg","5","","","","","","","","","","","","","","","","","","","","","","","","",""
"null","","html-keyboard-response","186","536337","0.0-186.0","A2NAKIXS3DVGAA","<p style=""font-size: 48px;"">+</p>","","","","","null","allTrialResponses","500","1","20","img_art/20.jpg","-5","It looks like some randomly drawn lines.","Justin,Brett,Nathaniel,Austin,Benjamin,Edward","The colors and the scene depicted is interesting.,13,280,20","City life vs shore life,40,360,20","A bit hectic, but it does have a bit of coolness to it,6,220,20","This painting would make a great display art,50,240,20","Bold strokes and colors.,6,260,20","I can't tell what's going on but I like the colors,12,60,20","Austin","This painting would make a great display art,50,240,20","Benjamin","Bold strokes and colors.,6,260,20","Edward","I can't tell what's going on but I like the colors,12,60,20","0"
"1809","","survey-text","187","538170","0.0-187.0-0.0","A2NAKIXS3DVGAA","","","","{""Q0"":""we""}","","","","","","","","","","","","","","","","","","","","","","",""
"2674","","survey-text","188","540846","0.0-188.0-0.0","A2NAKIXS3DVGAA","","","","{""Q0"":""It looks like some randomly drawn lines.""}","","","","","","","","","","","","","","","","","","","","","","",""
"1580","","image-slider-response","189","542429","0.0-189.0","A2NAKIXS3DVGAA","","","","","-5","","","","","","","","","","","","","","","","","","","","","",""
"null","","image-button-response","190","547437","0.0-190.0","A2NAKIXS3DVGAA","img_art/11.jpg","null","","","","","","","","","","","","","","","","","","","","","","","","",""
"511","","image-button-response","191","547950","0.0-191.0","A2NAKIXS3DVGAA","img_art/11.jpg","5","","","","","","","","","","","","","","","","","","","","","","","","",""
"344","","image-button-response","192","548296","0.0-192.0-0.0","A2NAKIXS3DVGAA","img_art/11.jpg","4","","","","","","","","","","","","","","","","","","","","","","","","",""
"316","","image-button-response","193","548616","0.0-193.0-0.0","A2NAKIXS3DVGAA","img_art/11.jpg","3","","","","","","","","","","","","","","","","","","","","","","","","",""
"null","","html-keyboard-response","194","549132","0.0-194.0","A2NAKIXS3DVGAA","<p style=""font-size: 48px;"">+</p>","","","","","null","allTrialResponses","500","1","21","img_art/11.jpg","-5","It looks like some randomly drawn lines.","Lucas,Matthew,Seth,Austin,Benjamin,Edward","Astounding, extraordinary.,25,380,20","Dark but bright, city but ocean, musical scales.,50,120,20","It makes my head feel dizzy. So I rated it lower.,-25,60,20","Very unique piece of art,50,240,20","Look like it's in constant movement.,10,260,20","Reminds me of a city and how chaotic it can be,22,60,20","Edward","Reminds me of a city and how chaotic it can be,22,60,20","Benjamin","Look like it's in constant movement.,10,260,20","Austin","Very unique piece of art,50,240,20","0"
"1930","","survey-text","195","551074","0.0-195.0-0.0","A2NAKIXS3DVGAA","","","","{""Q0"":""It looks like some randomly drawn lines.""}","","","","","","","","","","","","","","","","","","","","","","",""
"2049","","image-slider-response","196","553129","0.0-196.0","A2NAKIXS3DVGAA","","","","","-4","","","","","","","","","","","","","","","","","","","","","",""
"null","","image-button-response","197","558133","0.0-197.0","A2NAKIXS3DVGAA","img_art/30.jpg","null","","","","","","","","","","","","","","","","","","","","","","","","",""
"404","","image-button-response","198","558540","0.0-198.0","A2NAKIXS3DVGAA","img_art/30.jpg","3","","","","","","","","","","","","","","","","","","","","","","","","",""
"397","","image-button-response","199","558940","0.0-199.0-0.0","A2NAKIXS3DVGAA","img_art/30.jpg","4","","","","","","","","","","","","","","","","","","","","","","","","",""
"443","","image-button-response","200","559392","0.0-200.0-0.0","A2NAKIXS3DVGAA","img_art/30.jpg","5","","","","","","","","","","","","","","","","","","","","","","","","",""
"null","","html-keyboard-response","201","560896","0.0-201.0","A2NAKIXS3DVGAA","<p style=""font-size: 48px;"">+</p>","","","","","null","allTrialResponses","1500","1","22","img_art/30.jpg","-4","It looks like some randomly drawn lines.","Tanner,William,Joshua,Austin,Benjamin,Edward","makes me think of a tunnel filled with graffiti,19,180,20","to dark and dreary,-28,380,20","It's just all right.,5,240,20","Love the bold brush strokes and the illusion it creates,50,240,20","fresh and bold. outgoing.,15,260,20","My son made me a painting that looked like this,26,60,20","Austin","Love the bold brush strokes and the illusion it creates,50,240,20","Benjamin","fresh and bold. outgoing.,15,260,20","Edward","My son made me a painting that looked like this,26,60,20","0"
"2904","","survey-text","202","563821","0.0-202.0-0.0","A2NAKIXS3DVGAA","","","","{""Q0"":""It looks like some randomly drawn lines.""}","","","","","","","","","","","","","","","","","","","","","","",""
"1996","","image-slider-response","203","565817","0.0-203.0","A2NAKIXS3DVGAA","","","","","-4","","","","","","","","","","","","","","","","","","","","","",""
"null","","image-button-response","204","570820","0.0-204.0","A2NAKIXS3DVGAA","img_art/27.jpg","null","","","","","","","","","","","","","","","","","","","","","","","","",""
"340","","image-button-response","205","571162","0.0-205.0","A2NAKIXS3DVGAA","img_art/27.jpg","3","","","","","","","","","","","","","","","","","","","","","","","","",""
"377","","image-button-response","206","571544","0.0-206.0-0.0","A2NAKIXS3DVGAA","img_art/27.jpg","4","","","","","","","","","","","","","","","","","","","","","","","","",""
"444","","image-button-response","207","571991","0.0-207.0-0.0","A2NAKIXS3DVGAA","img_art/27.jpg","5","","","","","","","","","","","","","","","","","","","","","","","","",""
"null","","html-keyboard-response","208","572492","0.0-208.0","A2NAKIXS3DVGAA","<p style=""font-size: 48px;"">+</p>","","","","","null","allTrialResponses","500","1","23","img_art/27.jpg","-4","It looks like some randomly drawn lines.","Gabriel,Garrett,Charles,Austin,Benjamin,Edward","too messy dont like the color choices either,-17,160,20","This image could do a better job of showing what is going on and it could use more colors.,-42,180,20","Nothing stands out,-23,100,20","Like the abstractness of this picture,20,240,20","I like the colors.,6,260,20","It looks like a kid colored a picture and an adult added to it,19,60,20","Austin","Like the abstractness of this picture,20,240,20","Benjamin","I like the colors.,6,260,20","Edward","It looks like a kid colored a picture and an adult added to it,19,60,20","0"
"2332","","survey-text","209","574839","0.0-209.0-0.0","A2NAKIXS3DVGAA","","","","{""Q0"":""It looks like some randomly drawn lines.""}","","","","","","","","","","","","","","","","","","","","","","",""
"1659","","image-slider-response","210","576501","0.0-210.0","A2NAKIXS3DVGAA","","","","","-7","","","","","","","","","","","","","","","","","","","","","",""
"null","","image-button-response","211","581504","0.0-211.0","A2NAKIXS3DVGAA","img_art/5.jpg","null","","","","","","","","","","","","","","","","","","","","","","","","",""
"1254","","image-button-response","212","582759","0.0-212.0","A2NAKIXS3DVGAA","img_art/5.jpg","3","","","","","","","","","","","","","","","","","","","","","","","","",""
"558","","image-button-response","213","583320","0.0-213.0-0.0","A2NAKIXS3DVGAA","img_art/5.jpg","5","","","","","","","","","","","","","","","","","","","","","","","","",""
"396","","image-button-response","214","583719","0.0-214.0-0.0","A2NAKIXS3DVGAA","img_art/5.jpg","4","","","","","","","","","","","","","","","","","","","","","","","","",""
"null","","html-keyboard-response","215","584722","0.0-215.0","A2NAKIXS3DVGAA","<p style=""font-size: 48px;"">+</p>","","","","","null","allTrialResponses","1000","1","24","img_art/5.jpg","-7","It looks like some randomly drawn lines.","Dylan,Shawn,Caleb,Austin,Benjamin,Edward","This looks like a twelve year old did it,-40,40,20","Black stripe looks violent,-31,100,20","Boring and appears low effort,-41,40,20","Perfect for art exhibition,39,240,20","Missing something,-5,260,20","Pretty simple, I'm not sure what it's supposed to mean,14,60,20","Austin","Perfect for art exhibition,39,240,20","Edward","Pretty simple, I'm not sure what it's supposed to mean,14,60,20","Benjamin","Missing something,-5,260,20","0"
"1920","","survey-text","216","586652","0.0-216.0-0.0","A2NAKIXS3DVGAA","","","","{""Q0"":""It looks like some randomly drawn lines.""}","","","","","","","","","","","","","","","","","","","","","","",""
"1915","","image-slider-response","217","588569","0.0-217.0","A2NAKIXS3DVGAA","","","","","-6","","","","","","","","","","","","","","","","","","","","","",""
"null","","image-button-response","218","593573","0.0-218.0","A2NAKIXS3DVGAA","img_art/29.jpg","null","","","","","","","","","","","","","","","","","","","","","","","","",""
"449","","image-button-response","219","594024","0.0-219.0","A2NAKIXS3DVGAA","img_art/29.jpg","5","","","","","","","","","","","","","","","","","","","","","","","","",""
"558","","image-button-response","220","594586","0.0-220.0-0.0","A2NAKIXS3DVGAA","img_art/29.jpg","3","","","","","","","","","","","","","","","","","","","","","","","","",""
"588","","image-button-response","221","595177","0.0-221.0-0.0","A2NAKIXS3DVGAA","img_art/29.jpg","1","","","","","","","","","","","","","","","","","","","","","","","","",""
"null","","html-keyboard-response","222","596179","0.0-222.0","A2NAKIXS3DVGAA","<p style=""font-size: 48px;"">+</p>","","","","","null","allTrialResponses","1000","1","25","img_art/29.jpg","-6","It looks like some randomly drawn lines.","Dakota,Carlos,Alexander,Austin,Benjamin,Edward","this is not art to me - it's random collage,-45,280,20","It feels like looking through layers of frustration.,19,80,20","Tested and failed a lot of ideas.,-20,120,20","Has a haunting feel to it,22,240,20","Don't like the red X across the painting.,-15,260,20","Like a crime scene. It's neat and different,30,60,20","Edward","Like a crime scene. It's neat and different,30,60,20","Austin","Has a haunting feel to it,22,240,20","Carlos","It feels like looking through layers of frustration.,19,80,20","0"
"3106","","survey-text","223","599300","0.0-223.0-0.0","A2NAKIXS3DVGAA","","","","{""Q0"":""table""}","","","","","","","","","","","","","","","","","","","","","","",""
"7490","","survey-text","224","606796","0.0-224.0-0.0","A2NAKIXS3DVGAA","","","","{""Q0"":""It looks like some randomly drawn shapes.""}","","","","","","","","","","","","","","","","","","","","","","",""
"1815","","image-slider-response","225","608615","0.0-225.0","A2NAKIXS3DVGAA","","","","","-4","","","","","","","","","","","","","","","","","","","","","",""
"null","","image-button-response","226","613619","0.0-226.0","A2NAKIXS3DVGAA","img_art/12.jpg","null","","","","","","","","","","","","","","","","","","","","","","","","",""
"407","","image-button-response","227","614027","0.0-227.0","A2NAKIXS3DVGAA","img_art/12.jpg","0","","","","","","","","","","","","","","","","","","","","","","","","",""
"538","","image-button-response","228","614569","0.0-228.0-0.0","A2NAKIXS3DVGAA","img_art/12.jpg","3","","","","","","","","","","","","","","","","","","","","","","","","",""
"377","","image-button-response","229","614950","0.0-229.0-0.0","A2NAKIXS3DVGAA","img_art/12.jpg","5","","","","","","","","","","","","","","","","","","","","","","","","",""
"null","","html-keyboard-response","230","616453","0.0-230.0","A2NAKIXS3DVGAA","<p style=""font-size: 48px;"">+</p>","","","","","null","allTrialResponses","1500","1","26","img_art/12.jpg","-4","It looks like some randomly drawn shapes.","Robert,Carlos,Jesse,Austin,James,Edward","I like the pattern to it.,31,360,20","It is very bland and the colors are not cohesive.,-20,80,20","Just confuses me overall,-11,80,20","Explosion of texture,31,240,20","Don't like it or despise it,1,380,20","It looks like old lady upholstery,12,60,20","Robert","I like the pattern to it.,31,360,20","Austin","Explosion of texture,31,240,20","Edward","It looks like old lady upholstery,12,60,20","0"
"1653","","survey-text","231","618119","0.0-231.0-0.0","A2NAKIXS3DVGAA","","","","{""Q0"":""It looks like some randomly drawn lines.""}","","","","","","","","","","","","","","","","","","","","","","",""
"1418","","image-slider-response","232","619542","0.0-232.0","A2NAKIXS3DVGAA","","","","","-6","","","","","","","","","","","","","","","","","","","","","",""
"null","","image-button-response","233","624546","0.0-233.0","A2NAKIXS3DVGAA","img_art/18.jpg","null","","","","","","","","","","","","","","","","","","","","","","","","",""
"433","","image-button-response","234","624981","0.0-234.0","A2NAKIXS3DVGAA","img_art/18.jpg","3","","","","","","","","","","","","","","","","","","","","","","","","",""
"595","","image-button-response","235","625579","0.0-235.0-0.0","A2NAKIXS3DVGAA","img_art/18.jpg","1","","","","","","","","","","","","","","","","","","","","","","","","",""
"549","","image-button-response","236","626132","0.0-236.0-0.0","A2NAKIXS3DVGAA","img_art/18.jpg","5","","","","","","","","","","","","","","","","","","","","","","","","",""
"null","","html-keyboard-response","237","626638","0.0-237.0","A2NAKIXS3DVGAA","<p style=""font-size: 48px;"">+</p>","","","","","null","allTrialResponses","500","1","27","img_art/18.jpg","-6","It looks like some randomly drawn lines.","Robert,Dalton,Jeremy,Austin,Stephen,Edward","It made me think of a car crash,-39,360,20","i like the colors in the picture and can make out my own images,42,300,20","Unhappy. Makes me thing of evil,-10,60,20","Nice abstract art,50,240,20","Too abstract to me,-30,140,20","Reminds me of the four horsemen of the apocalypse,29,60,20","Austin","Nice abstract art,50,240,20","Dalton","i like the colors in the picture and can make out my own images,42,300,20","Edward","Reminds me of the four horsemen of the apocalypse,29,60,20","0"
"2529","","survey-text","238","629189","0.0-238.0-0.0","A2NAKIXS3DVGAA","","","","{""Q0"":""It looks like some randomly drawn lines.""}","","","","","","","","","","","","","","","","","","","","","","",""
"1723","","image-slider-response","239","630917","0.0-239.0","A2NAKIXS3DVGAA","","","","","-5","","","","","","","","","","","","","","","","","","","","","",""
"null","","image-button-response","240","635920","0.0-240.0","A2NAKIXS3DVGAA","img_art/28.jpg","null","","","","","","","","","","","","","","","","","","","","","","","","",""
"371","","image-button-response","241","636293","0.0-241.0","A2NAKIXS3DVGAA","img_art/28.jpg","3","","","","","","","","","","","","","","","","","","","","","","","","",""
"353","","image-button-response","242","636649","0.0-242.0-0.0","A2NAKIXS3DVGAA","img_art/28.jpg","4","","","","","","","","","","","","","","","","","","","","","","","","",""
"390","","image-button-response","243","637043","0.0-243.0-0.0","A2NAKIXS3DVGAA","img_art/28.jpg","5","","","","","","","","","","","","","","","","","","","","","","","","",""
"null","","html-keyboard-response","244","637546","0.0-244.0","A2NAKIXS3DVGAA","<p style=""font-size: 48px;"">+</p>","","","","","null","allTrialResponses","500","1","28","img_art/28.jpg","-5","It looks like some randomly drawn lines.","Andrew,Dalton,Ryan,Austin,Grant,Edward","Doesn't give me an emotional response,0,160,20","not sure what i feel but it makes me feel uncomfortable,1,300,20","Colors look too muddy for my liking,-33,380,20","Not really exciting,23,240,20","The darker colors make this unnerving.,40,200,20","Salvador Dali called and he thinks this looks pretty good,27,60,20","Austin","Not really exciting,23,240,20","Grant","The darker colors make this unnerving.,40,200,20","Edward","Salvador Dali called and he thinks this looks pretty good,27,60,20","0"
"6146","","survey-text","245","643698","0.0-245.0-0.0","A2NAKIXS3DVGAA","","","","{""Q0"":""It looks like some randomly drawn lines and dots.""}","","","","","","","","","","","","","","","","","","","","","","",""
"1968","","image-slider-response","246","645667","0.0-246.0","A2NAKIXS3DVGAA","","","","","-5","","","","","","","","","","","","","","","","","","","","","",""
"null","","image-button-response","247","650670","0.0-247.0","A2NAKIXS3DVGAA","img_art/23.jpg","null","","","","","","","","","","","","","","","","","","","","","","","","",""
"483","","image-button-response","248","651155","0.0-248.0","A2NAKIXS3DVGAA","img_art/23.jpg","3","","","","","","","","","","","","","","","","","","","","","","","","",""
"477","","image-button-response","249","651634","0.0-249.0-0.0","A2NAKIXS3DVGAA","img_art/23.jpg","5","","","","","","","","","","","","","","","","","","","","","","","","",""
"493","","image-button-response","250","652130","0.0-250.0-0.0","A2NAKIXS3DVGAA","img_art/23.jpg","2","","","","","","","","","","","","","","","","","","","","","","","","",""
"null","","html-keyboard-response","251","652633","0.0-251.0","A2NAKIXS3DVGAA","<p style=""font-size: 48px;"">+</p>","","","","","null","allTrialResponses","500","1","29","img_art/23.jpg","-5","It looks like some randomly drawn lines and dots.","Hunter,Isaac,Zachary,Austin,Grant,Edward","do not like color splatters or sharp silhouettes, feels tacky,-34,240,20","I like the royal colors.,38,280,20","Vivid colors and the white in the middle looks like people dancing.,31,400,20","Fantastic blend of color and forms,43,240,20","It reminds me of being in a crowded place.,-10,200,20","This would make a great mural,37,60,20","Austin","Fantastic blend of color and forms,43,240,20","Edward","This would make a great mural,37,60,20","Zachary","Vivid colors and the white in the middle looks like people dancing.,31,400,20","0"
"2144","","survey-text","252","654785","0.0-252.0-0.0","A2NAKIXS3DVGAA","","","","{""Q0"":""It looks like some randomly drawn lines.""}","","","","","","","","","","","","","","","","","","","","","","",""
"1745","","image-slider-response","253","656534","0.0-253.0","A2NAKIXS3DVGAA","","","","","-6","","","","","","","","","","","","","","","","","","","","","",""
"null","","image-button-response","254","661537","0.0-254.0","A2NAKIXS3DVGAA","img_art/1.jpg","null","","","","","","","","","","","","","","","","","","","","","","","","",""
"1040","","image-button-response","255","662578","0.0-255.0","A2NAKIXS3DVGAA","img_art/1.jpg","3","","","","","","","","","","","","","","","","","","","","","","","","",""
"559","","image-button-response","256","663139","0.0-256.0-0.0","A2NAKIXS3DVGAA","img_art/1.jpg","1","","","","","","","","","","","","","","","","","","","","","","","","",""
"493","","image-button-response","257","663636","0.0-257.0-0.0","A2NAKIXS3DVGAA","img_art/1.jpg","5","","","","","","","","","","","","","","","","","","","","","","","","",""
"null","","html-keyboard-response","258","664639","0.0-258.0","A2NAKIXS3DVGAA","<p style=""font-size: 48px;"">+</p>","","","","","null","allTrialResponses","1000","1","30","img_art/1.jpg","-6","It looks like some randomly drawn lines.","Dustin,Kenneth,Zachary,Austin,Brandon,Edward","Too messy. Just looks like a mess of dark colors.,-20,20,20","I love colorful photos and I like this one a lot.,25,300,20","While I like the colors, I find nothing interesting or thought provoking about it.,10,400,20","Absolutely love this painting,50,240,20","Taco Bell wallpaper. Doesn't really make me feel anything,3,320,20","That one piece in the middle gives it depth and it's really neat,21,60,20","Austin","Absolutely love this painting,50,240,20","Kenneth","I love colorful photos and I like this one a lot.,25,300,20","Edward","That one piece in the middle gives it depth and it's really neat,21,60,20","0"
"2030","","image-button-response_instructions","259","666675","0.0-259.0","A2NAKIXS3DVGAA","","0","instructions","","","","","","","","","","","","","","","","","","","","","","","",""
