"rt","url","trial_type","trial_index","time_elapsed","internal_node_id","participant_id","stimulus","button_pressed","Name","responses","response","key_press","variableName","fixationTime","condition","trial","photo","subjectRating","subjectResponse","agentsNames","agent_1_Response","agent_2_Response","agent_3_Response","agent_4_Response","agent_5_Response","agent_6_Response","kept_1_name","kept_1_response","kept_2_name","kept_2_response","kept_3_name","kept_3_response","errorCounter"
"41224","external_page_harvard.html","external-html","0","41309","0.0-0.0","A2R1LWOGQJTGRL","","","","","","","","","","","","","","","","","","","","","","","","","","",""
"1723","","image-button-response","1","43039","0.0-1.0","A2R1LWOGQJTGRL","","1","","","","","","","","","","","","","","","","","","","","","","","","",""
"2041","","image-button-response","2","45095","0.0-2.0-0.0","A2R1LWOGQJTGRL","","1","phone","","","","","","","","","","","","","","","","","","","","","","","",""
"6236","","survey-text","3","51337","0.0-3.0-0.0","A2R1LWOGQJTGRL","","","","{""Q0"":""A2R1LWOGQJTGRL""}","","","","","","","","","","","","","","","","","","","","","","",""
"2397","","image-button-response_instructions","4","53741","0.0-4.0","A2R1LWOGQJTGRL","","0","instructions","","","","","","","","","","","","","","","","","","","","","","","",""
"6199","","image-button-response_instructions","5","59949","0.0-5.0","A2R1LWOGQJTGRL","img_art/ins/popularity/ins1.png","0","instructions","","","","","","","","","","","","","","","","","","","","","","","",""
"3013","","image-button-response_instructions","6","62970","0.0-6.0","A2R1LWOGQJTGRL","img_art/ins/popularity/ins2.png","0","instructions","","","","","","","","","","","","","","","","","","","","","","","",""
"4448","","image-button-response_instructions","7","67426","0.0-7.0","A2R1LWOGQJTGRL","img_art/ins/popularity/ins2Extreme.png","0","instructions","","","","","","","","","","","","","","","","","","","","","","","",""
"16470","","image-button-response_instructions","8","83903","0.0-8.0","A2R1LWOGQJTGRL","img_art/ins/popularity/ins3KEEPpop.PNG","0","instructions","","","","","","","","","","","","","","","","","","","","","","","",""
"2109","","image-button-response_instructions","9","86017","0.0-9.0","A2R1LWOGQJTGRL","img_art/ins/popularity/ins3ANamepop.PNG","0","instructions","","","","","","","","","","","","","","","","","","","","","","","",""
"2792","","image-button-response_instructions","10","88812","0.0-10.0","A2R1LWOGQJTGRL","img_art/ins/popularity/ins3ARatingpop.png","0","instructions","","","","","","","","","","","","","","","","","","","","","","","",""
"1502","","image-button-response_instructions","11","90319","0.0-11.0","A2R1LWOGQJTGRL","img_art/ins/popularity/ins3ATextpop.png","0","instructions","","","","","","","","","","","","","","","","","","","","","","","",""
"4020","","image-button-response_instructions","12","94344","0.0-12.0","A2R1LWOGQJTGRL","img_art/ins/popularity/ins3ALikespop.png","0","instructions","","","","","","","","","","","","","","","","","","","","","","","",""
"5525","","image-button-response_instructions","13","99875","0.0-13.0","A2R1LWOGQJTGRL","img_art/ins/popularity/ins3KEEPpop.PNG","0","instructions","","","","","","","","","","","","","","","","","","","","","","","",""
"3425","","image-button-response_instructions","14","103305","0.0-14.0","A2R1LWOGQJTGRL","img_art/ins/popularity/ins3_5RED.png","0","instructions","","","","","","","","","","","","","","","","","","","","","","","",""
"2182","","image-button-response_instructions","15","105492","0.0-15.0","A2R1LWOGQJTGRL","img_art/ins/popularity/ins3KEEPpop.PNG","0","instructions","","","","","","","","","","","","","","","","","","","","","","","",""
"4349","","image-button-response_instructions","16","109845","0.0-16.0","A2R1LWOGQJTGRL","img_art/ins/popularity/ins4KEEPpop.PNG","0","instructions","","","","","","","","","","","","","","","","","","","","","","","",""
"2617","","image-button-response_instructions","17","112469","0.0-17.0","A2R1LWOGQJTGRL","img_art/ins/popularity/ins5KEEPpop.PNG","0","instructions","","","","","","","","","","","","","","","","","","","","","","","",""
"1250","","image-button-response_instructions","18","113723","0.0-18.0","A2R1LWOGQJTGRL","","0","instructions","","","","","","","","","","","","","","","","","","","","","","","",""
"5287","","survey-text","19","119090","0.0-19.0-0.0","A2R1LWOGQJTGRL","","","","{""Q0"":""but""}","","","","","","","","","","","","","","","","","","","","","","",""
"19724","","survey-text","20","138821","0.0-20.0-0.0","A2R1LWOGQJTGRL","","","","{""Q0"":""It looks like a rabbit in a pink field""}","","","","","","","","","","","","","","","","","","","","","","",""
"10739.099999997765","","image-slider-response","21","149570","0.0-21.0","A2R1LWOGQJTGRL","","","","","-15","","","","","","","","","","","","","","","","","","","","","",""
"null","","image-button-response","22","154585","0.0-22.0","A2R1LWOGQJTGRL","img_art/ins/1.jpg","null","","","","","","","","","","","","","","","","","","","","","","","","",""
"8015","","image-button-response","23","162610","0.0-23.0","A2R1LWOGQJTGRL","img_art/ins/1.jpg","5","","","","","","","","","","","","","","","","","","","","","","","","",""
"1842","","image-button-response","24","164462","0.0-24.0-0.0","A2R1LWOGQJTGRL","img_art/ins/1.jpg","4","","","","","","","","","","","","","","","","","","","","","","","","",""
"2157","","image-button-response","25","166629","0.0-25.0-0.0","A2R1LWOGQJTGRL","img_art/ins/1.jpg","0","","","","","","","","","","","","","","","","","","","","","","","","",""
"null","","html-keyboard-response","26","167139","0.0-26.0","A2R1LWOGQJTGRL","<p style=""font-size: 48px;"">+</p>","","","","","null","allTrialResponses","500","1","-2","img_art/ins/1.jpg","-15","It looks like a rabbit in a pink field","Allison,Ashley,Beth,Dora,Erika,Jen","looks like a lot of things going on in the mist,20,20,20","I just don't get why these type of art would be popular,-32,40,20","This color reminds me of poo,-46,60,20","looks like what my niece in 3rd grade did this afternoon,-50,80,20","I like the sophisticated brushwork,40,100,20","It reminds me of a candy land dream I had,36,120,20","Jen","It reminds me of a candy land dream I had,36,120,20","Erika","I like the sophisticated brushwork,40,100,20","Allison","looks like a lot of things going on in the mist,20,20,20","0"
"22799","","survey-text","27","189965","0.0-27.0-0.0","A2R1LWOGQJTGRL","","","","{""Q0"":""Looks like a gate with an ocean behind it""}","","","","","","","","","","","","","","","","","","","","","","",""
"6802.900000002235","","image-slider-response","28","196776","0.0-28.0","A2R1LWOGQJTGRL","","","","","5","","","","","","","","","","","","","","","","","","","","","",""
"null","","image-button-response","29","201791","0.0-29.0","A2R1LWOGQJTGRL","img_art/ins/2.jpg","null","","","","","","","","","","","","","","","","","","","","","","","","",""
"4938","","image-button-response","30","206738","0.0-30.0","A2R1LWOGQJTGRL","img_art/ins/2.jpg","5","","","","","","","","","","","","","","","","","","","","","","","","",""
"8434","","image-button-response","31","215181","0.0-31.0-0.0","A2R1LWOGQJTGRL","img_art/ins/2.jpg","4","","","","","","","","","","","","","","","","","","","","","","","","",""
"1785","","image-button-response","32","216973","0.0-32.0-0.0","A2R1LWOGQJTGRL","img_art/ins/2.jpg","1","","","","","","","","","","","","","","","","","","","","","","","","",""
"null","","html-keyboard-response","33","217478","0.0-33.0","A2R1LWOGQJTGRL","<p style=""font-size: 48px;"">+</p>","","","","","null","allTrialResponses","500","1","-1","img_art/ins/2.jpg","5","Looks like a gate with an ocean behind it","Allison,Kara,Katie,Jenna,Erika,Jen","I don't have strong feelings about this,10,20,20","I like the blocks of color arrangements,30,160,20","too much color!,-28,180,20","One of my pet peevs,-48,140,20","I would never be able to compose a sophisticated pallete like this,48,100,20","It reminds me of a fireplace,36,120,20","Jen","It reminds me of a fireplace,36,120,20","Erika","I would never be able to compose a sophisticated pallete like this,48,100,20","Kara","I like the blocks of color arrangements,30,160,20","0"
"12450","","survey-text","34","229947","0.0-34.0-0.0","A2R1LWOGQJTGRL","","","","{""Q0"":""It looks cold and icy""}","","","","","","","","","","","","","","","","","","","","","","",""
"10710.10000000149","","image-slider-response","35","240663","0.0-35.0","A2R1LWOGQJTGRL","","","","","15","","","","","","","","","","","","","","","","","","","","","",""
"null","","image-button-response","36","245672","0.0-36.0","A2R1LWOGQJTGRL","img_art/ins/3.jpg","null","","","","","","","","","","","","","","","","","","","","","","","","",""
"677","","image-button-response","37","246357","0.0-37.0","A2R1LWOGQJTGRL","img_art/ins/3.jpg","5","","","","","","","","","","","","","","","","","","","","","","","","",""
"2427","","image-button-response","38","248791","0.0-38.0-0.0","A2R1LWOGQJTGRL","img_art/ins/3.jpg","1","","","","","","","","","","","","","","","","","","","","","","","","",""
"12368","","image-button-response","39","261168","0.0-39.0-0.0","A2R1LWOGQJTGRL","img_art/ins/3.jpg","3","","","","","","","","","","","","","","","","","","","","","","","","",""
"null","","html-keyboard-response","40","262675","0.0-40.0","A2R1LWOGQJTGRL","<p style=""font-size: 48px;"">+</p>","","","","","null","allTrialResponses","1500","1","0","img_art/ins/3.jpg","15","It looks cold and icy","Mary,Kara,Rose,Leslie,Erika,Jen","I like the overlapping of brushes,41,220,20","calming blue is very nice,36,160,20","My daily routine, it's depressing,-20,240,20","It's an alright work,15,200,20","I feel connected to the artist,40,100,20","I can feel a rainy day from this painting,18,120,20","Jen","I can feel a rainy day from this painting,18,120,20","Kara","calming blue is very nice,36,160,20","Leslie","It's an alright work,15,200,20","0"
"6172","","image-button-response_instructions","41","268863","0.0-41.0","A2R1LWOGQJTGRL","","0","instructions","","","","","","","","","","","","","","","","","","","","","","","",""
"13966","","survey-likert","42","282837","0.0-42.0-0.0","A2R1LWOGQJTGRL","","","","{""Q0"":"""",""Q1"":0,""Q2"":1}","","","","","","","","","","","","","","","","","","","","","","",""
"4178","","survey-text","43","287044","0.0-43.0-0.0","A2R1LWOGQJTGRL","","","","{""Q0"":""rock""}","","","","","","","","","","","","","","","","","","","","","","",""
"39995","","survey-text","44","327044","0.0-44.0-0.0","A2R1LWOGQJTGRL","","","","{""Q0"":""It looks like feathers and clouds with clotheslines""}","","","","","","","","","","","","","","","","","","","","","","",""
"6628.400000002235","","image-slider-response","45","333679","0.0-45.0","A2R1LWOGQJTGRL","","","","","-10","","","","","","","","","","","","","","","","","","","","","",""
"null","","image-button-response","46","338753","0.0-46.0","A2R1LWOGQJTGRL","img_art/27.jpg","null","","","","","","","","","","","","","","","","","","","","","","","","",""
"9120","","image-button-response","47","347883","0.0-47.0","A2R1LWOGQJTGRL","img_art/27.jpg","3","","","","","","","","","","","","","","","","","","","","","","","","",""
"2784","","image-button-response","48","350674","0.0-48.0-0.0","A2R1LWOGQJTGRL","img_art/27.jpg","1","","","","","","","","","","","","","","","","","","","","","","","","",""
"4210","","image-button-response","49","354895","0.0-49.0-0.0","A2R1LWOGQJTGRL","img_art/27.jpg","4","","","","","","","","","","","","","","","","","","","","","","","","",""
"null","","html-keyboard-response","50","355402","0.0-50.0","A2R1LWOGQJTGRL","<p style=""font-size: 48px;"">+</p>","","","","","null","allTrialResponses","500","1","1","img_art/27.jpg","-10","It looks like feathers and clouds with clotheslines","Danielle,Sarah,Caitlin,Allison,Angela,Jennifer","Looks a bit like a child's project with unsatisfying colors,-31,340,20","i don't think i should like this one because it's a little chaotic and simple but I do,6,180,20","Looks like a child added his own interpretation with a black marker.,-5,80,20","Warn colors are pretty, but too blotchy for me.,3,140,20","It's okay. Not really interesting to me.,-10,260,20","Somewhat boring piece,-3,380,20","Allison","Warn colors are pretty, but too blotchy for me.,3,140,20","Sarah","i don't think i should like this one because it's a little chaotic and simple but I do,6,180,20","Angela","It's okay. Not really interesting to me.,-10,260,20","0"
"24464","","survey-text","51","379884","0.0-51.0-0.0","A2R1LWOGQJTGRL","","","","{""Q0"":""I like the colored blocks and patterns""}","","","","","","","","","","","","","","","","","","","","","","",""
"10305.20000000298","","image-slider-response","52","390197","0.0-52.0","A2R1LWOGQJTGRL","","","","","35","","","","","","","","","","","","","","","","","","","","","",""
"null","","image-button-response","53","395208","0.0-53.0","A2R1LWOGQJTGRL","img_art/12.jpg","null","","","","","","","","","","","","","","","","","","","","","","","","",""
"168","","image-button-response","54","395385","0.0-54.0","A2R1LWOGQJTGRL","img_art/12.jpg","2","","","","","","","","","","","","","","","","","","","","","","","","",""
"3393","","image-button-response","55","398785","0.0-55.0-0.0","A2R1LWOGQJTGRL","img_art/12.jpg","4","","","","","","","","","","","","","","","","","","","","","","","","",""
"7642","","image-button-response","56","406438","0.0-56.0-0.0","A2R1LWOGQJTGRL","img_art/12.jpg","3","","","","","","","","","","","","","","","","","","","","","","","","",""
"null","","html-keyboard-response","57","406943","0.0-57.0","A2R1LWOGQJTGRL","<p style=""font-size: 48px;"">+</p>","","","","","null","allTrialResponses","500","1","2","img_art/12.jpg","35","I like the colored blocks and patterns","Sara,Sarah,Monica,Allison,Angela,Kayla","I don't like the blocking,-20,160,20","i think it's a good piece but it doesn't appeal to me,-18,180,20","Reminds me of collages we made in elementary school. I like the contrast of the colors from top to bottom,43,360,20","Minimalist colors and shapes.,-5,140,20","I like the colors in the bottom half of the painting,10,260,20","Yay! Lots of people, lots of lives.,25,180,20","Monica","Reminds me of collages we made in elementary school. I like the contrast of the colors from top to bottom,43,360,20","Angela","I like the colors in the bottom half of the painting,10,260,20","Allison","Minimalist colors and shapes.,-5,140,20","0"
"16195","","survey-text","58","423155","0.0-58.0-0.0","A2R1LWOGQJTGRL","","","","{""Q0"":""It feels like a busy interstate system""}","","","","","","","","","","","","","","","","","","","","","","",""
"9175.800000000745","","image-slider-response","59","432336","0.0-59.0","A2R1LWOGQJTGRL","","","","","5","","","","","","","","","","","","","","","","","","","","","",""
"null","","image-button-response","60","437349","0.0-60.0","A2R1LWOGQJTGRL","img_art/11.jpg","null","","","","","","","","","","","","","","","","","","","","","","","","",""
"6718","","image-button-response","61","444077","0.0-61.0","A2R1LWOGQJTGRL","img_art/11.jpg","4","","","","","","","","","","","","","","","","","","","","","","","","",""
"1198","","image-button-response","62","445286","0.0-62.0-0.0","A2R1LWOGQJTGRL","img_art/11.jpg","4","","","","","","","","","","","","","","","","","","","","","","","","",""
"900","","image-button-response","63","451017","0.0-62.1-0.1","A2R1LWOGQJTGRL","img_art/11.jpg","2","","","","","","","","","","","","","","","","","","","","","","","","",""
"11413","","image-button-response","64","462437","0.0-63.0-0.0","A2R1LWOGQJTGRL","img_art/11.jpg","0","","","","","","","","","","","","","","","","","","","","","","","","",""
"null","","html-keyboard-response","65","463943","0.0-64.0","A2R1LWOGQJTGRL","<p style=""font-size: 48px;"">+</p>","","","","","null","allTrialResponses","1500","1","3","img_art/11.jpg","5","It feels like a busy interstate system","Erin,Megan,Monica,Allison,Angela,Kelly","Frank Lloyd Wright, music,24,120,20","Some interesting color but scratchy train mess.,-14,200,20","I like how it reminds me of music and at the same time it looks like colorful train tracks.,10,360,20","Kind of reminds me of DNA.,9,140,20","I like this one very much, especially the shades of gray.,30,260,20","Its a little psychedelic.,10,220,20","Angela","I like this one very much, especially the shades of gray.,30,260,20","Monica","I like how it reminds me of music and at the same time it looks like colorful train tracks.,10,360,20","Erin","Frank Lloyd Wright, music,24,120,20","2"
"18687","","survey-text","66","482649","0.0-65.0-0.0","A2R1LWOGQJTGRL","","","","{""Q0"":""Nature, flowing water and grass""}","","","","","","","","","","","","","","","","","","","","","","",""
"18591.800000000745","","image-slider-response","67","501247","0.0-66.0","A2R1LWOGQJTGRL","","","","","18","","","","","","","","","","","","","","","","","","","","","",""
"null","","image-button-response","68","506259","0.0-67.0","A2R1LWOGQJTGRL","img_art/24.jpg","null","","","","","","","","","","","","","","","","","","","","","","","","",""
"299","","image-button-response","69","506581","0.0-68.0","A2R1LWOGQJTGRL","img_art/24.jpg","4","","","","","","","","","","","","","","","","","","","","","","","","",""
"2216","","image-button-response","70","508807","0.0-69.0-0.0","A2R1LWOGQJTGRL","img_art/24.jpg","2","","","","","","","","","","","","","","","","","","","","","","","","",""
"989","","image-button-response","71","509804","0.0-70.0-0.0","A2R1LWOGQJTGRL","img_art/24.jpg","1","","","","","","","","","","","","","","","","","","","","","","","","",""
"null","","html-keyboard-response","72","511309","0.0-71.0","A2R1LWOGQJTGRL","<p style=""font-size: 48px;"">+</p>","","","","","null","allTrialResponses","1500","1","4","img_art/24.jpg","18","Nature, flowing water and grass","Erin,Sabrina,Monica,Crystal,Angela,Miranda","Too literal, not abstract,-29,120,20","Love the natural vibe,50,120,20","It looks alive, like I can hear the water flowing,41,360,20","I don't like this painting because of its blottedness. It lacks conviction, direction and purpose.,-31,300,20","Love the colors in this work, and the sense of motion in the water,36,260,20","I find the colors work really well. It's very pretty but I have no idea as what it is.,34,320,20","Angela","Love the colors in this work, and the sense of motion in the water,36,260,20","Monica","It looks alive, like I can hear the water flowing,41,360,20","Sabrina","Love the natural vibe,50,120,20","2"
"17225","","survey-text","73","528551","0.0-72.0-0.0","A2R1LWOGQJTGRL","","","","{""Q0"":""Beautiful neutral living room with trees ""}","","","","","","","","","","","","","","","","","","","","","","",""
"9341.89999999851","","image-slider-response","74","537899","0.0-73.0","A2R1LWOGQJTGRL","","","","","24","","","","","","","","","","","","","","","","","","","","","",""
"null","","image-button-response","75","542907","0.0-74.0","A2R1LWOGQJTGRL","img_art/26.jpg","null","","","","","","","","","","","","","","","","","","","","","","","","",""
"14435","","image-button-response","76","557350","0.0-75.0","A2R1LWOGQJTGRL","img_art/26.jpg","3","","","","","","","","","","","","","","","","","","","","","","","","",""
"3757","","image-button-response","77","561112","0.0-76.0-0.0","A2R1LWOGQJTGRL","img_art/26.jpg","0","","","","","","","","","","","","","","","","","","","","","","","","",""
"4577","","image-button-response","78","565701","0.0-77.0-0.0","A2R1LWOGQJTGRL","img_art/26.jpg","5","","","","","","","","","","","","","","","","","","","","","","","","",""
"null","","html-keyboard-response","79","566706","0.0-78.0","A2R1LWOGQJTGRL","<p style=""font-size: 48px;"">+</p>","","","","","null","allTrialResponses","1000","1","5","img_art/26.jpg","24","Beautiful neutral living room with trees ","Rebecca,Sabrina,Monica,Kylie,Angela,Abigail","love the ""lowkey"" vibrant colors that are colorful but at the same time greyscale,12,100,20","I dont see any expression,-29,120,20","It looks empty and unfinished,-28,360,20","Picturesque little town,45,300,20","Nice, but not very interesting. I do like the blue tree though.,6,260,20","Reminds me of walks in my dads city when I was little,22,20,20","Kylie","Picturesque little town,45,300,20","Rebecca","love the ""lowkey"" vibrant colors that are colorful but at the same time greyscale,12,100,20","Abigail","Reminds me of walks in my dads city when I was little,22,20,20","2"
"3021","","survey-text","80","569764","0.0-79.0-0.0","A2R1LWOGQJTGRL","","","","{""Q0"":""sky""}","","","","","","","","","","","","","","","","","","","","","","",""
"21144","","survey-text","81","590914","0.0-80.0-0.0","A2R1LWOGQJTGRL","","","","{""Q0"":""Space or a bluesy kind of place""}","","","","","","","","","","","","","","","","","","","","","","",""
"7094.900000002235","","image-slider-response","82","598017","0.0-81.0","A2R1LWOGQJTGRL","","","","","-10","","","","","","","","","","","","","","","","","","","","","",""
"null","","image-button-response","83","603030","0.0-82.0","A2R1LWOGQJTGRL","img_art/22.jpg","null","","","","","","","","","","","","","","","","","","","","","","","","",""
"9501","","image-button-response","84","612543","0.0-83.0","A2R1LWOGQJTGRL","img_art/22.jpg","3","","","","","","","","","","","","","","","","","","","","","","","","",""
"1044","","image-button-response","85","613599","0.0-84.0-0.0","A2R1LWOGQJTGRL","img_art/22.jpg","1","","","","","","","","","","","","","","","","","","","","","","","","",""
"720","","image-button-response","86","614331","0.0-85.0-0.0","A2R1LWOGQJTGRL","img_art/22.jpg","1","","","","","","","","","","","","","","","","","","","","","","","","",""
"1197","","image-button-response","87","620166","0.0-85.1-0.1","A2R1LWOGQJTGRL","img_art/22.jpg","0","","","","","","","","","","","","","","","","","","","","","","","","",""
"null","","html-keyboard-response","88","620672","0.0-86.0","A2R1LWOGQJTGRL","<p style=""font-size: 48px;"">+</p>","","","","","null","allTrialResponses","500","1","6","img_art/22.jpg","-10","Space or a bluesy kind of place","Rebecca,Anna,Meghan,Kylie,Brittany,Abigail","colorful water (in front of castle?),17,100,20","Boring, typical abstract art,-30,300,20","really beautiful colors and contrast,30,220,20","Climate change in a big city,35,300,20","It reminds me of sunsets and dusks.,22,40,20","The colors are too dark, too much red,2,20,20","Kylie","Climate change in a big city,35,300,20","Anna","Boring, typical abstract art,-30,300,20","Rebecca","colorful water (in front of castle?),17,100,20","4"
"20581","","survey-text","89","641277","0.0-87.0-0.0","A2R1LWOGQJTGRL","","","","{""Q0"":""some kind of green person smiling""}","","","","","","","","","","","","","","","","","","","","","","",""
"9622.89999999851","","image-slider-response","90","650905","0.0-88.0","A2R1LWOGQJTGRL","","","","","5","","","","","","","","","","","","","","","","","","","","","",""
"null","","image-button-response","91","655914","0.0-89.0","A2R1LWOGQJTGRL","img_art/2.jpg","null","","","","","","","","","","","","","","","","","","","","","","","","",""
"10729","","image-button-response","92","666654","0.0-90.0","A2R1LWOGQJTGRL","img_art/2.jpg","2","","","","","","","","","","","","","","","","","","","","","","","","",""
"5772","","image-button-response","93","672433","0.0-91.0-0.0","A2R1LWOGQJTGRL","img_art/2.jpg","5","","","","","","","","","","","","","","","","","","","","","","","","",""
"1194","","image-button-response","94","673638","0.0-92.0-0.0","A2R1LWOGQJTGRL","img_art/2.jpg","1","","","","","","","","","","","","","","","","","","","","","","","","",""
"null","","html-keyboard-response","95","674644","0.0-93.0","A2R1LWOGQJTGRL","<p style=""font-size: 48px;"">+</p>","","","","","null","allTrialResponses","1000","1","7","img_art/2.jpg","5","some kind of green person smiling","Rebecca,Anna,Michelle,Kylie,Katelyn,Natalie","do not understand,-21,100,20","The colors are pretty but I don't really like the shapes in it.,-20,300,20","Don't like the puke green color and also too abstact,-14,280,20","Not very appealing,-5,300,20","Looks childish and i dont like the texture,-25,100,20","looks like a bunch of gibberish,-39,400,20","Michelle","Don't like the puke green color and also too abstact,-14,280,20","Natalie","looks like a bunch of gibberish,-39,400,20","Anna","The colors are pretty but I don't really like the shapes in it.,-20,300,20","4"
"20763","","survey-text","96","695424","0.0-94.0-0.0","A2R1LWOGQJTGRL","","","","{""Q0"":""looks like someone scribbled in blood""}","","","","","","","","","","","","","","","","","","","","","","",""
"4411.5","","image-slider-response","97","699841","0.0-95.0","A2R1LWOGQJTGRL","","","","","-50","","","","","","","","","","","","","","","","","","","","","",""
"null","","image-button-response","98","704856","0.0-96.0","A2R1LWOGQJTGRL","img_art/3.jpg","null","","","","","","","","","","","","","","","","","","","","","","","","",""
"5072","","image-button-response","99","709941","0.0-97.0","A2R1LWOGQJTGRL","img_art/3.jpg","5","","","","","","","","","","","","","","","","","","","","","","","","",""
"1976","","image-button-response","100","711925","0.0-98.0-0.0","A2R1LWOGQJTGRL","img_art/3.jpg","2","","","","","","","","","","","","","","","","","","","","","","","","",""
"2652","","image-button-response","101","714587","0.0-99.0-0.0","A2R1LWOGQJTGRL","img_art/3.jpg","1","","","","","","","","","","","","","","","","","","","","","","","","",""
"null","","html-keyboard-response","102","715099","0.0-100.0","A2R1LWOGQJTGRL","<p style=""font-size: 48px;"">+</p>","","","","","null","allTrialResponses","500","1","8","img_art/3.jpg","-50","looks like someone scribbled in blood","Kaitlyn,Anna,Michelle,Caroline,Jordan,Natalie","Too much red; very bland,-26,80,20","Definition of mediocre abstract art,-12,300,20","Ok, just a bunch of red lines and a grey smudge. Would pass this right by in a gallery,-12,280,20","The red makes me think of blood which makes me think of pain,-50,100,20","i don't like this, just looks like scribbles,-50,20,20","my response to the picture is a lot of red, danger,,-21,400,20","Natalie","my response to the picture is a lot of red, danger,,-21,400,20","Michelle","Ok, just a bunch of red lines and a grey smudge. Would pass this right by in a gallery,-12,280,20","Anna","Definition of mediocre abstract art,-12,300,20","4"
"12746","","survey-text","103","727863","0.0-101.0-0.0","A2R1LWOGQJTGRL","","","","{""Q0"":""looks like a celebration. confetti and lots of people dancing""}","","","","","","","","","","","","","","","","","","","","","","",""
"6609.60000000149","","image-slider-response","104","734477","0.0-102.0","A2R1LWOGQJTGRL","","","","","50","","","","","","","","","","","","","","","","","","","","","",""
"null","","image-button-response","105","739489","0.0-103.0","A2R1LWOGQJTGRL","img_art/23.jpg","null","","","","","","","","","","","","","","","","","","","","","","","","",""
"5590","","image-button-response","106","745089","0.0-104.0","A2R1LWOGQJTGRL","img_art/23.jpg","2","","","","","","","","","","","","","","","","","","","","","","","","",""
"2070","","image-button-response","107","747167","0.0-105.0-0.0","A2R1LWOGQJTGRL","img_art/23.jpg","0","","","","","","","","","","","","","","","","","","","","","","","","",""
"4637","","image-button-response","108","751812","0.0-106.0-0.0","A2R1LWOGQJTGRL","img_art/23.jpg","3","","","","","","","","","","","","","","","","","","","","","","","","",""
"null","","html-keyboard-response","109","752817","0.0-107.0","A2R1LWOGQJTGRL","<p style=""font-size: 48px;"">+</p>","","","","","null","allTrialResponses","1000","1","9","img_art/23.jpg","50","looks like a celebration. confetti and lots of people dancing","Autumn,Anna,Michelle,Alexa,Brooke,Natalie","Awesome abstraction love it.,30,340,20","I love the colors and the contrast.,50,300,20","This is nice, the colorful background is fun and the white looks like dancing figures,5,280,20","Very colorful and wild. It's cool and I like it,32,40,20","looks like those paper chain things.,0,60,20","so much detail .,31,400,20","Michelle","This is nice, the colorful background is fun and the white looks like dancing figures,5,280,20","Autumn","Awesome abstraction love it.,30,340,20","Alexa","Very colorful and wild. It's cool and I like it,32,40,20","4"
"29924","","survey-text","110","782762","0.0-108.0-0.0","A2R1LWOGQJTGRL","","","","{""Q0"":""love the colors. like a building with an open roof and a beautiful tree coming in""}","","","","","","","","","","","","","","","","","","","","","","",""
"9273.599999997765","","image-slider-response","111","792044","0.0-109.0","A2R1LWOGQJTGRL","","","","","40","","","","","","","","","","","","","","","","","","","","","",""
"null","","image-button-response","112","797055","0.0-110.0","A2R1LWOGQJTGRL","img_art/17.jpg","null","","","","","","","","","","","","","","","","","","","","","","","","",""
"7364","","image-button-response","113","804427","0.0-111.0","A2R1LWOGQJTGRL","img_art/17.jpg","3","","","","","","","","","","","","","","","","","","","","","","","","",""
"963","","image-button-response","114","805399","0.0-112.0-0.0","A2R1LWOGQJTGRL","img_art/17.jpg","4","","","","","","","","","","","","","","","","","","","","","","","","",""
"801","","image-button-response","115","806210","0.0-113.0-0.0","A2R1LWOGQJTGRL","img_art/17.jpg","5","","","","","","","","","","","","","","","","","","","","","","","","",""
"null","","html-keyboard-response","116","806714","0.0-114.0","A2R1LWOGQJTGRL","<p style=""font-size: 48px;"">+</p>","","","","","null","allTrialResponses","500","1","10","img_art/17.jpg","40","love the colors. like a building with an open roof and a beautiful tree coming in","Autumn,Makayla,Michelle,Alexa,Samantha,Shannon","Looks awesome .,33,340,20","I feel okay , it's like a tree,28,80,20","I can tell there are tress and maybe some doors but I'm not a fan of the style,-2,280,20","The colors are beautiful and the painting itself is magnificent,50,40,20","Nice colors, shapes, flow,31,140,20","I like the way the colors were used behind the tree. Makes the image colorful and interesting.,30,220,20","Alexa","The colors are beautiful and the painting itself is magnificent,50,40,20","Samantha","Nice colors, shapes, flow,31,140,20","Shannon","I like the way the colors were used behind the tree. Makes the image colorful and interesting.,30,220,20","4"
"2982","","survey-text","117","809729","0.0-115.0-0.0","A2R1LWOGQJTGRL","","","","{""Q0"":""our""}","","","","","","","","","","","","","","","","","","","","","","",""
"19954","","survey-text","118","829689","0.0-116.0-0.0","A2R1LWOGQJTGRL","","","","{""Q0"":""powerful person overlooking a small town""}","","","","","","","","","","","","","","","","","","","","","","",""
"8591.099999997765","","image-slider-response","119","838286","0.0-117.0","A2R1LWOGQJTGRL","","","","","10","","","","","","","","","","","","","","","","","","","","","",""
"null","","image-button-response","120","843297","0.0-118.0","A2R1LWOGQJTGRL","img_art/8.jpg","null","","","","","","","","","","","","","","","","","","","","","","","","",""
"18811","","image-button-response","121","862117","0.0-119.0","A2R1LWOGQJTGRL","img_art/8.jpg","3","","","","","","","","","","","","","","","","","","","","","","","","",""
"1417","","image-button-response","122","863542","0.0-120.0-0.0","A2R1LWOGQJTGRL","img_art/8.jpg","5","","","","","","","","","","","","","","","","","","","","","","","","",""
"1526","","image-button-response","123","865076","0.0-121.0-0.0","A2R1LWOGQJTGRL","img_art/8.jpg","2","","","","","","","","","","","","","","","","","","","","","","","","",""
"null","","html-keyboard-response","124","865581","0.0-122.0","A2R1LWOGQJTGRL","<p style=""font-size: 48px;"">+</p>","","","","","null","allTrialResponses","500","1","11","img_art/8.jpg","10","powerful person overlooking a small town","Leah,Erika,Shelby,Alexa,Samantha,Shannon","Nice formats, I just don't like it much,-16,360,20","Striking, but not my taste,20,100,20","Too much going on, too many colors, makes me feel uneasy,-20,240,20","It's simply gorgeous. This artist is very talented,50,40,20","The face bothers me,-25,140,20","I like that it looks like a city and the way the shapes and colors are put together,40,220,20","Alexa","It's simply gorgeous. This artist is very talented,50,40,20","Shannon","I like that it looks like a city and the way the shapes and colors are put together,40,220,20","Shelby","Too much going on, too many colors, makes me feel uneasy,-20,240,20","4"
"59173","","survey-text","125","924773","0.0-123.0-0.0","A2R1LWOGQJTGRL","","","","{""Q0"":""Very interesting. Looks like a city/trees within an open book""}","","","","","","","","","","","","","","","","","","","","","","",""
"7118","","image-slider-response","126","931896","0.0-124.0","A2R1LWOGQJTGRL","","","","","10","","","","","","","","","","","","","","","","","","","","","",""
"4028","","image-button-response","127","936902","0.0-125.0","A2R1LWOGQJTGRL","img_art/14.jpg","3","","","","","","","","","","","","","","","","","","","","","","","","",""
"1628","","image-button-response","128","938538","0.0-126.0","A2R1LWOGQJTGRL","img_art/14.jpg","5","","","","","","","","","","","","","","","","","","","","","","","","",""
"3069","","image-button-response","129","941615","0.0-127.0-0.0","A2R1LWOGQJTGRL","img_art/14.jpg","3","","","","","","","","","","","","","","","","","","","","","","","","",""
"1626","","image-button-response","130","943250","0.0-128.0-0.0","A2R1LWOGQJTGRL","img_art/14.jpg","4","","","","","","","","","","","","","","","","","","","","","","","","",""
"null","","html-keyboard-response","131","943755","0.0-129.0","A2R1LWOGQJTGRL","<p style=""font-size: 48px;"">+</p>","","","","","null","allTrialResponses","500","1","12","img_art/14.jpg","10","Very interesting. Looks like a city/trees within an open book","Michaela,Rachel,Shelby,Alexa,Nicole,Shannon","I just really like light and wispy things,33,260,20","Did not evoke much feeling except confusion. I am not sure what to make of this one.,-20,80,20","Something about the cahotic imagery makes me uncomfortable,-15,240,20","Very abstract and colorful,40,40,20","This reminds me of the Lion King somehow! Feels inspiring,30,20,20","I like this picture because it looks like a tree and the colors used look cool.,20,220,20","Shannon","I like this picture because it looks like a tree and the colors used look cool.,20,220,20","Alexa","Very abstract and colorful,40,40,20","Nicole","This reminds me of the Lion King somehow! Feels inspiring,30,20,20","4"
"57503","","survey-text","132","1001279","0.0-130.0-0.0","A2R1LWOGQJTGRL","","","","{""Q0"":""Looks like two people, one with an elephant arm. maybe a refrigerator in the background""}","","","","","","","","","","","","","","","","","","","","","","",""
"8016.29999999702","","image-slider-response","133","1009301","0.0-131.0","A2R1LWOGQJTGRL","","","","","-40","","","","","","","","","","","","","","","","","","","","","",""
"null","","image-button-response","134","1014311","0.0-132.0","A2R1LWOGQJTGRL","img_art/28.jpg","null","","","","","","","","","","","","","","","","","","","","","","","","",""
"39057","","image-button-response","135","1053377","0.0-133.0","A2R1LWOGQJTGRL","img_art/28.jpg","3","","","","","","","","","","","","","","","","","","","","","","","","",""
"2299","","image-button-response","136","1055685","0.0-134.0-0.0","A2R1LWOGQJTGRL","img_art/28.jpg","2","","","","","","","","","","","","","","","","","","","","","","","","",""
"4552","","image-button-response","137","1060246","0.0-135.0-0.0","A2R1LWOGQJTGRL","img_art/28.jpg","4","","","","","","","","","","","","","","","","","","","","","","","","",""
"null","","html-keyboard-response","138","1061251","0.0-136.0","A2R1LWOGQJTGRL","<p style=""font-size: 48px;"">+</p>","","","","","null","allTrialResponses","1000","1","13","img_art/28.jpg","-40","Looks like two people, one with an elephant arm. maybe a refrigerator in the background","Breanna,Kaylee,Kimberly,Alexa,Nicole,Shannon","The colors are depressing,-5,380,20","i dont understand it,-34,200,20","The thing on the right is kind of weird/fetus-y,-12,260,20","The colors are dull but there's some kind of nostalgic essence of this painting,15,40,20","The lack of color variance leaves it looking ugly even if I like the brush strokes,-10,20,20","I don't like the way the colors look; I think very disgusting colors were used.,-20,220,20","Alexa","The colors are dull but there's some kind of nostalgic essence of this painting,15,40,20","Kimberly","The thing on the right is kind of weird/fetus-y,-12,260,20","Nicole","The lack of color variance leaves it looking ugly even if I like the brush strokes,-10,20,20","4"
"9661","","survey-text","139","1070933","0.0-137.0-0.0","A2R1LWOGQJTGRL","","","","{""Q0"":""looks like a sandy beach or a planet surface""}","","","","","","","","","","","","","","","","","","","","","","",""
"6703.599999997765","","image-slider-response","140","1077644","0.0-138.0","A2R1LWOGQJTGRL","","","","","15","","","","","","","","","","","","","","","","","","","","","",""
"4539","","image-button-response","141","1082656","0.0-139.0","A2R1LWOGQJTGRL","img_art/7.jpg","5","","","","","","","","","","","","","","","","","","","","","","","","",""
"795","","image-button-response","142","1083461","0.0-140.0","A2R1LWOGQJTGRL","img_art/7.jpg","5","","","","","","","","","","","","","","","","","","","","","","","","",""
"683","","image-button-response","143","1084152","0.0-141.0-0.0","A2R1LWOGQJTGRL","img_art/7.jpg","4","","","","","","","","","","","","","","","","","","","","","","","","",""
"4418","","image-button-response","144","1088577","0.0-142.0-0.0","A2R1LWOGQJTGRL","img_art/7.jpg","2","","","","","","","","","","","","","","","","","","","","","","","","",""
"null","","html-keyboard-response","145","1090082","0.0-143.0","A2R1LWOGQJTGRL","<p style=""font-size: 48px;"">+</p>","","","","","null","allTrialResponses","1500","1","14","img_art/7.jpg","15","looks like a sandy beach or a planet surface","Chelsea,Vanessa,Kimberly,Alexa,Nicole,Laura","It looks more like wallpaper rather than a painting.,-27,180,20","This is borning and lifeless.,-50,380,20","Looks like a bad picture of a beach,-21,260,20","Not a fan of the pattern or colors,-40,40,20","Looks like the surface of mars,29,20,20","I feel thirsty - reminds me of desert sand,11,320,20","Laura","I feel thirsty - reminds me of desert sand,11,320,20","Nicole","Looks like the surface of mars,29,20,20","Kimberly","Looks like a bad picture of a beach,-21,260,20","4"
"25195","","survey-text","146","1115296","0.0-144.0-0.0","A2R1LWOGQJTGRL","","","","{""Q0"":""a person walking in the snow. Surrounded by buildings and a bridge in the background. Cold""}","","","","","","","","","","","","","","","","","","","","","","",""
"7124.39999999851","","image-slider-response","147","1122427","0.0-145.0","A2R1LWOGQJTGRL","","","","","15","","","","","","","","","","","","","","","","","","","","","",""
"4474","","image-button-response","148","1127437","0.0-146.0","A2R1LWOGQJTGRL","img_art/19.jpg","4","","","","","","","","","","","","","","","","","","","","","","","","",""
"2355","","image-button-response","149","1129803","0.0-147.0","A2R1LWOGQJTGRL","img_art/19.jpg","1","","","","","","","","","","","","","","","","","","","","","","","","",""
"1442","","image-button-response","150","1131252","0.0-148.0-0.0","A2R1LWOGQJTGRL","img_art/19.jpg","2","","","","","","","","","","","","","","","","","","","","","","","","",""
"1435","","image-button-response","151","1132695","0.0-149.0-0.0","A2R1LWOGQJTGRL","img_art/19.jpg","0","","","","","","","","","","","","","","","","","","","","","","","","",""
"null","","html-keyboard-response","152","1133199","0.0-150.0","A2R1LWOGQJTGRL","<p style=""font-size: 48px;"">+</p>","","","","","null","allTrialResponses","500","1","15","img_art/19.jpg","15","a person walking in the snow. Surrounded by buildings and a bridge in the background. Cold","Haley,Maria,Kimberly,Victoria,Nicole,Laura","I like this as a whole, but the longer I look at it, the less it pleases me,-10,220,20","the way the landscape is portrayed captivates me - I enjoy studying the structure,32,120,20","The blue makes it look like it has depth,11,260,20","to much going on,-22,400,20","Feels like something I would hang in my dining room,42,20,20","confusion, scattered and diffuse,-4,320,20","Maria","the way the landscape is portrayed captivates me - I enjoy studying the structure,32,120,20","Kimberly","The blue makes it look like it has depth,11,260,20","Haley","I like this as a whole, but the longer I look at it, the less it pleases me,-10,220,20","4"
"3890","","survey-text","153","1137121","0.0-151.0-0.0","A2R1LWOGQJTGRL","","","","{""Q0"":""course""}","","","","","","","","","","","","","","","","","","","","","","",""
"30470","","survey-text","154","1167598","0.0-152.0-0.0","A2R1LWOGQJTGRL","","","","{""Q0"":""looks like a spill/messy situation on the floor""}","","","","","","","","","","","","","","","","","","","","","","",""
"4621.800000000745","","image-slider-response","155","1172225","0.0-153.0","A2R1LWOGQJTGRL","","","","","-38","","","","","","","","","","","","","","","","","","","","","",""
"2601","","image-button-response","156","1177240","0.0-154.0","A2R1LWOGQJTGRL","img_art/29.jpg","0","","","","","","","","","","","","","","","","","","","","","","","","",""
"653","","image-button-response","157","1177903","0.0-155.0","A2R1LWOGQJTGRL","img_art/29.jpg","0","","","","","","","","","","","","","","","","","","","","","","","","",""
"3647","","image-button-response","158","1181559","0.0-156.0-0.0","A2R1LWOGQJTGRL","img_art/29.jpg","4","","","","","","","","","","","","","","","","","","","","","","","","",""
"2463","","image-button-response","159","1184030","0.0-157.0-0.0","A2R1LWOGQJTGRL","img_art/29.jpg","5","","","","","","","","","","","","","","","","","","","","","","","","",""
"null","","html-keyboard-response","160","1185535","0.0-158.0","A2R1LWOGQJTGRL","<p style=""font-size: 48px;"">+</p>","","","","","null","allTrialResponses","1500","1","16","img_art/29.jpg","-38","looks like a spill/messy situation on the floor","Haley,Maria,Kimberly,Andrea,Alyssa,Sierra","Looks messy, but not in appealing way,-20,220,20","the mixed medium / collage annoys me,-19,120,20","I like the usage of a physical object,33,260,20","Bottomless pit and prison. Feels like its saying time is precious.,11,240,20","Its interesting although doesnt illicit any strong emotions from me,10,160,20","not digging the paintbrush,1,260,20","Haley","Looks messy, but not in appealing way,-20,220,20","Alyssa","Its interesting although doesnt illicit any strong emotions from me,10,160,20","Sierra","not digging the paintbrush,1,260,20","4"
"17055","","survey-text","161","1202609","0.0-159.0-0.0","A2R1LWOGQJTGRL","","","","{""Q0"":""feels like water. There is a big creature in the middle that looks menacing ""}","","","","","","","","","","","","","","","","","","","","","","",""
"6207.099999997765","","image-slider-response","162","1208823","0.0-160.0","A2R1LWOGQJTGRL","","","","","10","","","","","","","","","","","","","","","","","","","","","",""
"null","","image-button-response","163","1213832","0.0-161.0","A2R1LWOGQJTGRL","img_art/9.jpg","null","","","","","","","","","","","","","","","","","","","","","","","","",""
"2579","","image-button-response","164","1216422","0.0-162.0","A2R1LWOGQJTGRL","img_art/9.jpg","3","","","","","","","","","","","","","","","","","","","","","","","","",""
"2141","","image-button-response","165","1218569","0.0-163.0-0.0","A2R1LWOGQJTGRL","img_art/9.jpg","5","","","","","","","","","","","","","","","","","","","","","","","","",""
"3762","","image-button-response","166","1222339","0.0-164.0-0.0","A2R1LWOGQJTGRL","img_art/9.jpg","0","","","","","","","","","","","","","","","","","","","","","","","","",""
"null","","html-keyboard-response","167","1223844","0.0-165.0","A2R1LWOGQJTGRL","<p style=""font-size: 48px;"">+</p>","","","","","null","allTrialResponses","1500","1","17","img_art/9.jpg","10","feels like water. There is a big creature in the middle that looks menacing ","Haley,Stephanie,Emma,Mary,Alyssa,Sierra","I don't like the picture, but it wouldn't surprise me if someone did,-20,220,20","Someone sleeping in a cave. Dont like the scribble look.,-30,300,20","Feels angry .....,-40,60,20","How neat is this piece?  I love the angry expressive lines. Emotion is captured in it.,26,180,20","Unpleasant, alot of dark colors and strange lines,-26,160,20","it looks like a lady resting. it is soothing.,4,260,20","Mary","How neat is this piece?  I love the angry expressive lines. Emotion is captured in it.,26,180,20","Sierra","it looks like a lady resting. it is soothing.,4,260,20","Haley","I don't like the picture, but it wouldn't surprise me if someone did,-20,220,20","4"
"30182","","survey-text","168","1254049","0.0-166.0-0.0","A2R1LWOGQJTGRL","","","","{""Q0"":""a lot going on here. it's loud and detailed""}","","","","","","","","","","","","","","","","","","","","","","",""
"4448.70000000298","","image-slider-response","169","1258504","0.0-167.0","A2R1LWOGQJTGRL","","","","","5","","","","","","","","","","","","","","","","","","","","","",""
"null","","image-button-response","170","1263511","0.0-168.0","A2R1LWOGQJTGRL","img_art/16.jpg","null","","","","","","","","","","","","","","","","","","","","","","","","",""
"1244","","image-button-response","171","1264767","0.0-169.0","A2R1LWOGQJTGRL","img_art/16.jpg","4","","","","","","","","","","","","","","","","","","","","","","","","",""
"2020","","image-button-response","172","1266793","0.0-170.0-0.0","A2R1LWOGQJTGRL","img_art/16.jpg","3","","","","","","","","","","","","","","","","","","","","","","","","",""
"4055","","image-button-response","173","1270855","0.0-171.0-0.0","A2R1LWOGQJTGRL","img_art/16.jpg","1","","","","","","","","","","","","","","","","","","","","","","","","",""
"null","","html-keyboard-response","174","1272360","0.0-172.0","A2R1LWOGQJTGRL","<p style=""font-size: 48px;"">+</p>","","","","","null","allTrialResponses","1500","1","18","img_art/16.jpg","5","a lot going on here. it's loud and detailed","Haley,Jenna,Elizabeth,Mary,Jasmine,Sierra","Makes me want to know more,5,220,20","very bizarre and confusing, but that feels purposeful, so i don't completely hate it.,-25,360,20","Picture seems unique,12,20,20","This is a neat piece. Sort of shocking. I think it's too monochromatic though.,19,180,20","I like it because it's quite different from the rest,23,340,20","it looks psychotic,-31,260,20","Jasmine","I like it because it's quite different from the rest,23,340,20","Mary","This is a neat piece. Sort of shocking. I think it's too monochromatic though.,19,180,20","Jenna","very bizarre and confusing, but that feels purposeful, so i don't completely hate it.,-25,360,20","4"
"24278","","survey-text","175","1296663","0.0-173.0-0.0","A2R1LWOGQJTGRL","","","","{""Q0"":""feels like a forest or wooded area in the fall""}","","","","","","","","","","","","","","","","","","","","","","",""
"8593.60000000149","","image-slider-response","176","1305265","0.0-174.0","A2R1LWOGQJTGRL","","","","","-10","","","","","","","","","","","","","","","","","","","","","",""
"null","","image-button-response","177","1310275","0.0-175.0","A2R1LWOGQJTGRL","img_art/1.jpg","null","","","","","","","","","","","","","","","","","","","","","","","","",""
"3419","","image-button-response","178","1313703","0.0-176.0","A2R1LWOGQJTGRL","img_art/1.jpg","0","","","","","","","","","","","","","","","","","","","","","","","","",""
"7411","","image-button-response","179","1321123","0.0-177.0-0.0","A2R1LWOGQJTGRL","img_art/1.jpg","5","","","","","","","","","","","","","","","","","","","","","","","","",""
"2091","","image-button-response","180","1323221","0.0-178.0-0.0","A2R1LWOGQJTGRL","img_art/1.jpg","2","","","","","","","","","","","","","","","","","","","","","","","","",""
"null","","html-keyboard-response","181","1323727","0.0-179.0","A2R1LWOGQJTGRL","<p style=""font-size: 48px;"">+</p>","","","","","null","allTrialResponses","500","1","19","img_art/1.jpg","-10","feels like a forest or wooded area in the fall","Tiffany,Jenna,Mackenzie,Mary,Jasmine,Catherine","I feel relaxed, like I'm watching the leaves change color.,17,360,20","beautiful colors and brush strokes,47,360,20","I like the simple aspect to the design,21,20,20","This piece feels soft and romantic to me. I do not care for so much orange though.,3,180,20","Too similar to some of the other pieces,-18,340,20","confused,animal like brain fog,0,160,20","Tiffany","I feel relaxed, like I'm watching the leaves change color.,17,360,20","Catherine","confused,animal like brain fog,0,160,20","Mackenzie","I like the simple aspect to the design,21,20,20","4"
"18441","","survey-text","182","1342187","0.0-180.0-0.0","A2R1LWOGQJTGRL","","","","{""Q0"":""My first thought was a pretzel but now it looks like a fist or a trophy""}","","","","","","","","","","","","","","","","","","","","","","",""
"9540.300000000745","","image-slider-response","183","1351734","0.0-181.0","A2R1LWOGQJTGRL","","","","","-1","","","","","","","","","","","","","","","","","","","","","",""
"null","","image-button-response","184","1356746","0.0-182.0","A2R1LWOGQJTGRL","img_art/4.jpg","null","","","","","","","","","","","","","","","","","","","","","","","","",""
"3179","","image-button-response","185","1359935","0.0-183.0","A2R1LWOGQJTGRL","img_art/4.jpg","2","","","","","","","","","","","","","","","","","","","","","","","","",""
"1815","","image-button-response","186","1361760","0.0-184.0-0.0","A2R1LWOGQJTGRL","img_art/4.jpg","1","","","","","","","","","","","","","","","","","","","","","","","","",""
"6050","","image-button-response","187","1367820","0.0-185.0-0.0","A2R1LWOGQJTGRL","img_art/4.jpg","5","","","","","","","","","","","","","","","","","","","","","","","","",""
"null","","html-keyboard-response","188","1368829","0.0-186.0","A2R1LWOGQJTGRL","<p style=""font-size: 48px;"">+</p>","","","","","null","allTrialResponses","1000","1","20","img_art/4.jpg","-1","My first thought was a pretzel but now it looks like a fist or a trophy","Tiffany,Diana,Mackenzie,Cassandra,Jacqueline,Catherine","The sickly looking colors make me feel very uncomfortable.,-35,360,20","Odd but intriguing. I feel emotion from this. Like a woman bent over carrying these emotions on her back.,33,380,20","I don't enjoy the colors, or texture, it seems like mustard,-23,20,20","I don't like this...a mustardy scibble.,-47,120,20","It looks like smeared poop.,-27,300,20","Hearts, family connected. They are standing on a narrow base and could fall to pieces at anytime.,40,160,20","Mackenzie","I don't enjoy the colors, or texture, it seems like mustard,-23,20,20","Diana","Odd but intriguing. I feel emotion from this. Like a woman bent over carrying these emotions on her back.,33,380,20","Catherine","Hearts, family connected. They are standing on a narrow base and could fall to pieces at anytime.,40,160,20","4"
"2523","","survey-text","189","1371391","0.0-187.0-0.0","A2R1LWOGQJTGRL","","","","{""Q0"":""we""}","","","","","","","","","","","","","","","","","","","","","","",""
"20137","","survey-text","190","1391534","0.0-188.0-0.0","A2R1LWOGQJTGRL","","","","{""Q0"":""it looks like a large bird in the desert. kind of weird""}","","","","","","","","","","","","","","","","","","","","","","",""
"4944","","image-slider-response","191","1396485","0.0-189.0","A2R1LWOGQJTGRL","","","","","-20","","","","","","","","","","","","","","","","","","","","","",""
"null","","image-button-response","192","1401494","0.0-190.0","A2R1LWOGQJTGRL","img_art/6.jpg","null","","","","","","","","","","","","","","","","","","","","","","","","",""
"2615","","image-button-response","193","1404118","0.0-191.0","A2R1LWOGQJTGRL","img_art/6.jpg","4","","","","","","","","","","","","","","","","","","","","","","","","",""
"854","","image-button-response","194","1404979","0.0-192.0-0.0","A2R1LWOGQJTGRL","img_art/6.jpg","1","","","","","","","","","","","","","","","","","","","","","","","","",""
"791","","image-button-response","195","1405778","0.0-193.0-0.0","A2R1LWOGQJTGRL","img_art/6.jpg","0","","","","","","","","","","","","","","","","","","","","","","","","",""
"null","","html-keyboard-response","196","1406284","0.0-194.0","A2R1LWOGQJTGRL","<p style=""font-size: 48px;"">+</p>","","","","","null","allTrialResponses","500","1","21","img_art/6.jpg","-20","it looks like a large bird in the desert. kind of weird","Lauren,Diana,Mackenzie,Alicia,Mariah,Catherine","I like the simplicity of the piece.,10,340,20","I love it. It reminds me of a bird sitting on a wall.,26,380,20","I enjoy the color contrast.,20,20,20","kids book cover, uninteresting.,-10,120,20","Clean and simple, a pleasant resting place for the eyes.,21,140,20","Looking, searching at the same time being content.,30,160,20","Mariah","Clean and simple, a pleasant resting place for the eyes.,21,140,20","Diana","I love it. It reminds me of a bird sitting on a wall.,26,380,20","Lauren","I like the simplicity of the piece.,10,340,20","4"
"24624","","survey-text","197","1430930","0.0-195.0-0.0","A2R1LWOGQJTGRL","","","","{""Q0"":""beautiful colors. Looks like a mountainside and sea""}","","","","","","","","","","","","","","","","","","","","","","",""
"3919","","image-slider-response","198","1434855","0.0-196.0","A2R1LWOGQJTGRL","","","","","25","","","","","","","","","","","","","","","","","","","","","",""
"3180","","image-button-response","199","1439862","0.0-197.0","A2R1LWOGQJTGRL","img_art/21.jpg","1","","","","","","","","","","","","","","","","","","","","","","","","",""
"474","","image-button-response","200","1440345","0.0-198.0","A2R1LWOGQJTGRL","img_art/21.jpg","0","","","","","","","","","","","","","","","","","","","","","","","","",""
"1062","","image-button-response","201","1441412","0.0-199.0-0.0","A2R1LWOGQJTGRL","img_art/21.jpg","1","","","","","","","","","","","","","","","","","","","","","","","","",""
"872","","image-button-response","202","1442295","0.0-200.0-0.0","A2R1LWOGQJTGRL","img_art/21.jpg","4","","","","","","","","","","","","","","","","","","","","","","","","",""
"null","","html-keyboard-response","203","1442801","0.0-201.0","A2R1LWOGQJTGRL","<p style=""font-size: 48px;"">+</p>","","","","","null","allTrialResponses","500","1","22","img_art/21.jpg","25","beautiful colors. Looks like a mountainside and sea","Lauren,Diana,Kelsey,Morgan,Mariah,Marissa","I like how the piece has the possibility of depicting some type of story.,30,340,20","Makes me feel light and airy. Like I've gone back in time to 1700th century France.,43,380,20","i like watercolor,22,240,20","Survivable storm on the open sea.,27,380,20","Motion, the light marks in the lower right corner are very appealing.,15,140,20","I feel confused,-18,160,20","Lauren","I like how the piece has the possibility of depicting some type of story.,30,340,20","Diana","Makes me feel light and airy. Like I've gone back in time to 1700th century France.,43,380,20","Mariah","Motion, the light marks in the lower right corner are very appealing.,15,140,20","4"
"19618","","survey-text","204","1462446","0.0-202.0-0.0","A2R1LWOGQJTGRL","","","","{""Q0"":""Musical, calm. Like music flowing in the water""}","","","","","","","","","","","","","","","","","","","","","","",""
"5933","","image-slider-response","205","1468386","0.0-203.0","A2R1LWOGQJTGRL","","","","","26","","","","","","","","","","","","","","","","","","","","","",""
"null","","image-button-response","206","1473395","0.0-204.0","A2R1LWOGQJTGRL","img_art/10.jpg","null","","","","","","","","","","","","","","","","","","","","","","","","",""
"1206","","image-button-response","207","1474607","0.0-205.0","A2R1LWOGQJTGRL","img_art/10.jpg","1","","","","","","","","","","","","","","","","","","","","","","","","",""
"1277","","image-button-response","208","1475893","0.0-206.0-0.0","A2R1LWOGQJTGRL","img_art/10.jpg","2","","","","","","","","","","","","","","","","","","","","","","","","",""
"2564","","image-button-response","209","1478469","0.0-207.0-0.0","A2R1LWOGQJTGRL","img_art/10.jpg","4","","","","","","","","","","","","","","","","","","","","","","","","",""
"null","","html-keyboard-response","210","1478975","0.0-208.0","A2R1LWOGQJTGRL","<p style=""font-size: 48px;"">+</p>","","","","","null","allTrialResponses","500","1","23","img_art/10.jpg","26","Musical, calm. Like music flowing in the water","Lauren,Diana,Amanda,Savannah,Mariah,Cassidy","I can't really tell what this is suppose to represent, but overall I don't like the design.,-20,340,20","It reminds me of the ocean. Almost like a battlefield, but on the water.,19,380,20","Reminds me of a beautiful ship wreck,36,180,20","This is a scribble of a mad man. Appears low effort.,-33,200,20","The colors and shapes are soothing but also disconcerting.,21,140,20","Looks like someone just smeared some paint and called it good. Do not like.,-6,140,20","Diana","It reminds me of the ocean. Almost like a battlefield, but on the water.,19,380,20","Amanda","Reminds me of a beautiful ship wreck,36,180,20","Mariah","The colors and shapes are soothing but also disconcerting.,21,140,20","4"
"20591","","survey-text","211","1499591","0.0-209.0-0.0","A2R1LWOGQJTGRL","","","","{""Q0"":""scary. super tall person with its army of regular sized people""}","","","","","","","","","","","","","","","","","","","","","","",""
"7431.199999999255","","image-slider-response","212","1507027","0.0-210.0","A2R1LWOGQJTGRL","","","","","5","","","","","","","","","","","","","","","","","","","","","",""
"null","","image-button-response","213","1512038","0.0-211.0","A2R1LWOGQJTGRL","img_art/25.jpg","null","","","","","","","","","","","","","","","","","","","","","","","","",""
"1311","","image-button-response","214","1513359","0.0-212.0","A2R1LWOGQJTGRL","img_art/25.jpg","0","","","","","","","","","","","","","","","","","","","","","","","","",""
"4075","","image-button-response","215","1517442","0.0-213.0-0.0","A2R1LWOGQJTGRL","img_art/25.jpg","1","","","","","","","","","","","","","","","","","","","","","","","","",""
"3363","","image-button-response","216","1520814","0.0-214.0-0.0","A2R1LWOGQJTGRL","img_art/25.jpg","3","","","","","","","","","","","","","","","","","","","","","","","","",""
"null","","html-keyboard-response","217","1521318","0.0-215.0","A2R1LWOGQJTGRL","<p style=""font-size: 48px;"">+</p>","","","","","null","allTrialResponses","500","1","24","img_art/25.jpg","5","scary. super tall person with its army of regular sized people","Katie,Diana,Amanda,Isabella,Mariah,Kaitlin","Reminds me of ancient civilization art. I like the aqua color; soothing to me.,1,160,20","This piece feels cultural. Like it represents something culturally.,22,380,20","Reminds me of Mr. Burns on drugs in the Simpsons,-50,180,20","I love the green and the figure is black but the green makes it pop,29,280,20","The proportions are unpleasant.,-30,140,20","i feel a bit dull, a bit scared,-20,60,20","Katie","Reminds me of ancient civilization art. I like the aqua color; soothing to me.,1,160,20","Diana","This piece feels cultural. Like it represents something culturally.,22,380,20","Isabella","I love the green and the figure is black but the green makes it pop,29,280,20","4"
"27943","","survey-text","218","1549282","0.0-216.0-0.0","A2R1LWOGQJTGRL","","","","{""Q0"":""i feel under attack. Like I am watching people ride into battle""}","","","","","","","","","","","","","","","","","","","","","","",""
"4585.199999999255","","image-slider-response","219","1553873","0.0-217.0","A2R1LWOGQJTGRL","","","","","-10","","","","","","","","","","","","","","","","","","","","","",""
"null","","image-button-response","220","1558884","0.0-218.0","A2R1LWOGQJTGRL","img_art/18.jpg","null","","","","","","","","","","","","","","","","","","","","","","","","",""
"2554","","image-button-response","221","1561446","0.0-219.0","A2R1LWOGQJTGRL","img_art/18.jpg","1","","","","","","","","","","","","","","","","","","","","","","","","",""
"3400","","image-button-response","222","1564853","0.0-220.0-0.0","A2R1LWOGQJTGRL","img_art/18.jpg","4","","","","","","","","","","","","","","","","","","","","","","","","",""
"3472","","image-button-response","223","1568334","0.0-221.0-0.0","A2R1LWOGQJTGRL","img_art/18.jpg","3","","","","","","","","","","","","","","","","","","","","","","","","",""
"null","","html-keyboard-response","224","1568839","0.0-222.0","A2R1LWOGQJTGRL","<p style=""font-size: 48px;"">+</p>","","","","","null","allTrialResponses","500","1","25","img_art/18.jpg","-10","i feel under attack. Like I am watching people ride into battle","Katie,Diana,Mikayla,Isabella,Cynthia,Julia","Looks messy. Reminds me of a battle or war. I have an unpleasant feeling the more I look.,-20,160,20","This painting reminds me of the 4 horsemen of the apocalypse. It feels haunting.,31,380,20","Kinda boring. Not my favorite,-34,300,20","Feels like a story of ancient war of the gods,26,280,20","Imaginative, makes me feel creative.,42,320,20","Very classy, I feel like it's the apocalypse.,25,40,20","Diana","This painting reminds me of the 4 horsemen of the apocalypse. It feels haunting.,31,380,20","Cynthia","Imaginative, makes me feel creative.,42,320,20","Isabella","Feels like a story of ancient war of the gods,26,280,20","4"
"2890","","survey-text","225","1571786","0.0-223.0-0.0","A2R1LWOGQJTGRL","","","","{""Q0"":""table""}","","","","","","","","","","","","","","","","","","","","","","",""
"20348","","survey-text","226","1592139","0.0-224.0-0.0","A2R1LWOGQJTGRL","","","","{""Q0"":""in water. light and weightless""}","","","","","","","","","","","","","","","","","","","","","","",""
"6413.300000000745","","image-slider-response","227","1598558","0.0-225.0","A2R1LWOGQJTGRL","","","","","25","","","","","","","","","","","","","","","","","","","","","",""
"null","","image-button-response","228","1603570","0.0-226.0","A2R1LWOGQJTGRL","img_art/13.jpg","null","","","","","","","","","","","","","","","","","","","","","","","","",""
"1876","","image-button-response","229","1605454","0.0-227.0","A2R1LWOGQJTGRL","img_art/13.jpg","3","","","","","","","","","","","","","","","","","","","","","","","","",""
"1070","","image-button-response","230","1606534","0.0-228.0-0.0","A2R1LWOGQJTGRL","img_art/13.jpg","1","","","","","","","","","","","","","","","","","","","","","","","","",""
"732","","image-button-response","231","1607273","0.0-229.0-0.0","A2R1LWOGQJTGRL","img_art/13.jpg","0","","","","","","","","","","","","","","","","","","","","","","","","",""
"null","","html-keyboard-response","232","1608277","0.0-230.0","A2R1LWOGQJTGRL","<p style=""font-size: 48px;"">+</p>","","","","","null","allTrialResponses","1000","1","26","img_art/13.jpg","25","in water. light and weightless","Erica,Diana,Hannah,Isabella,Cynthia,Claire","Messy but organised, helps me to relax and observe,8,80,20","I really loved the color contrast. Having the white stripe in the center makes the it appear 3D.,11,380,20","Like this a lot and would hang in my house.,27,240,20","Rain drops on a window,35,280,20","It reminds me of rain,11,320,20","love the colors and splatters,44,260,20","Isabella","Rain drops on a window,35,280,20","Diana","I really loved the color contrast. Having the white stripe in the center makes the it appear 3D.,11,380,20","Erica","Messy but organised, helps me to relax and observe,8,80,20","4"
"20860","","survey-text","233","1629165","0.0-231.0-0.0","A2R1LWOGQJTGRL","","","","{""Q0"":""uneasy, what is hiding behind the bushes""}","","","","","","","","","","","","","","","","","","","","","","",""
"4866.199999999255","","image-slider-response","234","1634037","0.0-232.0","A2R1LWOGQJTGRL","","","","","5","","","","","","","","","","","","","","","","","","","","","",""
"null","","image-button-response","235","1639049","0.0-233.0","A2R1LWOGQJTGRL","img_art/15.jpg","null","","","","","","","","","","","","","","","","","","","","","","","","",""
"2392","","image-button-response","236","1641454","0.0-234.0","A2R1LWOGQJTGRL","img_art/15.jpg","5","","","","","","","","","","","","","","","","","","","","","","","","",""
"1319","","image-button-response","237","1642781","0.0-235.0-0.0","A2R1LWOGQJTGRL","img_art/15.jpg","2","","","","","","","","","","","","","","","","","","","","","","","","",""
"3437","","image-button-response","238","1646226","0.0-236.0-0.0","A2R1LWOGQJTGRL","img_art/15.jpg","4","","","","","","","","","","","","","","","","","","","","","","","","",""
"null","","html-keyboard-response","239","1646732","0.0-237.0","A2R1LWOGQJTGRL","<p style=""font-size: 48px;"">+</p>","","","","","null","allTrialResponses","500","1","27","img_art/15.jpg","5","uneasy, what is hiding behind the bushes","Erica,Diana,Kristen,Isabella,Olivia,Briana","dark and I can not see a meaning behind it,-31,80,20","There should be more space between the black marks. The black comes off harsh and the blue between the trees can barely be seen.,-21,380,20","darkness, hatred, fear,-29,280,20","Too intense with the black dotting,-22,280,20","Black reminds me of darkness,-18,40,20","It reminds me of when you look up into a tree,21,400,20","Briana","It reminds me of when you look up into a tree,21,400,20","Kristen","darkness, hatred, fear,-29,280,20","Olivia","Black reminds me of darkness,-18,40,20","4"
"12349","","survey-text","240","1659113","0.0-238.0-0.0","A2R1LWOGQJTGRL","","","","{""Q0"":""soapy or a carwash. Low effort""}","","","","","","","","","","","","","","","","","","","","","","",""
"4143.699999999255","","image-slider-response","241","1663266","0.0-239.0","A2R1LWOGQJTGRL","","","","","-50","","","","","","","","","","","","","","","","","","","","","",""
"null","","image-button-response","242","1668277","0.0-240.0","A2R1LWOGQJTGRL","img_art/30.jpg","null","","","","","","","","","","","","","","","","","","","","","","","","",""
"2684","","image-button-response","243","1670969","0.0-241.0","A2R1LWOGQJTGRL","img_art/30.jpg","4","","","","","","","","","","","","","","","","","","","","","","","","",""
"2222","","image-button-response","244","1673199","0.0-242.0-0.0","A2R1LWOGQJTGRL","img_art/30.jpg","0","","","","","","","","","","","","","","","","","","","","","","","","",""
"965","","image-button-response","245","1674176","0.0-243.0-0.0","A2R1LWOGQJTGRL","img_art/30.jpg","2","","","","","","","","","","","","","","","","","","","","","","","","",""
"null","","html-keyboard-response","246","1675180","0.0-244.0","A2R1LWOGQJTGRL","<p style=""font-size: 48px;"">+</p>","","","","","null","allTrialResponses","1000","1","28","img_art/30.jpg","-50","soapy or a carwash. Low effort","Melissa,Brianna,Kristen,Sydney,Olivia,Briana","muddy, feels unintentional,-50,240,20","I like the fact that it's a painting.,21,20,20","makes me think of a tunnel filled with graffiti,19,280,20","I love the colors, the style, and the uniqueness in this piece. I love everything.,50,320,20","perceiving greatness,20,40,20","Its ugly. Too simple,-23,400,20","Olivia","perceiving greatness,20,40,20","Melissa","muddy, feels unintentional,-50,240,20","Kristen","makes me think of a tunnel filled with graffiti,19,280,20","4"
"18855","","survey-text","247","1694072","0.0-245.0-0.0","A2R1LWOGQJTGRL","","","","{""Q0"":""caution sign. Like something needs cleaned""}","","","","","","","","","","","","","","","","","","","","","","",""
"11260.39999999851","","image-slider-response","248","1705339","0.0-246.0","A2R1LWOGQJTGRL","","","","","-50","","","","","","","","","","","","","","","","","","","","","",""
"null","","image-button-response","249","1710351","0.0-247.0","A2R1LWOGQJTGRL","img_art/5.jpg","null","","","","","","","","","","","","","","","","","","","","","","","","",""
"1600","","image-button-response","250","1711965","0.0-248.0","A2R1LWOGQJTGRL","img_art/5.jpg","3","","","","","","","","","","","","","","","","","","","","","","","","",""
"1101","","image-button-response","251","1713072","0.0-249.0-0.0","A2R1LWOGQJTGRL","img_art/5.jpg","0","","","","","","","","","","","","","","","","","","","","","","","","",""
"918","","image-button-response","252","1714002","0.0-250.0-0.0","A2R1LWOGQJTGRL","img_art/5.jpg","2","","","","","","","","","","","","","","","","","","","","","","","","",""
"null","","html-keyboard-response","253","1715509","0.0-251.0","A2R1LWOGQJTGRL","<p style=""font-size: 48px;"">+</p>","","","","","null","allTrialResponses","1500","1","29","img_art/5.jpg","-50","caution sign. Like something needs cleaned","Melissa,Ashley,Kristen,Grace,Olivia,Emily","strong appeal in contrast,27,240,20","I like the simple shapes and colors.,23,320,20","sharp, painful yet playful,-5,280,20","Looks like a yellow plastic trash bag.,-42,180,20","a brush in time,-14,40,20","Complete garbage. Looks like a kid drew it.,-50,40,20","Grace","Looks like a yellow plastic trash bag.,-42,180,20","Melissa","strong appeal in contrast,27,240,20","Kristen","sharp, painful yet playful,-5,280,20","4"
"13690","","survey-text","254","1729224","0.0-252.0-0.0","A2R1LWOGQJTGRL","","","","{""Q0"":""old city, ancient times""}","","","","","","","","","","","","","","","","","","","","","","",""
"5680.400000002235","","image-slider-response","255","1734910","0.0-253.0","A2R1LWOGQJTGRL","","","","","15","","","","","","","","","","","","","","","","","","","","","",""
"null","","image-button-response","256","1739919","0.0-254.0","A2R1LWOGQJTGRL","img_art/20.jpg","null","","","","","","","","","","","","","","","","","","","","","","","","",""
"1817","","image-button-response","257","1741746","0.0-255.0","A2R1LWOGQJTGRL","img_art/20.jpg","5","","","","","","","","","","","","","","","","","","","","","","","","",""
"1890","","image-button-response","258","1743643","0.0-256.0-0.0","A2R1LWOGQJTGRL","img_art/20.jpg","2","","","","","","","","","","","","","","","","","","","","","","","","",""
"8215","","image-button-response","259","1751865","0.0-257.0-0.0","A2R1LWOGQJTGRL","img_art/20.jpg","4","","","","","","","","","","","","","","","","","","","","","","","","",""
"null","","html-keyboard-response","260","1752371","0.0-258.0","A2R1LWOGQJTGRL","<p style=""font-size: 48px;"">+</p>","","","","","null","allTrialResponses","500","1","30","img_art/20.jpg","15","old city, ancient times","Melissa,Bailey,Kristen,Grace,Sophia,Jamie","feels underdeveloped,-11,240,20","A bit hectic, but it does have a bit of coolness to it,6,360,20","danger, car crash, stressful,-12,280,20","Reminds me of Georgia O'Keefe.,11,180,20","A truck rolled over?  I do like the pictures and the technique though.,25,280,20","Looks like some type of future dystopian civilization,35,320,20","Jamie","Looks like some type of future dystopian civilization,35,320,20","Kristen","danger, car crash, stressful,-12,280,20","Sophia","A truck rolled over?  I do like the pictures and the technique though.,25,280,20","4"
"2071","","image-button-response_instructions","261","1754467","0.0-259.0","A2R1LWOGQJTGRL","","0","instructions","","","","","","","","","","","","","","","","","","","","","","","",""
"1277","","image-button-response","262","1755765","0.0-260.0","A2R1LWOGQJTGRL","","0","","","","","","","","","","","","","","","","","","","","","","","","",""
