"rt","url","trial_type","trial_index","time_elapsed","internal_node_id","participant_id","stimulus","button_pressed","Name","responses","response","key_press","variableName","fixationTime","condition","trial","photo","subjectRating","subjectResponse","agentsNames","agent_1_Response","agent_2_Response","agent_3_Response","agent_4_Response","agent_5_Response","agent_6_Response","kept_1_name","kept_1_response","kept_2_name","kept_2_response","kept_3_name","kept_3_response","errorCounter"
"12335","external_page_harvard.html","external-html","0","12428","0.0-0.0","A2T4GQKM5ETQHF","","","","","","","","","","","","","","","","","","","","","","","","","","",""
"2537","","image-button-response","1","14967","0.0-1.0","A2T4GQKM5ETQHF","","1","","","","","","","","","","","","","","","","","","","","","","","","",""
"3395","","image-button-response","2","18368","0.0-2.0-0.0","A2T4GQKM5ETQHF","","1","phone","","","","","","","","","","","","","","","","","","","","","","","",""
"8509","","survey-text","3","26880","0.0-3.0-0.0","A2T4GQKM5ETQHF","","","","{""Q0"":""A2T4GQKM5ETQHF""}","","","","","","","","","","","","","","","","","","","","","","",""
"4325","","image-button-response_instructions","4","31208","0.0-4.0","A2T4GQKM5ETQHF","","0","instructions","","","","","","","","","","","","","","","","","","","","","","","",""
"19454","","image-button-response_instructions","5","50665","0.0-5.0","A2T4GQKM5ETQHF","img_art/ins/popularity/ins1.png","0","instructions","","","","","","","","","","","","","","","","","","","","","","","",""
"8572","","image-button-response_instructions","6","59239","0.0-6.0","A2T4GQKM5ETQHF","img_art/ins/popularity/ins2.png","0","instructions","","","","","","","","","","","","","","","","","","","","","","","",""
"5055","","image-button-response_instructions","7","64296","0.0-7.0","A2T4GQKM5ETQHF","img_art/ins/popularity/ins2Extreme.png","0","instructions","","","","","","","","","","","","","","","","","","","","","","","",""
"23119","","image-button-response_instructions","8","87417","0.0-8.0","A2T4GQKM5ETQHF","img_art/ins/popularity/ins3KEEPpop.PNG","0","instructions","","","","","","","","","","","","","","","","","","","","","","","",""
"5293","","image-button-response_instructions","9","92712","0.0-9.0","A2T4GQKM5ETQHF","img_art/ins/popularity/ins3ANamepop.PNG","0","instructions","","","","","","","","","","","","","","","","","","","","","","","",""
"4111","","image-button-response_instructions","10","96825","0.0-10.0","A2T4GQKM5ETQHF","img_art/ins/popularity/ins3ARatingpop.png","0","instructions","","","","","","","","","","","","","","","","","","","","","","","",""
"5397","","image-button-response_instructions","11","102224","0.0-11.0","A2T4GQKM5ETQHF","img_art/ins/popularity/ins3ATextpop.png","0","instructions","","","","","","","","","","","","","","","","","","","","","","","",""
"8895","","image-button-response_instructions","12","111120","0.0-12.0","A2T4GQKM5ETQHF","img_art/ins/popularity/ins3ALikespop.png","0","instructions","","","","","","","","","","","","","","","","","","","","","","","",""
"15007","","image-button-response_instructions","13","126129","0.0-13.0","A2T4GQKM5ETQHF","img_art/ins/popularity/ins3KEEPpop.PNG","0","instructions","","","","","","","","","","","","","","","","","","","","","","","",""
"13118","","image-button-response_instructions","14","139249","0.0-14.0","A2T4GQKM5ETQHF","img_art/ins/popularity/ins3_5RED.png","0","instructions","","","","","","","","","","","","","","","","","","","","","","","",""
"4062","","image-button-response_instructions","15","143313","0.0-15.0","A2T4GQKM5ETQHF","img_art/ins/popularity/ins3KEEPpop.PNG","0","instructions","","","","","","","","","","","","","","","","","","","","","","","",""
"24950","","image-button-response_instructions","16","168264","0.0-16.0","A2T4GQKM5ETQHF","img_art/ins/popularity/ins4KEEPpop.PNG","0","instructions","","","","","","","","","","","","","","","","","","","","","","","",""
"3935","","image-button-response_instructions","17","172201","0.0-17.0","A2T4GQKM5ETQHF","img_art/ins/popularity/ins5KEEPpop.PNG","0","instructions","","","","","","","","","","","","","","","","","","","","","","","",""
"1710","","image-button-response_instructions","18","173913","0.0-18.0","A2T4GQKM5ETQHF","","0","instructions","","","","","","","","","","","","","","","","","","","","","","","",""
"7089","","survey-text","19","181025","0.0-19.0-0.0","A2T4GQKM5ETQHF","","","","{""Q0"":""but""}","","","","","","","","","","","","","","","","","","","","","","",""
"13761","","survey-text","20","194788","0.0-20.0-0.0","A2T4GQKM5ETQHF","","","","{""Q0"":""It makes me feel happy""}","","","","","","","","","","","","","","","","","","","","","","",""
"6552.299999713898","","image-slider-response","21","201344","0.0-21.0","A2T4GQKM5ETQHF","","","","","37","","","","","","","","","","","","","","","","","","","","","",""
"4005","","image-button-response","22","206349","0.0-22.0","A2T4GQKM5ETQHF","img_art/ins/1.jpg","4","","","","","","","","","","","","","","","","","","","","","","","","",""
"4081","","image-button-response","23","210432","0.0-23.0","A2T4GQKM5ETQHF","img_art/ins/1.jpg","5","","","","","","","","","","","","","","","","","","","","","","","","",""
"1349","","image-button-response","24","211784","0.0-24.0-0.0","A2T4GQKM5ETQHF","img_art/ins/1.jpg","4","","","","","","","","","","","","","","","","","","","","","","","","",""
"2334","","image-button-response","25","214121","0.0-25.0-0.0","A2T4GQKM5ETQHF","img_art/ins/1.jpg","0","","","","","","","","","","","","","","","","","","","","","","","","",""
"null","","html-keyboard-response","26","215628","0.0-26.0","A2T4GQKM5ETQHF","<p style=""font-size: 48px;"">+</p>","","","","","null","allTrialResponses","1500","1","-2","img_art/ins/1.jpg","37","It makes me feel happy","Allison,Ashley,Beth,Dora,Erika,Jen","looks like a lot of things going on in the mist,20,20,20","I just don't get why these type of art would be popular,-32,40,20","This color reminds me of poo,-46,60,20","looks like what my niece in 3rd grade did this afternoon,-50,80,20","I like the sophisticated brushwork,40,100,20","It reminds me of a candy land dream I had,36,120,20","Jen","It reminds me of a candy land dream I had,36,120,20","Erika","I like the sophisticated brushwork,40,100,20","Allison","looks like a lot of things going on in the mist,20,20,20","0"
"15408","","survey-text","27","231041","0.0-27.0-0.0","A2T4GQKM5ETQHF","","","","{""Q0"":""Reminds me of fall""}","","","","","","","","","","","","","","","","","","","","","","",""
"5013.5","","image-slider-response","28","236058","0.0-28.0","A2T4GQKM5ETQHF","","","","","38","","","","","","","","","","","","","","","","","","","","","",""
"2524","","image-button-response","29","241063","0.0-29.0","A2T4GQKM5ETQHF","img_art/ins/2.jpg","1","","","","","","","","","","","","","","","","","","","","","","","","",""
"1110","","image-button-response","30","242178","0.0-30.0","A2T4GQKM5ETQHF","img_art/ins/2.jpg","1","","","","","","","","","","","","","","","","","","","","","","","","",""
"4685","","image-button-response","31","246866","0.0-31.0-0.0","A2T4GQKM5ETQHF","img_art/ins/2.jpg","5","","","","","","","","","","","","","","","","","","","","","","","","",""
"8628","","image-button-response","32","255498","0.0-32.0-0.0","A2T4GQKM5ETQHF","img_art/ins/2.jpg","4","","","","","","","","","","","","","","","","","","","","","","","","",""
"null","","html-keyboard-response","33","256001","0.0-33.0","A2T4GQKM5ETQHF","<p style=""font-size: 48px;"">+</p>","","","","","null","allTrialResponses","500","1","-1","img_art/ins/2.jpg","38","Reminds me of fall","Allison,Kara,Katie,Jenna,Erika,Jen","I don't have strong feelings about this,10,20,20","I like the blocks of color arrangements,30,160,20","too much color!,-28,180,20","One of my pet peevs,-48,140,20","I would never be able to compose a sophisticated pallete like this,48,100,20","It reminds me of a fireplace,36,120,20","Kara","I like the blocks of color arrangements,30,160,20","Jen","It reminds me of a fireplace,36,120,20","Erika","I would never be able to compose a sophisticated pallete like this,48,100,20","0"
"27596","","survey-text","34","283602","0.0-34.0-0.0","A2T4GQKM5ETQHF","","","","{""Q0"":""Love the different shades of blue, reminds me of the ocean""}","","","","","","","","","","","","","","","","","","","","","","",""
"4540.200000286102","","image-slider-response","35","288146","0.0-35.0","A2T4GQKM5ETQHF","","","","","29","","","","","","","","","","","","","","","","","","","","","",""
"null","","image-button-response","36","293161","0.0-36.0","A2T4GQKM5ETQHF","img_art/ins/3.jpg","null","","","","","","","","","","","","","","","","","","","","","","","","",""
"4375","","image-button-response","37","297538","0.0-37.0","A2T4GQKM5ETQHF","img_art/ins/3.jpg","1","","","","","","","","","","","","","","","","","","","","","","","","",""
"3940","","image-button-response","38","301482","0.0-38.0-0.0","A2T4GQKM5ETQHF","img_art/ins/3.jpg","3","","","","","","","","","","","","","","","","","","","","","","","","",""
"1102","","image-button-response","39","302587","0.0-39.0-0.0","A2T4GQKM5ETQHF","img_art/ins/3.jpg","0","","","","","","","","","","","","","","","","","","","","","","","","",""
"null","","html-keyboard-response","40","303590","0.0-40.0","A2T4GQKM5ETQHF","<p style=""font-size: 48px;"">+</p>","","","","","null","allTrialResponses","1000","1","0","img_art/ins/3.jpg","29","Love the different shades of blue, reminds me of the ocean","Mary,Kara,Rose,Leslie,Erika,Jen","I like the overlapping of brushes,41,220,20","calming blue is very nice,36,160,20","My daily routine, it's depressing,-20,240,20","It's an alright work,15,200,20","I feel connected to the artist,40,100,20","I can feel a rainy day from this painting,18,120,20","Kara","calming blue is very nice,36,160,20","Leslie","It's an alright work,15,200,20","Mary","I like the overlapping of brushes,41,220,20","0"
"4848","","image-button-response_instructions","41","308442","0.0-41.0","A2T4GQKM5ETQHF","","0","instructions","","","","","","","","","","","","","","","","","","","","","","","",""
"15981","","survey-likert","42","324426","0.0-42.0-0.0","A2T4GQKM5ETQHF","","","","{""Q0"":"""",""Q1"":0,""Q2"":""""}","","","","","","","","","","","","","","","","","","","","","","",""
"7972","","survey-likert","43","334698","0.0-42.1-0.1","A2T4GQKM5ETQHF","","","","{""Q0"":"""",""Q1"":0,""Q2"":1}","","","","","","","","","","","","","","","","","","","","","","",""
"5051","","survey-text","44","339752","0.0-43.0-0.0","A2T4GQKM5ETQHF","","","","{""Q0"":""rock""}","","","","","","","","","","","","","","","","","","","","","","",""
"18087","","survey-text","45","357841","0.0-44.0-0.0","A2T4GQKM5ETQHF","","","","{""Q0"":""I don't like the colors used, depressing""}","","","","","","","","","","","","","","","","","","","","","","",""
"4744.099999904633","","image-slider-response","46","362587","0.0-45.0","A2T4GQKM5ETQHF","","","","","-33","","","","","","","","","","","","","","","","","","","","","",""
"null","","image-button-response","47","367620","0.0-46.0","A2T4GQKM5ETQHF","img_art/26.jpg","null","","","","","","","","","","","","","","","","","","","","","","","","",""
"1100","","image-button-response","48","368723","0.0-47.0","A2T4GQKM5ETQHF","img_art/26.jpg","4","","","","","","","","","","","","","","","","","","","","","","","","",""
"6141","","image-button-response","49","374867","0.0-48.0-0.0","A2T4GQKM5ETQHF","img_art/26.jpg","0","","","","","","","","","","","","","","","","","","","","","","","","",""
"2716","","image-button-response","50","377587","0.0-49.0-0.0","A2T4GQKM5ETQHF","img_art/26.jpg","0","","","","","","","","","","","","","","","","","","","","","","","","",""
"2870","","image-button-response","51","384347","0.0-49.1-0.1","A2T4GQKM5ETQHF","img_art/26.jpg","5","","","","","","","","","","","","","","","","","","","","","","","","",""
"null","","html-keyboard-response","52","385353","0.0-50.0","A2T4GQKM5ETQHF","<p style=""font-size: 48px;"">+</p>","","","","","null","allTrialResponses","1000","1","1","img_art/26.jpg","-33","I don't like the colors used, depressing","Angelica,Kelsey,Stephanie,Kaitlin,Sara,Julia","It's not ugly but not beautiful at all.,-3,280,20","this is nice!! i like the muted colors,34,240,20","Day just begun in the city and the stores are opening their doors.,41,300,20","i can feel the warmth,12,60,20","I can somewhat city a city in this drawing,11,160,20","I'm not really into landscapes unless I have a personal connection to them,-21,40,20","Sara","I can somewhat city a city in this drawing,11,160,20","Angelica","It's not ugly but not beautiful at all.,-3,280,20","Julia","I'm not really into landscapes unless I have a personal connection to them,-21,40,20","3"
"26093","","survey-text","53","411450","0.0-51.0-0.0","A2T4GQKM5ETQHF","","","","{""Q0"":""Very boring and not much skill invlolved""}","","","","","","","","","","","","","","","","","","","","","","",""
"6303.300000190735","","image-slider-response","54","417755","0.0-52.0","A2T4GQKM5ETQHF","","","","","-37","","","","","","","","","","","","","","","","","","","","","",""
"null","","image-button-response","55","422764","0.0-53.0","A2T4GQKM5ETQHF","img_art/6.jpg","null","","","","","","","","","","","","","","","","","","","","","","","","",""
"852","","image-button-response","56","423620","0.0-54.0","A2T4GQKM5ETQHF","img_art/6.jpg","1","","","","","","","","","","","","","","","","","","","","","","","","",""
"2822","","image-button-response","57","426444","0.0-55.0-0.0","A2T4GQKM5ETQHF","img_art/6.jpg","5","","","","","","","","","","","","","","","","","","","","","","","","",""
"2213","","image-button-response","58","428660","0.0-56.0-0.0","A2T4GQKM5ETQHF","img_art/6.jpg","2","","","","","","","","","","","","","","","","","","","","","","","","",""
"null","","html-keyboard-response","59","430181","0.0-57.0","A2T4GQKM5ETQHF","<p style=""font-size: 48px;"">+</p>","","","","","null","allTrialResponses","1500","1","2","img_art/6.jpg","-37","Very boring and not much skill invlolved","Angelica,Sophia,Leslie,Kaitlyn,Sara,Julia","It feels sad but it's nice to look at.,4,280,20","It's okay. It kind of looks like a bird with his head buried in his feathers.,2,280,20","The limited colors make me feel lonely.,36,380,20","I like the simplicity of the picture,30,80,20","It looks sad and scary at the same time,11,160,20","this is too simple for me,-34,40,20","Sophia","It's okay. It kind of looks like a bird with his head buried in his feathers.,2,280,20","Julia","this is too simple for me,-34,40,20","Leslie","The limited colors make me feel lonely.,36,380,20","3"
"20034","","survey-text","60","450219","0.0-58.0-0.0","A2T4GQKM5ETQHF","","","","{""Q0"":""Scary photo, reminds me of Halloween.""}","","","","","","","","","","","","","","","","","","","","","","",""
"5149.60000038147","","image-slider-response","61","455372","0.0-59.0","A2T4GQKM5ETQHF","","","","","-46","","","","","","","","","","","","","","","","","","","","","",""
"null","","image-button-response","62","460384","0.0-60.0","A2T4GQKM5ETQHF","img_art/25.jpg","null","","","","","","","","","","","","","","","","","","","","","","","","",""
"1225","","image-button-response","63","461612","0.0-61.0","A2T4GQKM5ETQHF","img_art/25.jpg","1","","","","","","","","","","","","","","","","","","","","","","","","",""
"1036","","image-button-response","64","462651","0.0-62.0-0.0","A2T4GQKM5ETQHF","img_art/25.jpg","0","","","","","","","","","","","","","","","","","","","","","","","","",""
"7367","","image-button-response","65","470021","0.0-63.0-0.0","A2T4GQKM5ETQHF","img_art/25.jpg","3","","","","","","","","","","","","","","","","","","","","","","","","",""
"null","","html-keyboard-response","66","471026","0.0-64.0","A2T4GQKM5ETQHF","<p style=""font-size: 48px;"">+</p>","","","","","null","allTrialResponses","1000","1","3","img_art/25.jpg","-46","Scary photo, reminds me of Halloween.","Monica,Sophia,Leslie,Rebecca,Bailey,Julia","The skeletal figure is a bit scary,-12,360,20","This one just has a dark feeling to me.,-50,280,20","I feel like I'm looking at something larger than myself.,30,380,20","I'm sorry but I don't uderstand this,-20,100,20","I love the background color and it's creepy...but cool.,30,360,20","the color is pleasing and draws out the contrast of the lines,10,40,20","Sophia","This one just has a dark feeling to me.,-50,280,20","Monica","The skeletal figure is a bit scary,-12,360,20","Rebecca","I'm sorry but I don't uderstand this,-20,100,20","3"
"24244","","survey-text","67","495276","0.0-65.0-0.0","A2T4GQKM5ETQHF","","","","{""Q0"":""I like the color variation, but it doesn't evoke any specific emotion.""}","","","","","","","","","","","","","","","","","","","","","","",""
"12301.599999904633","","image-slider-response","68","507580","0.0-66.0","A2T4GQKM5ETQHF","","","","","-1","","","","","","","","","","","","","","","","","","","","","",""
"null","","image-button-response","69","512585","0.0-67.0","A2T4GQKM5ETQHF","img_art/21.jpg","null","","","","","","","","","","","","","","","","","","","","","","","","",""
"1641","","image-button-response","70","514228","0.0-68.0","A2T4GQKM5ETQHF","img_art/21.jpg","1","","","","","","","","","","","","","","","","","","","","","","","","",""
"7293","","image-button-response","71","521524","0.0-69.0-0.0","A2T4GQKM5ETQHF","img_art/21.jpg","0","","","","","","","","","","","","","","","","","","","","","","","","",""
"2420","","image-button-response","72","523948","0.0-70.0-0.0","A2T4GQKM5ETQHF","img_art/21.jpg","4","","","","","","","","","","","","","","","","","","","","","","","","",""
"null","","html-keyboard-response","73","524952","0.0-71.0","A2T4GQKM5ETQHF","<p style=""font-size: 48px;"">+</p>","","","","","null","allTrialResponses","1000","1","4","img_art/21.jpg","-1","I like the color variation, but it doesn't evoke any specific emotion.","Monica,Sophia,Andrea,Rebecca,Mary,Leah","I like the dark blue in the lower right which reminds me of a storm but the orange is ugly,12,360,20","Indifferent toward this one.,6,280,20","It feels like a day at sea but the pink is slightly jarring and holding my eye.,26,240,20","stormy with gold lining,0,100,20","This is lovely. I like the mix of colors, the warn and cool slowly combining.,39,180,20","Love the colors, uplifting and stormy at the same time,32,360,20","Sophia","Indifferent toward this one.,6,280,20","Monica","I like the dark blue in the lower right which reminds me of a storm but the orange is ugly,12,360,20","Mary","This is lovely. I like the mix of colors, the warn and cool slowly combining.,39,180,20","3"
"30962","","survey-text","74","555920","0.0-72.0-0.0","A2T4GQKM5ETQHF","","","","{""Q0"":""Looks like a first grader painting""}","","","","","","","","","","","","","","","","","","","","","","",""
"7112.400000095367","","image-slider-response","75","563035","0.0-73.0","A2T4GQKM5ETQHF","","","","","-49","","","","","","","","","","","","","","","","","","","","","",""
"null","","image-button-response","76","568046","0.0-74.0","A2T4GQKM5ETQHF","img_art/27.jpg","null","","","","","","","","","","","","","","","","","","","","","","","","",""
"2125","","image-button-response","77","570172","0.0-75.0","A2T4GQKM5ETQHF","img_art/27.jpg","5","","","","","","","","","","","","","","","","","","","","","","","","",""
"1358","","image-button-response","78","571533","0.0-76.0-0.0","A2T4GQKM5ETQHF","img_art/27.jpg","2","","","","","","","","","","","","","","","","","","","","","","","","",""
"2212","","image-button-response","79","573749","0.0-77.0-0.0","A2T4GQKM5ETQHF","img_art/27.jpg","1","","","","","","","","","","","","","","","","","","","","","","","","",""
"null","","html-keyboard-response","80","574764","0.0-78.0","A2T4GQKM5ETQHF","<p style=""font-size: 48px;"">+</p>","","","","","null","allTrialResponses","1000","1","5","img_art/27.jpg","-49","Looks like a first grader painting","Monica,Sophia,Breanna,Madeline,Mary,Alexis","It tries to remind me of the autumn season but it's grey and looks dirty,-5,360,20","Yikes. I think I made this in kindergarten.,-20,280,20","Not too impressed with the work,6,380,20","Looks like the green bits were added on later,-1,40,20","I like the layer upon layer of different mediums used here.,21,180,20","Too abstract, doesn't remind me of anything,-42,100,20","Alexis","Too abstract, doesn't remind me of anything,-42,100,20","Breanna","Not too impressed with the work,6,380,20","Sophia","Yikes. I think I made this in kindergarten.,-20,280,20","3"
"4410","","survey-text","81","579182","0.0-79.0-0.0","A2T4GQKM5ETQHF","","","","{""Q0"":""sky""}","","","","","","","","","","","","","","","","","","","","","","",""
"18899","","survey-text","82","598084","0.0-80.0-0.0","A2T4GQKM5ETQHF","","","","{""Q0"":""Reminds me of an Avengers movie.""}","","","","","","","","","","","","","","","","","","","","","","",""
"4189.800000190735","","image-slider-response","83","602277","0.0-81.0","A2T4GQKM5ETQHF","","","","","-47","","","","","","","","","","","","","","","","","","","","","",""
"null","","image-button-response","84","607284","0.0-82.0","A2T4GQKM5ETQHF","img_art/18.jpg","null","","","","","","","","","","","","","","","","","","","","","","","","",""
"3127","","image-button-response","85","610414","0.0-83.0","A2T4GQKM5ETQHF","img_art/18.jpg","5","","","","","","","","","","","","","","","","","","","","","","","","",""
"1996","","image-button-response","86","612413","0.0-84.0-0.0","A2T4GQKM5ETQHF","img_art/18.jpg","2","","","","","","","","","","","","","","","","","","","","","","","","",""
"2054","","image-button-response","87","614469","0.0-85.0-0.0","A2T4GQKM5ETQHF","img_art/18.jpg","1","","","","","","","","","","","","","","","","","","","","","","","","",""
"null","","html-keyboard-response","88","614979","0.0-86.0","A2T4GQKM5ETQHF","<p style=""font-size: 48px;"">+</p>","","","","","null","allTrialResponses","500","1","6","img_art/18.jpg","-47","Reminds me of an Avengers movie.","Morgan,Sophia,Breanna,Amanda,Sierra,Alexis","Ghostly sea adventure.,20,380,20","This one is very dark and apocalyptic indeed!,-30,280,20","Makes me feel confused,16,380,20","Too political, not my cup of tea,-50,180,20","it looks like people,9,260,20","Crusade-feel, but a little too abstract for my taste,23,100,20","Alexis","Crusade-feel, but a little too abstract for my taste,23,100,20","Breanna","Makes me feel confused,16,380,20","Sophia","This one is very dark and apocalyptic indeed!,-30,280,20","3"
"20526","","survey-text","89","635510","0.0-87.0-0.0","A2T4GQKM5ETQHF","","","","{""Q0"":""I don't see any artistic talent in this at all.""}","","","","","","","","","","","","","","","","","","","","","","",""
"5028.800000190735","","image-slider-response","90","640541","0.0-88.0","A2T4GQKM5ETQHF","","","","","-50","","","","","","","","","","","","","","","","","","","","","",""
"null","","image-button-response","91","645548","0.0-89.0","A2T4GQKM5ETQHF","img_art/3.jpg","null","","","","","","","","","","","","","","","","","","","","","","","","",""
"744","","image-button-response","92","646294","0.0-90.0","A2T4GQKM5ETQHF","img_art/3.jpg","0","","","","","","","","","","","","","","","","","","","","","","","","",""
"1566","","image-button-response","93","647862","0.0-91.0-0.0","A2T4GQKM5ETQHF","img_art/3.jpg","3","","","","","","","","","","","","","","","","","","","","","","","","",""
"3812","","image-button-response","94","651678","0.0-92.0-0.0","A2T4GQKM5ETQHF","img_art/3.jpg","5","","","","","","","","","","","","","","","","","","","","","","","","",""
"null","","html-keyboard-response","95","653185","0.0-93.0","A2T4GQKM5ETQHF","<p style=""font-size: 48px;"">+</p>","","","","","null","allTrialResponses","1500","1","7","img_art/3.jpg","-50","I don't see any artistic talent in this at all.","Shannon,Sophia,Breanna,Destiny,Elizabeth,Alexis","I can't tell what this image is supposed to be it looks extremely ugly and color variety is boring.,-50,220,20","Marker gone wild?  Not sure what's going on here.,-21,280,20","Somebody scribbled on a piece of paper,-35,380,20","im just getting more agitated and less appreciative of art. I have absolutely no scale to base on,-34,360,20","It doesn't invoke any excitement,-21,20,20","Just scribbles. Not a fan.,-40,100,20","Shannon","I can't tell what this image is supposed to be it looks extremely ugly and color variety is boring.,-50,220,20","Destiny","im just getting more agitated and less appreciative of art. I have absolutely no scale to base on,-34,360,20","Alexis","Just scribbles. Not a fan.,-40,100,20","3"
"15406","","survey-text","96","668597","0.0-94.0-0.0","A2T4GQKM5ETQHF","","","","{""Q0"":""Dark and depressing""}","","","","","","","","","","","","","","","","","","","","","","",""
"4701.300000190735","","image-slider-response","97","673301","0.0-95.0","A2T4GQKM5ETQHF","","","","","-48","","","","","","","","","","","","","","","","","","","","","",""
"null","","image-button-response","98","678314","0.0-96.0","A2T4GQKM5ETQHF","img_art/28.jpg","null","","","","","","","","","","","","","","","","","","","","","","","","",""
"744","","image-button-response","99","679061","0.0-97.0","A2T4GQKM5ETQHF","img_art/28.jpg","1","","","","","","","","","","","","","","","","","","","","","","","","",""
"3678","","image-button-response","100","682742","0.0-98.0-0.0","A2T4GQKM5ETQHF","img_art/28.jpg","4","","","","","","","","","","","","","","","","","","","","","","","","",""
"2884","","image-button-response","101","685630","0.0-99.0-0.0","A2T4GQKM5ETQHF","img_art/28.jpg","2","","","","","","","","","","","","","","","","","","","","","","","","",""
"null","","html-keyboard-response","102","686643","0.0-100.0","A2T4GQKM5ETQHF","<p style=""font-size: 48px;"">+</p>","","","","","null","allTrialResponses","1000","1","8","img_art/28.jpg","-48","Dark and depressing","Shannon,Mikayla,Chelsea,Destiny,Gabriela,Alexis","I don't like the way the colors look; I think very disgusting colors were used.,-20,220,20","It gives me weird vibes.,-25,300,20","It is too messy.,-38,180,20","I wish I knew why I liked it, maybes its the pinky tones,36,360,20","The brown and green colors used look dull and unappealing,-30,140,20","Interesting. I like the ""old woman"" on the left. Lots of different entities to look at,21,100,20","Mikayla","It gives me weird vibes.,-25,300,20","Gabriela","The brown and green colors used look dull and unappealing,-30,140,20","Chelsea","It is too messy.,-38,180,20","3"
"17436","","survey-text","103","704085","0.0-101.0-0.0","A2T4GQKM5ETQHF","","","","{""Q0"":""Love the colors used, makes me feel warm and happy""}","","","","","","","","","","","","","","","","","","","","","","",""
"4877.199999809265","","image-slider-response","104","708965","0.0-102.0","A2T4GQKM5ETQHF","","","","","47","","","","","","","","","","","","","","","","","","","","","",""
"null","","image-button-response","105","713980","0.0-103.0","A2T4GQKM5ETQHF","img_art/1.jpg","null","","","","","","","","","","","","","","","","","","","","","","","","",""
"2503","","image-button-response","106","716486","0.0-104.0","A2T4GQKM5ETQHF","img_art/1.jpg","4","","","","","","","","","","","","","","","","","","","","","","","","",""
"9237","","image-button-response","107","725726","0.0-105.0-0.0","A2T4GQKM5ETQHF","img_art/1.jpg","2","","","","","","","","","","","","","","","","","","","","","","","","",""
"2011","","image-button-response","108","727741","0.0-106.0-0.0","A2T4GQKM5ETQHF","img_art/1.jpg","0","","","","","","","","","","","","","","","","","","","","","","","","",""
"null","","html-keyboard-response","109","728249","0.0-107.0","A2T4GQKM5ETQHF","<p style=""font-size: 48px;"">+</p>","","","","","null","allTrialResponses","500","1","9","img_art/1.jpg","47","Love the colors used, makes me feel warm and happy","Madison,Mikayla,Chelsea,Courtney,Gabriela,Paige","This looks like the same artist as the first picture, but cropped? Looks incomplete.,28,60,20","Again kind a boring.,-38,300,20","The colors are a little too intense.,1,180,20","I cant make anything of this one.,-7,280,20","This photo reminds me of a fall afternoon, serene,11,140,20","fearful. Makes me think of fire,-10,60,20","Gabriela","This photo reminds me of a fall afternoon, serene,11,140,20","Chelsea","The colors are a little too intense.,1,180,20","Madison","This looks like the same artist as the first picture, but cropped? Looks incomplete.,28,60,20","3"
"29214","","survey-text","110","757467","0.0-108.0-0.0","A2T4GQKM5ETQHF","","","","{""Q0"":""Looks like mustard being squirted out of a ketchup bottle.""}","","","","","","","","","","","","","","","","","","","","","","",""
"4848.700000286102","","image-slider-response","111","762318","0.0-109.0","A2T4GQKM5ETQHF","","","","","-50","","","","","","","","","","","","","","","","","","","","","",""
"null","","image-button-response","112","767322","0.0-110.0","A2T4GQKM5ETQHF","img_art/4.jpg","null","","","","","","","","","","","","","","","","","","","","","","","","",""
"785","","image-button-response","113","768110","0.0-111.0","A2T4GQKM5ETQHF","img_art/4.jpg","0","","","","","","","","","","","","","","","","","","","","","","","","",""
"1414","","image-button-response","114","769525","0.0-112.0-0.0","A2T4GQKM5ETQHF","img_art/4.jpg","5","","","","","","","","","","","","","","","","","","","","","","","","",""
"2846","","image-button-response","115","772374","0.0-113.0-0.0","A2T4GQKM5ETQHF","img_art/4.jpg","2","","","","","","","","","","","","","","","","","","","","","","","","",""
"null","","html-keyboard-response","116","772878","0.0-114.0","A2T4GQKM5ETQHF","<p style=""font-size: 48px;"">+</p>","","","","","null","allTrialResponses","500","1","10","img_art/4.jpg","-50","Looks like mustard being squirted out of a ketchup bottle.","Madison,Isabella,Chelsea,Chloe,Gabriela,Emily","This is what makes suburban dads say, ""my 4-year-old can do that."",-49,60,20","Looks like a creative hand,45,280,20","The colors remind me of McDonalds.,-41,180,20","Great movement but don't love the yellowy tones.,31,220,20","The bold colors are exciting. It looks like a statue on someone's mantle.,18,140,20","Looks like a child did it.,-42,40,20","Madison","This is what makes suburban dads say, ""my 4-year-old can do that."",-49,60,20","Emily","Looks like a child did it.,-42,40,20","Chelsea","The colors remind me of McDonalds.,-41,180,20","3"
"4608","","survey-text","117","777494","0.0-115.0-0.0","A2T4GQKM5ETQHF","","","","{""Q0"":""our""}","","","","","","","","","","","","","","","","","","","","","","",""
"13085","","survey-text","118","790582","0.0-116.0-0.0","A2T4GQKM5ETQHF","","","","{""Q0"":""Reminds me of a rocky beach""}","","","","","","","","","","","","","","","","","","","","","","",""
"5390","","image-slider-response","119","795974","0.0-117.0","A2T4GQKM5ETQHF","","","","","23","","","","","","","","","","","","","","","","","","","","","",""
"null","","image-button-response","120","800993","0.0-118.0","A2T4GQKM5ETQHF","img_art/7.jpg","null","","","","","","","","","","","","","","","","","","","","","","","","",""
"5323","","image-button-response","121","806319","0.0-119.0","A2T4GQKM5ETQHF","img_art/7.jpg","1","","","","","","","","","","","","","","","","","","","","","","","","",""
"1861","","image-button-response","122","808183","0.0-120.0-0.0","A2T4GQKM5ETQHF","img_art/7.jpg","0","","","","","","","","","","","","","","","","","","","","","","","","",""
"2036","","image-button-response","123","810223","0.0-121.0-0.0","A2T4GQKM5ETQHF","img_art/7.jpg","2","","","","","","","","","","","","","","","","","","","","","","","","",""
"null","","html-keyboard-response","124","811225","0.0-122.0","A2T4GQKM5ETQHF","<p style=""font-size: 48px;"">+</p>","","","","","null","allTrialResponses","1000","1","11","img_art/7.jpg","23","Reminds me of a rocky beach","Madison,Kayla,Chelsea,Amber,Danielle,Emily","Is this a painting, really? Very compelling if so, the texture work is incredible.,15,60,20","Dinosaur bones. Death.,-14,180,20","It looks more like wallpaper rather than a painting.,-27,180,20","Dull and confusing,-24,200,20","I don't like this kind of color scheme or look they went for,-50,340,20","Ugly. I don't like the colors or the scattering.,-50,40,20","Kayla","Dinosaur bones. Death.,-14,180,20","Madison","Is this a painting, really? Very compelling if so, the texture work is incredible.,15,60,20","Chelsea","It looks more like wallpaper rather than a painting.,-27,180,20","3"
"32736","","survey-text","125","843967","0.0-123.0-0.0","A2T4GQKM5ETQHF","","","","{""Q0"":""Makes me think of being on a shady balcony""}","","","","","","","","","","","","","","","","","","","","","","",""
"3981","","image-slider-response","126","847951","0.0-124.0","A2T4GQKM5ETQHF","","","","","26","","","","","","","","","","","","","","","","","","","","","",""
"null","","image-button-response","127","852958","0.0-125.0","A2T4GQKM5ETQHF","img_art/17.jpg","null","","","","","","","","","","","","","","","","","","","","","","","","",""
"285","","image-button-response","128","853247","0.0-126.0","A2T4GQKM5ETQHF","img_art/17.jpg","1","","","","","","","","","","","","","","","","","","","","","","","","",""
"5686","","image-button-response","129","858936","0.0-127.0-0.0","A2T4GQKM5ETQHF","img_art/17.jpg","4","","","","","","","","","","","","","","","","","","","","","","","","",""
"2604","","image-button-response","130","861544","0.0-128.0-0.0","A2T4GQKM5ETQHF","img_art/17.jpg","2","","","","","","","","","","","","","","","","","","","","","","","","",""
"null","","html-keyboard-response","131","863052","0.0-129.0","A2T4GQKM5ETQHF","<p style=""font-size: 48px;"">+</p>","","","","","null","allTrialResponses","1500","1","12","img_art/17.jpg","26","Makes me think of being on a shady balcony","Madison,Kayla,Chelsea,Caitlin,Gabrielle,Christina","No strong reaction. Beautiful design, but hue appears taciturn. Bad photograph?,1,60,20","I like the way the forest is taking over the buildings.,21,180,20","The colors are soft.,32,180,20","Somewhat should trim the tree branches at the shopping mall.,10,80,20","nice composition and colors, fairy land,28,160,20","I like how it looks like a tree. The colors are too muted though,12,240,20","Kayla","I like the way the forest is taking over the buildings.,21,180,20","Gabrielle","nice composition and colors, fairy land,28,160,20","Chelsea","The colors are soft.,32,180,20","3"
"27235","","survey-text","132","890295","0.0-130.0-0.0","A2T4GQKM5ETQHF","","","","{""Q0"":""Don't like this one""}","","","","","","","","","","","","","","","","","","","","","","",""
"3781.0999999046326","","image-slider-response","133","894079","0.0-131.0","A2T4GQKM5ETQHF","","","","","-38","","","","","","","","","","","","","","","","","","","","","",""
"null","","image-button-response","134","899087","0.0-132.0","A2T4GQKM5ETQHF","img_art/24.jpg","null","","","","","","","","","","","","","","","","","","","","","","","","",""
"1734","","image-button-response","135","900824","0.0-133.0","A2T4GQKM5ETQHF","img_art/24.jpg","1","","","","","","","","","","","","","","","","","","","","","","","","",""
"7669","","image-button-response","136","908496","0.0-134.0-0.0","A2T4GQKM5ETQHF","img_art/24.jpg","2","","","","","","","","","","","","","","","","","","","","","","","","",""
"1068","","image-button-response","137","909568","0.0-135.0-0.0","A2T4GQKM5ETQHF","img_art/24.jpg","5","","","","","","","","","","","","","","","","","","","","","","","","",""
"null","","html-keyboard-response","138","910071","0.0-136.0","A2T4GQKM5ETQHF","<p style=""font-size: 48px;"">+</p>","","","","","null","allTrialResponses","500","1","13","img_art/24.jpg","-38","Don't like this one","Erica,Kayla,Chelsea,Laura,Gabrielle,Molly","Very refreshing and vigorous,19,80,20","It looks like a poor dead bunny in a field of flowers. I don't want the bunny to be dead.,-37,180,20","The colors are relaxing and cheerful.,32,180,20","chunky fresh color,27,320,20","flowing water part is good, some of the rest is ok but dark,14,160,20","Extraordinary and unusual.,30,340,20","Kayla","It looks like a poor dead bunny in a field of flowers. I don't want the bunny to be dead.,-37,180,20","Chelsea","The colors are relaxing and cheerful.,32,180,20","Molly","Extraordinary and unusual.,30,340,20","3"
"27659","","survey-text","139","937736","0.0-137.0-0.0","A2T4GQKM5ETQHF","","","","{""Q0"":""Looks like a monster's mouth""}","","","","","","","","","","","","","","","","","","","","","","",""
"4172.900000095367","","image-slider-response","140","941912","0.0-138.0","A2T4GQKM5ETQHF","","","","","-44","","","","","","","","","","","","","","","","","","","","","",""
"3277","","image-button-response","141","946915","0.0-139.0","A2T4GQKM5ETQHF","img_art/9.jpg","3","","","","","","","","","","","","","","","","","","","","","","","","",""
"2458","","image-button-response","142","949376","0.0-140.0","A2T4GQKM5ETQHF","img_art/9.jpg","2","","","","","","","","","","","","","","","","","","","","","","","","",""
"1189","","image-button-response","143","950568","0.0-141.0-0.0","A2T4GQKM5ETQHF","img_art/9.jpg","4","","","","","","","","","","","","","","","","","","","","","","","","",""
"1892","","image-button-response","144","952465","0.0-142.0-0.0","A2T4GQKM5ETQHF","img_art/9.jpg","3","","","","","","","","","","","","","","","","","","","","","","","","",""
"null","","html-keyboard-response","145","952987","0.0-143.0","A2T4GQKM5ETQHF","<p style=""font-size: 48px;"">+</p>","","","","","null","allTrialResponses","500","1","14","img_art/9.jpg","-44","Looks like a monster's mouth","Mariah,Kayla,Chelsea,Emma,Brooke,Molly","Pleasant in all ways.,27,140,20","It's nice. Peaceful. Calming.,11,180,20","I don't like the obvious lines of colored pencil on the border.,-24,180,20","Feels angry .....,-40,60,20","Dark fantasy seaside cave carnival? Fun.,15,60,20","I like the way the artist has painted his painting.,20,340,20","Chelsea","I don't like the obvious lines of colored pencil on the border.,-24,180,20","Brooke","Dark fantasy seaside cave carnival? Fun.,15,60,20","Emma","Feels angry .....,-40,60,20","3"
"24166","","survey-text","146","977159","0.0-144.0-0.0","A2T4GQKM5ETQHF","","","","{""Q0"":""Feels a little creepy with the face overlooking the painting""}","","","","","","","","","","","","","","","","","","","","","","",""
"3886","","image-slider-response","147","981048","0.0-145.0","A2T4GQKM5ETQHF","","","","","-14","","","","","","","","","","","","","","","","","","","","","",""
"null","","image-button-response","148","986057","0.0-146.0","A2T4GQKM5ETQHF","img_art/8.jpg","null","","","","","","","","","","","","","","","","","","","","","","","","",""
"1268","","image-button-response","149","987328","0.0-147.0","A2T4GQKM5ETQHF","img_art/8.jpg","0","","","","","","","","","","","","","","","","","","","","","","","","",""
"2998","","image-button-response","150","990329","0.0-148.0-0.0","A2T4GQKM5ETQHF","img_art/8.jpg","4","","","","","","","","","","","","","","","","","","","","","","","","",""
"3892","","image-button-response","151","994225","0.0-149.0-0.0","A2T4GQKM5ETQHF","img_art/8.jpg","2","","","","","","","","","","","","","","","","","","","","","","","","",""
"null","","html-keyboard-response","152","994728","0.0-150.0","A2T4GQKM5ETQHF","<p style=""font-size: 48px;"">+</p>","","","","","null","allTrialResponses","500","1","15","img_art/8.jpg","-14","Feels a little creepy with the face overlooking the painting","Marissa,Kylie,Chelsea,Emma,Brooke,Caroline","I can't tell if this is supposed to portray just city life or a town crumbling,-5,160,20","Very abstract and seems symbolic,45,300,20","It looks like it took a lot of time to complete.,34,180,20","Love the colors & block-style,50,60,20","what's going on here. looks like scary town.,-25,60,20","I love the colors in it and also the faces and door ways. Made me feel hopeful,35,100,20","Marissa","I can't tell if this is supposed to portray just city life or a town crumbling,-5,160,20","Brooke","what's going on here. looks like scary town.,-25,60,20","Chelsea","It looks like it took a lot of time to complete.,34,180,20","3"
"4024","","survey-text","153","998761","0.0-151.0-0.0","A2T4GQKM5ETQHF","","","","{""Q0"":""course""}","","","","","","","","","","","","","","","","","","","","","","",""
"32861","","survey-text","154","1031625","0.0-152.0-0.0","A2T4GQKM5ETQHF","","","","{""Q0"":""Interesting, but it doesn't evoke any kind of emotion""}","","","","","","","","","","","","","","","","","","","","","","",""
"4821.300000190735","","image-slider-response","155","1036449","0.0-153.0","A2T4GQKM5ETQHF","","","","","-2","","","","","","","","","","","","","","","","","","","","","",""
"null","","image-button-response","156","1041456","0.0-154.0","A2T4GQKM5ETQHF","img_art/11.jpg","null","","","","","","","","","","","","","","","","","","","","","","","","",""
"1431","","image-button-response","157","1042889","0.0-155.0","A2T4GQKM5ETQHF","img_art/11.jpg","0","","","","","","","","","","","","","","","","","","","","","","","","",""
"1245","","image-button-response","158","1044137","0.0-156.0-0.0","A2T4GQKM5ETQHF","img_art/11.jpg","5","","","","","","","","","","","","","","","","","","","","","","","","",""
"1470","","image-button-response","159","1045610","0.0-157.0-0.0","A2T4GQKM5ETQHF","img_art/11.jpg","3","","","","","","","","","","","","","","","","","","","","","","","","",""
"null","","html-keyboard-response","160","1047124","0.0-158.0","A2T4GQKM5ETQHF","<p style=""font-size: 48px;"">+</p>","","","","","null","allTrialResponses","1500","1","16","img_art/11.jpg","-2","Interesting, but it doesn't evoke any kind of emotion","Marissa,Erin,Chelsea,Makayla,Brooke,Kelly","I dislike how dark this is,-21,160,20","Frank Lloyd Wright, music,24,120,20","I like the harsh black lines against a soft background.,27,180,20","Smoggy, oily, industrial. Don't like,1,80,20","futuristic arching railways,25,60,20","Its a little psychedelic.,10,220,20","Marissa","I dislike how dark this is,-21,160,20","Kelly","Its a little psychedelic.,10,220,20","Makayla","Smoggy, oily, industrial. Don't like,1,80,20","3"
"27287","","survey-text","161","1074418","0.0-159.0-0.0","A2T4GQKM5ETQHF","","","","{""Q0"":""Reminds me of a scary children's book page""}","","","","","","","","","","","","","","","","","","","","","","",""
"4372.799999713898","","image-slider-response","162","1078793","0.0-160.0","A2T4GQKM5ETQHF","","","","","-36","","","","","","","","","","","","","","","","","","","","","",""
"3645","","image-button-response","163","1083797","0.0-161.0","A2T4GQKM5ETQHF","img_art/16.jpg","0","","","","","","","","","","","","","","","","","","","","","","","","",""
"1698","","image-button-response","164","1085498","0.0-162.0","A2T4GQKM5ETQHF","img_art/16.jpg","1","","","","","","","","","","","","","","","","","","","","","","","","",""
"1446","","image-button-response","165","1086946","0.0-163.0-0.0","A2T4GQKM5ETQHF","img_art/16.jpg","2","","","","","","","","","","","","","","","","","","","","","","","","",""
"901","","image-button-response","166","1087850","0.0-164.0-0.0","A2T4GQKM5ETQHF","img_art/16.jpg","0","","","","","","","","","","","","","","","","","","","","","","","","",""
"null","","html-keyboard-response","167","1089355","0.0-165.0","A2T4GQKM5ETQHF","<p style=""font-size: 48px;"">+</p>","","","","","null","allTrialResponses","1500","1","17","img_art/16.jpg","-36","Reminds me of a scary children's book page","Marissa,Lindsey,Katie,Makayla,Jordan,Kelly","I do not like this dark and twisted portrayal of childhood,-42,160,20","It's depressing. Probably achieved its goal. But I wouldn't want it hanging in my home.,-31,400,20","Upsetting and disturbing. Random bear and indistinguishable objects. None of it goes together. Too chaotic and random,-50,160,20","It's a little unsettling,2,80,20","Not interested at all,-15,20,20","Looks like someone got really high and did a bad photoshop job.,-27,220,20","Lindsey","It's depressing. Probably achieved its goal. But I wouldn't want it hanging in my home.,-31,400,20","Katie","Upsetting and disturbing. Random bear and indistinguishable objects. None of it goes together. Too chaotic and random,-50,160,20","Marissa","I do not like this dark and twisted portrayal of childhood,-42,160,20","3"
"13551","","survey-text","168","1102913","0.0-166.0-0.0","A2T4GQKM5ETQHF","","","","{""Q0"":""I just don't see the art in this""}","","","","","","","","","","","","","","","","","","","","","","",""
"4670.200000286102","","image-slider-response","169","1107585","0.0-167.0","A2T4GQKM5ETQHF","","","","","-42","","","","","","","","","","","","","","","","","","","","","",""
"null","","image-button-response","170","1112598","0.0-168.0","A2T4GQKM5ETQHF","img_art/15.jpg","null","","","","","","","","","","","","","","","","","","","","","","","","",""
"474","","image-button-response","171","1113074","0.0-169.0","A2T4GQKM5ETQHF","img_art/15.jpg","3","","","","","","","","","","","","","","","","","","","","","","","","",""
"981","","image-button-response","172","1114058","0.0-170.0-0.0","A2T4GQKM5ETQHF","img_art/15.jpg","5","","","","","","","","","","","","","","","","","","","","","","","","",""
"3261","","image-button-response","173","1117322","0.0-171.0-0.0","A2T4GQKM5ETQHF","img_art/15.jpg","1","","","","","","","","","","","","","","","","","","","","","","","","",""
"null","","html-keyboard-response","174","1117832","0.0-172.0","A2T4GQKM5ETQHF","<p style=""font-size: 48px;"">+</p>","","","","","null","allTrialResponses","500","1","18","img_art/15.jpg","-42","I just don't see the art in this","Marissa,Lindsey,Katie,Katelyn,Kimberly,Samantha","I am reminded of spring flowers swaying in the dark night's breeze,9,160,20","Not a fan. This piece would only go with very specific decor in a modern home.,-35,400,20","Too much black. I see weeds or dead/dying flowers.,-40,160,20","Doesnt trigger much of a reaction overall,-2,100,20","it looks like lavender,10,260,20","Not interesting enough. Boring,-37,140,20","Katelyn","Doesnt trigger much of a reaction overall,-2,100,20","Samantha","Not interesting enough. Boring,-37,140,20","Lindsey","Not a fan. This piece would only go with very specific decor in a modern home.,-35,400,20","3"
"19367","","survey-text","175","1137204","0.0-173.0-0.0","A2T4GQKM5ETQHF","","","","{""Q0"":""Feels like children playing under a tree""}","","","","","","","","","","","","","","","","","","","","","","",""
"3715.5","","image-slider-response","176","1140922","0.0-174.0","A2T4GQKM5ETQHF","","","","","8","","","","","","","","","","","","","","","","","","","","","",""
"null","","image-button-response","177","1145926","0.0-175.0","A2T4GQKM5ETQHF","img_art/14.jpg","null","","","","","","","","","","","","","","","","","","","","","","","","",""
"1098","","image-button-response","178","1147026","0.0-176.0","A2T4GQKM5ETQHF","img_art/14.jpg","0","","","","","","","","","","","","","","","","","","","","","","","","",""
"4397","","image-button-response","179","1151426","0.0-177.0-0.0","A2T4GQKM5ETQHF","img_art/14.jpg","5","","","","","","","","","","","","","","","","","","","","","","","","",""
"5100","","image-button-response","180","1156531","0.0-178.0-0.0","A2T4GQKM5ETQHF","img_art/14.jpg","4","","","","","","","","","","","","","","","","","","","","","","","","",""
"null","","html-keyboard-response","181","1158033","0.0-179.0","A2T4GQKM5ETQHF","<p style=""font-size: 48px;"">+</p>","","","","","null","allTrialResponses","1500","1","19","img_art/14.jpg","8","Feels like children playing under a tree","Dominique,Lindsey,Shelby,Katelyn,Sydney,Samantha","Reminds me of the old days with my family and my grandma,41,400,20","Warm, positive, growth.,8,400,20","Something about the cahotic imagery makes me uncomfortable,-15,240,20","Its cute. Not striking but i would keep it in my home.,10,100,20","I'm imagining a flower bouquet with pretty colors which I like.,35,320,20","I love the feeling of the tree and people. Makes me happy,50,140,20","Dominique","Reminds me of the old days with my family and my grandma,41,400,20","Samantha","I love the feeling of the tree and people. Makes me happy,50,140,20","Sydney","I'm imagining a flower bouquet with pretty colors which I like.,35,320,20","3"
"22719","","survey-text","182","1180762","0.0-180.0-0.0","A2T4GQKM5ETQHF","","","","{""Q0"":""Feels dark and like devastation""}","","","","","","","","","","","","","","","","","","","","","","",""
"3877.300000190735","","image-slider-response","183","1184642","0.0-181.0","A2T4GQKM5ETQHF","","","","","-50","","","","","","","","","","","","","","","","","","","","","",""
"null","","image-button-response","184","1189646","0.0-182.0","A2T4GQKM5ETQHF","img_art/29.jpg","null","","","","","","","","","","","","","","","","","","","","","","","","",""
"3009","","image-button-response","185","1192659","0.0-183.0","A2T4GQKM5ETQHF","img_art/29.jpg","2","","","","","","","","","","","","","","","","","","","","","","","","",""
"5149","","image-button-response","186","1197811","0.0-184.0-0.0","A2T4GQKM5ETQHF","img_art/29.jpg","1","","","","","","","","","","","","","","","","","","","","","","","","",""
"6355","","image-button-response","187","1204171","0.0-185.0-0.0","A2T4GQKM5ETQHF","img_art/29.jpg","4","","","","","","","","","","","","","","","","","","","","","","","","",""
"null","","html-keyboard-response","188","1204680","0.0-186.0","A2T4GQKM5ETQHF","<p style=""font-size: 48px;"">+</p>","","","","","null","allTrialResponses","500","1","20","img_art/29.jpg","-50","Feels dark and like devastation","Dominique,Erika,Tiffany,Jasmine,Sydney,Samantha","Another great work of art and very conversational piece,33,400,20","Feels like an abandoned dream,13,100,20","I feel a little disgust. There is something off-putting about the smooth shapes and dark colors.,-43,360,20","I like the usage of blacks and greys in this,8,340,20","I like that the colors are toned down even though they're everywhere.,5,320,20","I love this things almost hidden in it like paint brush and other details,50,140,20","Tiffany","I feel a little disgust. There is something off-putting about the smooth shapes and dark colors.,-43,360,20","Erika","Feels like an abandoned dream,13,100,20","Sydney","I like that the colors are toned down even though they're everywhere.,5,320,20","3"
"2849","","survey-text","189","1207537","0.0-187.0-0.0","A2T4GQKM5ETQHF","","","","{""Q0"":""we""}","","","","","","","","","","","","","","","","","","","","","","",""
"30542","","survey-text","190","1238082","0.0-188.0-0.0","A2T4GQKM5ETQHF","","","","{""Q0"":""Reminds me of a roller coaster map at a theme park""}","","","","","","","","","","","","","","","","","","","","","","",""
"5798.800000190735","","image-slider-response","191","1243883","0.0-189.0","A2T4GQKM5ETQHF","","","","","22","","","","","","","","","","","","","","","","","","","","","",""
"null","","image-button-response","192","1248893","0.0-190.0","A2T4GQKM5ETQHF","img_art/10.jpg","null","","","","","","","","","","","","","","","","","","","","","","","","",""
"868","","image-button-response","193","1249763","0.0-191.0","A2T4GQKM5ETQHF","img_art/10.jpg","0","","","","","","","","","","","","","","","","","","","","","","","","",""
"3493","","image-button-response","194","1253259","0.0-192.0-0.0","A2T4GQKM5ETQHF","img_art/10.jpg","4","","","","","","","","","","","","","","","","","","","","","","","","",""
"995","","image-button-response","195","1254259","0.0-193.0-0.0","A2T4GQKM5ETQHF","img_art/10.jpg","5","","","","","","","","","","","","","","","","","","","","","","","","",""
"null","","html-keyboard-response","196","1254761","0.0-194.0","A2T4GQKM5ETQHF","<p style=""font-size: 48px;"">+</p>","","","","","null","allTrialResponses","500","1","21","img_art/10.jpg","22","Reminds me of a roller coaster map at a theme park","Taylor,Erika,Tiffany,Alyssa,Sydney,Natalie","Makes me think of the exhilaration of a roller coaster,31,340,20","Good texture, expressive,18,100,20","I feel little to no emotion looking at this painting.,0,360,20","Bleak and uninteresting,-10,160,20","This piece is unusual in a way that makes me uncomfortable.,-5,320,20","I see a rollercoaster,23,400,20","Taylor","Makes me think of the exhilaration of a roller coaster,31,340,20","Sydney","This piece is unusual in a way that makes me uncomfortable.,-5,320,20","Natalie","I see a rollercoaster,23,400,20","3"
"16531","","survey-text","197","1271299","0.0-195.0-0.0","A2T4GQKM5ETQHF","","","","{""Q0"":""Less green would make me like it better""}","","","","","","","","","","","","","","","","","","","","","","",""
"3949.7000002861023","","image-slider-response","198","1275250","0.0-196.0","A2T4GQKM5ETQHF","","","","","7","","","","","","","","","","","","","","","","","","","","","",""
"null","","image-button-response","199","1280264","0.0-197.0","A2T4GQKM5ETQHF","img_art/2.jpg","null","","","","","","","","","","","","","","","","","","","","","","","","",""
"768","","image-button-response","200","1281035","0.0-198.0","A2T4GQKM5ETQHF","img_art/2.jpg","1","","","","","","","","","","","","","","","","","","","","","","","","",""
"1621","","image-button-response","201","1282659","0.0-199.0-0.0","A2T4GQKM5ETQHF","img_art/2.jpg","0","","","","","","","","","","","","","","","","","","","","","","","","",""
"5493","","image-button-response","202","1288155","0.0-200.0-0.0","A2T4GQKM5ETQHF","img_art/2.jpg","2","","","","","","","","","","","","","","","","","","","","","","","","",""
"null","","html-keyboard-response","203","1289158","0.0-201.0","A2T4GQKM5ETQHF","<p style=""font-size: 48px;"">+</p>","","","","","null","allTrialResponses","1000","1","22","img_art/2.jpg","7","Less green would make me like it better","Taylor,Allison,Kathryn,Angela,Sydney,Natalie","Doesn't give me a reaction,10,340,20","Hate the vomit green.,-31,140,20","I think I'm put off by the clashing colors here. It feels discombobulated and sick.,-10,140,20","Only like the blues and teals in this. The rest is unappealing.,-15,260,20","I like the color, but I feel like I see a creepy face which I dislike.,-5,320,20","looks like a bunch of gibberish,-39,400,20","Allison","Hate the vomit green.,-31,140,20","Taylor","Doesn't give me a reaction,10,340,20","Kathryn","I think I'm put off by the clashing colors here. It feels discombobulated and sick.,-10,140,20","3"
"9541","","survey-text","204","1298707","0.0-202.0-0.0","A2T4GQKM5ETQHF","","","","{""Q0"":""No, just no""}","","","","","","","","","","","","","","","","","","","","","","",""
"3917","","image-slider-response","205","1302626","0.0-203.0","A2T4GQKM5ETQHF","","","","","-50","","","","","","","","","","","","","","","","","","","","","",""
"null","","image-button-response","206","1307644","0.0-204.0","A2T4GQKM5ETQHF","img_art/5.jpg","null","","","","","","","","","","","","","","","","","","","","","","","","",""
"1420","","image-button-response","207","1309067","0.0-205.0","A2T4GQKM5ETQHF","img_art/5.jpg","0","","","","","","","","","","","","","","","","","","","","","","","","",""
"4540","","image-button-response","208","1313610","0.0-206.0-0.0","A2T4GQKM5ETQHF","img_art/5.jpg","5","","","","","","","","","","","","","","","","","","","","","","","","",""
"1719","","image-button-response","209","1315331","0.0-207.0-0.0","A2T4GQKM5ETQHF","img_art/5.jpg","4","","","","","","","","","","","","","","","","","","","","","","","","",""
"null","","html-keyboard-response","210","1315836","0.0-208.0","A2T4GQKM5ETQHF","<p style=""font-size: 48px;"">+</p>","","","","","null","allTrialResponses","500","1","23","img_art/5.jpg","-50","No, just no","Taylor,Allison,Kathryn,Maria,Alexandria,Heather","Doesn't make me think anything,-1,340,20","Too loud. Dislike the bright yellow.,-5,140,20","I see a sign advising me to be cautious.,-20,140,20","this feels like something I should like, but I'm not feeling the execution,-10,120,20","no clear emotion,-16,80,20","its something. i just dont know what it is.,1,260,20","Taylor","Doesn't make me think anything,-1,340,20","Heather","its something. i just dont know what it is.,1,260,20","Alexandria","no clear emotion,-16,80,20","3"
"21420","","survey-text","211","1337264","0.0-209.0-0.0","A2T4GQKM5ETQHF","","","","{""Q0"":""Love the fade of darker colors to more vibrant colors""}","","","","","","","","","","","","","","","","","","","","","","",""
"4248.099999904633","","image-slider-response","212","1341515","0.0-210.0","A2T4GQKM5ETQHF","","","","","13","","","","","","","","","","","","","","","","","","","","","",""
"null","","image-button-response","213","1346530","0.0-211.0","A2T4GQKM5ETQHF","img_art/12.jpg","null","","","","","","","","","","","","","","","","","","","","","","","","",""
"3047","","image-button-response","214","1349580","0.0-212.0","A2T4GQKM5ETQHF","img_art/12.jpg","5","","","","","","","","","","","","","","","","","","","","","","","","",""
"2100","","image-button-response","215","1351684","0.0-213.0-0.0","A2T4GQKM5ETQHF","img_art/12.jpg","0","","","","","","","","","","","","","","","","","","","","","","","","",""
"508","","image-button-response","216","1352195","0.0-214.0-0.0","A2T4GQKM5ETQHF","img_art/12.jpg","1","","","","","","","","","","","","","","","","","","","","","","","","",""
"null","","html-keyboard-response","217","1353198","0.0-215.0","A2T4GQKM5ETQHF","<p style=""font-size: 48px;"">+</p>","","","","","null","allTrialResponses","1000","1","24","img_art/12.jpg","13","Love the fade of darker colors to more vibrant colors","Taylor,Autumn,Diana,Michelle,Alexandria,Heather","It's kind of ominous,-15,340,20","Good too basic.,18,340,20","This is beautiful. It looks like 1,000 different sunrises and sunsets.,44,380,20","eww hate everything about this, looks like it belongs in a dentist's office,-14,280,20","don't feel a lot but it seems very simple,-6,80,20","beautiful also reminds me of a quilt,1,260,20","Heather","beautiful also reminds me of a quilt,1,260,20","Taylor","It's kind of ominous,-15,340,20","Autumn","Good too basic.,18,340,20","3"
"12934","","survey-text","218","1366140","0.0-216.0-0.0","A2T4GQKM5ETQHF","","","","{""Q0"":""Rain on a window""}","","","","","","","","","","","","","","","","","","","","","","",""
"4036.699999809265","","image-slider-response","219","1370179","0.0-217.0","A2T4GQKM5ETQHF","","","","","5","","","","","","","","","","","","","","","","","","","","","",""
"null","","image-button-response","220","1375200","0.0-218.0","A2T4GQKM5ETQHF","img_art/13.jpg","null","","","","","","","","","","","","","","","","","","","","","","","","",""
"2065","","image-button-response","221","1377267","0.0-219.0","A2T4GQKM5ETQHF","img_art/13.jpg","0","","","","","","","","","","","","","","","","","","","","","","","","",""
"4494","","image-button-response","222","1381764","0.0-220.0-0.0","A2T4GQKM5ETQHF","img_art/13.jpg","5","","","","","","","","","","","","","","","","","","","","","","","","",""
"1964","","image-button-response","223","1383732","0.0-221.0-0.0","A2T4GQKM5ETQHF","img_art/13.jpg","4","","","","","","","","","","","","","","","","","","","","","","","","",""
"null","","html-keyboard-response","224","1385239","0.0-222.0","A2T4GQKM5ETQHF","<p style=""font-size: 48px;"">+</p>","","","","","null","allTrialResponses","1500","1","25","img_art/13.jpg","5","Rain on a window","Taylor,Autumn,Jessica,Alexa,Savannah,Heather","It makes me think of sitting inside on a rainy day while drinking a warm coffee,32,340,20","Nice color abstractions.,21,340,20","The paint splatter idea is kind of overused but I like how it brings the piece together,16,400,20","This looks like a staple bedroom or bathroom piece,41,40,20","Lots of depth and character.,30,200,20","rain in blue black and white,1,260,20","Taylor","It makes me think of sitting inside on a rainy day while drinking a warm coffee,32,340,20","Heather","rain in blue black and white,1,260,20","Savannah","Lots of depth and character.,30,200,20","3"
"6275","","survey-text","225","1391524","0.0-223.0-0.0","A2T4GQKM5ETQHF","","","","{""Q0"":""table""}","","","","","","","","","","","","","","","","","","","","","","",""
"25293","","survey-text","226","1416820","0.0-224.0-0.0","A2T4GQKM5ETQHF","","","","{""Q0"":""Looks like a care wreck in a desert""}","","","","","","","","","","","","","","","","","","","","","","",""
"4396.800000190735","","image-slider-response","227","1421220","0.0-225.0","A2T4GQKM5ETQHF","","","","","-24","","","","","","","","","","","","","","","","","","","","","",""
"null","","image-button-response","228","1426232","0.0-226.0","A2T4GQKM5ETQHF","img_art/20.jpg","null","","","","","","","","","","","","","","","","","","","","","","","","",""
"746","","image-button-response","229","1426981","0.0-227.0","A2T4GQKM5ETQHF","img_art/20.jpg","1","","","","","","","","","","","","","","","","","","","","","","","","",""
"5340","","image-button-response","230","1432325","0.0-228.0-0.0","A2T4GQKM5ETQHF","img_art/20.jpg","5","","","","","","","","","","","","","","","","","","","","","","","","",""
"5692","","image-button-response","231","1438021","0.0-229.0-0.0","A2T4GQKM5ETQHF","img_art/20.jpg","2","","","","","","","","","","","","","","","","","","","","","","","","",""
"null","","html-keyboard-response","232","1438528","0.0-230.0","A2T4GQKM5ETQHF","<p style=""font-size: 48px;"">+</p>","","","","","null","allTrialResponses","500","1","26","img_art/20.jpg","-24","Looks like a care wreck in a desert","Taylor,Vanessa,Grace,Alicia,Savannah,Heather","I just love this painting,47,340,20","I like the deep blues, but I don't like the way this picture makes me feel.,-13,380,20","Reminds me of Georgia O'Keefe.,11,180,20","Very cool, and calming (again) Love it.,47,120,20","Lovely composition, colors, and message.,35,200,20","make me feel like its a little country maybe a tractor and a skull head of a bull,1,260,20","Vanessa","I like the deep blues, but I don't like the way this picture makes me feel.,-13,380,20","Heather","make me feel like its a little country maybe a tractor and a skull head of a bull,1,260,20","Grace","Reminds me of Georgia O'Keefe.,11,180,20","3"
"16749","","survey-text","233","1455285","0.0-231.0-0.0","A2T4GQKM5ETQHF","","","","{""Q0"":""Interesting""}","","","","","","","","","","","","","","","","","","","","","","",""
"3066.4000000953674","","image-slider-response","234","1458355","0.0-232.0","A2T4GQKM5ETQHF","","","","","5","","","","","","","","","","","","","","","","","","","","","",""
"null","","image-button-response","235","1463362","0.0-233.0","A2T4GQKM5ETQHF","img_art/23.jpg","null","","","","","","","","","","","","","","","","","","","","","","","","",""
"719","","image-button-response","236","1464084","0.0-234.0","A2T4GQKM5ETQHF","img_art/23.jpg","3","","","","","","","","","","","","","","","","","","","","","","","","",""
"8030","","image-button-response","237","1472116","0.0-235.0-0.0","A2T4GQKM5ETQHF","img_art/23.jpg","0","","","","","","","","","","","","","","","","","","","","","","","","",""
"959","","image-button-response","238","1473078","0.0-236.0-0.0","A2T4GQKM5ETQHF","img_art/23.jpg","5","","","","","","","","","","","","","","","","","","","","","","","","",""
"null","","html-keyboard-response","239","1474088","0.0-237.0","A2T4GQKM5ETQHF","<p style=""font-size: 48px;"">+</p>","","","","","null","allTrialResponses","1000","1","27","img_art/23.jpg","5","Interesting","Alexandra,Vanessa,Grace,Briana,Megan,Heather","This is my favorite of them all. I love the colors.,41,60,20","This is ugly and weird.,-50,380,20","Looks like fireworks.,21,180,20","White in the middle look like people dancing naked,19,400,20","Too busy with color with warrior lineup,0,200,20","illegible wording with a graffiti background,1,260,20","Briana","White in the middle look like people dancing naked,19,400,20","Alexandra","This is my favorite of them all. I love the colors.,41,60,20","Heather","illegible wording with a graffiti background,1,260,20","3"
"18527","","survey-text","240","1492622","0.0-238.0-0.0","A2T4GQKM5ETQHF","","","","{""Q0"":""Love the colors and the circle within all of the squares""}","","","","","","","","","","","","","","","","","","","","","","",""
"6779.799999713898","","image-slider-response","241","1499405","0.0-239.0","A2T4GQKM5ETQHF","","","","","33","","","","","","","","","","","","","","","","","","","","","",""
"null","","image-button-response","242","1504421","0.0-240.0","A2T4GQKM5ETQHF","img_art/22.jpg","null","","","","","","","","","","","","","","","","","","","","","","","","",""
"2293","","image-button-response","243","1506718","0.0-241.0","A2T4GQKM5ETQHF","img_art/22.jpg","0","","","","","","","","","","","","","","","","","","","","","","","","",""
"1092","","image-button-response","244","1507813","0.0-242.0-0.0","A2T4GQKM5ETQHF","img_art/22.jpg","3","","","","","","","","","","","","","","","","","","","","","","","","",""
"1027","","image-button-response","245","1508844","0.0-243.0-0.0","A2T4GQKM5ETQHF","img_art/22.jpg","4","","","","","","","","","","","","","","","","","","","","","","","","",""
"null","","html-keyboard-response","246","1509854","0.0-244.0","A2T4GQKM5ETQHF","<p style=""font-size: 48px;"">+</p>","","","","","null","allTrialResponses","1000","1","28","img_art/22.jpg","33","Love the colors and the circle within all of the squares","Alexandra,Margaret,Jenna,Briana,Melissa,Heather","The colors in this picture are nice.,32,60,20","i feel like this is a a basic art piece that a school would have on the wall,-24,100,20","beautiful. love the bright colors & soft brush strokes, and the imprint of the key is genius.,50,360,20","Bright colors feel warm,22,400,20","strong blending skills,7,240,20","i think its pretty but im not sure what i see,1,260,20","Alexandra","The colors in this picture are nice.,32,60,20","Briana","Bright colors feel warm,22,400,20","Melissa","strong blending skills,7,240,20","3"
"293293","","survey-text","247","1803155","0.0-245.0-0.0","A2T4GQKM5ETQHF","","","","{""Q0"":""childish""}","","","","","","","","","","","","","","","","","","","","","","",""
"3474.7000002861023","","image-slider-response","248","1806631","0.0-246.0","A2T4GQKM5ETQHF","","","","","-33","","","","","","","","","","","","","","","","","","","","","",""
"null","","image-button-response","249","1811634","0.0-247.0","A2T4GQKM5ETQHF","img_art/30.jpg","null","","","","","","","","","","","","","","","","","","","","","","","","",""
"1659","","image-button-response","250","1813296","0.0-248.0","A2T4GQKM5ETQHF","img_art/30.jpg","3","","","","","","","","","","","","","","","","","","","","","","","","",""
"3613","","image-button-response","251","1816913","0.0-249.0-0.0","A2T4GQKM5ETQHF","img_art/30.jpg","5","","","","","","","","","","","","","","","","","","","","","","","","",""
"853","","image-button-response","252","1817769","0.0-250.0-0.0","A2T4GQKM5ETQHF","img_art/30.jpg","2","","","","","","","","","","","","","","","","","","","","","","","","",""
"null","","html-keyboard-response","253","1819279","0.0-251.0","A2T4GQKM5ETQHF","<p style=""font-size: 48px;"">+</p>","","","","","null","allTrialResponses","1500","1","29","img_art/30.jpg","-33","childish","Alexandra,Amy,Cassandra,Briana,Melissa,Nicole","I really love the pastel colors and the 3D design in this,43,60,20","Too much abstraction for me, leaving my focus mainly on color. I like the texture.,-20,220,20","I didn't like this...it looks like someone just finger painted it.,-10,120,20","Its ugly. Too simple,-23,400,20","muddy, feels unintentional,-50,240,20","I like the softness of this but it doesn't make me feel that nice,5,20,20","Briana","Its ugly. Too simple,-23,400,20","Nicole","I like the softness of this but it doesn't make me feel that nice,5,20,20","Cassandra","I didn't like this...it looks like someone just finger painted it.,-10,120,20","3"
"18365","","survey-text","254","1837652","0.0-252.0-0.0","A2T4GQKM5ETQHF","","","","{""Q0"":""Reminds me of someone working in a yard""}","","","","","","","","","","","","","","","","","","","","","","",""
"4922.60000038147","","image-slider-response","255","1842576","0.0-253.0","A2T4GQKM5ETQHF","","","","","9","","","","","","","","","","","","","","","","","","","","","",""
"null","","image-button-response","256","1847594","0.0-254.0","A2T4GQKM5ETQHF","img_art/19.jpg","null","","","","","","","","","","","","","","","","","","","","","","","","",""
"1396","","image-button-response","257","1848993","0.0-255.0","A2T4GQKM5ETQHF","img_art/19.jpg","3","","","","","","","","","","","","","","","","","","","","","","","","",""
"2115","","image-button-response","258","1851111","0.0-256.0-0.0","A2T4GQKM5ETQHF","img_art/19.jpg","2","","","","","","","","","","","","","","","","","","","","","","","","",""
"2935","","image-button-response","259","1854048","0.0-257.0-0.0","A2T4GQKM5ETQHF","img_art/19.jpg","1","","","","","","","","","","","","","","","","","","","","","","","","",""
"null","","html-keyboard-response","260","1854551","0.0-258.0","A2T4GQKM5ETQHF","<p style=""font-size: 48px;"">+</p>","","","","","null","allTrialResponses","500","1","30","img_art/19.jpg","9","Reminds me of someone working in a yard","Claire,Catherine,Cassandra,Briana,Sarah,Nicole","way too much going on,-33,260,20","Higher power looking down at its creation with a half smile and some hurt.,45,160,20","Nuetral...can't think of anything to say,4,120,20","Its simple and the colors i like. It reminds me of chagall,34,400,20","too much of a mix of lines and shading,-22,180,20","Feels like something I would hang in my dining room,42,20,20","Briana","Its simple and the colors i like. It reminds me of chagall,34,400,20","Cassandra","Nuetral...can't think of anything to say,4,120,20","Catherine","Higher power looking down at its creation with a half smile and some hurt.,45,160,20","3"
"3088","","image-button-response_instructions","261","1857647","0.0-259.0","A2T4GQKM5ETQHF","","0","instructions","","","","","","","","","","","","","","","","","","","","","","","",""
"1547","","image-button-response","262","1859200","0.0-260.0","A2T4GQKM5ETQHF","","0","","","","","","","","","","","","","","","","","","","","","","","","",""
