"rt","url","trial_type","trial_index","time_elapsed","internal_node_id","participant_id","stimulus","button_pressed","Name","responses","response","key_press","variableName","fixationTime","condition","trial","photo","subjectRating","subjectResponse","agentsNames","agent_1_Response","agent_2_Response","agent_3_Response","agent_4_Response","agent_5_Response","agent_6_Response","kept_1_name","kept_1_response","kept_2_name","kept_2_response","kept_3_name","kept_3_response","errorCounter"
"13796","external_page_harvard.html","external-html","0","13854","0.0-0.0","A2T7VIFQS647LC","","","","","","","","","","","","","","","","","","","","","","","","","","",""
"1916","","image-button-response","1","15771","0.0-1.0","A2T7VIFQS647LC","","0","","","","","","","","","","","","","","","","","","","","","","","","",""
"1609","","image-button-response","2","17383","0.0-2.0-0.0","A2T7VIFQS647LC","","1","phone","","","","","","","","","","","","","","","","","","","","","","","",""
"10340","","survey-text","3","27725","0.0-3.0-0.0","A2T7VIFQS647LC","","","","{""Q0"":""A2T7VIFQS647LC""}","","","","","","","","","","","","","","","","","","","","","","",""
"7075","","image-button-response_instructions","4","34802","0.0-4.0","A2T7VIFQS647LC","","0","instructions","","","","","","","","","","","","","","","","","","","","","","","",""
"10227","","image-button-response_instructions","5","45029","0.0-5.0","A2T7VIFQS647LC","img_art/ins/popularity/ins1.png","0","instructions","","","","","","","","","","","","","","","","","","","","","","","",""
"6077","","image-button-response_instructions","6","51107","0.0-6.0","A2T7VIFQS647LC","img_art/ins/popularity/ins2.png","0","instructions","","","","","","","","","","","","","","","","","","","","","","","",""
"9139","","image-button-response_instructions","7","60246","0.0-7.0","A2T7VIFQS647LC","img_art/ins/popularity/ins2Extreme.png","0","instructions","","","","","","","","","","","","","","","","","","","","","","","",""
"14396","","image-button-response_instructions","8","74643","0.0-8.0","A2T7VIFQS647LC","img_art/ins/popularity/ins3KEEPpop.PNG","0","instructions","","","","","","","","","","","","","","","","","","","","","","","",""
"5724","","image-button-response_instructions","9","80368","0.0-9.0","A2T7VIFQS647LC","img_art/ins/popularity/ins3ANamepop.PNG","0","instructions","","","","","","","","","","","","","","","","","","","","","","","",""
"4780","","image-button-response_instructions","10","85148","0.0-10.0","A2T7VIFQS647LC","img_art/ins/popularity/ins3ARatingpop.png","0","instructions","","","","","","","","","","","","","","","","","","","","","","","",""
"3885","","image-button-response_instructions","11","89035","0.0-11.0","A2T7VIFQS647LC","img_art/ins/popularity/ins3ATextpop.png","0","instructions","","","","","","","","","","","","","","","","","","","","","","","",""
"5975","","image-button-response_instructions","12","95010","0.0-12.0","A2T7VIFQS647LC","img_art/ins/popularity/ins3ALikespop.png","0","instructions","","","","","","","","","","","","","","","","","","","","","","","",""
"19488","","image-button-response_instructions","13","114500","0.0-13.0","A2T7VIFQS647LC","img_art/ins/popularity/ins3KEEPpop.PNG","0","instructions","","","","","","","","","","","","","","","","","","","","","","","",""
"8261","","image-button-response_instructions","14","122761","0.0-14.0","A2T7VIFQS647LC","img_art/ins/popularity/ins3_5RED.png","0","instructions","","","","","","","","","","","","","","","","","","","","","","","",""
"5038","","image-button-response_instructions","15","127800","0.0-15.0","A2T7VIFQS647LC","img_art/ins/popularity/ins3KEEPpop.PNG","0","instructions","","","","","","","","","","","","","","","","","","","","","","","",""
"7790","","image-button-response_instructions","16","135591","0.0-16.0","A2T7VIFQS647LC","img_art/ins/popularity/ins4KEEPpop.PNG","0","instructions","","","","","","","","","","","","","","","","","","","","","","","",""
"6321","","image-button-response_instructions","17","141913","0.0-17.0","A2T7VIFQS647LC","img_art/ins/popularity/ins5KEEPpop.PNG","0","instructions","","","","","","","","","","","","","","","","","","","","","","","",""
"1204","","image-button-response_instructions","18","143117","0.0-18.0","A2T7VIFQS647LC","","0","instructions","","","","","","","","","","","","","","","","","","","","","","","",""
"6159","","survey-text","19","149292","0.0-19.0-0.0","A2T7VIFQS647LC","","","","{""Q0"":""but""}","","","","","","","","","","","","","","","","","","","","","","",""
"18865","","survey-text","20","168157","0.0-20.0-0.0","A2T7VIFQS647LC","","","","{""Q0"":""invokes a solemn feeling""}","","","","","","","","","","","","","","","","","","","","","","",""
"10474.800000011921","","image-slider-response","21","178633","0.0-21.0","A2T7VIFQS647LC","","","","","1","","","","","","","","","","","","","","","","","","","","","",""
"null","","image-button-response","22","183636","0.0-22.0","A2T7VIFQS647LC","img_art/ins/1.jpg","null","","","","","","","","","","","","","","","","","","","","","","","","",""
"7748","","image-button-response","23","191386","0.0-23.0","A2T7VIFQS647LC","img_art/ins/1.jpg","5","","","","","","","","","","","","","","","","","","","","","","","","",""
"2893","","image-button-response","24","194281","0.0-24.0-0.0","A2T7VIFQS647LC","img_art/ins/1.jpg","3","","","","","","","","","","","","","","","","","","","","","","","","",""
"11431","","image-button-response","25","205714","0.0-25.0-0.0","A2T7VIFQS647LC","img_art/ins/1.jpg","1","","","","","","","","","","","","","","","","","","","","","","","","",""
"null","","html-keyboard-response","26","206216","0.0-26.0","A2T7VIFQS647LC","<p style=""font-size: 48px;"">+</p>","","","","","null","allTrialResponses","500","1","-2","img_art/ins/1.jpg","1","invokes a solemn feeling","Adam,Alex,Ben,Carl,Daniel,Jack","Seems like doodles,-20,20,20","very creative work.,36,40,20","This color reminds me of poo,-46,60,20","very calming artwork,42,80,20","It looks like a murder scene.,-48,100,20","I like the sophisticated brushwork,40,120,20","Jack","I like the sophisticated brushwork,40,120,20","Carl","very calming artwork,42,80,20","Alex","very creative work.,36,40,20","0"
"18259","","survey-text","27","224478","0.0-27.0-0.0","A2T7VIFQS647LC","","","","{""Q0"":""somewhat of an angry reaction to this""}","","","","","","","","","","","","","","","","","","","","","","",""
"3427.300000011921","","image-slider-response","28","227906","0.0-28.0","A2T7VIFQS647LC","","","","","8","","","","","","","","","","","","","","","","","","","","","",""
"null","","image-button-response","29","232908","0.0-29.0","A2T7VIFQS647LC","img_art/ins/2.jpg","null","","","","","","","","","","","","","","","","","","","","","","","","",""
"673","","image-button-response","30","233582","0.0-30.0","A2T7VIFQS647LC","img_art/ins/2.jpg","0","","","","","","","","","","","","","","","","","","","","","","","","",""
"3767","","image-button-response","31","237352","0.0-31.0-0.0","A2T7VIFQS647LC","img_art/ins/2.jpg","3","","","","","","","","","","","","","","","","","","","","","","","","",""
"7966","","image-button-response","32","245321","0.0-32.0-0.0","A2T7VIFQS647LC","img_art/ins/2.jpg","4","","","","","","","","","","","","","","","","","","","","","","","","",""
"null","","html-keyboard-response","33","246823","0.0-33.0","A2T7VIFQS647LC","<p style=""font-size: 48px;"">+</p>","","","","","null","allTrialResponses","1500","1","-1","img_art/ins/2.jpg","8","somewhat of an angry reaction to this","James,Alex,Kyle,Carl,John,Jack","looks too angry,-50,140,20","I like the blocks of color arrangements,30,40,20","Idk, it is just annoying,-32,180,20","I can feel the artist's passion in it,45,80,20","love the texture of paint,48,160,20","I would never be able to compose a sophisticated pallete like this,48,120,20","James","looks too angry,-50,140,20","Carl","I can feel the artist's passion in it,45,80,20","John","love the texture of paint,48,160,20","0"
"20607","","survey-text","34","267433","0.0-34.0-0.0","A2T7VIFQS647LC","","","","{""Q0"":""cool cold and clever""}","","","","","","","","","","","","","","","","","","","","","","",""
"6511.699999988079","","image-slider-response","35","273946","0.0-35.0","A2T7VIFQS647LC","","","","","24","","","","","","","","","","","","","","","","","","","","","",""
"null","","image-button-response","36","278948","0.0-36.0","A2T7VIFQS647LC","img_art/ins/3.jpg","null","","","","","","","","","","","","","","","","","","","","","","","","",""
"338","","image-button-response","37","279288","0.0-37.0","A2T7VIFQS647LC","img_art/ins/3.jpg","5","","","","","","","","","","","","","","","","","","","","","","","","",""
"2196","","image-button-response","38","281486","0.0-38.0-0.0","A2T7VIFQS647LC","img_art/ins/3.jpg","1","","","","","","","","","","","","","","","","","","","","","","","","",""
"4249","","image-button-response","39","285737","0.0-39.0-0.0","A2T7VIFQS647LC","img_art/ins/3.jpg","4","","","","","","","","","","","","","","","","","","","","","","","","",""
"null","","html-keyboard-response","40","286739","0.0-40.0","A2T7VIFQS647LC","<p style=""font-size: 48px;"">+</p>","","","","","null","allTrialResponses","1000","1","0","img_art/ins/3.jpg","24","cool cold and clever","James,Mike,Ron,Carl,John,Sam","My worst nightmare,-42,140,20","enjoy the different shades of blue,22,200,20","It looks depressing,-26,220,20","It's an alright work,15,80,20","I like the overlapping of brushes,41,160,20","I can feel a rainy day from this painting,18,240,20","Sam","I can feel a rainy day from this painting,18,240,20","Mike","enjoy the different shades of blue,22,200,20","John","I like the overlapping of brushes,41,160,20","0"
"6803","","image-button-response_instructions","41","293545","0.0-41.0","A2T7VIFQS647LC","","0","instructions","","","","","","","","","","","","","","","","","","","","","","","",""
"13033","","survey-likert","42","306579","0.0-42.0-0.0","A2T7VIFQS647LC","","","","{""Q0"":"""",""Q1"":0,""Q2"":1}","","","","","","","","","","","","","","","","","","","","","","",""
"6212","","survey-text","43","312798","0.0-43.0-0.0","A2T7VIFQS647LC","","","","{""Q0"":""rock""}","","","","","","","","","","","","","","","","","","","","","","",""
"14364","","survey-text","44","327163","0.0-44.0-0.0","A2T7VIFQS647LC","","","","{""Q0"":""intricately crafted imagery""}","","","","","","","","","","","","","","","","","","","","","","",""
"3108.399999976158","","image-slider-response","45","330273","0.0-45.0","A2T7VIFQS647LC","","","","","27","","","","","","","","","","","","","","","","","","","","","",""
"2051","","image-button-response","46","335294","0.0-46.0","A2T7VIFQS647LC","img_art/18.jpg","3","","","","","","","","","","","","","","","","","","","","","","","","",""
"1892","","image-button-response","47","337187","0.0-47.0","A2T7VIFQS647LC","img_art/18.jpg","2","","","","","","","","","","","","","","","","","","","","","","","","",""
"14030","","image-button-response","48","351218","0.0-48.0-0.0","A2T7VIFQS647LC","img_art/18.jpg","0","","","","","","","","","","","","","","","","","","","","","","","","",""
"3732","","image-button-response","49","354951","0.0-49.0-0.0","A2T7VIFQS647LC","img_art/18.jpg","0","","","","","","","","","","","","","","","","","","","","","","","","",""
"6340","","image-button-response","50","365653","0.0-49.1-0.1","A2T7VIFQS647LC","img_art/18.jpg","0","","","","","","","","","","","","","","","","","","","","","","","","",""
"1195","","image-button-response","51","370252","0.0-49.2-0.2","A2T7VIFQS647LC","img_art/18.jpg","3","","","","","","","","","","","","","","","","","","","","","","","","",""
"null","","html-keyboard-response","52","370754","0.0-50.0","A2T7VIFQS647LC","<p style=""font-size: 48px;"">+</p>","","","","","null","allTrialResponses","500","1","1","img_art/18.jpg","27","intricately crafted imagery","Jordan,Nathaniel,Blake,Austin,Stephen,Mark","Interesting and capitvating to look at,19,160,20","Looks like a jumbled mess. I prefer a clearer picture,-18,220,20","i like the colors. outerspace,21,280,20","Nice abstract art,50,240,20","Too abstract to me,-30,140,20","I see an artistic representation of the riding of last of the four horseman. Its stunning.,45,80,20","Blake","i like the colors. outerspace,21,280,20","Jordan","Interesting and capitvating to look at,19,160,20","Austin","Nice abstract art,50,240,20","4"
"37340","","survey-text","53","408097","0.0-51.0-0.0","A2T7VIFQS647LC","","","","{""Q0"":""interesting color scheme""}","","","","","","","","","","","","","","","","","","","","","","",""
"3842.4000000059605","","image-slider-response","54","411941","0.0-52.0","A2T7VIFQS647LC","","","","","18","","","","","","","","","","","","","","","","","","","","","",""
"3323","","image-button-response","55","416943","0.0-53.0","A2T7VIFQS647LC","img_art/1.jpg","3","","","","","","","","","","","","","","","","","","","","","","","","",""
"994","","image-button-response","56","417937","0.0-54.0","A2T7VIFQS647LC","img_art/1.jpg","4","","","","","","","","","","","","","","","","","","","","","","","","",""
"1178","","image-button-response","57","419116","0.0-55.0-0.0","A2T7VIFQS647LC","img_art/1.jpg","3","","","","","","","","","","","","","","","","","","","","","","","","",""
"6092","","image-button-response","58","425210","0.0-56.0-0.0","A2T7VIFQS647LC","img_art/1.jpg","0","","","","","","","","","","","","","","","","","","","","","","","","",""
"null","","html-keyboard-response","59","426213","0.0-57.0","A2T7VIFQS647LC","<p style=""font-size: 48px;"">+</p>","","","","","null","allTrialResponses","1000","1","2","img_art/1.jpg","18","interesting color scheme","Jordan,Jesse,Blake,Austin,Vincent,John","I like the warmth of the picture,21,160,20","Im not a fan of the bluriness,-18,80,20","colors that are fairly warm. its ok,8,280,20","Absolutely love this painting,50,240,20","I love the detail and colors like a beautiful autumn day,35,360,20","Its okay,not great.,1,120,20","Vincent","I love the detail and colors like a beautiful autumn day,35,360,20","Austin","Absolutely love this painting,50,240,20","Jordan","I like the warmth of the picture,21,160,20","4"
"21316","","survey-text","60","447535","0.0-58.0-0.0","A2T7VIFQS647LC","","","","{""Q0"":""reminds me of the tree of life motif""}","","","","","","","","","","","","","","","","","","","","","","",""
"2778.0999999940395","","image-slider-response","61","450314","0.0-59.0","A2T7VIFQS647LC","","","","","27","","","","","","","","","","","","","","","","","","","","","",""
"3991","","image-button-response","62","455316","0.0-60.0","A2T7VIFQS647LC","img_art/14.jpg","4","","","","","","","","","","","","","","","","","","","","","","","","",""
"5836","","image-button-response","63","461153","0.0-61.0","A2T7VIFQS647LC","img_art/14.jpg","0","","","","","","","","","","","","","","","","","","","","","","","","",""
"2976","","image-button-response","64","464130","0.0-62.0-0.0","A2T7VIFQS647LC","img_art/14.jpg","1","","","","","","","","","","","","","","","","","","","","","","","","",""
"2341","","image-button-response","65","466474","0.0-63.0-0.0","A2T7VIFQS647LC","img_art/14.jpg","0","","","","","","","","","","","","","","","","","","","","","","","","",""
"917","","image-button-response","66","471594","0.0-63.1-0.1","A2T7VIFQS647LC","img_art/14.jpg","4","","","","","","","","","","","","","","","","","","","","","","","","",""
"null","","html-keyboard-response","67","472095","0.0-64.0","A2T7VIFQS647LC","<p style=""font-size: 48px;"">+</p>","","","","","null","allTrialResponses","500","1","3","img_art/14.jpg","27","reminds me of the tree of life motif","Jordan,Carlos,Bryan,Austin,Vincent,Grant","Reminds me of art class,22,160,20","The lighting feels like spring.,20,80,20","Like some of the colors but not much else.,1,400,20","Love the abstractness of this painting,39,240,20","Reminds me of the old days with my family and my grandma,41,360,20","This elicits no reaction in me.,0,200,20","Jordan","Reminds me of art class,22,160,20","Carlos","The lighting feels like spring.,20,80,20","Vincent","Reminds me of the old days with my family and my grandma,41,360,20","6"
"27457","","survey-text","68","499556","0.0-65.0-0.0","A2T7VIFQS647LC","","","","{""Q0"":""gloomy and esoteric, flat colors""}","","","","","","","","","","","","","","","","","","","","","","",""
"3876.5","","image-slider-response","69","503435","0.0-66.0","A2T7VIFQS647LC","","","","","-18","","","","","","","","","","","","","","","","","","","","","",""
"null","","image-button-response","70","508437","0.0-67.0","A2T7VIFQS647LC","img_art/28.jpg","null","","","","","","","","","","","","","","","","","","","","","","","","",""
"6773","","image-button-response","71","515211","0.0-68.0","A2T7VIFQS647LC","img_art/28.jpg","2","","","","","","","","","","","","","","","","","","","","","","","","",""
"5296","","image-button-response","72","520508","0.0-69.0-0.0","A2T7VIFQS647LC","img_art/28.jpg","3","","","","","","","","","","","","","","","","","","","","","","","","",""
"3684","","image-button-response","73","524194","0.0-70.0-0.0","A2T7VIFQS647LC","img_art/28.jpg","5","","","","","","","","","","","","","","","","","","","","","","","","",""
"null","","html-keyboard-response","74","525196","0.0-71.0","A2T7VIFQS647LC","<p style=""font-size: 48px;"">+</p>","","","","","null","allTrialResponses","1000","1","4","img_art/28.jpg","-18","gloomy and esoteric, flat colors","Jordan,Carlos,Kenneth,Timothy,Vincent,Shawn","A messy bed room,-7,160,20","Colors are pleasing, shapes are vaguely unpleasant. Kidneys at a smoky bar.,5,80,20","This one is too bleak, not a fan of the image or colors.,-28,300,20","This one gives me an uneasy feeling,-10,240,20","This is one of my favorites. It says to me to take time for people,37,360,20","Evocative but a little dreary.,20,100,20","Kenneth","This one is too bleak, not a fan of the image or colors.,-28,300,20","Timothy","This one gives me an uneasy feeling,-10,240,20","Shawn","Evocative but a little dreary.,20,100,20","6"
"20347","","survey-text","75","545547","0.0-72.0-0.0","A2T7VIFQS647LC","","","","{""Q0"":""celebration of shape""}","","","","","","","","","","","","","","","","","","","","","","",""
"3244.4000000059605","","image-slider-response","76","548793","0.0-73.0","A2T7VIFQS647LC","","","","","9","","","","","","","","","","","","","","","","","","","","","",""
"null","","image-button-response","77","553796","0.0-74.0","A2T7VIFQS647LC","img_art/23.jpg","null","","","","","","","","","","","","","","","","","","","","","","","","",""
"2119","","image-button-response","78","555917","0.0-75.0","A2T7VIFQS647LC","img_art/23.jpg","4","","","","","","","","","","","","","","","","","","","","","","","","",""
"7742","","image-button-response","79","563659","0.0-76.0-0.0","A2T7VIFQS647LC","img_art/23.jpg","1","","","","","","","","","","","","","","","","","","","","","","","","",""
"9432","","image-button-response","80","573094","0.0-77.0-0.0","A2T7VIFQS647LC","img_art/23.jpg","2","","","","","","","","","","","","","","","","","","","","","","","","",""
"null","","html-keyboard-response","81","574096","0.0-78.0","A2T7VIFQS647LC","<p style=""font-size: 48px;"">+</p>","","","","","null","allTrialResponses","1000","1","5","img_art/23.jpg","9","celebration of shape","Sean,Joshua,Kenneth,Timothy,Robert,Shawn","so much detail .,31,40,20","This one is interesting. Looks like people with maybe musical instruments?,11,240,20","Love this. I love the white, really pops with the colors surrounding it.,44,300,20","This feels so energized, i love it,50,240,20","This makes me think of an orchestra playing a forth of july song,12,360,20","Poster shop camp.,-40,100,20","Robert","This makes me think of an orchestra playing a forth of july song,12,360,20","Joshua","This one is interesting. Looks like people with maybe musical instruments?,11,240,20","Kenneth","Love this. I love the white, really pops with the colors surrounding it.,44,300,20","6"
"5195","","survey-text","82","579299","0.0-79.0-0.0","A2T7VIFQS647LC","","","","{""Q0"":""sky""}","","","","","","","","","","","","","","","","","","","","","","",""
"19652","","survey-text","83","598952","0.0-80.0-0.0","A2T7VIFQS647LC","","","","{""Q0"":""love the streams of smeared color""}","","","","","","","","","","","","","","","","","","","","","","",""
"5905.700000017881","","image-slider-response","84","604859","0.0-81.0","A2T7VIFQS647LC","","","","","28","","","","","","","","","","","","","","","","","","","","","",""
"null","","image-button-response","85","609862","0.0-82.0","A2T7VIFQS647LC","img_art/30.jpg","null","","","","","","","","","","","","","","","","","","","","","","","","",""
"6115","","image-button-response","86","615978","0.0-83.0","A2T7VIFQS647LC","img_art/30.jpg","2","","","","","","","","","","","","","","","","","","","","","","","","",""
"7340","","image-button-response","87","623320","0.0-84.0-0.0","A2T7VIFQS647LC","img_art/30.jpg","3","","","","","","","","","","","","","","","","","","","","","","","","",""
"4605","","image-button-response","88","627927","0.0-85.0-0.0","A2T7VIFQS647LC","img_art/30.jpg","5","","","","","","","","","","","","","","","","","","","","","","","","",""
"null","","html-keyboard-response","89","628428","0.0-86.0","A2T7VIFQS647LC","<p style=""font-size: 48px;"">+</p>","","","","","null","allTrialResponses","500","1","6","img_art/30.jpg","28","love the streams of smeared color","Victor,Joshua,Kenneth,Alejandro,Robert,Derek","I just don't see the point of this piece,-11,340,20","It's just all right.,5,240,20","The red helps it to pop.,13,300,20","An interesting design but don't like the colors. I value the time and effort put into it, but not a huge fan.,10,80,20","My kindergarten class could do this,-50,360,20","Looks quite basic but the colors are nice and there is a wildness about it that I love,0,360,20","Kenneth","The red helps it to pop.,13,300,20","Alejandro","An interesting design but don't like the colors. I value the time and effort put into it, but not a huge fan.,10,80,20","Derek","Looks quite basic but the colors are nice and there is a wildness about it that I love,0,360,20","6"
"42755","","survey-text","90","671188","0.0-87.0-0.0","A2T7VIFQS647LC","","","","{""Q0"":""concise color scheme and sharp shapes""}","","","","","","","","","","","","","","","","","","","","","","",""
"2810.300000011921","","image-slider-response","91","673999","0.0-88.0","A2T7VIFQS647LC","","","","","16","","","","","","","","","","","","","","","","","","","","","",""
"null","","image-button-response","92","679001","0.0-89.0","A2T7VIFQS647LC","img_art/2.jpg","null","","","","","","","","","","","","","","","","","","","","","","","","",""
"633","","image-button-response","93","679635","0.0-90.0","A2T7VIFQS647LC","img_art/2.jpg","5","","","","","","","","","","","","","","","","","","","","","","","","",""
"5133","","image-button-response","94","684770","0.0-91.0-0.0","A2T7VIFQS647LC","img_art/2.jpg","0","","","","","","","","","","","","","","","","","","","","","","","","",""
"5547","","image-button-response","95","690318","0.0-92.0-0.0","A2T7VIFQS647LC","img_art/2.jpg","1","","","","","","","","","","","","","","","","","","","","","","","","",""
"null","","html-keyboard-response","96","691319","0.0-93.0","A2T7VIFQS647LC","<p style=""font-size: 48px;"">+</p>","","","","","null","allTrialResponses","1000","1","7","img_art/2.jpg","16","concise color scheme and sharp shapes","Dakota,Tyler,Kenneth,Alejandro,Luke,Derek","active and kinetic- simplified,14,280,20","Grim and overwhelming,-6,320,20","I cant tell whats happening here and that shade of green is just not my thing.,-17,300,20","Looks contrived and like someone tried to hard to make it abstract,-31,80,20","too abstract and confusing,-19,20,20","Not my favorite but I can see this being hung in a art museum,25,360,20","Derek","Not my favorite but I can see this being hung in a art museum,25,360,20","Dakota","active and kinetic- simplified,14,280,20","Tyler","Grim and overwhelming,-6,320,20","6"
"30592","","survey-text","97","721917","0.0-94.0-0.0","A2T7VIFQS647LC","","","","{""Q0"":""detailed splats of interwoven colors""}","","","","","","","","","","","","","","","","","","","","","","",""
"3010.300000011921","","image-slider-response","98","724928","0.0-95.0","A2T7VIFQS647LC","","","","","13","","","","","","","","","","","","","","","","","","","","","",""
"null","","image-button-response","99","729931","0.0-96.0","A2T7VIFQS647LC","img_art/13.jpg","null","","","","","","","","","","","","","","","","","","","","","","","","",""
"1111","","image-button-response","100","731043","0.0-97.0","A2T7VIFQS647LC","img_art/13.jpg","3","","","","","","","","","","","","","","","","","","","","","","","","",""
"3886","","image-button-response","101","734931","0.0-98.0-0.0","A2T7VIFQS647LC","img_art/13.jpg","0","","","","","","","","","","","","","","","","","","","","","","","","",""
"7138","","image-button-response","102","742070","0.0-99.0-0.0","A2T7VIFQS647LC","img_art/13.jpg","1","","","","","","","","","","","","","","","","","","","","","","","","",""
"null","","html-keyboard-response","103","743572","0.0-100.0","A2T7VIFQS647LC","<p style=""font-size: 48px;"">+</p>","","","","","null","allTrialResponses","1500","1","8","img_art/13.jpg","13","detailed splats of interwoven colors","Dakota,Tyler,Ian,Tanner,Shane,Derek","water on my shower curtain - I feel refreshed, renewed,9,280,20","Pollock? Love the juxtaposition of colors. Soothing and stirring, a beautiful inexplicable paradox.,50,320,20","This looks like something that could be made off of windows paint, not a huge fan.,-30,260,20","happy, serenity,30,180,20","Rain drops on a window,35,80,20","This looks like a staple bedroom or bathroom piece,41,360,20","Tanner","happy, serenity,30,180,20","Dakota","water on my shower curtain - I feel refreshed, renewed,9,280,20","Tyler","Pollock? Love the juxtaposition of colors. Soothing and stirring, a beautiful inexplicable paradox.,50,320,20","6"
"23531","","survey-text","104","767108","0.0-101.0-0.0","A2T7VIFQS647LC","","","","{""Q0"":""looks a bit too simple for my taste""}","","","","","","","","","","","","","","","","","","","","","","",""
"2989.300000011921","","image-slider-response","105","770099","0.0-102.0","A2T7VIFQS647LC","","","","","-14","","","","","","","","","","","","","","","","","","","","","",""
"4897","","image-button-response","106","775101","0.0-103.0","A2T7VIFQS647LC","img_art/5.jpg","2","","","","","","","","","","","","","","","","","","","","","","","","",""
"1438","","image-button-response","107","776541","0.0-104.0","A2T7VIFQS647LC","img_art/5.jpg","2","","","","","","","","","","","","","","","","","","","","","","","","",""
"2468","","image-button-response","108","779011","0.0-105.0-0.0","A2T7VIFQS647LC","img_art/5.jpg","4","","","","","","","","","","","","","","","","","","","","","","","","",""
"3857","","image-button-response","109","782870","0.0-106.0-0.0","A2T7VIFQS647LC","img_art/5.jpg","5","","","","","","","","","","","","","","","","","","","","","","","","",""
"null","","html-keyboard-response","110","783372","0.0-107.0","A2T7VIFQS647LC","<p style=""font-size: 48px;"">+</p>","","","","","null","allTrialResponses","500","1","9","img_art/5.jpg","-14","looks a bit too simple for my taste","Dakota,Tyler,Eric,Tanner,Richard,Zachary","fresh and fun - bright and active,16,280,20","Bright and luminous,31,320,20","I'm reminded of a volcano with weird colors.,-5,100,20","sharp, painful yet playful,-5,180,20","looks like a 2nd grader did it,-50,340,20","Not sure what to make of this one.,-1,400,20","Eric","I'm reminded of a volcano with weird colors.,-5,100,20","Richard","looks like a 2nd grader did it,-50,340,20","Zachary","Not sure what to make of this one.,-1,400,20","6"
"29819","","survey-text","111","813197","0.0-108.0-0.0","A2T7VIFQS647LC","","","","{""Q0"":""grim and eerie, bleak""}","","","","","","","","","","","","","","","","","","","","","","",""
"3999.399999976158","","image-slider-response","112","817197","0.0-109.0","A2T7VIFQS647LC","","","","","3","","","","","","","","","","","","","","","","","","","","","",""
"4623","","image-button-response","113","822199","0.0-110.0","A2T7VIFQS647LC","img_art/25.jpg","3","","","","","","","","","","","","","","","","","","","","","","","","",""
"5001","","image-button-response","114","827201","0.0-111.0","A2T7VIFQS647LC","img_art/25.jpg","2","","","","","","","","","","","","","","","","","","","","","","","","",""
"2231","","image-button-response","115","829433","0.0-112.0-0.0","A2T7VIFQS647LC","img_art/25.jpg","3","","","","","","","","","","","","","","","","","","","","","","","","",""
"4288","","image-button-response","116","833724","0.0-113.0-0.0","A2T7VIFQS647LC","img_art/25.jpg","1","","","","","","","","","","","","","","","","","","","","","","","","",""
"null","","html-keyboard-response","117","834725","0.0-114.0","A2T7VIFQS647LC","<p style=""font-size: 48px;"">+</p>","","","","","null","allTrialResponses","1000","1","10","img_art/25.jpg","3","grim and eerie, bleak","Thomas,Jose,Eric,Matthew,Richard,Zachary","I like the design but the brightness of the color feels almost blinding to me.,-3,220,20","That's pretty awesome. I love the green and black combo, reminds me of one of those cartoon creepy movies,47,200,20","This piece gives me a lot of questions which I kind of like.,10,100,20","haunting, a lovely impression.,50,120,20","interesting pattern and color choice, kind of unusual,2,340,20","I like the green color, but the combination of green and a person with a long neck reminds me of aliens,-27,400,20","Eric","This piece gives me a lot of questions which I kind of like.,10,100,20","Matthew","haunting, a lovely impression.,50,120,20","Jose","That's pretty awesome. I love the green and black combo, reminds me of one of those cartoon creepy movies,47,200,20","6"
"4124","","survey-text","118","838860","0.0-115.0-0.0","A2T7VIFQS647LC","","","","{""Q0"":""our""}","","","","","","","","","","","","","","","","","","","","","","",""
"23805","","survey-text","119","862666","0.0-116.0-0.0","A2T7VIFQS647LC","","","","{""Q0"":""simple but somehow a bit intriguing""}","","","","","","","","","","","","","","","","","","","","","","",""
"2931.2000000178814","","image-slider-response","120","865598","0.0-117.0","A2T7VIFQS647LC","","","","","3","","","","","","","","","","","","","","","","","","","","","",""
"null","","image-button-response","121","870600","0.0-118.0","A2T7VIFQS647LC","img_art/6.jpg","null","","","","","","","","","","","","","","","","","","","","","","","","",""
"2390","","image-button-response","122","872992","0.0-119.0","A2T7VIFQS647LC","img_art/6.jpg","2","","","","","","","","","","","","","","","","","","","","","","","","",""
"5182","","image-button-response","123","878175","0.0-120.0-0.0","A2T7VIFQS647LC","img_art/6.jpg","1","","","","","","","","","","","","","","","","","","","","","","","","",""
"2310","","image-button-response","124","880486","0.0-121.0-0.0","A2T7VIFQS647LC","img_art/6.jpg","0","","","","","","","","","","","","","","","","","","","","","","","","",""
"null","","html-keyboard-response","125","881988","0.0-122.0","A2T7VIFQS647LC","<p style=""font-size: 48px;"">+</p>","","","","","null","allTrialResponses","1500","1","11","img_art/6.jpg","3","simple but somehow a bit intriguing","Steven,Jose,Eric,Matthew,Spencer,Evan","This is interesting, I feel solitude, and loneliness from this.,13,160,20","This could be so many different things. I saw a bird first but then it looks like a needle going into skin,34,200,20","This piece reminds me of the lorax.,5,100,20","A lot of people will lvoe this, I do not.,1,120,20","Boring, looks like a sad tree in wind,-37,120,20","I am intrigued but unsure whether I enjoy this or not,6,140,20","Eric","This piece reminds me of the lorax.,5,100,20","Jose","This could be so many different things. I saw a bird first but then it looks like a needle going into skin,34,200,20","Steven","This is interesting, I feel solitude, and loneliness from this.,13,160,20","6"
"28332","","survey-text","126","910327","0.0-123.0-0.0","A2T7VIFQS647LC","","","","{""Q0"":""reminds me of a microscopic pic of sand""}","","","","","","","","","","","","","","","","","","","","","","",""
"3155.4000000059605","","image-slider-response","127","913483","0.0-124.0","A2T7VIFQS647LC","","","","","-2","","","","","","","","","","","","","","","","","","","","","",""
"3630","","image-button-response","128","918485","0.0-125.0","A2T7VIFQS647LC","img_art/7.jpg","0","","","","","","","","","","","","","","","","","","","","","","","","",""
"522","","image-button-response","129","919008","0.0-126.0","A2T7VIFQS647LC","img_art/7.jpg","0","","","","","","","","","","","","","","","","","","","","","","","","",""
"846","","image-button-response","130","919855","0.0-127.0-0.0","A2T7VIFQS647LC","img_art/7.jpg","0","","","","","","","","","","","","","","","","","","","","","","","","",""
"3705","","image-button-response","131","926559","0.0-127.1-0.1","A2T7VIFQS647LC","img_art/7.jpg","2","","","","","","","","","","","","","","","","","","","","","","","","",""
"2255","","image-button-response","132","928815","0.0-128.0-0.0","A2T7VIFQS647LC","img_art/7.jpg","4","","","","","","","","","","","","","","","","","","","","","","","","",""
"null","","html-keyboard-response","133","930316","0.0-129.0","A2T7VIFQS647LC","<p style=""font-size: 48px;"">+</p>","","","","","null","allTrialResponses","1500","1","12","img_art/7.jpg","-2","reminds me of a microscopic pic of sand","Steven,Jose,Eric,Angel,Dustin,Alexander","looks like the surface of the moon.,1,160,20","Reminds me of bugs, I hate bugs,-7,200,20","This piece is really simple but the colors and texture work well together.,20,100,20","It's off-putting because it reminds me of walking over rough sand/rocks or having scabs on my skin.,-10,180,20","I see dryness, which is sad. Dirt, sand, the dessert. Barren dry lifeless,-30,20,20","Dead bugs on an insect battleground.,-10,120,20","Steven","looks like the surface of the moon.,1,160,20","Eric","This piece is really simple but the colors and texture work well together.,20,100,20","Dustin","I see dryness, which is sad. Dirt, sand, the dessert. Barren dry lifeless,-30,20,20","8"
"21167","","survey-text","134","951490","0.0-130.0-0.0","A2T7VIFQS647LC","","","","{""Q0"":""explosion of life and color""}","","","","","","","","","","","","","","","","","","","","","","",""
"3760.9000000059605","","image-slider-response","135","955252","0.0-131.0","A2T7VIFQS647LC","","","","","16","","","","","","","","","","","","","","","","","","","","","",""
"2955","","image-button-response","136","960254","0.0-132.0","A2T7VIFQS647LC","img_art/24.jpg","1","","","","","","","","","","","","","","","","","","","","","","","","",""
"457","","image-button-response","137","960712","0.0-133.0","A2T7VIFQS647LC","img_art/24.jpg","1","","","","","","","","","","","","","","","","","","","","","","","","",""
"6703","","image-button-response","138","967417","0.0-134.0-0.0","A2T7VIFQS647LC","img_art/24.jpg","5","","","","","","","","","","","","","","","","","","","","","","","","",""
"5320","","image-button-response","139","972738","0.0-135.0-0.0","A2T7VIFQS647LC","img_art/24.jpg","4","","","","","","","","","","","","","","","","","","","","","","","","",""
"null","","html-keyboard-response","140","973240","0.0-136.0","A2T7VIFQS647LC","<p style=""font-size: 48px;"">+</p>","","","","","null","allTrialResponses","500","1","13","img_art/24.jpg","16","explosion of life and color","Steven,Kevin,Eric,Alexis,Dustin,Jonathan","It's beautiful! I love it! I see a waterfall, and they are my favorite things in the world,50,160,20","What a nice refreshing waterfall.,39,320,20","I'm reminded of a waterfall, but I feel like it could've been better portrayed.,5,100,20","I love how bold and vibrant the colors are,40,140,20","I see a waterfall, which is relaxing and peaceful!  I like the blue coloring,30,20,20","The colors and brush strokes make it feel adventurous,20,140,20","Kevin","What a nice refreshing waterfall.,39,320,20","Jonathan","The colors and brush strokes make it feel adventurous,20,140,20","Dustin","I see a waterfall, which is relaxing and peaceful!  I like the blue coloring,30,20,20","8"
"37011","","survey-text","141","1010258","0.0-137.0-0.0","A2T7VIFQS647LC","","","","{""Q0"":""underwhelmed by the color scheme""}","","","","","","","","","","","","","","","","","","","","","","",""
"2408.4000000059605","","image-slider-response","142","1012667","0.0-138.0","A2T7VIFQS647LC","","","","","-6","","","","","","","","","","","","","","","","","","","","","",""
"2491","","image-button-response","143","1017669","0.0-139.0","A2T7VIFQS647LC","img_art/22.jpg","3","","","","","","","","","","","","","","","","","","","","","","","","",""
"617","","image-button-response","144","1018288","0.0-140.0","A2T7VIFQS647LC","img_art/22.jpg","3","","","","","","","","","","","","","","","","","","","","","","","","",""
"3721","","image-button-response","145","1022010","0.0-141.0-0.0","A2T7VIFQS647LC","img_art/22.jpg","4","","","","","","","","","","","","","","","","","","","","","","","","",""
"5429","","image-button-response","146","1027441","0.0-142.0-0.0","A2T7VIFQS647LC","img_art/22.jpg","1","","","","","","","","","","","","","","","","","","","","","","","","",""
"null","","html-keyboard-response","147","1028942","0.0-143.0","A2T7VIFQS647LC","<p style=""font-size: 48px;"">+</p>","","","","","null","allTrialResponses","1500","1","14","img_art/22.jpg","-6","underwhelmed by the color scheme","Chase,Kevin,Dylan,Travis,Dustin,Jonathan","I feel like I've seen this one already.,-9,120,20","Looks hot where ever that is.,-8,320,20","The colors in this picture are nice.,32,40,20","Don't like it...too much red,-17,260,20","Too much red. The red/yellow/orange make me think of heat/fire, which makes me anxious.,-10,20,20","The warm and color colors together in this way feels exciting,39,140,20","Travis","Don't like it...too much red,-17,260,20","Dustin","Too much red. The red/yellow/orange make me think of heat/fire, which makes me anxious.,-10,20,20","Kevin","Looks hot where ever that is.,-8,320,20","8"
"19037","","survey-text","148","1047985","0.0-144.0-0.0","A2T7VIFQS647LC","","","","{""Q0"":""reminds me of Dali, nice detail""}","","","","","","","","","","","","","","","","","","","","","","",""
"3105.199999988079","","image-slider-response","149","1051092","0.0-145.0","A2T7VIFQS647LC","","","","","27","","","","","","","","","","","","","","","","","","","","","",""
"null","","image-button-response","150","1056094","0.0-146.0","A2T7VIFQS647LC","img_art/8.jpg","null","","","","","","","","","","","","","","","","","","","","","","","","",""
"2513","","image-button-response","151","1058609","0.0-147.0","A2T7VIFQS647LC","img_art/8.jpg","1","","","","","","","","","","","","","","","","","","","","","","","","",""
"12730","","image-button-response","152","1071341","0.0-148.0-0.0","A2T7VIFQS647LC","img_art/8.jpg","3","","","","","","","","","","","","","","","","","","","","","","","","",""
"3388","","image-button-response","153","1074731","0.0-149.0-0.0","A2T7VIFQS647LC","img_art/8.jpg","0","","","","","","","","","","","","","","","","","","","","","","","","",""
"null","","html-keyboard-response","154","1075733","0.0-150.0","A2T7VIFQS647LC","<p style=""font-size: 48px;"">+</p>","","","","","null","allTrialResponses","1000","1","15","img_art/8.jpg","27","reminds me of Dali, nice detail","Michael,Kevin,Logan,Travis,Dustin,Jesus","It is interesting to look at. Abstract but ordered.,9,140,20","Now that one is wild. Looks like maybe mother nature isnt happy.,28,320,20","a cute little cute with some protectors,25,360,20","I like the colors and the scene.,24,260,20","I like the colors. But I don't like the faces, they look distraught. Faces and sharp shapes make me anxious,1,20,20","The different shapes are fun to look for.,30,100,20","Kevin","Now that one is wild. Looks like maybe mother nature isnt happy.,28,320,20","Travis","I like the colors and the scene.,24,260,20","Michael","It is interesting to look at. Abstract but ordered.,9,140,20","8"
"13372","","survey-text","155","1089118","0.0-151.0-0.0","A2T7VIFQS647LC","","","","{""Q0"":""course""}","","","","","","","","","","","","","","","","","","","","","","",""
"22284","","survey-text","156","1111402","0.0-152.0-0.0","A2T7VIFQS647LC","","","","{""Q0"":""somewhat bland and somehow uninviting""}","","","","","","","","","","","","","","","","","","","","","","",""
"2934.2999999821186","","image-slider-response","157","1114337","0.0-153.0","A2T7VIFQS647LC","","","","","-16","","","","","","","","","","","","","","","","","","","","","",""
"3460","","image-button-response","158","1119340","0.0-154.0","A2T7VIFQS647LC","img_art/26.jpg","4","","","","","","","","","","","","","","","","","","","","","","","","",""
"772","","image-button-response","159","1120113","0.0-155.0","A2T7VIFQS647LC","img_art/26.jpg","4","","","","","","","","","","","","","","","","","","","","","","","","",""
"6428","","image-button-response","160","1126542","0.0-156.0-0.0","A2T7VIFQS647LC","img_art/26.jpg","2","","","","","","","","","","","","","","","","","","","","","","","","",""
"7245","","image-button-response","161","1133789","0.0-157.0-0.0","A2T7VIFQS647LC","img_art/26.jpg","1","","","","","","","","","","","","","","","","","","","","","","","","",""
"null","","html-keyboard-response","162","1134291","0.0-158.0","A2T7VIFQS647LC","<p style=""font-size: 48px;"">+</p>","","","","","null","allTrialResponses","500","1","16","img_art/26.jpg","-16","somewhat bland and somehow uninviting","Michael,Kevin,Jake,Travis,Tristan,Lucas","Not much skil went into this one either.,-41,140,20","Some trees in front of a house.,2,320,20","It's not ugly but not beautiful at all.,-3,360,20","Neutral...nothing to say.,3,260,20","The feeling that I am looking at the world through a dingy filter makes this unpleasant for me.,-20,300,20","Nothing to say.,0,380,20","Tristan","The feeling that I am looking at the world through a dingy filter makes this unpleasant for me.,-20,300,20","Jake","It's not ugly but not beautiful at all.,-3,360,20","Kevin","Some trees in front of a house.,2,320,20","8"
"30944","","survey-text","163","1165242","0.0-159.0-0.0","A2T7VIFQS647LC","","","","{""Q0"":""dreary and washed out, maybe the artists intent but unappealing to me.""}","","","","","","","","","","","","","","","","","","","","","","",""
"2572.899999976158","","image-slider-response","164","1167816","0.0-160.0","A2T7VIFQS647LC","","","","","-28","","","","","","","","","","","","","","","","","","","","","",""
"null","","image-button-response","165","1172818","0.0-161.0","A2T7VIFQS647LC","img_art/27.jpg","null","","","","","","","","","","","","","","","","","","","","","","","","",""
"1603","","image-button-response","166","1174422","0.0-162.0","A2T7VIFQS647LC","img_art/27.jpg","1","","","","","","","","","","","","","","","","","","","","","","","","",""
"4284","","image-button-response","167","1178708","0.0-163.0-0.0","A2T7VIFQS647LC","img_art/27.jpg","5","","","","","","","","","","","","","","","","","","","","","","","","",""
"5141","","image-button-response","168","1183851","0.0-164.0-0.0","A2T7VIFQS647LC","img_art/27.jpg","3","","","","","","","","","","","","","","","","","","","","","","","","",""
"null","","html-keyboard-response","169","1184852","0.0-165.0","A2T7VIFQS647LC","<p style=""font-size: 48px;"">+</p>","","","","","null","allTrialResponses","1000","1","17","img_art/27.jpg","-28","dreary and washed out, maybe the artists intent but unappealing to me.","Miguel,Kevin,Jake,Christian,Tristan,Corey","Adult contemporary painting with child.,-33,160,20","A fall mess going on here,2,320,20","This looks like a poor copy of Cy Twombly's style.,-3,360,20","don't understand, the green induces confusion,1,140,20","The colors provide a complexity to the nearly child-like sketches.,5,300,20","this is ugly and does nothing for me,-35,260,20","Kevin","A fall mess going on here,2,320,20","Corey","this is ugly and does nothing for me,-35,260,20","Christian","don't understand, the green induces confusion,1,140,20","8"
"26431","","survey-text","170","1211290","0.0-166.0-0.0","A2T7VIFQS647LC","","","","{""Q0"":""looks like a rift of color opened up through the bleak landscape""}","","","","","","","","","","","","","","","","","","","","","","",""
"2960.2999999821186","","image-slider-response","171","1214252","0.0-167.0","A2T7VIFQS647LC","","","","","14","","","","","","","","","","","","","","","","","","","","","",""
"null","","image-button-response","172","1219254","0.0-168.0","A2T7VIFQS647LC","img_art/11.jpg","null","","","","","","","","","","","","","","","","","","","","","","","","",""
"1085","","image-button-response","173","1220340","0.0-169.0","A2T7VIFQS647LC","img_art/11.jpg","3","","","","","","","","","","","","","","","","","","","","","","","","",""
"5238","","image-button-response","174","1225579","0.0-170.0-0.0","A2T7VIFQS647LC","img_art/11.jpg","2","","","","","","","","","","","","","","","","","","","","","","","","",""
"1631","","image-button-response","175","1227213","0.0-171.0-0.0","A2T7VIFQS647LC","img_art/11.jpg","0","","","","","","","","","","","","","","","","","","","","","","","","",""
"null","","html-keyboard-response","176","1227714","0.0-172.0","A2T7VIFQS647LC","<p style=""font-size: 48px;"">+</p>","","","","","null","allTrialResponses","500","1","18","img_art/11.jpg","14","looks like a rift of color opened up through the bleak landscape","Jeremy,Kevin,Nathan,Christian,Gregory,Corey","gave me a sense of gloom,-21,60,20","Thats a creepy old rollercoasters abandoned,-2,320,20","Reminds me of some of post-apocalyptic view of street lights or maybe a city,30,200,20","to me, perfect reflection of the modern commute,32,140,20","Looks like a cityscape,25,220,20","dont like the colors. Its a gloomy day in london and this is the transit system,-26,260,20","Christian","to me, perfect reflection of the modern commute,32,140,20","Nathan","Reminds me of some of post-apocalyptic view of street lights or maybe a city,30,200,20","Jeremy","gave me a sense of gloom,-21,60,20","8"
"22497","","survey-text","177","1250219","0.0-173.0-0.0","A2T7VIFQS647LC","","","","{""Q0"":""pretty but somewhat bland.""}","","","","","","","","","","","","","","","","","","","","","","",""
"3736.4000000059605","","image-slider-response","178","1253956","0.0-174.0","A2T7VIFQS647LC","","","","","-6","","","","","","","","","","","","","","","","","","","","","",""
"null","","image-button-response","179","1258959","0.0-175.0","A2T7VIFQS647LC","img_art/17.jpg","null","","","","","","","","","","","","","","","","","","","","","","","","",""
"735","","image-button-response","180","1259695","0.0-176.0","A2T7VIFQS647LC","img_art/17.jpg","1","","","","","","","","","","","","","","","","","","","","","","","","",""
"3159","","image-button-response","181","1262856","0.0-177.0-0.0","A2T7VIFQS647LC","img_art/17.jpg","4","","","","","","","","","","","","","","","","","","","","","","","","",""
"3155","","image-button-response","182","1266013","0.0-178.0-0.0","A2T7VIFQS647LC","img_art/17.jpg","5","","","","","","","","","","","","","","","","","","","","","","","","",""
"null","","html-keyboard-response","183","1267515","0.0-179.0","A2T7VIFQS647LC","<p style=""font-size: 48px;"">+</p>","","","","","null","allTrialResponses","1500","1","19","img_art/17.jpg","-6","pretty but somewhat bland.","Jeremy,Ryan,Nathan,Christian,Connor,Alex","very pretty. Makes me happy,45,60,20","Feels supernatural and scary,-16,380,20","It's alright, nothing I particularly like but it's just fine,-10,200,20","tree sprouting out of a box (house) the invasion of nature?,39,140,20","Windows indoor tree, weird palette,-11,240,20","I can tell there are tress and maybe some doors but I'm not a fan of the style,-2,100,20","Ryan","Feels supernatural and scary,-16,380,20","Connor","Windows indoor tree, weird palette,-11,240,20","Alex","I can tell there are tress and maybe some doors but I'm not a fan of the style,-2,100,20","8"
"23280","","survey-text","184","1290804","0.0-180.0-0.0","A2T7VIFQS647LC","","","","{""Q0"":""odd collage of color and shape.""}","","","","","","","","","","","","","","","","","","","","","","",""
"2880.0999999940395","","image-slider-response","185","1293685","0.0-181.0","A2T7VIFQS647LC","","","","","-10","","","","","","","","","","","","","","","","","","","","","",""
"null","","image-button-response","186","1298687","0.0-182.0","A2T7VIFQS647LC","img_art/16.jpg","null","","","","","","","","","","","","","","","","","","","","","","","","",""
"409","","image-button-response","187","1299097","0.0-183.0","A2T7VIFQS647LC","img_art/16.jpg","0","","","","","","","","","","","","","","","","","","","","","","","","",""
"1602","","image-button-response","188","1300701","0.0-184.0-0.0","A2T7VIFQS647LC","img_art/16.jpg","3","","","","","","","","","","","","","","","","","","","","","","","","",""
"3290","","image-button-response","189","1303992","0.0-185.0-0.0","A2T7VIFQS647LC","img_art/16.jpg","4","","","","","","","","","","","","","","","","","","","","","","","","",""
"null","","html-keyboard-response","190","1304493","0.0-186.0","A2T7VIFQS647LC","<p style=""font-size: 48px;"">+</p>","","","","","null","allTrialResponses","500","1","20","img_art/16.jpg","-10","odd collage of color and shape.","Jacob,Ryan,Jorge,Peter,Connor,Alex","Cool but the bear creeps me out?,8,340,20","Very modern, reminds me of bansky,43,380,20","Dreamy and chaotic,-9,180,20","It's a little unsettling,2,320,20","Not original. Bear is odd,-50,240,20","I'm a fan of collage and of reminiscing about childhood so this was nice,10,100,20","Jacob","Cool but the bear creeps me out?,8,340,20","Peter","It's a little unsettling,2,320,20","Connor","Not original. Bear is odd,-50,240,20","8"
"3883","","survey-text","191","1308390","0.0-187.0-0.0","A2T7VIFQS647LC","","","","{""Q0"":""we""}","","","","","","","","","","","","","","","","","","","","","","",""
"27347","","survey-text","192","1335738","0.0-188.0-0.0","A2T7VIFQS647LC","","","","{""Q0"":""a bit jumbled and overly energetic""}","","","","","","","","","","","","","","","","","","","","","","",""
"3906.5","","image-slider-response","193","1339646","0.0-189.0","A2T7VIFQS647LC","","","","","-14","","","","","","","","","","","","","","","","","","","","","",""
"null","","image-button-response","194","1344648","0.0-190.0","A2T7VIFQS647LC","img_art/19.jpg","null","","","","","","","","","","","","","","","","","","","","","","","","",""
"637","","image-button-response","195","1345287","0.0-191.0","A2T7VIFQS647LC","img_art/19.jpg","2","","","","","","","","","","","","","","","","","","","","","","","","",""
"5769","","image-button-response","196","1351057","0.0-192.0-0.0","A2T7VIFQS647LC","img_art/19.jpg","4","","","","","","","","","","","","","","","","","","","","","","","","",""
"4670","","image-button-response","197","1355729","0.0-193.0-0.0","A2T7VIFQS647LC","img_art/19.jpg","3","","","","","","","","","","","","","","","","","","","","","","","","",""
"null","","html-keyboard-response","198","1357230","0.0-194.0","A2T7VIFQS647LC","<p style=""font-size: 48px;"">+</p>","","","","","null","allTrialResponses","1500","1","21","img_art/19.jpg","-14","a bit jumbled and overly energetic","Jacob,Andrew,Adam,Peter,Connor,Noah","Vibrant and colorful,13,340,20","It reminds me of sitting at a cafe on the side of a river.,45,160,20","Messy mix of colors.,-5,40,20","Looks like hustle and bustle ,,3,320,20","Childish music hall,-20,240,20","the way the landscape is portrayed captivates me - I enjoy studying the structure,32,260,20","Adam","Messy mix of colors.,-5,40,20","Connor","Childish music hall,-20,240,20","Peter","Looks like hustle and bustle ,,3,320,20","8"
"25253","","survey-text","199","1382491","0.0-195.0-0.0","A2T7VIFQS647LC","","","","{""Q0"":""not quite enough structure to the lines in my opinion.""}","","","","","","","","","","","","","","","","","","","","","","",""
"3167.4000000059605","","image-slider-response","200","1385660","0.0-196.0","A2T7VIFQS647LC","","","","","-21","","","","","","","","","","","","","","","","","","","","","",""
"null","","image-button-response","201","1390662","0.0-197.0","A2T7VIFQS647LC","img_art/3.jpg","null","","","","","","","","","","","","","","","","","","","","","","","","",""
"972","","image-button-response","202","1391635","0.0-198.0","A2T7VIFQS647LC","img_art/3.jpg","1","","","","","","","","","","","","","","","","","","","","","","","","",""
"1020","","image-button-response","203","1392657","0.0-199.0-0.0","A2T7VIFQS647LC","img_art/3.jpg","2","","","","","","","","","","","","","","","","","","","","","","","","",""
"2170","","image-button-response","204","1394828","0.0-200.0-0.0","A2T7VIFQS647LC","img_art/3.jpg","3","","","","","","","","","","","","","","","","","","","","","","","","",""
"null","","html-keyboard-response","205","1395829","0.0-201.0","A2T7VIFQS647LC","<p style=""font-size: 48px;"">+</p>","","","","","null","allTrialResponses","1000","1","22","img_art/3.jpg","-21","not quite enough structure to the lines in my opinion.","Hunter,Brandon,Adam,Peter,Connor,Justin","strong color, interesting negative shapes,21,240,20","Just scribbles. Not a fan.,-40,320,20","Reminds me of a hot mess,-10,40,20","Looks like blood scribbled on walls,-20,320,20","Shapes are interesting but color is overwhelming,5,240,20","I don't care for art that looks like it was just scribbled.,-19,280,20","Brandon","Just scribbles. Not a fan.,-40,320,20","Adam","Reminds me of a hot mess,-10,40,20","Peter","Looks like blood scribbled on walls,-20,320,20","8"
"28209","","survey-text","206","1424047","0.0-202.0-0.0","A2T7VIFQS647LC","","","","{""Q0"":""mysterious and oddly captivating.""}","","","","","","","","","","","","","","","","","","","","","","",""
"3295.5","","image-slider-response","207","1427343","0.0-203.0","A2T7VIFQS647LC","","","","","23","","","","","","","","","","","","","","","","","","","","","",""
"null","","image-button-response","208","1432346","0.0-204.0","A2T7VIFQS647LC","img_art/12.jpg","null","","","","","","","","","","","","","","","","","","","","","","","","",""
"1030","","image-button-response","209","1433376","0.0-205.0","A2T7VIFQS647LC","img_art/12.jpg","4","","","","","","","","","","","","","","","","","","","","","","","","",""
"1273","","image-button-response","210","1434650","0.0-206.0-0.0","A2T7VIFQS647LC","img_art/12.jpg","5","","","","","","","","","","","","","","","","","","","","","","","","",""
"1808","","image-button-response","211","1436459","0.0-207.0-0.0","A2T7VIFQS647LC","img_art/12.jpg","1","","","","","","","","","","","","","","","","","","","","","","","","",""
"null","","html-keyboard-response","212","1437461","0.0-208.0","A2T7VIFQS647LC","<p style=""font-size: 48px;"">+</p>","","","","","null","allTrialResponses","1000","1","23","img_art/12.jpg","23","mysterious and oddly captivating.","Jared,Brandon,Adam,Peter,Bradley,Isaac","i dont see the point.,-19,400,20","I like the cubic feel.,11,320,20","Minimalist colors and shapes.,-5,40,20","Reminds me Early 2000's decor, don't favor it,-10,320,20","Good technique. It's just not my thing.,2,300,20","I like the gradient of little color on the top to colorful on the bottom.,24,280,20","Bradley","Good technique. It's just not my thing.,2,300,20","Isaac","I like the gradient of little color on the top to colorful on the bottom.,24,280,20","Brandon","I like the cubic feel.,11,320,20","8"
"16892","","survey-text","213","1454361","0.0-209.0-0.0","A2T7VIFQS647LC","","","","{""Q0"":""seems to be a bit unfinished""}","","","","","","","","","","","","","","","","","","","","","","",""
"3432.300000011921","","image-slider-response","214","1457795","0.0-210.0","A2T7VIFQS647LC","","","","","-12","","","","","","","","","","","","","","","","","","","","","",""
"null","","image-button-response","215","1462797","0.0-211.0","A2T7VIFQS647LC","img_art/4.jpg","null","","","","","","","","","","","","","","","","","","","","","","","","",""
"1248","","image-button-response","216","1464047","0.0-212.0","A2T7VIFQS647LC","img_art/4.jpg","0","","","","","","","","","","","","","","","","","","","","","","","","",""
"3268","","image-button-response","217","1467315","0.0-213.0-0.0","A2T7VIFQS647LC","img_art/4.jpg","4","","","","","","","","","","","","","","","","","","","","","","","","",""
"2081","","image-button-response","218","1469397","0.0-214.0-0.0","A2T7VIFQS647LC","img_art/4.jpg","0","","","","","","","","","","","","","","","","","","","","","","","","",""
"3687","","image-button-response","219","1476267","0.0-214.1-0.1","A2T7VIFQS647LC","img_art/4.jpg","5","","","","","","","","","","","","","","","","","","","","","","","","",""
"null","","html-keyboard-response","220","1477269","0.0-215.0","A2T7VIFQS647LC","<p style=""font-size: 48px;"">+</p>","","","","","null","allTrialResponses","1000","1","24","img_art/4.jpg","-12","seems to be a bit unfinished","Elijah,Brandon,David,Caleb,Bradley,Isaac","Looks like a hand, not very impressed,-22,80,20","Really don't like this. Kindergarten art, sorry.,-50,320,20","I like the design. It can be interpreted in various ways, such as a hand of horror or still piece.,15,340,20","Colors are horrendous, look like bodily fluids have been smeared.,-50,40,20","This looks like what happens when someone steps on a mustard packet.,-7,300,20","The colors remind me of McDonalds.,-41,280,20","Elijah","Looks like a hand, not very impressed,-22,80,20","Bradley","This looks like what happens when someone steps on a mustard packet.,-7,300,20","Isaac","The colors remind me of McDonalds.,-41,280,20","10"
"19885","","survey-text","221","1497163","0.0-216.0-0.0","A2T7VIFQS647LC","","","","{""Q0"":""not enough variation to the colors or shapes for me.""}","","","","","","","","","","","","","","","","","","","","","","",""
"1608.199999988079","","image-slider-response","222","1498772","0.0-217.0","A2T7VIFQS647LC","","","","","-24","","","","","","","","","","","","","","","","","","","","","",""
"null","","image-button-response","223","1503774","0.0-218.0","A2T7VIFQS647LC","img_art/15.jpg","null","","","","","","","","","","","","","","","","","","","","","","","","",""
"607","","image-button-response","224","1504383","0.0-219.0","A2T7VIFQS647LC","img_art/15.jpg","2","","","","","","","","","","","","","","","","","","","","","","","","",""
"772","","image-button-response","225","1505156","0.0-220.0-0.0","A2T7VIFQS647LC","img_art/15.jpg","0","","","","","","","","","","","","","","","","","","","","","","","","",""
"4903","","image-button-response","226","1510060","0.0-221.0-0.0","A2T7VIFQS647LC","img_art/15.jpg","5","","","","","","","","","","","","","","","","","","","","","","","","",""
"null","","html-keyboard-response","227","1510562","0.0-222.0","A2T7VIFQS647LC","<p style=""font-size: 48px;"">+</p>","","","","","null","allTrialResponses","500","1","25","img_art/15.jpg","-24","not enough variation to the colors or shapes for me.","Elijah,James,Colton,Aaron,Bradley,Isaac","Makes me feel weird,-16,80,20","No opinion truthfully,1,380,20","it's alright but a little cluttered,14,220,20","I like how it's simple but beautiful.,40,20,20","I feel like there's ski jumping going on here.,2,300,20","The colors are too busy.,-39,280,20","Colton","it's alright but a little cluttered,14,220,20","Elijah","Makes me feel weird,-16,80,20","Isaac","The colors are too busy.,-39,280,20","10"
"7549","","survey-text","228","1518128","0.0-223.0-0.0","A2T7VIFQS647LC","","","","{""Q0"":""table""}","","","","","","","","","","","","","","","","","","","","","","",""
"33516","","survey-text","229","1551644","0.0-224.0-0.0","A2T7VIFQS647LC","","","","{""Q0"":""steampunk Stonehenge, intrigued.""}","","","","","","","","","","","","","","","","","","","","","","",""
"2073.2999999821186","","image-slider-response","230","1553718","0.0-225.0","A2T7VIFQS647LC","","","","","22","","","","","","","","","","","","","","","","","","","","","",""
"4154","","image-button-response","231","1558720","0.0-226.0","A2T7VIFQS647LC","img_art/20.jpg","2","","","","","","","","","","","","","","","","","","","","","","","","",""
"565","","image-button-response","232","1559287","0.0-227.0","A2T7VIFQS647LC","img_art/20.jpg","2","","","","","","","","","","","","","","","","","","","","","","","","",""
"3227","","image-button-response","233","1562516","0.0-228.0-0.0","A2T7VIFQS647LC","img_art/20.jpg","5","","","","","","","","","","","","","","","","","","","","","","","","",""
"2297","","image-button-response","234","1564815","0.0-229.0-0.0","A2T7VIFQS647LC","img_art/20.jpg","3","","","","","","","","","","","","","","","","","","","","","","","","",""
"null","","html-keyboard-response","235","1566316","0.0-230.0","A2T7VIFQS647LC","<p style=""font-size: 48px;"">+</p>","","","","","null","allTrialResponses","1500","1","26","img_art/20.jpg","22","steampunk Stonehenge, intrigued.","Elijah,Jeffrey,Colton,Edward,William,Isaac","Makes me feel impressed,9,80,20","looks like an auto accident,-30,40,20","reminds me of Salvadore Dali,24,220,20","I can't tell what's going on but I like the colors,12,60,20","like the colors and desert feel,7,380,20","It is abstract but it looks neat.,15,280,20","Colton","reminds me of Salvadore Dali,24,220,20","Isaac","It is abstract but it looks neat.,15,280,20","Edward","I can't tell what's going on but I like the colors,12,60,20","10"
"24719","","survey-text","236","1591045","0.0-231.0-0.0","A2T7VIFQS647LC","","","","{""Q0"":""plenty of color but somehow lacks a sense of depth.""}","","","","","","","","","","","","","","","","","","","","","","",""
"2440.199999988079","","image-slider-response","237","1593486","0.0-232.0","A2T7VIFQS647LC","","","","","-24","","","","","","","","","","","","","","","","","","","","","",""
"null","","image-button-response","238","1598488","0.0-233.0","A2T7VIFQS647LC","img_art/21.jpg","null","","","","","","","","","","","","","","","","","","","","","","","","",""
"2520","","image-button-response","239","1601010","0.0-234.0","A2T7VIFQS647LC","img_art/21.jpg","3","","","","","","","","","","","","","","","","","","","","","","","","",""
"3478","","image-button-response","240","1604489","0.0-235.0-0.0","A2T7VIFQS647LC","img_art/21.jpg","2","","","","","","","","","","","","","","","","","","","","","","","","",""
"1966","","image-button-response","241","1606457","0.0-236.0-0.0","A2T7VIFQS647LC","img_art/21.jpg","5","","","","","","","","","","","","","","","","","","","","","","","","",""
"null","","html-keyboard-response","242","1607959","0.0-237.0","A2T7VIFQS647LC","<p style=""font-size: 48px;"">+</p>","","","","","null","allTrialResponses","1500","1","27","img_art/21.jpg","-24","plenty of color but somehow lacks a sense of depth.","Paul,Cody,Colton,Edward,Benjamin,Isaac","I like the dark blue in the lower right which reminds me of a storm but the orange is ugly,12,300,20","Pretty, good colors,30,180,20","i enjoy the clash of colors, reminds me of a storm at sea,32,220,20","I love how vague it is but how you can imagine a story anyway, like clouds,45,60,20","sunset after the rain,49,260,20","I like the colors. It looks dramatic.,5,280,20","Edward","I love how vague it is but how you can imagine a story anyway, like clouds,45,60,20","Colton","i enjoy the clash of colors, reminds me of a storm at sea,32,220,20","Isaac","I like the colors. It looks dramatic.,5,280,20","10"
"24784","","survey-text","243","1632752","0.0-238.0-0.0","A2T7VIFQS647LC","","","","{""Q0"":""interesting, would like to see more from this artist.""}","","","","","","","","","","","","","","","","","","","","","","",""
"1493.2000000178814","","image-slider-response","244","1634247","0.0-239.0","A2T7VIFQS647LC","","","","","22","","","","","","","","","","","","","","","","","","","","","",""
"null","","image-button-response","245","1639249","0.0-240.0","A2T7VIFQS647LC","img_art/29.jpg","null","","","","","","","","","","","","","","","","","","","","","","","","",""
"2676","","image-button-response","246","1641927","0.0-241.0","A2T7VIFQS647LC","img_art/29.jpg","2","","","","","","","","","","","","","","","","","","","","","","","","",""
"4005","","image-button-response","247","1645933","0.0-242.0-0.0","A2T7VIFQS647LC","img_art/29.jpg","4","","","","","","","","","","","","","","","","","","","","","","","","",""
"3216","","image-button-response","248","1649150","0.0-243.0-0.0","A2T7VIFQS647LC","img_art/29.jpg","1","","","","","","","","","","","","","","","","","","","","","","","","",""
"null","","html-keyboard-response","249","1650652","0.0-244.0","A2T7VIFQS647LC","<p style=""font-size: 48px;"">+</p>","","","","","null","allTrialResponses","1500","1","28","img_art/29.jpg","22","interesting, would like to see more from this artist.","Isaiah,Ethan,Colton,Edward,Malik,Isaac","I feel a little disgust. There is something off-putting about the smooth shapes and dark colors.,-43,300,20","I love the angry emotion to this art. I feel very drawn to it.,18,120,20","interesting, but I wouldn't put it on my wall,8,220,20","Like a crime scene. It's neat and different,30,60,20","Feels like an abandoned dream,13,40,20","It is intriguing but I don't like the red X.,6,280,20","Colton","interesting, but I wouldn't put it on my wall,8,220,20","Malik","Feels like an abandoned dream,13,40,20","Ethan","I love the angry emotion to this art. I feel very drawn to it.,18,120,20","10"
"38071","","survey-text","250","1688734","0.0-245.0-0.0","A2T7VIFQS647LC","","","","{""Q0"":""mushroom madness, somewhat disjointed.""}","","","","","","","","","","","","","","","","","","","","","","",""
"11018","","image-slider-response","251","1699753","0.0-246.0","A2T7VIFQS647LC","","","","","0","","","","","","","","","","","","","","","","","","","","","",""
"null","","image-button-response","252","1704755","0.0-247.0","A2T7VIFQS647LC","img_art/9.jpg","null","","","","","","","","","","","","","","","","","","","","","","","","",""
"1681","","image-button-response","253","1706438","0.0-248.0","A2T7VIFQS647LC","img_art/9.jpg","3","","","","","","","","","","","","","","","","","","","","","","","","",""
"7142","","image-button-response","254","1713582","0.0-249.0-0.0","A2T7VIFQS647LC","img_art/9.jpg","2","","","","","","","","","","","","","","","","","","","","","","","","",""
"1893","","image-button-response","255","1715478","0.0-250.0-0.0","A2T7VIFQS647LC","img_art/9.jpg","4","","","","","","","","","","","","","","","","","","","","","","","","",""
"null","","html-keyboard-response","256","1716979","0.0-251.0","A2T7VIFQS647LC","<p style=""font-size: 48px;"">+</p>","","","","","null","allTrialResponses","1500","1","29","img_art/9.jpg","0","mushroom madness, somewhat disjointed.","Adrian,Ethan,Colton,Gabriel,Malik,Devin","Looks like my niece's doodles.,-50,60,20","How neat is this piece?  I love the angry expressive lines. Emotion is captured in it.,26,120,20","the colors are nice,6,220,20","i like the colors but not the composition,-17,160,20","Colorful and expressive,15,40,20","I really like the colors and details.,8,380,20","Gabriel","i like the colors but not the composition,-17,160,20","Colton","the colors are nice,6,220,20","Malik","Colorful and expressive,15,40,20","10"
"26033","","survey-text","257","1743023","0.0-252.0-0.0","A2T7VIFQS647LC","","","","{""Q0"":""if i played violin i would hang this piece on a wall.""}","","","","","","","","","","","","","","","","","","","","","","",""
"3943.5","","image-slider-response","258","1746968","0.0-253.0","A2T7VIFQS647LC","","","","","-8","","","","","","","","","","","","","","","","","","","","","",""
"null","","image-button-response","259","1751970","0.0-254.0","A2T7VIFQS647LC","img_art/10.jpg","null","","","","","","","","","","","","","","","","","","","","","","","","",""
"1767","","image-button-response","260","1753737","0.0-255.0","A2T7VIFQS647LC","img_art/10.jpg","2","","","","","","","","","","","","","","","","","","","","","","","","",""
"1420","","image-button-response","261","1755158","0.0-256.0-0.0","A2T7VIFQS647LC","img_art/10.jpg","4","","","","","","","","","","","","","","","","","","","","","","","","",""
"1969","","image-button-response","262","1757129","0.0-257.0-0.0","A2T7VIFQS647LC","img_art/10.jpg","5","","","","","","","","","","","","","","","","","","","","","","","","",""
"null","","html-keyboard-response","263","1758130","0.0-258.0","A2T7VIFQS647LC","<p style=""font-size: 48px;"">+</p>","","","","","null","allTrialResponses","1000","1","30","img_art/10.jpg","-8","if i played violin i would hang this piece on a wall.","Cameron,Seth,Colton,Gabriel,Malik,Samuel","artistic cello piece?,30,60,20","It reminds me of the ocean. Almost like a battlefield, but on the water.,19,60,20","it looks very musical,24,220,20","reminds me of a violin,9,160,20","Good texture, expressive,18,40,20","feeling the turmoil and ride,12,400,20","Colton","it looks very musical,24,220,20","Malik","Good texture, expressive,18,40,20","Samuel","feeling the turmoil and ride,12,400,20","10"
"3717","","image-button-response_instructions","264","1761859","0.0-259.0","A2T7VIFQS647LC","","0","instructions","","","","","","","","","","","","","","","","","","","","","","","",""
"1578","","image-button-response","265","1763446","0.0-260.0","A2T7VIFQS647LC","","0","","","","","","","","","","","","","","","","","","","","","","","","",""
