"rt","url","trial_type","trial_index","time_elapsed","internal_node_id","participant_id","stimulus","button_pressed","Name","responses","response","key_press","variableName","fixationTime","condition","trial","photo","subjectRating","subjectResponse","agentsNames","agent_1_Response","agent_2_Response","agent_3_Response","agent_4_Response","agent_5_Response","agent_6_Response","kept_1_name","kept_1_response","kept_2_name","kept_2_response","kept_3_name","kept_3_response","errorCounter"
"11339","external_page_harvard.html","external-html","0","11593","0.0-0.0","A2TCX20FIMNWSS","","","","","","","","","","","","","","","","","","","","","","","","","","",""
"2378","","image-button-response","1","13974","0.0-1.0","A2TCX20FIMNWSS","","0","","","","","","","","","","","","","","","","","","","","","","","","",""
"3424","","image-button-response","2","17406","0.0-2.0-0.0","A2TCX20FIMNWSS","","1","phone","","","","","","","","","","","","","","","","","","","","","","","",""
"9433","","survey-text","3","26842","0.0-3.0-0.0","A2TCX20FIMNWSS","","","","{""Q0"":""A2TCX20FIMNWSS""}","","","","","","","","","","","","","","","","","","","","","","",""
"17208","","image-button-response_instructions","4","44052","0.0-4.0","A2TCX20FIMNWSS","","0","instructions","","","","","","","","","","","","","","","","","","","","","","","",""
"129019","","image-button-response_instructions","5","173073","0.0-5.0","A2TCX20FIMNWSS","img_art/ins/popularity/ins1.png","0","instructions","","","","","","","","","","","","","","","","","","","","","","","",""
"12700","","image-button-response_instructions","6","185774","0.0-6.0","A2TCX20FIMNWSS","img_art/ins/popularity/ins2.png","0","instructions","","","","","","","","","","","","","","","","","","","","","","","",""
"17402","","image-button-response_instructions","7","203178","0.0-7.0","A2TCX20FIMNWSS","img_art/ins/popularity/ins2Extreme.png","0","instructions","","","","","","","","","","","","","","","","","","","","","","","",""
"43994","","image-button-response_instructions","8","247174","0.0-8.0","A2TCX20FIMNWSS","img_art/ins/popularity/ins3KEEPpop.PNG","0","instructions","","","","","","","","","","","","","","","","","","","","","","","",""
"9292","","image-button-response_instructions","9","256468","0.0-9.0","A2TCX20FIMNWSS","img_art/ins/popularity/ins3ANamepop.PNG","0","instructions","","","","","","","","","","","","","","","","","","","","","","","",""
"11080","","image-button-response_instructions","10","267550","0.0-10.0","A2TCX20FIMNWSS","img_art/ins/popularity/ins3ARatingpop.png","0","instructions","","","","","","","","","","","","","","","","","","","","","","","",""
"3642","","image-button-response_instructions","11","271194","0.0-11.0","A2TCX20FIMNWSS","img_art/ins/popularity/ins3ATextpop.png","0","instructions","","","","","","","","","","","","","","","","","","","","","","","",""
"13790","","image-button-response_instructions","12","284986","0.0-12.0","A2TCX20FIMNWSS","img_art/ins/popularity/ins3ALikespop.png","0","instructions","","","","","","","","","","","","","","","","","","","","","","","",""
"59007","","image-button-response_instructions","13","343995","0.0-13.0","A2TCX20FIMNWSS","img_art/ins/popularity/ins3KEEPpop.PNG","0","instructions","","","","","","","","","","","","","","","","","","","","","","","",""
"18851","","image-button-response_instructions","14","362848","0.0-14.0","A2TCX20FIMNWSS","img_art/ins/popularity/ins3_5RED.png","0","instructions","","","","","","","","","","","","","","","","","","","","","","","",""
"7034","","image-button-response_instructions","15","369883","0.0-15.0","A2TCX20FIMNWSS","img_art/ins/popularity/ins3KEEPpop.PNG","0","instructions","","","","","","","","","","","","","","","","","","","","","","","",""
"13635","","image-button-response_instructions","16","383520","0.0-16.0","A2TCX20FIMNWSS","img_art/ins/popularity/ins4KEEPpop.PNG","0","instructions","","","","","","","","","","","","","","","","","","","","","","","",""
"6923","","image-button-response_instructions","17","390445","0.0-17.0","A2TCX20FIMNWSS","img_art/ins/popularity/ins5KEEPpop.PNG","0","instructions","","","","","","","","","","","","","","","","","","","","","","","",""
"2319","","image-button-response_instructions","18","392766","0.0-18.0","A2TCX20FIMNWSS","","0","instructions","","","","","","","","","","","","","","","","","","","","","","","",""
"9045","","survey-text","19","401840","0.0-19.0-0.0","A2TCX20FIMNWSS","","","","{""Q0"":""but""}","","","","","","","","","","","","","","","","","","","","","","",""
"17309","","survey-text","20","419150","0.0-20.0-0.0","A2TCX20FIMNWSS","","","","{""Q0"":""colorful and lively""}","","","","","","","","","","","","","","","","","","","","","","",""
"4384.300000000745","","image-slider-response","21","423538","0.0-21.0","A2TCX20FIMNWSS","","","","","31","","","","","","","","","","","","","","","","","","","","","",""
"null","","image-button-response","22","428556","0.0-22.0","A2TCX20FIMNWSS","img_art/ins/1.jpg","null","","","","","","","","","","","","","","","","","","","","","","","","",""
"4679","","image-button-response","23","433240","0.0-23.0","A2TCX20FIMNWSS","img_art/ins/1.jpg","3","","","","","","","","","","","","","","","","","","","","","","","","",""
"7705","","image-button-response","24","440950","0.0-24.0-0.0","A2TCX20FIMNWSS","img_art/ins/1.jpg","1","","","","","","","","","","","","","","","","","","","","","","","","",""
"7635","","image-button-response","25","448589","0.0-25.0-0.0","A2TCX20FIMNWSS","img_art/ins/1.jpg","5","","","","","","","","","","","","","","","","","","","","","","","","",""
"null","","html-keyboard-response","26","450103","0.0-26.0","A2TCX20FIMNWSS","<p style=""font-size: 48px;"">+</p>","","","","","null","allTrialResponses","1500","1","-2","img_art/ins/1.jpg","31","colorful and lively","Adam,Alex,Ben,Carl,Daniel,Jack","Seems like doodles,-20,20,20","very creative work.,36,40,20","This color reminds me of poo,-46,60,20","very calming artwork,42,80,20","It looks like a murder scene.,-48,100,20","I like the sophisticated brushwork,40,120,20","Carl","very calming artwork,42,80,20","Alex","very creative work.,36,40,20","Jack","I like the sophisticated brushwork,40,120,20","0"
"30942","","survey-text","27","481055","0.0-27.0-0.0","A2TCX20FIMNWSS","","","","{""Q0"":""somber colors, makes me sad""}","","","","","","","","","","","","","","","","","","","","","","",""
"5253.29999999702","","image-slider-response","28","486311","0.0-28.0","A2TCX20FIMNWSS","","","","","-12","","","","","","","","","","","","","","","","","","","","","",""
"null","","image-button-response","29","491315","0.0-29.0","A2TCX20FIMNWSS","img_art/ins/2.jpg","null","","","","","","","","","","","","","","","","","","","","","","","","",""
"17804","","image-button-response","30","509122","0.0-30.0","A2TCX20FIMNWSS","img_art/ins/2.jpg","0","","","","","","","","","","","","","","","","","","","","","","","","",""
"17360","","image-button-response","31","526484","0.0-31.0-0.0","A2TCX20FIMNWSS","img_art/ins/2.jpg","5","","","","","","","","","","","","","","","","","","","","","","","","",""
"11758","","image-button-response","32","538245","0.0-32.0-0.0","A2TCX20FIMNWSS","img_art/ins/2.jpg","3","","","","","","","","","","","","","","","","","","","","","","","","",""
"null","","html-keyboard-response","33","538752","0.0-33.0","A2TCX20FIMNWSS","<p style=""font-size: 48px;"">+</p>","","","","","null","allTrialResponses","500","1","-1","img_art/ins/2.jpg","-12","somber colors, makes me sad","James,Alex,Kyle,Carl,John,Jack","looks too angry,-50,140,20","I like the blocks of color arrangements,30,40,20","Idk, it is just annoying,-32,180,20","I can feel the artist's passion in it,45,80,20","love the texture of paint,48,160,20","I would never be able to compose a sophisticated pallete like this,48,120,20","James","looks too angry,-50,140,20","Jack","I would never be able to compose a sophisticated pallete like this,48,120,20","Carl","I can feel the artist's passion in it,45,80,20","0"
"15308","","survey-text","34","554066","0.0-34.0-0.0","A2TCX20FIMNWSS","","","","{""Q0"":""looks like birds in the sky""}","","","","","","","","","","","","","","","","","","","","","","",""
"4078.900000002235","","image-slider-response","35","558147","0.0-35.0","A2TCX20FIMNWSS","","","","","19","","","","","","","","","","","","","","","","","","","","","",""
"null","","image-button-response","36","563160","0.0-36.0","A2TCX20FIMNWSS","img_art/ins/3.jpg","null","","","","","","","","","","","","","","","","","","","","","","","","",""
"289","","image-button-response","37","563452","0.0-37.0","A2TCX20FIMNWSS","img_art/ins/3.jpg","1","","","","","","","","","","","","","","","","","","","","","","","","",""
"9578","","image-button-response","38","573032","0.0-38.0-0.0","A2TCX20FIMNWSS","img_art/ins/3.jpg","2","","","","","","","","","","","","","","","","","","","","","","","","",""
"1986","","image-button-response","39","575022","0.0-39.0-0.0","A2TCX20FIMNWSS","img_art/ins/3.jpg","2","","","","","","","","","","","","","","","","","","","","","","","","",""
"6728","","image-button-response","40","585695","0.0-39.1-0.1","A2TCX20FIMNWSS","img_art/ins/3.jpg","5","","","","","","","","","","","","","","","","","","","","","","","","",""
"null","","html-keyboard-response","41","587221","0.0-40.0","A2TCX20FIMNWSS","<p style=""font-size: 48px;"">+</p>","","","","","null","allTrialResponses","1500","1","0","img_art/ins/3.jpg","19","looks like birds in the sky","James,Sam,Mike,Carl,Ron,Jack","My worst nightmare,-42,140,20","I can feel a rainy day from this painting,18,240,20","enjoy the different shades of blue,22,200,20","It's an alright work,15,80,20","It looks depressing,-26,220,20","I feel connected to the artist,40,120,20","Sam","I can feel a rainy day from this painting,18,240,20","Mike","enjoy the different shades of blue,22,200,20","Jack","I feel connected to the artist,40,120,20","2"
"8908","","image-button-response_instructions","42","596138","0.0-41.0","A2TCX20FIMNWSS","","0","instructions","","","","","","","","","","","","","","","","","","","","","","","",""
"30057","","survey-likert","43","626197","0.0-42.0-0.0","A2TCX20FIMNWSS","","","","{""Q0"":"""",""Q1"":0,""Q2"":1}","","","","","","","","","","","","","","","","","","","","","","",""
"6870","","survey-text","44","633073","0.0-43.0-0.0","A2TCX20FIMNWSS","","","","{""Q0"":""rock""}","","","","","","","","","","","","","","","","","","","","","","",""
"22187","","survey-text","45","655262","0.0-44.0-0.0","A2TCX20FIMNWSS","","","","{""Q0"":""looks like made with a red pen""}","","","","","","","","","","","","","","","","","","","","","","",""
"4478.39999999851","","image-slider-response","46","659743","0.0-45.0","A2TCX20FIMNWSS","","","","","-30","","","","","","","","","","","","","","","","","","","","","",""
"4421","","image-button-response","47","664789","0.0-46.0","A2TCX20FIMNWSS","img_art/3.jpg","0","","","","","","","","","","","","","","","","","","","","","","","","",""
"18375","","image-button-response","48","683169","0.0-47.0","A2TCX20FIMNWSS","img_art/3.jpg","0","","","","","","","","","","","","","","","","","","","","","","","","",""
"7988","","image-button-response","49","691161","0.0-48.0-0.0","A2TCX20FIMNWSS","img_art/3.jpg","5","","","","","","","","","","","","","","","","","","","","","","","","",""
"3594","","image-button-response","50","694757","0.0-49.0-0.0","A2TCX20FIMNWSS","img_art/3.jpg","3","","","","","","","","","","","","","","","","","","","","","","","","",""
"null","","html-keyboard-response","51","695769","0.0-50.0","A2TCX20FIMNWSS","<p style=""font-size: 48px;"">+</p>","","","","","null","allTrialResponses","1000","1","1","img_art/3.jpg","-30","looks like made with a red pen","Paul,Cameron,Luke,Jason,Dustin,Nicholas","It looks like random scribbles by a child and not appealing,-38,300,20","kid scribbled on the wall again,-35,60,20","it makes me feel really angry,-20,20,20","Too much red; very bland,-26,20,20","Messy. Looks like a children's drawing being passed off as expensive art. Too much red.,-50,20,20","Too angry and scribbly,-43,240,20","Paul","It looks like random scribbles by a child and not appealing,-38,300,20","Nicholas","Too angry and scribbly,-43,240,20","Jason","Too much red; very bland,-26,20,20","2"
"45101","","survey-text","52","740880","0.0-51.0-0.0","A2TCX20FIMNWSS","","","","{""Q0"":""simple and complex at the same time""}","","","","","","","","","","","","","","","","","","","","","","",""
"5755.599999997765","","image-slider-response","53","746637","0.0-52.0","A2TCX20FIMNWSS","","","","","9","","","","","","","","","","","","","","","","","","","","","",""
"null","","image-button-response","54","751657","0.0-53.0","A2TCX20FIMNWSS","img_art/16.jpg","null","","","","","","","","","","","","","","","","","","","","","","","","",""
"10974","","image-button-response","55","762634","0.0-54.0","A2TCX20FIMNWSS","img_art/16.jpg","4","","","","","","","","","","","","","","","","","","","","","","","","",""
"2919","","image-button-response","56","765556","0.0-55.0-0.0","A2TCX20FIMNWSS","img_art/16.jpg","0","","","","","","","","","","","","","","","","","","","","","","","","",""
"5897","","image-button-response","57","771455","0.0-56.0-0.0","A2TCX20FIMNWSS","img_art/16.jpg","5","","","","","","","","","","","","","","","","","","","","","","","","",""
"null","","html-keyboard-response","58","772473","0.0-57.0","A2TCX20FIMNWSS","<p style=""font-size: 48px;"">+</p>","","","","","null","allTrialResponses","1000","1","2","img_art/16.jpg","9","simple and complex at the same time","Paul,Patrick,Vincent,Jason,Mark,Nicholas","Don't know if there's a meaning but I like how seemingly random objects were stuck together and called art,20,300,20","This painting is too random,-30,280,20","Toys toys toys. Happy playful free spirit,30,360,20","The bear is a weird choice,-22,20,20","I think it's about child abuse. The teddy bear represents innocence and the dark shape is approaching it.,40,80,20","Creepy teddybear,-50,240,20","Mark","I think it's about child abuse. The teddy bear represents innocence and the dark shape is approaching it.,40,80,20","Paul","Don't know if there's a meaning but I like how seemingly random objects were stuck together and called art,20,300,20","Nicholas","Creepy teddybear,-50,240,20","2"
"28553","","survey-text","59","801035","0.0-58.0-0.0","A2TCX20FIMNWSS","","","","{""Q0"":""looks like a village after rainy day""}","","","","","","","","","","","","","","","","","","","","","","",""
"5777.400000002235","","image-slider-response","60","806815","0.0-59.0","A2TCX20FIMNWSS","","","","","11","","","","","","","","","","","","","","","","","","","","","",""
"null","","image-button-response","61","811819","0.0-60.0","A2TCX20FIMNWSS","img_art/27.jpg","null","","","","","","","","","","","","","","","","","","","","","","","","",""
"15167","","image-button-response","62","826989","0.0-61.0","A2TCX20FIMNWSS","img_art/27.jpg","0","","","","","","","","","","","","","","","","","","","","","","","","",""
"6476","","image-button-response","63","833468","0.0-62.0-0.0","A2TCX20FIMNWSS","img_art/27.jpg","4","","","","","","","","","","","","","","","","","","","","","","","","",""
"4397","","image-button-response","64","837870","0.0-63.0-0.0","A2TCX20FIMNWSS","img_art/27.jpg","5","","","","","","","","","","","","","","","","","","","","","","","","",""
"null","","html-keyboard-response","65","839381","0.0-64.0","A2TCX20FIMNWSS","<p style=""font-size: 48px;"">+</p>","","","","","null","allTrialResponses","1500","1","3","img_art/27.jpg","11","looks like a village after rainy day","Paul,Scott,Jeremy,Jared,Mark,Nicholas","It tries to remind me of the autumn season but it's grey and looks dirty,-5,300,20","again looks like childrens artwork,-40,20,20","Pleased. Reminds me of a child drawing,46,60,20","meh. it is neutral to me.,1,400,20","I see a cathedral through the woods.,12,80,20","I like all it has going but i wouldnt put it in my house unless my child did it,25,240,20","Paul","It tries to remind me of the autumn season but it's grey and looks dirty,-5,300,20","Mark","I see a cathedral through the woods.,12,80,20","Nicholas","I like all it has going but i wouldnt put it in my house unless my child did it,25,240,20","2"
"25905","","survey-text","66","865293","0.0-65.0-0.0","A2TCX20FIMNWSS","","","","{""Q0"":""looks like a violin or a guitar""}","","","","","","","","","","","","","","","","","","","","","","",""
"2591.5","","image-slider-response","67","867887","0.0-66.0","A2TCX20FIMNWSS","","","","","-23","","","","","","","","","","","","","","","","","","","","","",""
"null","","image-button-response","68","872898","0.0-67.0","A2TCX20FIMNWSS","img_art/10.jpg","null","","","","","","","","","","","","","","","","","","","","","","","","",""
"12410","","image-button-response","69","885315","0.0-68.0","A2TCX20FIMNWSS","img_art/10.jpg","5","","","","","","","","","","","","","","","","","","","","","","","","",""
"9120","","image-button-response","70","894440","0.0-69.0-0.0","A2TCX20FIMNWSS","img_art/10.jpg","0","","","","","","","","","","","","","","","","","","","","","","","","",""
"8620","","image-button-response","71","903066","0.0-70.0-0.0","A2TCX20FIMNWSS","img_art/10.jpg","3","","","","","","","","","","","","","","","","","","","","","","","","",""
"null","","html-keyboard-response","72","904069","0.0-71.0","A2TCX20FIMNWSS","<p style=""font-size: 48px;"">+</p>","","","","","null","allTrialResponses","1000","1","4","img_art/10.jpg","-23","looks like a violin or a guitar","Paul,Charles,Cole,Jesse,Mark,Nicholas","It doesn't look pleasing to the eye, it kind of looks like an animal but a dirty one,-38,300,20","Also too all over the place, I don't see any pattern or anything that's supposed to stand out,-19,100,20","It confuses me. I dont know whats going on,14,200,20","It makes me think of music and i love the reflective aspect,29,80,20","Kraken, and I love it.,39,80,20","I like it but do not love it. It is sort of depressing,13,240,20","Nicholas","I like it but do not love it. It is sort of depressing,13,240,20","Paul","It doesn't look pleasing to the eye, it kind of looks like an animal but a dirty one,-38,300,20","Jesse","It makes me think of music and i love the reflective aspect,29,80,20","2"
"27658","","survey-text","73","931733","0.0-72.0-0.0","A2TCX20FIMNWSS","","","","{""Q0"":""somber and sad painting""}","","","","","","","","","","","","","","","","","","","","","","",""
"2615.699999999255","","image-slider-response","74","934351","0.0-73.0","A2TCX20FIMNWSS","","","","","-18","","","","","","","","","","","","","","","","","","","","","",""
"null","","image-button-response","75","939368","0.0-74.0","A2TCX20FIMNWSS","img_art/20.jpg","null","","","","","","","","","","","","","","","","","","","","","","","","",""
"5292","","image-button-response","76","944664","0.0-75.0","A2TCX20FIMNWSS","img_art/20.jpg","4","","","","","","","","","","","","","","","","","","","","","","","","",""
"7203","","image-button-response","77","951871","0.0-76.0-0.0","A2TCX20FIMNWSS","img_art/20.jpg","0","","","","","","","","","","","","","","","","","","","","","","","","",""
"3252","","image-button-response","78","955129","0.0-77.0-0.0","A2TCX20FIMNWSS","img_art/20.jpg","3","","","","","","","","","","","","","","","","","","","","","","","","",""
"null","","html-keyboard-response","79","956149","0.0-78.0","A2TCX20FIMNWSS","<p style=""font-size: 48px;"">+</p>","","","","","null","allTrialResponses","1000","1","5","img_art/20.jpg","-18","somber and sad painting","Paul,John,Elijah,Jesse,Carlos,Nicholas","It looks like a junkyard and isn't appealing,-22,300,20","Its interesting.It almost seems like a painting of a landscape,14,120,20","Makes me feel impressed,9,80,20","I do at least like the dark colors blending,6,80,20","It feels like it ""almost"" several things.,-10,80,20","Use of white on foreground is too big and steals eyes away from rest of painting,2,240,20","Carlos","It feels like it ""almost"" several things.,-10,80,20","Paul","It looks like a junkyard and isn't appealing,-22,300,20","Jesse","I do at least like the dark colors blending,6,80,20","2"
"4656","","survey-text","80","960825","0.0-79.0-0.0","A2TCX20FIMNWSS","","","","{""Q0"":""sky""}","","","","","","","","","","","","","","","","","","","","","","",""
"18964","","survey-text","81","979791","0.0-80.0-0.0","A2TCX20FIMNWSS","","","","{""Q0"":""dull and inexpressive""}","","","","","","","","","","","","","","","","","","","","","","",""
"5145.900000002235","","image-slider-response","82","984940","0.0-81.0","A2TCX20FIMNWSS","","","","","-37","","","","","","","","","","","","","","","","","","","","","",""
"3320","","image-button-response","83","989957","0.0-82.0","A2TCX20FIMNWSS","img_art/29.jpg","0","","","","","","","","","","","","","","","","","","","","","","","","",""
"12257","","image-button-response","84","1002220","0.0-83.0","A2TCX20FIMNWSS","img_art/29.jpg","1","","","","","","","","","","","","","","","","","","","","","","","","",""
"683","","image-button-response","85","1002907","0.0-84.0-0.0","A2TCX20FIMNWSS","img_art/29.jpg","0","","","","","","","","","","","","","","","","","","","","","","","","",""
"3457","","image-button-response","86","1006369","0.0-85.0-0.0","A2TCX20FIMNWSS","img_art/29.jpg","4","","","","","","","","","","","","","","","","","","","","","","","","",""
"null","","html-keyboard-response","87","1007883","0.0-86.0","A2TCX20FIMNWSS","<p style=""font-size: 48px;"">+</p>","","","","","null","allTrialResponses","1500","1","6","img_art/29.jpg","-37","dull and inexpressive","Paul,Robert,Jesus,Jesse,Carlos,Samuel","There's too much black and it looks sloppy,-35,300,20","Looks like a murder,-50,360,20","The light source is confusing, but still interesting to look at,11,100,20","Grabs interest but then confuses me,6,80,20","It feels like looking through layers of frustration.,19,80,20","too challenging to comprehend,-28,400,20","Robert","Looks like a murder,-50,360,20","Paul","There's too much black and it looks sloppy,-35,300,20","Carlos","It feels like looking through layers of frustration.,19,80,20","2"
"31391","","survey-text","88","1039282","0.0-87.0-0.0","A2TCX20FIMNWSS","","","","{""Q0"":""too abstract, too gray""}","","","","","","","","","","","","","","","","","","","","","","",""
"2111.39999999851","","image-slider-response","89","1041398","0.0-88.0","A2TCX20FIMNWSS","","","","","-30","","","","","","","","","","","","","","","","","","","","","",""
"3847","","image-button-response","90","1046415","0.0-89.0","A2TCX20FIMNWSS","img_art/11.jpg","1","","","","","","","","","","","","","","","","","","","","","","","","",""
"6977","","image-button-response","91","1053398","0.0-90.0","A2TCX20FIMNWSS","img_art/11.jpg","3","","","","","","","","","","","","","","","","","","","","","","","","",""
"4608","","image-button-response","92","1058012","0.0-91.0-0.0","A2TCX20FIMNWSS","img_art/11.jpg","2","","","","","","","","","","","","","","","","","","","","","","","","",""
"3983","","image-button-response","93","1062000","0.0-92.0-0.0","A2TCX20FIMNWSS","img_art/11.jpg","1","","","","","","","","","","","","","","","","","","","","","","","","",""
"null","","html-keyboard-response","94","1063507","0.0-93.0","A2TCX20FIMNWSS","<p style=""font-size: 48px;"">+</p>","","","","","null","allTrialResponses","1500","1","7","img_art/11.jpg","-30","too abstract, too gray","Paul,Robert,Evan,Kevin,Carlos,Jack","I like how it reminds me of music and at the same time it looks like colorful train tracks.,10,300,20","Rainy dreary day in a town.,7,360,20","I dislike how dark this is,-21,140,20","Thats a creepy old rollercoasters abandoned,-2,320,20","The colors are lovely. February getting ready to yield to March.,41,80,20","makes me think of city highways & bridges on a rainy, foggy day. I like the melancholy it evokes.,43,320,20","Kevin","Thats a creepy old rollercoasters abandoned,-2,320,20","Evan","I dislike how dark this is,-21,140,20","Robert","Rainy dreary day in a town.,7,360,20","2"
"12533","","survey-text","95","1076049","0.0-94.0-0.0","A2TCX20FIMNWSS","","","","{""Q0"":""interesting texture""}","","","","","","","","","","","","","","","","","","","","","","",""
"3763.89999999851","","image-slider-response","96","1079818","0.0-95.0","A2TCX20FIMNWSS","","","","","25","","","","","","","","","","","","","","","","","","","","","",""
"null","","image-button-response","97","1084830","0.0-96.0","A2TCX20FIMNWSS","img_art/13.jpg","null","","","","","","","","","","","","","","","","","","","","","","","","",""
"27","","image-button-response","98","1084859","0.0-97.0","A2TCX20FIMNWSS","img_art/13.jpg","1","","","","","","","","","","","","","","","","","","","","","","","","",""
"9555","","image-button-response","99","1094418","0.0-98.0-0.0","A2TCX20FIMNWSS","img_art/13.jpg","2","","","","","","","","","","","","","","","","","","","","","","","","",""
"3692","","image-button-response","100","1098117","0.0-99.0-0.0","A2TCX20FIMNWSS","img_art/13.jpg","3","","","","","","","","","","","","","","","","","","","","","","","","",""
"null","","html-keyboard-response","101","1099630","0.0-100.0","A2TCX20FIMNWSS","<p style=""font-size: 48px;"">+</p>","","","","","null","allTrialResponses","1500","1","8","img_art/13.jpg","25","interesting texture","Isaac,Robert,Evan,Kevin,Thomas,Kenneth","The colors are okay but I don't like the shapes here.,-18,280,20","Raindrops splashing on the window.,50,360,20","It reminds me of looking out the window on a stormy night at cars drive by,21,140,20","Debree on top of a calm pond.,18,320,20","Nothing about this stands out to me,-10,220,20","I would hang this photo in my room.,21,300,20","Robert","Raindrops splashing on the window.,50,360,20","Evan","It reminds me of looking out the window on a stormy night at cars drive by,21,140,20","Kevin","Debree on top of a calm pond.,18,320,20","2"
"33762","","survey-text","102","1133398","0.0-101.0-0.0","A2TCX20FIMNWSS","","","","{""Q0"":""forms without a purpose""}","","","","","","","","","","","","","","","","","","","","","","",""
"5755.300000000745","","image-slider-response","103","1139157","0.0-102.0","A2TCX20FIMNWSS","","","","","-12","","","","","","","","","","","","","","","","","","","","","",""
"null","","image-button-response","104","1144174","0.0-103.0","A2TCX20FIMNWSS","img_art/14.jpg","null","","","","","","","","","","","","","","","","","","","","","","","","",""
"181","","image-button-response","105","1144361","0.0-104.0","A2TCX20FIMNWSS","img_art/14.jpg","5","","","","","","","","","","","","","","","","","","","","","","","","",""
"2312","","image-button-response","106","1146676","0.0-105.0-0.0","A2TCX20FIMNWSS","img_art/14.jpg","4","","","","","","","","","","","","","","","","","","","","","","","","",""
"17119","","image-button-response","107","1163798","0.0-106.0-0.0","A2TCX20FIMNWSS","img_art/14.jpg","0","","","","","","","","","","","","","","","","","","","","","","","","",""
"null","","html-keyboard-response","108","1164310","0.0-107.0","A2TCX20FIMNWSS","<p style=""font-size: 48px;"">+</p>","","","","","null","allTrialResponses","500","1","9","img_art/14.jpg","-12","forms without a purpose","Joseph,Robert,Evan,Kevin,Caleb,Connor","I like that it looks like plants on a table, which reminds me of life.,4,220,20","Late Winter when things are just starting to bloom.,21,360,20","I like the sharpness of the lines,20,140,20","The pirates ship is sinking.,27,320,20","Again. This is pretty neutral, leaning dislike.,-18,40,20","Looks childish and basic,-42,240,20","Connor","Looks childish and basic,-42,240,20","Caleb","Again. This is pretty neutral, leaning dislike.,-18,40,20","Joseph","I like that it looks like plants on a table, which reminds me of life.,4,220,20","2"
"20793","","survey-text","109","1185110","0.0-108.0-0.0","A2TCX20FIMNWSS","","","","{""Q0"":""somber tree at the end of the path""}","","","","","","","","","","","","","","","","","","","","","","",""
"4710.5","","image-slider-response","110","1189825","0.0-109.0","A2TCX20FIMNWSS","","","","","25","","","","","","","","","","","","","","","","","","","","","",""
"3273","","image-button-response","111","1194844","0.0-110.0","A2TCX20FIMNWSS","img_art/17.jpg","2","","","","","","","","","","","","","","","","","","","","","","","","",""
"9982","","image-button-response","112","1204831","0.0-111.0","A2TCX20FIMNWSS","img_art/17.jpg","0","","","","","","","","","","","","","","","","","","","","","","","","",""
"1046","","image-button-response","113","1205882","0.0-112.0-0.0","A2TCX20FIMNWSS","img_art/17.jpg","1","","","","","","","","","","","","","","","","","","","","","","","","",""
"811","","image-button-response","114","1206699","0.0-113.0-0.0","A2TCX20FIMNWSS","img_art/17.jpg","1","","","","","","","","","","","","","","","","","","","","","","","","",""
"970","","image-button-response","115","1210922","0.0-113.1-0.1","A2TCX20FIMNWSS","img_art/17.jpg","2","","","","","","","","","","","","","","","","","","","","","","","","",""
"null","","html-keyboard-response","116","1212425","0.0-114.0","A2TCX20FIMNWSS","<p style=""font-size: 48px;"">+</p>","","","","","null","allTrialResponses","1500","1","10","img_art/17.jpg","25","somber tree at the end of the path","Joseph,Joshua,Jonathan,Brian,Caleb,Connor","I like the way the forest is taking over the buildings.,21,220,20","Looks like an abandoned building that is being overtaken by nature.,-10,240,20","Feels nostalgic somehow,31,140,20","I'm not into paintings of trees,-18,380,20","Not even abstract to me, very clear meaning.,44,40,20","Windows indoor tree, weird palette,-11,240,20","Joseph","I like the way the forest is taking over the buildings.,21,220,20","Joshua","Looks like an abandoned building that is being overtaken by nature.,-10,240,20","Jonathan","Feels nostalgic somehow,31,140,20","4"
"4152","","survey-text","117","1216587","0.0-115.0-0.0","A2TCX20FIMNWSS","","","","{""Q0"":""our""}","","","","","","","","","","","","","","","","","","","","","","",""
"27521","","survey-text","118","1244112","0.0-116.0-0.0","A2TCX20FIMNWSS","","","","{""Q0"":""abstract, I like the colors""}","","","","","","","","","","","","","","","","","","","","","","",""
"2230.300000000745","","image-slider-response","119","1246346","0.0-117.0","A2TCX20FIMNWSS","","","","","31","","","","","","","","","","","","","","","","","","","","","",""
"3636","","image-button-response","120","1251357","0.0-118.0","A2TCX20FIMNWSS","img_art/7.jpg","1","","","","","","","","","","","","","","","","","","","","","","","","",""
"5996","","image-button-response","121","1257358","0.0-119.0","A2TCX20FIMNWSS","img_art/7.jpg","5","","","","","","","","","","","","","","","","","","","","","","","","",""
"2841","","image-button-response","122","1260204","0.0-120.0-0.0","A2TCX20FIMNWSS","img_art/7.jpg","1","","","","","","","","","","","","","","","","","","","","","","","","",""
"980","","image-button-response","123","1261190","0.0-121.0-0.0","A2TCX20FIMNWSS","img_art/7.jpg","2","","","","","","","","","","","","","","","","","","","","","","","","",""
"null","","html-keyboard-response","124","1262199","0.0-122.0","A2TCX20FIMNWSS","<p style=""font-size: 48px;"">+</p>","","","","","null","allTrialResponses","1000","1","11","img_art/7.jpg","31","abstract, I like the colors","Joseph,Joshua,Jonathan,Hunter,Juan,Chase","Dinosaur bones. Death.,-14,220,20","Looks almost like a photograph of nature.,11,240,20","Looks like the surface of mars,29,140,20","textures are engaging,8,240,20","This is borning and lifeless.,-50,260,20","Just looks like rocks or some kind of mineral.,0,120,20","Chase","Just looks like rocks or some kind of mineral.,0,120,20","Joshua","Looks almost like a photograph of nature.,11,240,20","Jonathan","Looks like the surface of mars,29,140,20","4"
"15270","","survey-text","125","1277476","0.0-123.0-0.0","A2TCX20FIMNWSS","","","","{""Q0"":""beautiful composition""}","","","","","","","","","","","","","","","","","","","","","","",""
"2170.800000000745","","image-slider-response","126","1279651","0.0-124.0","A2TCX20FIMNWSS","","","","","34","","","","","","","","","","","","","","","","","","","","","",""
"4472","","image-button-response","127","1284668","0.0-125.0","A2TCX20FIMNWSS","img_art/9.jpg","2","","","","","","","","","","","","","","","","","","","","","","","","",""
"10360","","image-button-response","128","1295032","0.0-126.0","A2TCX20FIMNWSS","img_art/9.jpg","1","","","","","","","","","","","","","","","","","","","","","","","","",""
"1334","","image-button-response","129","1296372","0.0-127.0-0.0","A2TCX20FIMNWSS","img_art/9.jpg","2","","","","","","","","","","","","","","","","","","","","","","","","",""
"10348","","image-button-response","130","1306726","0.0-128.0-0.0","A2TCX20FIMNWSS","img_art/9.jpg","0","","","","","","","","","","","","","","","","","","","","","","","","",""
"null","","html-keyboard-response","131","1307742","0.0-129.0","A2TCX20FIMNWSS","<p style=""font-size: 48px;"">+</p>","","","","","null","allTrialResponses","1000","1","12","img_art/9.jpg","34","beautiful composition","Aaron,Joshua,Jonathan,Sean,Nathan,Chase","It looks like a child's crayon drawing.,-10,20,20","Someone lying in bed?  Don't care for it.,-14,240,20","It's peaceful and relaxing,24,140,20","Gives me anxiety,-23,40,20","Looks like a child's drawing,-40,200,20","Looks like a sloppy iguana.,-11,120,20","Joshua","Someone lying in bed?  Don't care for it.,-14,240,20","Jonathan","It's peaceful and relaxing,24,140,20","Aaron","It looks like a child's crayon drawing.,-10,20,20","4"
"22211","","survey-text","132","1329960","0.0-130.0-0.0","A2TCX20FIMNWSS","","","","{""Q0"":""unnerving colors""}","","","","","","","","","","","","","","","","","","","","","","",""
"1979.800000000745","","image-slider-response","133","1331944","0.0-131.0","A2TCX20FIMNWSS","","","","","-34","","","","","","","","","","","","","","","","","","","","","",""
"null","","image-button-response","134","1336954","0.0-132.0","A2TCX20FIMNWSS","img_art/1.jpg","null","","","","","","","","","","","","","","","","","","","","","","","","",""
"111","","image-button-response","135","1337071","0.0-133.0","A2TCX20FIMNWSS","img_art/1.jpg","3","","","","","","","","","","","","","","","","","","","","","","","","",""
"6887","","image-button-response","136","1343960","0.0-134.0-0.0","A2TCX20FIMNWSS","img_art/1.jpg","1","","","","","","","","","","","","","","","","","","","","","","","","",""
"5495","","image-button-response","137","1349459","0.0-135.0-0.0","A2TCX20FIMNWSS","img_art/1.jpg","4","","","","","","","","","","","","","","","","","","","","","","","","",""
"null","","html-keyboard-response","138","1350471","0.0-136.0","A2TCX20FIMNWSS","<p style=""font-size: 48px;"">+</p>","","","","","null","allTrialResponses","1000","1","13","img_art/1.jpg","-34","unnerving colors","Aaron,Joshua,Jonathan,Noah,Jorge,Daniel","The colors are nice but that's all it is,21,20,20","Reminds me of fall.,7,240,20","I love the colors but it's too intense sometimes,22,140,20","the bright colours evoke the 90s, and not their best part,-10,260,20","fishing on the lake surrounded by trees,42,180,20","Nice colors with some 3D effects,15,320,20","Noah","the bright colours evoke the 90s, and not their best part,-10,260,20","Joshua","Reminds me of fall.,7,240,20","Jorge","fishing on the lake surrounded by trees,42,180,20","4"
"15816","","survey-text","139","1366295","0.0-137.0-0.0","A2TCX20FIMNWSS","","","","{""Q0"":""nice structure, texture and color""}","","","","","","","","","","","","","","","","","","","","","","",""
"5982.60000000149","","image-slider-response","140","1372282","0.0-138.0","A2TCX20FIMNWSS","","","","","47","","","","","","","","","","","","","","","","","","","","","",""
"4938","","image-button-response","141","1377303","0.0-139.0","A2TCX20FIMNWSS","img_art/12.jpg","4","","","","","","","","","","","","","","","","","","","","","","","","",""
"733","","image-button-response","142","1378042","0.0-140.0","A2TCX20FIMNWSS","img_art/12.jpg","4","","","","","","","","","","","","","","","","","","","","","","","","",""
"6934","","image-button-response","143","1384981","0.0-141.0-0.0","A2TCX20FIMNWSS","img_art/12.jpg","0","","","","","","","","","","","","","","","","","","","","","","","","",""
"13620","","image-button-response","144","1398606","0.0-142.0-0.0","A2TCX20FIMNWSS","img_art/12.jpg","3","","","","","","","","","","","","","","","","","","","","","","","","",""
"null","","html-keyboard-response","145","1399116","0.0-143.0","A2TCX20FIMNWSS","<p style=""font-size: 48px;"">+</p>","","","","","null","allTrialResponses","500","1","14","img_art/12.jpg","47","nice structure, texture and color","Marcus,Joshua,Corey,Noah,Jorge,Alex","I like the colors in the bottom half of the painting,10,60,20","I don't get this one. Doesn't evoke an emotional response.,-10,240,20","I like the bottom half and hate the top half,7,260,20","evokes the 80s, and not in a necessarily good way,-10,260,20","Windows to a different story,6,180,20","eww hate everything about this, looks like it belongs in a dentist's office,-14,100,20","Jorge","Windows to a different story,6,180,20","Marcus","I like the colors in the bottom half of the painting,10,60,20","Noah","evokes the 80s, and not in a necessarily good way,-10,260,20","4"
"16422","","survey-text","146","1415544","0.0-144.0-0.0","A2TCX20FIMNWSS","","","","{""Q0"":""too simpleminded""}","","","","","","","","","","","","","","","","","","","","","","",""
"3154.300000000745","","image-slider-response","147","1418703","0.0-145.0","A2TCX20FIMNWSS","","","","","-20","","","","","","","","","","","","","","","","","","","","","",""
"3789","","image-button-response","148","1423719","0.0-146.0","A2TCX20FIMNWSS","img_art/26.jpg","4","","","","","","","","","","","","","","","","","","","","","","","","",""
"452","","image-button-response","149","1424176","0.0-147.0","A2TCX20FIMNWSS","img_art/26.jpg","4","","","","","","","","","","","","","","","","","","","","","","","","",""
"3469","","image-button-response","150","1427648","0.0-148.0-0.0","A2TCX20FIMNWSS","img_art/26.jpg","3","","","","","","","","","","","","","","","","","","","","","","","","",""
"3640","","image-button-response","151","1431291","0.0-149.0-0.0","A2TCX20FIMNWSS","img_art/26.jpg","0","","","","","","","","","","","","","","","","","","","","","","","","",""
"null","","html-keyboard-response","152","1432794","0.0-150.0","A2TCX20FIMNWSS","<p style=""font-size: 48px;"">+</p>","","","","","null","allTrialResponses","1500","1","15","img_art/26.jpg","-20","too simpleminded","Marcus,Stephen,Brett,Noah,Jorge,Richard","Nice, but not very interesting. I do like the blue tree though.,6,60,20","No strong reaction but the color scheme is nice,10,140,20","Picturesque little town,45,360,20","fairly neutral, really,8,260,20","dull and boring,-6,180,20","subtle use of colors, city street view?,8,340,20","Jorge","dull and boring,-6,180,20","Noah","fairly neutral, really,8,260,20","Marcus","Nice, but not very interesting. I do like the blue tree though.,6,60,20","4"
"4288","","survey-text","153","1437095","0.0-151.0-0.0","A2TCX20FIMNWSS","","","","{""Q0"":""course""}","","","","","","","","","","","","","","","","","","","","","","",""
"18291","","survey-text","154","1455389","0.0-152.0-0.0","A2TCX20FIMNWSS","","","","{""Q0"":""i like the colors""}","","","","","","","","","","","","","","","","","","","","","","",""
"3276.699999999255","","image-slider-response","155","1458670","0.0-153.0","A2TCX20FIMNWSS","","","","","24","","","","","","","","","","","","","","","","","","","","","",""
"null","","image-button-response","156","1463682","0.0-154.0","A2TCX20FIMNWSS","img_art/28.jpg","null","","","","","","","","","","","","","","","","","","","","","","","","",""
"1336","","image-button-response","157","1465022","0.0-155.0","A2TCX20FIMNWSS","img_art/28.jpg","2","","","","","","","","","","","","","","","","","","","","","","","","",""
"5527","","image-button-response","158","1470553","0.0-156.0-0.0","A2TCX20FIMNWSS","img_art/28.jpg","4","","","","","","","","","","","","","","","","","","","","","","","","",""
"3778","","image-button-response","159","1474337","0.0-157.0-0.0","A2TCX20FIMNWSS","img_art/28.jpg","3","","","","","","","","","","","","","","","","","","","","","","","","",""
"null","","html-keyboard-response","160","1475342","0.0-158.0","A2TCX20FIMNWSS","<p style=""font-size: 48px;"">+</p>","","","","","null","allTrialResponses","1000","1","16","img_art/28.jpg","24","i like the colors","Marcus,Brendan,Jacob,Noah,Jorge,Anthony","This reminds me of internal organs.,-10,60,20","i dont understand it,-34,340,20","I can't tell what's going on but it looks a little bit more lively at least,7,340,20","I want to like it, but I'm not really sure what to make of it,2,260,20","nostalgic from a memory,11,180,20","This picture doesn't really stand out to me,1,200,20","Jacob","I can't tell what's going on but it looks a little bit more lively at least,7,340,20","Jorge","nostalgic from a memory,11,180,20","Noah","I want to like it, but I'm not really sure what to make of it,2,260,20","4"
"27028","","survey-text","161","1502382","0.0-159.0-0.0","A2TCX20FIMNWSS","","","","{""Q0"":""simplistic and easy to paint""}","","","","","","","","","","","","","","","","","","","","","","",""
"2244","","image-slider-response","162","1504629","0.0-160.0","A2TCX20FIMNWSS","","","","","-33","","","","","","","","","","","","","","","","","","","","","",""
"null","","image-button-response","163","1509639","0.0-161.0","A2TCX20FIMNWSS","img_art/21.jpg","null","","","","","","","","","","","","","","","","","","","","","","","","",""
"6845","","image-button-response","164","1516487","0.0-162.0","A2TCX20FIMNWSS","img_art/21.jpg","0","","","","","","","","","","","","","","","","","","","","","","","","",""
"5215","","image-button-response","165","1521705","0.0-163.0-0.0","A2TCX20FIMNWSS","img_art/21.jpg","4","","","","","","","","","","","","","","","","","","","","","","","","",""
"2828","","image-button-response","166","1524538","0.0-164.0-0.0","A2TCX20FIMNWSS","img_art/21.jpg","5","","","","","","","","","","","","","","","","","","","","","","","","",""
"null","","html-keyboard-response","167","1526041","0.0-165.0","A2TCX20FIMNWSS","<p style=""font-size: 48px;"">+</p>","","","","","null","allTrialResponses","1500","1","17","img_art/21.jpg","-33","simplistic and easy to paint","Alexander,Dalton,Jacob,Noah,Jorge,Alexis","Survivable storm on the open sea.,27,120,20","The color spectrum is just beautiful.,32,300,20","I like how the colors blend together like a beautiful sunset.,25,340,20","brings up imagery of the sea and clashing, though not in a negative way,31,260,20","mythical between good and evil,16,180,20","It makes me feel mellow or ""chill"". It makes me have a positive and calm mood,42,140,20","Alexander","Survivable storm on the open sea.,27,120,20","Jorge","mythical between good and evil,16,180,20","Alexis","It makes me feel mellow or ""chill"". It makes me have a positive and calm mood,42,140,20","4"
"12972","","survey-text","168","1539019","0.0-166.0-0.0","A2TCX20FIMNWSS","","","","{""Q0"":""like a bad dream""}","","","","","","","","","","","","","","","","","","","","","","",""
"3578.099999997765","","image-slider-response","169","1542601","0.0-167.0","A2TCX20FIMNWSS","","","","","-15","","","","","","","","","","","","","","","","","","","","","",""
"null","","image-button-response","170","1547613","0.0-168.0","A2TCX20FIMNWSS","img_art/4.jpg","null","","","","","","","","","","","","","","","","","","","","","","","","",""
"2957","","image-button-response","171","1550575","0.0-169.0","A2TCX20FIMNWSS","img_art/4.jpg","4","","","","","","","","","","","","","","","","","","","","","","","","",""
"2898","","image-button-response","172","1553478","0.0-170.0-0.0","A2TCX20FIMNWSS","img_art/4.jpg","3","","","","","","","","","","","","","","","","","","","","","","","","",""
"2291","","image-button-response","173","1555775","0.0-171.0-0.0","A2TCX20FIMNWSS","img_art/4.jpg","2","","","","","","","","","","","","","","","","","","","","","","","","",""
"null","","html-keyboard-response","174","1557282","0.0-172.0","A2TCX20FIMNWSS","<p style=""font-size: 48px;"">+</p>","","","","","null","allTrialResponses","1500","1","18","img_art/4.jpg","-15","like a bad dream","Alexander,Nathaniel,William,Bryan,Jorge,Alexis","Pretzel noodles.,7,120,20","Boring and tasteless. Almost reminds me of when an art gallery called a banana 'art',-42,220,20","dont like the colors,-31,380,20","McDonald's golden arches on steroids.,-20,400,20","creepy as it looks like fingernails,-23,180,20","The bold colors are exciting. It looks like a statue on someone's mantle.,18,140,20","Jorge","creepy as it looks like fingernails,-23,180,20","Bryan","McDonald's golden arches on steroids.,-20,400,20","William","dont like the colors,-31,380,20","4"
"22396","","survey-text","175","1579684","0.0-173.0-0.0","A2TCX20FIMNWSS","","","","{""Q0"":""caviar without a purpose""}","","","","","","","","","","","","","","","","","","","","","","",""
"2046.3999999985099","","image-slider-response","176","1581734","0.0-174.0","A2TCX20FIMNWSS","","","","","-40","","","","","","","","","","","","","","","","","","","","","",""
"3130","","image-button-response","177","1586741","0.0-175.0","A2TCX20FIMNWSS","img_art/15.jpg","1","","","","","","","","","","","","","","","","","","","","","","","","",""
"7393","","image-button-response","178","1594139","0.0-176.0","A2TCX20FIMNWSS","img_art/15.jpg","2","","","","","","","","","","","","","","","","","","","","","","","","",""
"744","","image-button-response","179","1594889","0.0-177.0-0.0","A2TCX20FIMNWSS","img_art/15.jpg","1","","","","","","","","","","","","","","","","","","","","","","","","",""
"3547","","image-button-response","180","1598440","0.0-178.0-0.0","A2TCX20FIMNWSS","img_art/15.jpg","0","","","","","","","","","","","","","","","","","","","","","","","","",""
"null","","html-keyboard-response","181","1598958","0.0-179.0","A2TCX20FIMNWSS","<p style=""font-size: 48px;"">+</p>","","","","","null","allTrialResponses","500","1","19","img_art/15.jpg","-40","caviar without a purpose","Mason,Miguel,William,Bryan,Jorge,Bradley","It's ok, it makes me think. That's something I guess.,8,100,20","Simple but not good,-34,160,20","makes me feel calm,40,380,20","Interesting. Reminds me of a biopsy slide.,21,400,20","interested in this transformation,20,180,20","I feel like there's ski jumping going on here.,2,300,20","William","makes me feel calm,40,380,20","Miguel","Simple but not good,-34,160,20","Mason","It's ok, it makes me think. That's something I guess.,8,100,20","4"
"27086","","survey-text","182","1626052","0.0-180.0-0.0","A2TCX20FIMNWSS","","","","{""Q0"":""waterfall in the forest, great colors""}","","","","","","","","","","","","","","","","","","","","","","",""
"4021.89999999851","","image-slider-response","183","1630078","0.0-181.0","A2TCX20FIMNWSS","","","","","50","","","","","","","","","","","","","","","","","","","","","",""
"3237","","image-button-response","184","1635084","0.0-182.0","A2TCX20FIMNWSS","img_art/24.jpg","2","","","","","","","","","","","","","","","","","","","","","","","","",""
"77","","image-button-response","185","1635164","0.0-183.0","A2TCX20FIMNWSS","img_art/24.jpg","2","","","","","","","","","","","","","","","","","","","","","","","","",""
"2641","","image-button-response","186","1637811","0.0-184.0-0.0","A2TCX20FIMNWSS","img_art/24.jpg","5","","","","","","","","","","","","","","","","","","","","","","","","",""
"3868","","image-button-response","187","1641684","0.0-185.0-0.0","A2TCX20FIMNWSS","img_art/24.jpg","3","","","","","","","","","","","","","","","","","","","","","","","","",""
"null","","html-keyboard-response","188","1642698","0.0-186.0","A2TCX20FIMNWSS","<p style=""font-size: 48px;"">+</p>","","","","","null","allTrialResponses","1000","1","20","img_art/24.jpg","50","waterfall in the forest, great colors","Mason,Miguel,William,Shane,Timothy,Malik","Nature, abstract, I'd hang this in my house.,37,100,20","Very cute amateur piece.,18,160,20","very peaceful and serene,47,380,20","A peaceful day by the river,42,80,20","Earthy wonderful, love everything about it,50,240,20","Very nice textures and subject,38,40,20","William","very peaceful and serene,47,380,20","Malik","Very nice textures and subject,38,40,20","Shane","A peaceful day by the river,42,80,20","4"
"2764","","survey-text","189","1645487","0.0-187.0-0.0","A2TCX20FIMNWSS","","","","{""Q0"":""we""}","","","","","","","","","","","","","","","","","","","","","","",""
"15619","","survey-text","190","1661108","0.0-188.0-0.0","A2TCX20FIMNWSS","","","","{""Q0"":""simple but very colorfull""}","","","","","","","","","","","","","","","","","","","","","","",""
"2061.39999999851","","image-slider-response","191","1663174","0.0-189.0","A2TCX20FIMNWSS","","","","","28","","","","","","","","","","","","","","","","","","","","","",""
"null","","image-button-response","192","1668192","0.0-190.0","A2TCX20FIMNWSS","img_art/22.jpg","null","","","","","","","","","","","","","","","","","","","","","","","","",""
"914","","image-button-response","193","1669111","0.0-191.0","A2TCX20FIMNWSS","img_art/22.jpg","5","","","","","","","","","","","","","","","","","","","","","","","","",""
"2597","","image-button-response","194","1671713","0.0-192.0-0.0","A2TCX20FIMNWSS","img_art/22.jpg","2","","","","","","","","","","","","","","","","","","","","","","","","",""
"3530","","image-button-response","195","1675251","0.0-193.0-0.0","A2TCX20FIMNWSS","img_art/22.jpg","1","","","","","","","","","","","","","","","","","","","","","","","","",""
"null","","html-keyboard-response","196","1675762","0.0-194.0","A2TCX20FIMNWSS","<p style=""font-size: 48px;"">+</p>","","","","","null","allTrialResponses","500","1","21","img_art/22.jpg","28","simple but very colorfull","Justin,Jeffrey,William,Shane,Gabriel,Malik","It reminds me of sunsets and dusks.,22,280,20","Picture is very relaxing,32,40,20","love how the colors blend,42,380,20","Sunsets at the beach,42,80,20","its messy, like a child painted it,-14,160,20","Beautiful forms, using color to define shape,14,40,20","Malik","Beautiful forms, using color to define shape,14,40,20","William","love how the colors blend,42,380,20","Jeffrey","Picture is very relaxing,32,40,20","4"
"51578","","survey-text","197","1727349","0.0-195.0-0.0","A2TCX20FIMNWSS","","","","{""Q0"":""complex and beautiful, love the colors""}","","","","","","","","","","","","","","","","","","","","","","",""
"2222.300000000745","","image-slider-response","198","1729574","0.0-196.0","A2TCX20FIMNWSS","","","","","50","","","","","","","","","","","","","","","","","","","","","",""
"null","","image-button-response","199","1734590","0.0-197.0","A2TCX20FIMNWSS","img_art/8.jpg","null","","","","","","","","","","","","","","","","","","","","","","","","",""
"7714","","image-button-response","200","1742308","0.0-198.0","A2TCX20FIMNWSS","img_art/8.jpg","4","","","","","","","","","","","","","","","","","","","","","","","","",""
"9961","","image-button-response","201","1752273","0.0-199.0-0.0","A2TCX20FIMNWSS","img_art/8.jpg","1","","","","","","","","","","","","","","","","","","","","","","","","",""
"1986","","image-button-response","202","1754264","0.0-200.0-0.0","A2TCX20FIMNWSS","img_art/8.jpg","0","","","","","","","","","","","","","","","","","","","","","","","","",""
"null","","html-keyboard-response","203","1755765","0.0-201.0","A2TCX20FIMNWSS","<p style=""font-size: 48px;"">+</p>","","","","","null","allTrialResponses","1500","1","22","img_art/8.jpg","50","complex and beautiful, love the colors","Matthew,Jeffrey,William,Grant,David,Malik","Escher? Dali? Could be their lovechild?,50,120,20","Very busy, I want to look at it and investigate,23,40,20","makes me think of a busy city,-18,380,20","The stylized faces remind me of German expressionism in a very good way.,40,200,20","I like how the piece is showcasing emotion in relation to something.,25,340,20","Striking, but not my taste,20,40,20","David","I like how the piece is showcasing emotion in relation to something.,25,340,20","Jeffrey","Very busy, I want to look at it and investigate,23,40,20","Matthew","Escher? Dali? Could be their lovechild?,50,120,20","4"
"32746","","survey-text","204","1788519","0.0-202.0-0.0","A2TCX20FIMNWSS","","","","{""Q0"":""white timeless shapes ""}","","","","","","","","","","","","","","","","","","","","","","",""
"4077.89999999851","","image-slider-response","205","1792599","0.0-203.0","A2TCX20FIMNWSS","","","","","-24","","","","","","","","","","","","","","","","","","","","","",""
"null","","image-button-response","206","1797608","0.0-204.0","A2TCX20FIMNWSS","img_art/23.jpg","null","","","","","","","","","","","","","","","","","","","","","","","","",""
"5243","","image-button-response","207","1802856","0.0-205.0","A2TCX20FIMNWSS","img_art/23.jpg","2","","","","","","","","","","","","","","","","","","","","","","","","",""
"3254","","image-button-response","208","1806115","0.0-206.0-0.0","A2TCX20FIMNWSS","img_art/23.jpg","1","","","","","","","","","","","","","","","","","","","","","","","","",""
"8026","","image-button-response","209","1814147","0.0-207.0-0.0","A2TCX20FIMNWSS","img_art/23.jpg","5","","","","","","","","","","","","","","","","","","","","","","","","",""
"null","","html-keyboard-response","210","1814656","0.0-208.0","A2TCX20FIMNWSS","<p style=""font-size: 48px;"">+</p>","","","","","null","allTrialResponses","500","1","23","img_art/23.jpg","-24","white timeless shapes ","Matthew,Jeffrey,Taylor,Jose,David,Brandon","A line dance, it's really strinkingly beautiful.,50,120,20","Very energetic, seems like it is pulling me in,24,40,20","SOME thought was put into this one.,5,200,20","This one is awesome, kinda looks like a cake with sprinkles but in a different universe,50,200,20","I like the symmetrical design and how it portrays the liveliness of a musical environment.,30,340,20","Pretty cool. I love the white, reminds me of people lined up.,28,320,20","Taylor","SOME thought was put into this one.,5,200,20","Jeffrey","Very energetic, seems like it is pulling me in,24,40,20","Brandon","Pretty cool. I love the white, reminds me of people lined up.,28,320,20","4"
"29749","","survey-text","211","1844414","0.0-209.0-0.0","A2TCX20FIMNWSS","","","","{""Q0"":""ugly composition""}","","","","","","","","","","","","","","","","","","","","","","",""
"2690.599999997765","","image-slider-response","212","1847109","0.0-210.0","A2TCX20FIMNWSS","","","","","-46","","","","","","","","","","","","","","","","","","","","","",""
"3307","","image-button-response","213","1852125","0.0-211.0","A2TCX20FIMNWSS","img_art/18.jpg","2","","","","","","","","","","","","","","","","","","","","","","","","",""
"2849","","image-button-response","214","1854980","0.0-212.0","A2TCX20FIMNWSS","img_art/18.jpg","2","","","","","","","","","","","","","","","","","","","","","","","","",""
"5211","","image-button-response","215","1860195","0.0-213.0-0.0","A2TCX20FIMNWSS","img_art/18.jpg","0","","","","","","","","","","","","","","","","","","","","","","","","",""
"5407","","image-button-response","216","1865609","0.0-214.0-0.0","A2TCX20FIMNWSS","img_art/18.jpg","4","","","","","","","","","","","","","","","","","","","","","","","","",""
"null","","html-keyboard-response","217","1867126","0.0-215.0","A2TCX20FIMNWSS","<p style=""font-size: 48px;"">+</p>","","","","","null","allTrialResponses","1500","1","24","img_art/18.jpg","-46","ugly composition","Tanner,Jeffrey,Taylor,Austin,Logan,Brandon","pegssus going into battle,25,180,20","Makes me to look at it and investigate what it is about and what is going on,17,40,20","Bad guys are after the good guy.,-10,200,20","Nice abstract art,50,240,20","Can't tell if I love it or hate it. That response warranted more than neutral so I gave it 20 but not sure,21,360,20","Crusade-feel, but a little too abstract for my taste,23,320,20","Taylor","Bad guys are after the good guy.,-10,200,20","Tanner","pegssus going into battle,25,180,20","Logan","Can't tell if I love it or hate it. That response warranted more than neutral so I gave it 20 but not sure,21,360,20","4"
"47532","","survey-text","218","1914667","0.0-216.0-0.0","A2TCX20FIMNWSS","","","","{""Q0"":""too simple, a child first painting""}","","","","","","","","","","","","","","","","","","","","","","",""
"3988.900000002235","","image-slider-response","219","1918660","0.0-217.0","A2TCX20FIMNWSS","","","","","-34","","","","","","","","","","","","","","","","","","","","","",""
"null","","image-button-response","220","1923666","0.0-218.0","A2TCX20FIMNWSS","img_art/30.jpg","null","","","","","","","","","","","","","","","","","","","","","","","","",""
"923","","image-button-response","221","1924594","0.0-219.0","A2TCX20FIMNWSS","img_art/30.jpg","4","","","","","","","","","","","","","","","","","","","","","","","","",""
"4040","","image-button-response","222","1928639","0.0-220.0-0.0","A2TCX20FIMNWSS","img_art/30.jpg","5","","","","","","","","","","","","","","","","","","","","","","","","",""
"2404","","image-button-response","223","1931049","0.0-221.0-0.0","A2TCX20FIMNWSS","img_art/30.jpg","2","","","","","","","","","","","","","","","","","","","","","","","","",""
"null","","html-keyboard-response","224","1932560","0.0-222.0","A2TCX20FIMNWSS","<p style=""font-size: 48px;"">+</p>","","","","","null","allTrialResponses","1500","1","25","img_art/30.jpg","-34","too simple, a child first painting","Tanner,James,Taylor,Ian,Logan,Derek","makes me think of a tunnel filled with graffiti,19,180,20","I like the fact that it's a painting.,21,380,20","My kid drew this same picture at daycare!!!,5,200,20","It looks like it was made by pre-k students.,-30,260,20","literally stupid I made this with as seen on tv products when I was 7,-42,360,20","Looks quite basic but the colors are nice and there is a wildness about it that I love,0,360,20","Logan","literally stupid I made this with as seen on tv products when I was 7,-42,360,20","Derek","Looks quite basic but the colors are nice and there is a wildness about it that I love,0,360,20","Taylor","My kid drew this same picture at daycare!!!,5,200,20","4"
"5371","","survey-text","225","1937944","0.0-223.0-0.0","A2TCX20FIMNWSS","","","","{""Q0"":""table""}","","","","","","","","","","","","","","","","","","","","","","",""
"33729","","survey-text","226","1971676","0.0-224.0-0.0","A2TCX20FIMNWSS","","","","{""Q0"":""no skill but beautifully expresed""}","","","","","","","","","","","","","","","","","","","","","","",""
"3514.699999999255","","image-slider-response","227","1975195","0.0-225.0","A2TCX20FIMNWSS","","","","","14","","","","","","","","","","","","","","","","","","","","","",""
"null","","image-button-response","228","1980198","0.0-226.0","A2TCX20FIMNWSS","img_art/19.jpg","null","","","","","","","","","","","","","","","","","","","","","","","","",""
"2139","","image-button-response","229","1982342","0.0-227.0","A2TCX20FIMNWSS","img_art/19.jpg","1","","","","","","","","","","","","","","","","","","","","","","","","",""
"4998","","image-button-response","230","1987344","0.0-228.0-0.0","A2TCX20FIMNWSS","img_art/19.jpg","5","","","","","","","","","","","","","","","","","","","","","","","","",""
"8232","","image-button-response","231","1995580","0.0-229.0-0.0","A2TCX20FIMNWSS","img_art/19.jpg","0","","","","","","","","","","","","","","","","","","","","","","","","",""
"null","","html-keyboard-response","232","1997097","0.0-230.0","A2TCX20FIMNWSS","<p style=""font-size: 48px;"">+</p>","","","","","null","allTrialResponses","1500","1","26","img_art/19.jpg","14","no skill but beautifully expresed","Zachary,Tristan,Taylor,Garrett,Logan,Derek","Reminds me of a busy town. Chaotic in nature.,-11,400,20","Though provoking. Adventurous.,10,300,20","Looks like a homeless man and this painting should be too.,-5,200,20","This looks like a bunch of weird blobs and the colors don't go great together.,-10,180,20","this flow I just really like how everything blends but also doesn't,45,360,20","It has a chaotic energy about it that draws me in,40,360,20","Tristan","Though provoking. Adventurous.,10,300,20","Derek","It has a chaotic energy about it that draws me in,40,360,20","Zachary","Reminds me of a busy town. Chaotic in nature.,-11,400,20","4"
"38423","","survey-text","233","2035528","0.0-231.0-0.0","A2TCX20FIMNWSS","","","","{""Q0"":""too simplistic and unskilled, I do not like it""}","","","","","","","","","","","","","","","","","","","","","","",""
"3451.900000002235","","image-slider-response","234","2038984","0.0-232.0","A2TCX20FIMNWSS","","","","","-40","","","","","","","","","","","","","","","","","","","","","",""
"null","","image-button-response","235","2043994","0.0-233.0","A2TCX20FIMNWSS","img_art/2.jpg","null","","","","","","","","","","","","","","","","","","","","","","","","",""
"400","","image-button-response","236","2044398","0.0-234.0","A2TCX20FIMNWSS","img_art/2.jpg","2","","","","","","","","","","","","","","","","","","","","","","","","",""
"4671","","image-button-response","237","2049072","0.0-235.0-0.0","A2TCX20FIMNWSS","img_art/2.jpg","1","","","","","","","","","","","","","","","","","","","","","","","","",""
"4702","","image-button-response","238","2053777","0.0-236.0-0.0","A2TCX20FIMNWSS","img_art/2.jpg","3","","","","","","","","","","","","","","","","","","","","","","","","",""
"null","","html-keyboard-response","239","2054787","0.0-237.0","A2TCX20FIMNWSS","<p style=""font-size: 48px;"">+</p>","","","","","null","allTrialResponses","1000","1","27","img_art/2.jpg","-40","too simplistic and unskilled, I do not like it","Zachary,Tristan,Christopher,Luis,Isaiah,Derek","I am not a fan of the color story. I am confused by the piece and therefore do not like it.,-21,400,20","The color palette of this painting is for me displeasing and immature.,-30,300,20","nope. just looks like a mess,-28,160,20","I dont like the expression of this,-19,400,20","I feel claustrophobic. I'm looking at a busy shop, but the simple shapes and continuous colors make it hectic.,-8,300,20","Not my favorite but I can see this being hung in a art museum,25,360,20","Christopher","nope. just looks like a mess,-28,160,20","Tristan","The color palette of this painting is for me displeasing and immature.,-30,300,20","Luis","I dont like the expression of this,-19,400,20","4"
"35725","","survey-text","240","2090522","0.0-238.0-0.0","A2TCX20FIMNWSS","","","","{""Q0"":""painted by a child""}","","","","","","","","","","","","","","","","","","","","","","",""
"3690.89999999851","","image-slider-response","241","2094217","0.0-239.0","A2TCX20FIMNWSS","","","","","-26","","","","","","","","","","","","","","","","","","","","","",""
"4856","","image-button-response","242","2099226","0.0-240.0","A2TCX20FIMNWSS","img_art/6.jpg","1","","","","","","","","","","","","","","","","","","","","","","","","",""
"978","","image-button-response","243","2100209","0.0-241.0","A2TCX20FIMNWSS","img_art/6.jpg","1","","","","","","","","","","","","","","","","","","","","","","","","",""
"7056","","image-button-response","244","2107271","0.0-242.0-0.0","A2TCX20FIMNWSS","img_art/6.jpg","4","","","","","","","","","","","","","","","","","","","","","","","","",""
"4909","","image-button-response","245","2112185","0.0-243.0-0.0","A2TCX20FIMNWSS","img_art/6.jpg","0","","","","","","","","","","","","","","","","","","","","","","","","",""
"null","","html-keyboard-response","246","2113693","0.0-244.0","A2TCX20FIMNWSS","<p style=""font-size: 48px;"">+</p>","","","","","null","allTrialResponses","1500","1","28","img_art/6.jpg","-26","painted by a child","Cody,Tristan,Christopher,Luis,Andrew,Seth","Birds are cool but I don't love it,10,180,20","Lack of context makes this painting 1-d for me. The headless bird is mysterious and indecipherable.,-10,300,20","it's interesting but I don't love it,10,160,20","I love the representation of death and life.,50,400,20","Reminds me of my friend's bird,21,160,20","I love it. It reminds me of a bird sitting on a wall.,26,60,20","Tristan","Lack of context makes this painting 1-d for me. The headless bird is mysterious and indecipherable.,-10,300,20","Andrew","Reminds me of my friend's bird,21,160,20","Cody","Birds are cool but I don't love it,10,180,20","4"
"31668","","survey-text","247","2145378","0.0-245.0-0.0","A2TCX20FIMNWSS","","","","{""Q0"":""volcano painted by my son""}","","","","","","","","","","","","","","","","","","","","","","",""
"2983.5","","image-slider-response","248","2148366","0.0-246.0","A2TCX20FIMNWSS","","","","","-28","","","","","","","","","","","","","","","","","","","","","",""
"null","","image-button-response","249","2153373","0.0-247.0","A2TCX20FIMNWSS","img_art/5.jpg","null","","","","","","","","","","","","","","","","","","","","","","","","",""
"2806","","image-button-response","250","2156184","0.0-248.0","A2TCX20FIMNWSS","img_art/5.jpg","1","","","","","","","","","","","","","","","","","","","","","","","","",""
"4485","","image-button-response","251","2160674","0.0-249.0-0.0","A2TCX20FIMNWSS","img_art/5.jpg","4","","","","","","","","","","","","","","","","","","","","","","","","",""
"6892","","image-button-response","252","2167573","0.0-250.0-0.0","A2TCX20FIMNWSS","img_art/5.jpg","0","","","","","","","","","","","","","","","","","","","","","","","","",""
"null","","html-keyboard-response","253","2168082","0.0-251.0","A2TCX20FIMNWSS","<p style=""font-size: 48px;"">+</p>","","","","","null","allTrialResponses","500","1","29","img_art/5.jpg","-28","volcano painted by my son","Cody,Tristan,Peter,Mitchell,Andrew,Adam","Kind of ugly ....,-21,180,20","Nearly white background gives a lack of context. Questionable skills,-45,300,20","Bright and sunny,19,320,20","Building remnants in the sand.,1,180,20","Doesn't make me think anything,-1,160,20","Too loud. Dislike the bright yellow.,-5,40,20","Tristan","Nearly white background gives a lack of context. Questionable skills,-45,300,20","Andrew","Doesn't make me think anything,-1,160,20","Cody","Kind of ugly ....,-21,180,20","4"
"42213","","survey-text","254","2210304","0.0-252.0-0.0","A2TCX20FIMNWSS","","","","{""Q0"":""interesting reaction to life""}","","","","","","","","","","","","","","","","","","","","","","",""
"3952.900000002235","","image-slider-response","255","2214261","0.0-253.0","A2TCX20FIMNWSS","","","","","7","","","","","","","","","","","","","","","","","","","","","",""
"null","","image-button-response","256","2219276","0.0-254.0","A2TCX20FIMNWSS","img_art/25.jpg","null","","","","","","","","","","","","","","","","","","","","","","","","",""
"6024","","image-button-response","257","2225304","0.0-255.0","A2TCX20FIMNWSS","img_art/25.jpg","3","","","","","","","","","","","","","","","","","","","","","","","","",""
"3882","","image-button-response","258","2229192","0.0-256.0-0.0","A2TCX20FIMNWSS","img_art/25.jpg","2","","","","","","","","","","","","","","","","","","","","","","","","",""
"2802","","image-button-response","259","2232000","0.0-257.0-0.0","A2TCX20FIMNWSS","img_art/25.jpg","1","","","","","","","","","","","","","","","","","","","","","","","","",""
"null","","html-keyboard-response","260","2232511","0.0-258.0","A2TCX20FIMNWSS","<p style=""font-size: 48px;"">+</p>","","","","","null","allTrialResponses","500","1","30","img_art/25.jpg","7","interesting reaction to life","Cody,Tristan,Adrian,Dakota,Andrew,Devin","Like the colors and the figure,30,180,20","The limited palette make this figure mysterious and interpret-able.,20,300,20","This piece makes me think of oppression and fighting it. Makes me feel calm, sad and strong.,11,60,20","I think of death,-28,280,20","It makes me feel a little uneasy, but I like the painting,11,160,20","It looks a bit strange to me, neck too long,-19,380,20","Dakota","I think of death,-28,280,20","Adrian","This piece makes me think of oppression and fighting it. Makes me feel calm, sad and strong.,11,60,20","Tristan","The limited palette make this figure mysterious and interpret-able.,20,300,20","4"
"6973","","image-button-response_instructions","261","2239496","0.0-259.0","A2TCX20FIMNWSS","","0","instructions","","","","","","","","","","","","","","","","","","","","","","","",""
"1685","","image-button-response","262","2241188","0.0-260.0","A2TCX20FIMNWSS","","0","","","","","","","","","","","","","","","","","","","","","","","","",""
