"rt","url","trial_type","trial_index","time_elapsed","internal_node_id","participant_id","stimulus","button_pressed","Name","responses","response","key_press","variableName","fixationTime","condition","trial","photo","subjectRating","subjectResponse","agentsNames","agent_1_Response","agent_2_Response","agent_3_Response","agent_4_Response","agent_5_Response","agent_6_Response","kept_1_name","kept_1_response","kept_2_name","kept_2_response","kept_3_name","kept_3_response","errorCounter"
"3165","external_page_harvard.html","external-html","0","3248","0.0-0.0","A2VLK57ZQ2YI28","","","","","","","","","","","","","","","","","","","","","","","","","","",""
"1159","","image-button-response","1","4409","0.0-1.0","A2VLK57ZQ2YI28","","0","","","","","","","","","","","","","","","","","","","","","","","","",""
"1347","","image-button-response","2","5760","0.0-2.0-0.0","A2VLK57ZQ2YI28","","1","phone","","","","","","","","","","","","","","","","","","","","","","","",""
"2681","","survey-text","3","8443","0.0-3.0-0.0","A2VLK57ZQ2YI28","","","","{""Q0"":""A2VLK57ZQ2YI28""}","","","","","","","","","","","","","","","","","","","","","","",""
"1688","","image-button-response_instructions","4","10133","0.0-4.0","A2VLK57ZQ2YI28","","0","instructions","","","","","","","","","","","","","","","","","","","","","","","",""
"5484","","image-button-response_instructions","5","15618","0.0-5.0","A2VLK57ZQ2YI28","img_art/ins/popularity/ins1.png","0","instructions","","","","","","","","","","","","","","","","","","","","","","","",""
"2181","","image-button-response_instructions","6","17801","0.0-6.0","A2VLK57ZQ2YI28","img_art/ins/popularity/ins2.png","0","instructions","","","","","","","","","","","","","","","","","","","","","","","",""
"3225","","image-button-response_instructions","7","21026","0.0-7.0","A2VLK57ZQ2YI28","img_art/ins/popularity/ins2Extreme.png","0","instructions","","","","","","","","","","","","","","","","","","","","","","","",""
"2053","","image-button-response_instructions","8","23080","0.0-8.0","A2VLK57ZQ2YI28","img_art/ins/popularity/ins3KEEPpop.PNG","0","instructions","","","","","","","","","","","","","","","","","","","","","","","",""
"1633","","image-button-response_instructions","9","24714","0.0-9.0","A2VLK57ZQ2YI28","img_art/ins/popularity/ins3ANamepop.PNG","0","instructions","","","","","","","","","","","","","","","","","","","","","","","",""
"1129","","image-button-response_instructions","10","25844","0.0-10.0","A2VLK57ZQ2YI28","img_art/ins/popularity/ins3ARatingpop.png","0","instructions","","","","","","","","","","","","","","","","","","","","","","","",""
"579","","image-button-response_instructions","11","26424","0.0-11.0","A2VLK57ZQ2YI28","img_art/ins/popularity/ins3ATextpop.png","0","instructions","","","","","","","","","","","","","","","","","","","","","","","",""
"5460","","image-button-response_instructions","12","31885","0.0-12.0","A2VLK57ZQ2YI28","img_art/ins/popularity/ins3ALikespop.png","0","instructions","","","","","","","","","","","","","","","","","","","","","","","",""
"5391","","image-button-response_instructions","13","37276","0.0-13.0","A2VLK57ZQ2YI28","img_art/ins/popularity/ins3KEEPpop.PNG","0","instructions","","","","","","","","","","","","","","","","","","","","","","","",""
"2801","","image-button-response_instructions","14","40078","0.0-14.0","A2VLK57ZQ2YI28","img_art/ins/popularity/ins3_5RED.png","0","instructions","","","","","","","","","","","","","","","","","","","","","","","",""
"947","","image-button-response_instructions","15","41026","0.0-15.0","A2VLK57ZQ2YI28","img_art/ins/popularity/ins3KEEPpop.PNG","0","instructions","","","","","","","","","","","","","","","","","","","","","","","",""
"1109","","image-button-response_instructions","16","42136","0.0-16.0","A2VLK57ZQ2YI28","img_art/ins/popularity/ins4KEEPpop.PNG","0","instructions","","","","","","","","","","","","","","","","","","","","","","","",""
"1121","","image-button-response_instructions","17","43258","0.0-17.0","A2VLK57ZQ2YI28","img_art/ins/popularity/ins5KEEPpop.PNG","0","instructions","","","","","","","","","","","","","","","","","","","","","","","",""
"675","","image-button-response_instructions","18","43935","0.0-18.0","A2VLK57ZQ2YI28","","0","instructions","","","","","","","","","","","","","","","","","","","","","","","",""
"3902","","survey-text","19","47856","0.0-19.0-0.0","A2VLK57ZQ2YI28","","","","{""Q0"":""but""}","","","","","","","","","","","","","","","","","","","","","","",""
"6297","","survey-text","20","54154","0.0-20.0-0.0","A2VLK57ZQ2YI28","","","","{""Q0"":""disorganized""}","","","","","","","","","","","","","","","","","","","","","","",""
"3756.2000000476837","","image-slider-response","21","57912","0.0-21.0","A2VLK57ZQ2YI28","","","","","-6","","","","","","","","","","","","","","","","","","","","","",""
"null","","image-button-response","22","62915","0.0-22.0","A2VLK57ZQ2YI28","img_art/ins/1.jpg","null","","","","","","","","","","","","","","","","","","","","","","","","",""
"1408","","image-button-response","23","64325","0.0-23.0","A2VLK57ZQ2YI28","img_art/ins/1.jpg","4","","","","","","","","","","","","","","","","","","","","","","","","",""
"3654","","image-button-response","24","67981","0.0-24.0-0.0","A2VLK57ZQ2YI28","img_art/ins/1.jpg","5","","","","","","","","","","","","","","","","","","","","","","","","",""
"2596","","image-button-response","25","70578","0.0-25.0-0.0","A2VLK57ZQ2YI28","img_art/ins/1.jpg","0","","","","","","","","","","","","","","","","","","","","","","","","",""
"null","","html-keyboard-response","26","71080","0.0-26.0","A2VLK57ZQ2YI28","<p style=""font-size: 48px;"">+</p>","","","","","null","allTrialResponses","500","1","-2","img_art/ins/1.jpg","-6","disorganized","Adam,Alex,Ben,Carl,Daniel,Jack","Seems like doodles,-20,20,20","very creative work.,36,40,20","This color reminds me of poo,-46,60,20","very calming artwork,42,80,20","It looks like a murder scene.,-48,100,20","I like the sophisticated brushwork,40,120,20","Daniel","It looks like a murder scene.,-48,100,20","Jack","I like the sophisticated brushwork,40,120,20","Adam","Seems like doodles,-20,20,20","0"
"3679","","survey-text","27","74762","0.0-27.0-0.0","A2VLK57ZQ2YI28","","","","{""Q0"":""muddled""}","","","","","","","","","","","","","","","","","","","","","","",""
"1932.4000000953674","","image-slider-response","28","76696","0.0-28.0","A2VLK57ZQ2YI28","","","","","-7","","","","","","","","","","","","","","","","","","","","","",""
"2595","","image-button-response","29","81699","0.0-29.0","A2VLK57ZQ2YI28","img_art/ins/2.jpg","1","","","","","","","","","","","","","","","","","","","","","","","","",""
"1196","","image-button-response","30","82897","0.0-30.0","A2VLK57ZQ2YI28","img_art/ins/2.jpg","1","","","","","","","","","","","","","","","","","","","","","","","","",""
"6013","","image-button-response","31","88911","0.0-31.0-0.0","A2VLK57ZQ2YI28","img_art/ins/2.jpg","5","","","","","","","","","","","","","","","","","","","","","","","","",""
"563","","image-button-response","32","89476","0.0-32.0-0.0","A2VLK57ZQ2YI28","img_art/ins/2.jpg","0","","","","","","","","","","","","","","","","","","","","","","","","",""
"null","","html-keyboard-response","33","89977","0.0-33.0","A2VLK57ZQ2YI28","<p style=""font-size: 48px;"">+</p>","","","","","null","allTrialResponses","500","1","-1","img_art/ins/2.jpg","-7","muddled","Adam,John,Kyle,James,Daniel,Jack","too much color,-18,20,20","love the texture of paint,48,160,20","Idk, it is just annoying,-32,180,20","looks too angry,-50,140,20","One of my pet peevs,-48,100,20","I would never be able to compose a sophisticated pallete like this,48,120,20","John","love the texture of paint,48,160,20","Jack","I would never be able to compose a sophisticated pallete like this,48,120,20","Adam","too much color,-18,20,20","0"
"8731","","survey-text","34","98710","0.0-34.0-0.0","A2VLK57ZQ2YI28","","","","{""Q0"":""this looks icy, i love it""}","","","","","","","","","","","","","","","","","","","","","","",""
"2706","","image-slider-response","35","101418","0.0-35.0","A2VLK57ZQ2YI28","","","","","40","","","","","","","","","","","","","","","","","","","","","",""
"null","","image-button-response","36","106419","0.0-36.0","A2VLK57ZQ2YI28","img_art/ins/3.jpg","null","","","","","","","","","","","","","","","","","","","","","","","","",""
"238","","image-button-response","37","106658","0.0-37.0","A2VLK57ZQ2YI28","img_art/ins/3.jpg","3","","","","","","","","","","","","","","","","","","","","","","","","",""
"796","","image-button-response","38","107456","0.0-38.0-0.0","A2VLK57ZQ2YI28","img_art/ins/3.jpg","1","","","","","","","","","","","","","","","","","","","","","","","","",""
"677","","image-button-response","39","108134","0.0-39.0-0.0","A2VLK57ZQ2YI28","img_art/ins/3.jpg","5","","","","","","","","","","","","","","","","","","","","","","","","",""
"null","","html-keyboard-response","40","109636","0.0-40.0","A2VLK57ZQ2YI28","<p style=""font-size: 48px;"">+</p>","","","","","null","allTrialResponses","1500","1","0","img_art/ins/3.jpg","40","this looks icy, i love it","Adam,John,Sam,Mike,Ron,Jack","My daily routine, it's depressing,-20,20,20","I like the overlapping of brushes,41,160,20","I can feel a rainy day from this painting,18,240,20","enjoy the different shades of blue,22,200,20","It looks depressing,-26,220,20","I feel connected to the artist,40,120,20","Mike","enjoy the different shades of blue,22,200,20","John","I like the overlapping of brushes,41,160,20","Jack","I feel connected to the artist,40,120,20","0"
"3525","","image-button-response_instructions","41","113164","0.0-41.0","A2VLK57ZQ2YI28","","0","instructions","","","","","","","","","","","","","","","","","","","","","","","",""
"7145","","survey-likert","42","120310","0.0-42.0-0.0","A2VLK57ZQ2YI28","","","","{""Q0"":"""",""Q1"":0,""Q2"":1}","","","","","","","","","","","","","","","","","","","","","","",""
"3426","","survey-text","43","123746","0.0-43.0-0.0","A2VLK57ZQ2YI28","","","","{""Q0"":""rock""}","","","","","","","","","","","","","","","","","","","","","","",""
"673487","","survey-text","44","797234","0.0-44.0-0.0","A2VLK57ZQ2YI28","","","","{""Q0"":""this looks very messy""}","","","","","","","","","","","","","","","","","","","","","","",""
"2489.5","","image-slider-response","45","799725","0.0-45.0","A2VLK57ZQ2YI28","","","","","-32","","","","","","","","","","","","","","","","","","","","","",""
"null","","image-button-response","46","804746","0.0-46.0","A2VLK57ZQ2YI28","img_art/29.jpg","null","","","","","","","","","","","","","","","","","","","","","","","","",""
"22134","","image-button-response","47","826881","0.0-47.0","A2VLK57ZQ2YI28","img_art/29.jpg","0","","","","","","","","","","","","","","","","","","","","","","","","",""
"3926","","image-button-response","48","830810","0.0-48.0-0.0","A2VLK57ZQ2YI28","img_art/29.jpg","5","","","","","","","","","","","","","","","","","","","","","","","","",""
"1862","","image-button-response","49","832674","0.0-49.0-0.0","A2VLK57ZQ2YI28","img_art/29.jpg","2","","","","","","","","","","","","","","","","","","","","","","","","",""
"null","","html-keyboard-response","50","833176","0.0-50.0","A2VLK57ZQ2YI28","<p style=""font-size: 48px;"">+</p>","","","","","null","allTrialResponses","500","1","1","img_art/29.jpg","-32","this looks very messy","Scott,Derek,Corey,Sean,Isaac,Jake","feels random and not thoughtout,-37,20,20","Very wild and I like it,20,360,20","this does nothing for me. hate the colors. hate the design,-50,260,20","my response to the picture is that it looks so nice and cool and the details,34,40,20","It is intriguing but I don't like the red X.,6,280,20","This is very gross and odd looking.,-8,360,20","Scott","feels random and not thoughtout,-37,20,20","Jake","This is very gross and odd looking.,-8,360,20","Corey","this does nothing for me. hate the colors. hate the design,-50,260,20","0"
"9681","","survey-text","51","842860","0.0-51.0-0.0","A2VLK57ZQ2YI28","","","","{""Q0"":""i like the loops but there's not much else going on here""}","","","","","","","","","","","","","","","","","","","","","","",""
"3119.5999999046326","","image-slider-response","52","845981","0.0-52.0","A2VLK57ZQ2YI28","","","","","4","","","","","","","","","","","","","","","","","","","","","",""
"2831","","image-button-response","53","850984","0.0-53.0","A2VLK57ZQ2YI28","img_art/4.jpg","3","","","","","","","","","","","","","","","","","","","","","","","","",""
"358","","image-button-response","54","851344","0.0-54.0","A2VLK57ZQ2YI28","img_art/4.jpg","3","","","","","","","","","","","","","","","","","","","","","","","","",""
"4483","","image-button-response","55","855827","0.0-55.0-0.0","A2VLK57ZQ2YI28","img_art/4.jpg","1","","","","","","","","","","","","","","","","","","","","","","","","",""
"560","","image-button-response","56","856389","0.0-56.0-0.0","A2VLK57ZQ2YI28","img_art/4.jpg","2","","","","","","","","","","","","","","","","","","","","","","","","",""
"null","","html-keyboard-response","57","856891","0.0-57.0","A2VLK57ZQ2YI28","<p style=""font-size: 48px;"">+</p>","","","","","null","allTrialResponses","500","1","2","img_art/4.jpg","4","i like the loops but there's not much else going on here","Scott,Dylan,Corey,David,Michael,Jake","feels free flowing and relaxed,21,20,20","This artwork looks like a child did it,-41,40,20","doesn't do anything for me,-4,260,20","I like the design. It can be interpreted in various ways, such as a hand of horror or still piece.,15,340,20","Looks like a child did it.,-42,140,20","This is ugly in color and in terms of the shape on it.,-32,360,20","David","I like the design. It can be interpreted in various ways, such as a hand of horror or still piece.,15,340,20","Dylan","This artwork looks like a child did it,-41,40,20","Corey","doesn't do anything for me,-4,260,20","0"
"10157","","survey-text","58","867051","0.0-58.0-0.0","A2VLK57ZQ2YI28","","","","{""Q0"":""i can't seem to discern anything from this art""}","","","","","","","","","","","","","","","","","","","","","","",""
"1602.2000000476837","","image-slider-response","59","868655","0.0-59.0","A2VLK57ZQ2YI28","","","","","-40","","","","","","","","","","","","","","","","","","","","","",""
"3907","","image-button-response","60","873657","0.0-60.0","A2VLK57ZQ2YI28","img_art/28.jpg","0","","","","","","","","","","","","","","","","","","","","","","","","",""
"1466","","image-button-response","61","875123","0.0-61.0","A2VLK57ZQ2YI28","img_art/28.jpg","0","","","","","","","","","","","","","","","","","","","","","","","","",""
"399","","image-button-response","62","875523","0.0-62.0-0.0","A2VLK57ZQ2YI28","img_art/28.jpg","1","","","","","","","","","","","","","","","","","","","","","","","","",""
"1121","","image-button-response","63","876645","0.0-63.0-0.0","A2VLK57ZQ2YI28","img_art/28.jpg","0","","","","","","","","","","","","","","","","","","","","","","","","",""
"693","","image-button-response","64","881882","0.0-63.1-0.1","A2VLK57ZQ2YI28","img_art/28.jpg","5","","","","","","","","","","","","","","","","","","","","","","","","",""
"null","","html-keyboard-response","65","882883","0.0-64.0","A2VLK57ZQ2YI28","<p style=""font-size: 48px;"">+</p>","","","","","null","allTrialResponses","1000","1","3","img_art/28.jpg","-40","i can't seem to discern anything from this art","Trevor,Dylan,Corey,David,Adrian,James","very blah colors and it's not fun,-27,280,20","Boring, looks like it belongs in a coffee shop,-20,40,20","i like the neutral color pallette but i dont know what i am looking at,26,260,20","I feel that the image is invoking a sense of negativity.,-15,340,20","Not a fan of the drab colors but it looks a little bit interesting.,-7,60,20","My grandparents would like this, maybe my great grandparents. It's not my style.,-30,380,20","Trevor","very blah colors and it's not fun,-27,280,20","Dylan","Boring, looks like it belongs in a coffee shop,-20,40,20","James","My grandparents would like this, maybe my great grandparents. It's not my style.,-30,380,20","2"
"6969","","survey-text","66","889855","0.0-65.0-0.0","A2VLK57ZQ2YI28","","","","{""Q0"":""there's too much going on here""}","","","","","","","","","","","","","","","","","","","","","","",""
"1728.5999999046326","","image-slider-response","67","891585","0.0-66.0","A2VLK57ZQ2YI28","","","","","-5","","","","","","","","","","","","","","","","","","","","","",""
"null","","image-button-response","68","896587","0.0-67.0","A2VLK57ZQ2YI28","img_art/22.jpg","null","","","","","","","","","","","","","","","","","","","","","","","","",""
"946","","image-button-response","69","897535","0.0-68.0","A2VLK57ZQ2YI28","img_art/22.jpg","4","","","","","","","","","","","","","","","","","","","","","","","","",""
"1519","","image-button-response","70","899056","0.0-69.0-0.0","A2VLK57ZQ2YI28","img_art/22.jpg","0","","","","","","","","","","","","","","","","","","","","","","","","",""
"1743","","image-button-response","71","900801","0.0-70.0-0.0","A2VLK57ZQ2YI28","img_art/22.jpg","3","","","","","","","","","","","","","","","","","","","","","","","","",""
"null","","html-keyboard-response","72","901302","0.0-71.0","A2VLK57ZQ2YI28","<p style=""font-size: 48px;"">+</p>","","","","","null","allTrialResponses","500","1","4","img_art/22.jpg","-5","there's too much going on here","Trevor,Dylan,Nicholas,Joseph,Luis,James","i like the colors but it looks too 80s for me,7,280,20","The colors in this picture are nice.,32,40,20","Pretty colors but something seems sinister about it,25,240,20","I don't like that it looks like a person is there upside down.,-16,220,20","Just not feeling it,-19,400,20","Like the black key and the rainbow color theme.,31,380,20","Luis","Just not feeling it,-19,400,20","Trevor","i like the colors but it looks too 80s for me,7,280,20","Joseph","I don't like that it looks like a person is there upside down.,-16,220,20","2"
"12768","","survey-text","73","914074","0.0-72.0-0.0","A2VLK57ZQ2YI28","","","","{""Q0"":""i can't really get a grasp of what's in this art piece""}","","","","","","","","","","","","","","","","","","","","","","",""
"2090.7000000476837","","image-slider-response","74","916166","0.0-73.0","A2VLK57ZQ2YI28","","","","","-16","","","","","","","","","","","","","","","","","","","","","",""
"null","","image-button-response","75","921168","0.0-74.0","A2VLK57ZQ2YI28","img_art/24.jpg","null","","","","","","","","","","","","","","","","","","","","","","","","",""
"3120","","image-button-response","76","924290","0.0-75.0","A2VLK57ZQ2YI28","img_art/24.jpg","3","","","","","","","","","","","","","","","","","","","","","","","","",""
"540","","image-button-response","77","924832","0.0-76.0-0.0","A2VLK57ZQ2YI28","img_art/24.jpg","5","","","","","","","","","","","","","","","","","","","","","","","","",""
"1654","","image-button-response","78","926488","0.0-77.0-0.0","A2VLK57ZQ2YI28","img_art/24.jpg","2","","","","","","","","","","","","","","","","","","","","","","","","",""
"null","","html-keyboard-response","79","927489","0.0-78.0","A2VLK57ZQ2YI28","<p style=""font-size: 48px;"">+</p>","","","","","null","allTrialResponses","1000","1","5","img_art/24.jpg","-16","i can't really get a grasp of what's in this art piece","Trevor,Caleb,Evan,Joseph,Luis,Cole","I like how it looks like a waterfall in an exotic place,50,280,20","This is gorgeous. Strong, saturated colors and clear meaning.,50,40,20","It feels very serene,19,140,20","It looks like a poor dead bunny in a field of flowers. I don't want the bunny to be dead.,-37,220,20","Love the natural vibe,50,400,20","Abstract waterfall landscape. Confusing,-13,200,20","Joseph","It looks like a poor dead bunny in a field of flowers. I don't want the bunny to be dead.,-37,220,20","Cole","Abstract waterfall landscape. Confusing,-13,200,20","Evan","It feels very serene,19,140,20","2"
"3177","","survey-text","80","930672","0.0-79.0-0.0","A2VLK57ZQ2YI28","","","","{""Q0"":""sky""}","","","","","","","","","","","","","","","","","","","","","","",""
"4651","","survey-text","81","935324","0.0-80.0-0.0","A2VLK57ZQ2YI28","","","","{""Q0"":""this is very pretty""}","","","","","","","","","","","","","","","","","","","","","","",""
"1846.7000000476837","","image-slider-response","82","937172","0.0-81.0","A2VLK57ZQ2YI28","","","","","41","","","","","","","","","","","","","","","","","","","","","",""
"null","","image-button-response","83","942174","0.0-82.0","A2VLK57ZQ2YI28","img_art/30.jpg","null","","","","","","","","","","","","","","","","","","","","","","","","",""
"1229","","image-button-response","84","943404","0.0-83.0","A2VLK57ZQ2YI28","img_art/30.jpg","3","","","","","","","","","","","","","","","","","","","","","","","","",""
"532","","image-button-response","85","943938","0.0-84.0-0.0","A2VLK57ZQ2YI28","img_art/30.jpg","4","","","","","","","","","","","","","","","","","","","","","","","","",""
"706","","image-button-response","86","944646","0.0-85.0-0.0","A2VLK57ZQ2YI28","img_art/30.jpg","1","","","","","","","","","","","","","","","","","","","","","","","","",""
"null","","html-keyboard-response","87","945148","0.0-86.0","A2VLK57ZQ2YI28","<p style=""font-size: 48px;"">+</p>","","","","","null","allTrialResponses","500","1","6","img_art/30.jpg","41","this is very pretty","Alex,Eric,Evan,Joseph,Alejandro,Cole","Don't like it at all, looks like a someone smeared paint with their fingers,-25,100,20","I love the colors, the style, and the uniqueness in this piece. I love everything.,50,100,20","I really like the broad and colorful strokes,21,140,20","It's soothing- the page is full, but there aren't too many things happening.,23,220,20","An interesting design but don't like the colors. I value the time and effort put into it, but not a huge fan.,10,80,20","Its ugly. Too simple,-23,200,20","Joseph","It's soothing- the page is full, but there aren't too many things happening.,23,220,20","Alejandro","An interesting design but don't like the colors. I value the time and effort put into it, but not a huge fan.,10,80,20","Eric","I love the colors, the style, and the uniqueness in this piece. I love everything.,50,100,20","2"
"7428","","survey-text","88","952578","0.0-87.0-0.0","A2VLK57ZQ2YI28","","","","{""Q0"":""this looks like blobs of mess""}","","","","","","","","","","","","","","","","","","","","","","",""
"1492.1000001430511","","image-slider-response","89","954072","0.0-88.0","A2VLK57ZQ2YI28","","","","","-50","","","","","","","","","","","","","","","","","","","","","",""
"null","","image-button-response","90","959074","0.0-89.0","A2VLK57ZQ2YI28","img_art/2.jpg","null","","","","","","","","","","","","","","","","","","","","","","","","",""
"712","","image-button-response","91","959788","0.0-90.0","A2VLK57ZQ2YI28","img_art/2.jpg","4","","","","","","","","","","","","","","","","","","","","","","","","",""
"986","","image-button-response","92","960776","0.0-91.0-0.0","A2VLK57ZQ2YI28","img_art/2.jpg","0","","","","","","","","","","","","","","","","","","","","","","","","",""
"884","","image-button-response","93","961662","0.0-92.0-0.0","A2VLK57ZQ2YI28","img_art/2.jpg","1","","","","","","","","","","","","","","","","","","","","","","","","",""
"null","","html-keyboard-response","94","962163","0.0-93.0","A2VLK57ZQ2YI28","<p style=""font-size: 48px;"">+</p>","","","","","null","allTrialResponses","500","1","7","img_art/2.jpg","-50","this looks like blobs of mess","Thomas,Eric,Tyler,Joseph,Alejandro,Steven","My first thought was that it looks like a children's art project,-30,220,20","I like the color, but I feel like I see a creepy face which I dislike.,-5,100,20","Grim and overwhelming,-6,320,20","Different cultures. I like that it brings differences together.,4,220,20","Looks contrived and like someone tried to hard to make it abstract,-31,80,20","I can't get past the fact that it looks like someone wearing a mask,-46,160,20","Alejandro","Looks contrived and like someone tried to hard to make it abstract,-31,80,20","Thomas","My first thought was that it looks like a children's art project,-30,220,20","Eric","I like the color, but I feel like I see a creepy face which I dislike.,-5,100,20","2"
"9873","","survey-text","95","972039","0.0-94.0-0.0","A2VLK57ZQ2YI28","","","","{""Q0"":""this looks ambiguous and intriguing""}","","","","","","","","","","","","","","","","","","","","","","",""
"2022.5","","image-slider-response","96","974063","0.0-95.0","A2VLK57ZQ2YI28","","","","","-19","","","","","","","","","","","","","","","","","","","","","",""
"null","","image-button-response","97","979065","0.0-96.0","A2VLK57ZQ2YI28","img_art/1.jpg","null","","","","","","","","","","","","","","","","","","","","","","","","",""
"3427","","image-button-response","98","982494","0.0-97.0","A2VLK57ZQ2YI28","img_art/1.jpg","2","","","","","","","","","","","","","","","","","","","","","","","","",""
"788","","image-button-response","99","983283","0.0-98.0-0.0","A2VLK57ZQ2YI28","img_art/1.jpg","3","","","","","","","","","","","","","","","","","","","","","","","","",""
"2293","","image-button-response","100","985578","0.0-99.0-0.0","A2VLK57ZQ2YI28","img_art/1.jpg","5","","","","","","","","","","","","","","","","","","","","","","","","",""
"null","","html-keyboard-response","101","986079","0.0-100.0","A2VLK57ZQ2YI28","<p style=""font-size: 48px;"">+</p>","","","","","null","allTrialResponses","500","1","8","img_art/1.jpg","-19","this looks ambiguous and intriguing","Thomas,Eric,John,Jared,Alejandro,William","Pleasant, but a tad too monochromatic in some areas for my taste,7,220,20","I like the way that the colors blend.,35,100,20","Its okay,not great.,1,120,20","there isnt anything clear to look at,-2,400,20","Interesting color scheme but to bled to me,11,80,20","love how the colors blend,42,380,20","John","Its okay,not great.,1,120,20","Jared","there isnt anything clear to look at,-2,400,20","William","love how the colors blend,42,380,20","2"
"7931","","survey-text","102","994013","0.0-101.0-0.0","A2VLK57ZQ2YI28","","","","{""Q0"":""there's a lot going on here and i like it a lot""}","","","","","","","","","","","","","","","","","","","","","","",""
"1908.8999998569489","","image-slider-response","103","995923","0.0-102.0","A2VLK57ZQ2YI28","","","","","36","","","","","","","","","","","","","","","","","","","","","",""
"1224","","image-button-response","104","1000925","0.0-103.0","A2VLK57ZQ2YI28","img_art/19.jpg","4","","","","","","","","","","","","","","","","","","","","","","","","",""
"488","","image-button-response","105","1001415","0.0-104.0","A2VLK57ZQ2YI28","img_art/19.jpg","3","","","","","","","","","","","","","","","","","","","","","","","","",""
"302","","image-button-response","106","1001719","0.0-105.0-0.0","A2VLK57ZQ2YI28","img_art/19.jpg","4","","","","","","","","","","","","","","","","","","","","","","","","",""
"577","","image-button-response","107","1002297","0.0-106.0-0.0","A2VLK57ZQ2YI28","img_art/19.jpg","1","","","","","","","","","","","","","","","","","","","","","","","","",""
"null","","html-keyboard-response","108","1003299","0.0-107.0","A2VLK57ZQ2YI28","<p style=""font-size: 48px;"">+</p>","","","","","null","allTrialResponses","1000","1","9","img_art/19.jpg","36","there's a lot going on here and i like it a lot","Nathaniel,Jason,John,Jared,Austin,William","Horrible. Squiggly lines everywhere.,-50,220,20","The picture contains a lot of brown and weird drips,-4,20,20","There's alot of elements to it bordering on clutter and chaotic,-20,120,20","green and orange are my favorite colors.  this cityscape feels warm,34,400,20","Like the painting strokes,39,240,20","to much going on,-22,380,20","Jared","green and orange are my favorite colors.  this cityscape feels warm,34,400,20","Austin","Like the painting strokes,39,240,20","Jason","The picture contains a lot of brown and weird drips,-4,20,20","2"
"8749","","survey-text","109","1012051","0.0-108.0-0.0","A2VLK57ZQ2YI28","","","","{""Q0"":""this looks very bland""}","","","","","","","","","","","","","","","","","","","","","","",""
"1394.5999999046326","","image-slider-response","110","1013447","0.0-109.0","A2VLK57ZQ2YI28","","","","","-12","","","","","","","","","","","","","","","","","","","","","",""
"3984","","image-button-response","111","1018450","0.0-110.0","A2VLK57ZQ2YI28","img_art/15.jpg","0","","","","","","","","","","","","","","","","","","","","","","","","",""
"170","","image-button-response","112","1018621","0.0-111.0","A2VLK57ZQ2YI28","img_art/15.jpg","0","","","","","","","","","","","","","","","","","","","","","","","","",""
"1459","","image-button-response","113","1020081","0.0-112.0-0.0","A2VLK57ZQ2YI28","img_art/15.jpg","5","","","","","","","","","","","","","","","","","","","","","","","","",""
"472","","image-button-response","114","1020555","0.0-113.0-0.0","A2VLK57ZQ2YI28","img_art/15.jpg","3","","","","","","","","","","","","","","","","","","","","","","","","",""
"null","","html-keyboard-response","115","1021056","0.0-114.0","A2VLK57ZQ2YI28","<p style=""font-size: 48px;"">+</p>","","","","","null","allTrialResponses","500","1","10","img_art/15.jpg","-12","this looks very bland","Samuel,Jason,Joshua,Jared,Austin,Alexis","Black reminds me of darkness,-18,400,20","Simplicity of colors is nice,11,20,20","Like this for the colors and arrangement.,11,240,20","i cant find somthing ilike about it,-31,400,20","Perfect Abstract painting,50,240,20","it is dark and gloomy,-9,140,20","Samuel","Black reminds me of darkness,-18,400,20","Alexis","it is dark and gloomy,-9,140,20","Jared","i cant find somthing ilike about it,-31,400,20","2"
"2849","","survey-text","116","1023910","0.0-115.0-0.0","A2VLK57ZQ2YI28","","","","{""Q0"":""our""}","","","","","","","","","","","","","","","","","","","","","","",""
"12014","","survey-text","117","1035925","0.0-116.0-0.0","A2VLK57ZQ2YI28","","","","{""Q0"":""kind of a pretty image of indoors""}","","","","","","","","","","","","","","","","","","","","","","",""
"2790.699999809265","","image-slider-response","118","1038717","0.0-117.0","A2VLK57ZQ2YI28","","","","","8","","","","","","","","","","","","","","","","","","","","","",""
"null","","image-button-response","119","1043720","0.0-118.0","A2VLK57ZQ2YI28","img_art/26.jpg","null","","","","","","","","","","","","","","","","","","","","","","","","",""
"563","","image-button-response","120","1044284","0.0-119.0","A2VLK57ZQ2YI28","img_art/26.jpg","0","","","","","","","","","","","","","","","","","","","","","","","","",""
"4482","","image-button-response","121","1048768","0.0-120.0-0.0","A2VLK57ZQ2YI28","img_art/26.jpg","3","","","","","","","","","","","","","","","","","","","","","","","","",""
"642","","image-button-response","122","1049412","0.0-121.0-0.0","A2VLK57ZQ2YI28","img_art/26.jpg","5","","","","","","","","","","","","","","","","","","","","","","","","",""
"null","","html-keyboard-response","123","1049914","0.0-122.0","A2VLK57ZQ2YI28","<p style=""font-size: 48px;"">+</p>","","","","","null","allTrialResponses","500","1","11","img_art/26.jpg","8","kind of a pretty image of indoors","Samuel,Grant,Gabriel,Jared,Malik,Alexis","reminds me of a hometown,7,400,20","It's a cute city scene. I like the trees.,10,200,20","this is nice!! i like the muted colors,34,160,20","soothing and subtle,1,400,20","Feels like still life,-13,40,20","it makes me feel normal and calm, I like the busy city street,10,140,20","Samuel","reminds me of a hometown,7,400,20","Jared","soothing and subtle,1,400,20","Alexis","it makes me feel normal and calm, I like the busy city street,10,140,20","2"
"6647","","survey-text","124","1056564","0.0-123.0-0.0","A2VLK57ZQ2YI28","","","","{""Q0"":""very pretty trees, gorgeous""}","","","","","","","","","","","","","","","","","","","","","","",""
"1390.7999999523163","","image-slider-response","125","1057956","0.0-124.0","A2VLK57ZQ2YI28","","","","","39","","","","","","","","","","","","","","","","","","","","","",""
"null","","image-button-response","126","1062959","0.0-125.0","A2VLK57ZQ2YI28","img_art/17.jpg","null","","","","","","","","","","","","","","","","","","","","","","","","",""
"1202","","image-button-response","127","1064164","0.0-126.0","A2VLK57ZQ2YI28","img_art/17.jpg","4","","","","","","","","","","","","","","","","","","","","","","","","",""
"442","","image-button-response","128","1064608","0.0-127.0-0.0","A2VLK57ZQ2YI28","img_art/17.jpg","5","","","","","","","","","","","","","","","","","","","","","","","","",""
"968","","image-button-response","129","1065578","0.0-128.0-0.0","A2VLK57ZQ2YI28","img_art/17.jpg","2","","","","","","","","","","","","","","","","","","","","","","","","",""
"null","","html-keyboard-response","130","1066080","0.0-129.0","A2VLK57ZQ2YI28","<p style=""font-size: 48px;"">+</p>","","","","","null","allTrialResponses","500","1","12","img_art/17.jpg","39","very pretty trees, gorgeous","Samuel,Devin,Logan,Jared,Isaiah,Alexis","muted tones brings me down,-13,400,20","So expressive and wonderful wow!,17,380,20","similar to last one, still pretty cool but I liked arrangement of last one better,13,360,20","the colors, the arch and the wall,15,400,20","The painting makes me feel relaxed, and a bit lonely, like I'm sitting at a park waiting for someone.,30,300,20","This makes me feel inspired and happy. I love everything about this portrait,45,140,20","Isaiah","The painting makes me feel relaxed, and a bit lonely, like I'm sitting at a park waiting for someone.,30,300,20","Alexis","This makes me feel inspired and happy. I love everything about this portrait,45,140,20","Logan","similar to last one, still pretty cool but I liked arrangement of last one better,13,360,20","2"
"6380","","survey-text","131","1072464","0.0-130.0-0.0","A2VLK57ZQ2YI28","","","","{""Q0"":""this looks sloppy and childish""}","","","","","","","","","","","","","","","","","","","","","","",""
"1894.5999999046326","","image-slider-response","132","1074359","0.0-131.0","A2VLK57ZQ2YI28","","","","","-31","","","","","","","","","","","","","","","","","","","","","",""
"null","","image-button-response","133","1079362","0.0-132.0","A2VLK57ZQ2YI28","img_art/14.jpg","null","","","","","","","","","","","","","","","","","","","","","","","","",""
"5338","","image-button-response","134","1084701","0.0-133.0","A2VLK57ZQ2YI28","img_art/14.jpg","2","","","","","","","","","","","","","","","","","","","","","","","","",""
"367","","image-button-response","135","1085070","0.0-134.0-0.0","A2VLK57ZQ2YI28","img_art/14.jpg","1","","","","","","","","","","","","","","","","","","","","","","","","",""
"1548","","image-button-response","136","1086620","0.0-135.0-0.0","A2VLK57ZQ2YI28","img_art/14.jpg","5","","","","","","","","","","","","","","","","","","","","","","","","",""
"null","","html-keyboard-response","137","1087122","0.0-136.0","A2VLK57ZQ2YI28","<p style=""font-size: 48px;"">+</p>","","","","","null","allTrialResponses","500","1","13","img_art/14.jpg","-31","this looks sloppy and childish","Luke,Adam,Logan,Hunter,Isaiah,Alexis","looks like it's symbolizing rebirth which is hopeful,22,20,20","Very abstract. Unsure of what I'm looking at. No emotions towards it.,-6,40,20","I dont really vibe with the grayish color palette,-7,360,20","makes me feel sad,-2,240,20","I feel uncomfortable looking at this painting, it is a mess that needs to be cleaned up.,-16,300,20","It looks like a table centerpiece,-22,140,20","Logan","I dont really vibe with the grayish color palette,-7,360,20","Adam","Very abstract. Unsure of what I'm looking at. No emotions towards it.,-6,40,20","Alexis","It looks like a table centerpiece,-22,140,20","2"
"13842","","survey-text","138","1100968","0.0-137.0-0.0","A2VLK57ZQ2YI28","","","","{""Q0"":""i like this view a lot, it is like i'm looking from above a tower""}","","","","","","","","","","","","","","","","","","","","","","",""
"1928.8000001907349","","image-slider-response","139","1102898","0.0-138.0","A2VLK57ZQ2YI28","","","","","43","","","","","","","","","","","","","","","","","","","","","",""
"2923","","image-button-response","140","1107899","0.0-139.0","A2VLK57ZQ2YI28","img_art/8.jpg","2","","","","","","","","","","","","","","","","","","","","","","","","",""
"2439","","image-button-response","141","1110340","0.0-140.0","A2VLK57ZQ2YI28","img_art/8.jpg","0","","","","","","","","","","","","","","","","","","","","","","","","",""
"524","","image-button-response","142","1110866","0.0-141.0-0.0","A2VLK57ZQ2YI28","img_art/8.jpg","1","","","","","","","","","","","","","","","","","","","","","","","","",""
"322","","image-button-response","143","1111190","0.0-142.0-0.0","A2VLK57ZQ2YI28","img_art/8.jpg","2","","","","","","","","","","","","","","","","","","","","","","","","",""
"null","","html-keyboard-response","144","1112192","0.0-143.0","A2VLK57ZQ2YI28","<p style=""font-size: 48px;"">+</p>","","","","","null","allTrialResponses","1000","1","14","img_art/8.jpg","43","i like this view a lot, it is like i'm looking from above a tower","Jeremy,Adam,Logan,Bryan,Spencer,Alexis","Nervous like being up high,10,60,20","Eclectic city with good mix of colors.,10,40,20","a cute little cute with some protectors,25,360,20","Like the colors & the imagery - old city, native peoples maybe.,20,400,20","Nice formats, I just don't like it much,-16,120,20","I like that it sort of looks like a cityscape,9,140,20","Jeremy","Nervous like being up high,10,60,20","Adam","Eclectic city with good mix of colors.,10,40,20","Logan","a cute little cute with some protectors,25,360,20","2"
"7444","","survey-text","145","1119640","0.0-144.0-0.0","A2VLK57ZQ2YI28","","","","{""Q0"":""this looks like a broom and dustpan""}","","","","","","","","","","","","","","","","","","","","","","",""
"1766.5","","image-slider-response","146","1121408","0.0-145.0","A2VLK57ZQ2YI28","","","","","-33","","","","","","","","","","","","","","","","","","","","","",""
"null","","image-button-response","147","1126410","0.0-146.0","A2VLK57ZQ2YI28","img_art/5.jpg","null","","","","","","","","","","","","","","","","","","","","","","","","",""
"6834","","image-button-response","148","1133246","0.0-147.0","A2VLK57ZQ2YI28","img_art/5.jpg","2","","","","","","","","","","","","","","","","","","","","","","","","",""
"1300","","image-button-response","149","1134548","0.0-148.0-0.0","A2VLK57ZQ2YI28","img_art/5.jpg","1","","","","","","","","","","","","","","","","","","","","","","","","",""
"1074","","image-button-response","150","1135624","0.0-149.0-0.0","A2VLK57ZQ2YI28","img_art/5.jpg","4","","","","","","","","","","","","","","","","","","","","","","","","",""
"null","","html-keyboard-response","151","1136126","0.0-150.0","A2VLK57ZQ2YI28","<p style=""font-size: 48px;"">+</p>","","","","","null","allTrialResponses","500","1","15","img_art/5.jpg","-33","this looks like a broom and dustpan","Jeremy,Adam,Logan,Jack,Mason,Marcus","I don't hate it but I can't relate to it,1,60,20","Too loud. Dislike the bright yellow.,-5,40,20","Just doesn't do a whole lot for me. I see Cinderellas broom,-11,360,20","it's okay. the colors are eye catching, but that's about it.,3,320,20","pointless, ugly, not creative.,-50,100,20","I really dislike this. It's ugly and looks dirty.,-44,60,20","Logan","Just doesn't do a whole lot for me. I see Cinderellas broom,-11,360,20","Adam","Too loud. Dislike the bright yellow.,-5,40,20","Mason","pointless, ugly, not creative.,-50,100,20","2"
"2675","","survey-text","152","1138807","0.0-151.0-0.0","A2VLK57ZQ2YI28","","","","{""Q0"":""course""}","","","","","","","","","","","","","","","","","","","","","","",""
"8295","","survey-text","153","1147103","0.0-152.0-0.0","A2VLK57ZQ2YI28","","","","{""Q0"":""too much going on, too complex""}","","","","","","","","","","","","","","","","","","","","","","",""
"3786.600000143051","","image-slider-response","154","1150891","0.0-153.0","A2VLK57ZQ2YI28","","","","","-35","","","","","","","","","","","","","","","","","","","","","",""
"2917","","image-button-response","155","1155978","0.0-154.0","A2VLK57ZQ2YI28","img_art/12.jpg","5","","","","","","","","","","","","","","","","","","","","","","","","",""
"1439","","image-button-response","156","1157420","0.0-155.0","A2VLK57ZQ2YI28","img_art/12.jpg","5","","","","","","","","","","","","","","","","","","","","","","","","",""
"842","","image-button-response","157","1158264","0.0-156.0-0.0","A2VLK57ZQ2YI28","img_art/12.jpg","3","","","","","","","","","","","","","","","","","","","","","","","","",""
"1042","","image-button-response","158","1159307","0.0-157.0-0.0","A2VLK57ZQ2YI28","img_art/12.jpg","1","","","","","","","","","","","","","","","","","","","","","","","","",""
"null","","html-keyboard-response","159","1159809","0.0-158.0","A2VLK57ZQ2YI28","<p style=""font-size: 48px;"">+</p>","","","","","null","allTrialResponses","500","1","16","img_art/12.jpg","-35","too much going on, too complex","Gregory,Adam,Logan,Peter,Mason,Devon","Black and white contrast with color looks nice,15,220,20","Minimalist colors and shapes.,-5,40,20","giving me major endless summer vibes,26,360,20","Reminds me Early 2000's decor, don't favor it,-10,320,20","it's ok, but blocky, looks old.,3,100,20","too much - just overcrowded,-20,400,20","Devon","too much - just overcrowded,-20,400,20","Peter","Reminds me Early 2000's decor, don't favor it,-10,320,20","Adam","Minimalist colors and shapes.,-5,40,20","2"
"9667","","survey-text","160","1169480","0.0-159.0-0.0","A2VLK57ZQ2YI28","","","","{""Q0"":""more childish scribbling""}","","","","","","","","","","","","","","","","","","","","","","",""
"1944.1000001430511","","image-slider-response","161","1171425","0.0-160.0","A2VLK57ZQ2YI28","","","","","-25","","","","","","","","","","","","","","","","","","","","","",""
"null","","image-button-response","162","1176435","0.0-161.0","A2VLK57ZQ2YI28","img_art/27.jpg","null","","","","","","","","","","","","","","","","","","","","","","","","",""
"131549","","image-button-response","163","1307987","0.0-162.0","A2VLK57ZQ2YI28","img_art/27.jpg","2","","","","","","","","","","","","","","","","","","","","","","","","",""
"1337","","image-button-response","164","1309325","0.0-163.0-0.0","A2VLK57ZQ2YI28","img_art/27.jpg","0","","","","","","","","","","","","","","","","","","","","","","","","",""
"472","","image-button-response","165","1309799","0.0-164.0-0.0","A2VLK57ZQ2YI28","img_art/27.jpg","1","","","","","","","","","","","","","","","","","","","","","","","","",""
"null","","html-keyboard-response","166","1311301","0.0-165.0","A2VLK57ZQ2YI28","<p style=""font-size: 48px;"">+</p>","","","","","null","allTrialResponses","1500","1","17","img_art/27.jpg","-25","more childish scribbling","Cody,Adam,Lucas,Peter,Ethan,Devon","Not sure how I feel about this. Messy, even for art. But good colors.,0,180,20","Warn colors are pretty, but too blotchy for me.,3,40,20","No clue what to say.,0,380,20","Calming sky , relaxing,23,320,20","I like the layer upon layer of different mediums used here.,21,120,20","this reminds me of simpler time,31,400,20","Lucas","No clue what to say.,0,380,20","Cody","Not sure how I feel about this. Messy, even for art. But good colors.,0,180,20","Adam","Warn colors are pretty, but too blotchy for me.,3,40,20","2"
"19951","","survey-text","167","1331255","0.0-166.0-0.0","A2VLK57ZQ2YI28","","","","{""Q0"":""looks like skeletons on horseback, and i love it""}","","","","","","","","","","","","","","","","","","","","","","",""
"2616.100000143051","","image-slider-response","168","1333873","0.0-167.0","A2VLK57ZQ2YI28","","","","","35","","","","","","","","","","","","","","","","","","","","","",""
"null","","image-button-response","169","1338875","0.0-168.0","A2VLK57ZQ2YI28","img_art/18.jpg","null","","","","","","","","","","","","","","","","","","","","","","","","",""
"17890","","image-button-response","170","1356767","0.0-169.0","A2VLK57ZQ2YI28","img_art/18.jpg","0","","","","","","","","","","","","","","","","","","","","","","","","",""
"951","","image-button-response","171","1357720","0.0-170.0-0.0","A2VLK57ZQ2YI28","img_art/18.jpg","1","","","","","","","","","","","","","","","","","","","","","","","","",""
"1367","","image-button-response","172","1359088","0.0-171.0-0.0","A2VLK57ZQ2YI28","img_art/18.jpg","4","","","","","","","","","","","","","","","","","","","","","","","","",""
"null","","html-keyboard-response","173","1359589","0.0-172.0","A2VLK57ZQ2YI28","<p style=""font-size: 48px;"">+</p>","","","","","null","allTrialResponses","500","1","18","img_art/18.jpg","35","looks like skeletons on horseback, and i love it","Cody,Adam,Lucas,Edward,Seth,Shawn","Vaguely creepy ........,-20,180,20","Colors are okay. Reminds me of cavalry.,10,40,20","White and yellow look awesome and the picture's dynamics are wonderful.,30,380,20","Reminds me of the four horsemen of the apocalypse,29,60,20","This painting reminds me of the 4 horsemen of the apocalypse. It feels haunting.,31,60,20","Evocative but cheesy.,-20,100,20","Cody","Vaguely creepy ........,-20,180,20","Adam","Colors are okay. Reminds me of cavalry.,10,40,20","Seth","This painting reminds me of the 4 horsemen of the apocalypse. It feels haunting.,31,60,20","2"
"8257","","survey-text","174","1367850","0.0-173.0-0.0","A2VLK57ZQ2YI28","","","","{""Q0"":""this is jarring, in a negative way""}","","","","","","","","","","","","","","","","","","","","","","",""
"2829.600000143051","","image-slider-response","175","1370681","0.0-174.0","A2VLK57ZQ2YI28","","","","","-36","","","","","","","","","","","","","","","","","","","","","",""
"4995","","image-button-response","176","1375684","0.0-175.0","A2VLK57ZQ2YI28","img_art/16.jpg","4","","","","","","","","","","","","","","","","","","","","","","","","",""
"638","","image-button-response","177","1376324","0.0-176.0","A2VLK57ZQ2YI28","img_art/16.jpg","3","","","","","","","","","","","","","","","","","","","","","","","","",""
"299","","image-button-response","178","1376624","0.0-177.0-0.0","A2VLK57ZQ2YI28","img_art/16.jpg","4","","","","","","","","","","","","","","","","","","","","","","","","",""
"808","","image-button-response","179","1377433","0.0-178.0-0.0","A2VLK57ZQ2YI28","img_art/16.jpg","0","","","","","","","","","","","","","","","","","","","","","","","","",""
"null","","html-keyboard-response","180","1378435","0.0-179.0","A2VLK57ZQ2YI28","<p style=""font-size: 48px;"">+</p>","","","","","null","allTrialResponses","1000","1","19","img_art/16.jpg","-36","this is jarring, in a negative way","Cody,Adam,Mark,Andrew,Seth,Colton","Kind of creepyyyyyy,-41,180,20","Hard contrast, but no emotions towards any of the objects.,-6,40,20","I think it's about child abuse. The teddy bear represents innocence and the dark shape is approaching it.,40,80,20","It just makes me feel uncomfortable,-25,160,20","This one isn't for me. It came off as strange but not in a good way.,-44,60,20","the materials used are interesting,30,220,20","Andrew","It just makes me feel uncomfortable,-25,160,20","Seth","This one isn't for me. It came off as strange but not in a good way.,-44,60,20","Cody","Kind of creepyyyyyy,-41,180,20","2"
"6882","","survey-text","181","1385320","0.0-180.0-0.0","A2VLK57ZQ2YI28","","","","{""Q0"":""this looks like scribbles""}","","","","","","","","","","","","","","","","","","","","","","",""
"1771.7999999523163","","image-slider-response","182","1387093","0.0-181.0","A2VLK57ZQ2YI28","","","","","-24","","","","","","","","","","","","","","","","","","","","","",""
"null","","image-button-response","183","1392096","0.0-182.0","A2VLK57ZQ2YI28","img_art/9.jpg","null","","","","","","","","","","","","","","","","","","","","","","","","",""
"765","","image-button-response","184","1392862","0.0-183.0","A2VLK57ZQ2YI28","img_art/9.jpg","3","","","","","","","","","","","","","","","","","","","","","","","","",""
"410","","image-button-response","185","1393274","0.0-184.0-0.0","A2VLK57ZQ2YI28","img_art/9.jpg","4","","","","","","","","","","","","","","","","","","","","","","","","",""
"330","","image-button-response","186","1393606","0.0-185.0-0.0","A2VLK57ZQ2YI28","img_art/9.jpg","5","","","","","","","","","","","","","","","","","","","","","","","","",""
"null","","html-keyboard-response","187","1394108","0.0-186.0","A2VLK57ZQ2YI28","<p style=""font-size: 48px;"">+</p>","","","","","null","allTrialResponses","500","1","20","img_art/9.jpg","-24","this looks like scribbles","Cody,Victor,Justin,Andrew,Seth,Noah","Feels angry .....,-40,180,20","The colors are okay, but this looks like someone scribbled with a crayon,1,340,20","It reminds me of an illustration for a fairy tale.,19,280,20","The peacock theme gives me negative connotations of my ex-sister-in-law,-10,160,20","I think it's sleeping beauty but I'm not sure. I didn't care for this piece.,-30,60,20","while I don't dispute the art, it feels childish,-20,260,20","Andrew","The peacock theme gives me negative connotations of my ex-sister-in-law,-10,160,20","Seth","I think it's sleeping beauty but I'm not sure. I didn't care for this piece.,-30,60,20","Noah","while I don't dispute the art, it feels childish,-20,260,20","2"
"2070","","survey-text","188","1396184","0.0-187.0-0.0","A2VLK57ZQ2YI28","","","","{""Q0"":""we""}","","","","","","","","","","","","","","","","","","","","","","",""
"7214","","survey-text","189","1403400","0.0-188.0-0.0","A2VLK57ZQ2YI28","","","","{""Q0"":""looks very serene and peaceful""}","","","","","","","","","","","","","","","","","","","","","","",""
"11352.099999904633","","image-slider-response","190","1414753","0.0-189.0","A2VLK57ZQ2YI28","","","","","31","","","","","","","","","","","","","","","","","","","","","",""
"null","","image-button-response","191","1419756","0.0-190.0","A2VLK57ZQ2YI28","img_art/6.jpg","null","","","","","","","","","","","","","","","","","","","","","","","","",""
"1050","","image-button-response","192","1420808","0.0-191.0","A2VLK57ZQ2YI28","img_art/6.jpg","1","","","","","","","","","","","","","","","","","","","","","","","","",""
"731","","image-button-response","193","1421540","0.0-192.0-0.0","A2VLK57ZQ2YI28","img_art/6.jpg","0","","","","","","","","","","","","","","","","","","","","","","","","",""
"998","","image-button-response","194","1422540","0.0-193.0-0.0","A2VLK57ZQ2YI28","img_art/6.jpg","4","","","","","","","","","","","","","","","","","","","","","","","","",""
"null","","html-keyboard-response","195","1424042","0.0-194.0","A2VLK57ZQ2YI28","<p style=""font-size: 48px;"">+</p>","","","","","null","allTrialResponses","1500","1","21","img_art/6.jpg","31","looks very serene and peaceful","Benjamin,Kenneth,Christopher,Andrew,Seth,Noah","Something very simplistic about it. The colors mesh well.,10,260,20","Simple and pretty.,18,300,20","it's interesting but I don't love it,10,160,20","Reminds me of my friend's bird,21,160,20","I love it. It reminds me of a bird sitting on a wall.,26,60,20","intrigues me - not sure what I'm seeing, but I like combination of colour and texture,21,260,20","Kenneth","Simple and pretty.,18,300,20","Benjamin","Something very simplistic about it. The colors mesh well.,10,260,20","Seth","I love it. It reminds me of a bird sitting on a wall.,26,60,20","2"
"44970","","survey-text","196","1469016","0.0-195.0-0.0","A2VLK57ZQ2YI28","","","","{""Q0"":""looks very busy and confusing""}","","","","","","","","","","","","","","","","","","","","","","",""
"1809.6000001430511","","image-slider-response","197","1470827","0.0-196.0","A2VLK57ZQ2YI28","","","","","7","","","","","","","","","","","","","","","","","","","","","",""
"null","","image-button-response","198","1475978","0.0-197.0","A2VLK57ZQ2YI28","img_art/11.jpg","null","","","","","","","","","","","","","","","","","","","","","","","","",""
"8970","","image-button-response","199","1484949","0.0-198.0","A2VLK57ZQ2YI28","img_art/11.jpg","1","","","","","","","","","","","","","","","","","","","","","","","","",""
"355","","image-button-response","200","1485305","0.0-199.0-0.0","A2VLK57ZQ2YI28","img_art/11.jpg","0","","","","","","","","","","","","","","","","","","","","","","","","",""
"1252","","image-button-response","201","1486559","0.0-200.0-0.0","A2VLK57ZQ2YI28","img_art/11.jpg","3","","","","","","","","","","","","","","","","","","","","","","","","",""
"null","","html-keyboard-response","202","1488061","0.0-201.0","A2VLK57ZQ2YI28","<p style=""font-size: 48px;"">+</p>","","","","","null","allTrialResponses","1500","1","22","img_art/11.jpg","7","looks very busy and confusing","Benjamin,Kenneth,Timothy,Alexander,Seth,Mitchell","Look like it's in constant movement.,10,260,20","Its a little psychedelic.,10,300,20","The movement in this one is extremely pleasent,40,240,20","Waves of signs.,15,120,20","It makes my head feel dizzy. So I rated it lower.,-25,60,20","Busy city life. transportation, anxiety.,10,180,20","Kenneth","Its a little psychedelic.,10,300,20","Benjamin","Look like it's in constant movement.,10,260,20","Alexander","Waves of signs.,15,120,20","2"
"7582","","survey-text","203","1495647","0.0-202.0-0.0","A2VLK57ZQ2YI28","","","","{""Q0"":""looks kinda creepy in a good way!""}","","","","","","","","","","","","","","","","","","","","","","",""
"1914.4000000953674","","image-slider-response","204","1497563","0.0-203.0","A2VLK57ZQ2YI28","","","","","29","","","","","","","","","","","","","","","","","","","","","",""
"null","","image-button-response","205","1502565","0.0-204.0","A2VLK57ZQ2YI28","img_art/25.jpg","null","","","","","","","","","","","","","","","","","","","","","","","","",""
"243","","image-button-response","206","1502809","0.0-205.0","A2VLK57ZQ2YI28","img_art/25.jpg","3","","","","","","","","","","","","","","","","","","","","","","","","",""
"439","","image-button-response","207","1503250","0.0-206.0-0.0","A2VLK57ZQ2YI28","img_art/25.jpg","4","","","","","","","","","","","","","","","","","","","","","","","","",""
"821","","image-button-response","208","1504073","0.0-207.0-0.0","A2VLK57ZQ2YI28","img_art/25.jpg","1","","","","","","","","","","","","","","","","","","","","","","","","",""
"null","","html-keyboard-response","209","1505575","0.0-208.0","A2VLK57ZQ2YI28","<p style=""font-size: 48px;"">+</p>","","","","","null","allTrialResponses","1500","1","23","img_art/25.jpg","29","looks kinda creepy in a good way!","Benjamin,Kenneth,Connor,Alexander,Daniel,Ryan","Regal. Reminds me of Egyptian art.,11,260,20","I love the color. I don't know what exactly is going on but I like it.,24,300,20","Looks like glow in the dark halloween decoration,-38,240,20","Ancient gods above you.,20,120,20","Beautiful color with an interesting otherworldly figure,29,320,20","Reminds me of Mr. Burns on drugs in the Simpsons,-50,380,20","Alexander","Ancient gods above you.,20,120,20","Daniel","Beautiful color with an interesting otherworldly figure,29,320,20","Kenneth","I love the color. I don't know what exactly is going on but I like it.,24,300,20","2"
"8158","","survey-text","210","1513737","0.0-209.0-0.0","A2VLK57ZQ2YI28","","","","{""Q0"":""looks sloppy""}","","","","","","","","","","","","","","","","","","","","","","",""
"2618.7999999523163","","image-slider-response","211","1516357","0.0-210.0","A2VLK57ZQ2YI28","","","","","-39","","","","","","","","","","","","","","","","","","","","","",""
"1805","","image-button-response","212","1521360","0.0-211.0","A2VLK57ZQ2YI28","img_art/20.jpg","0","","","","","","","","","","","","","","","","","","","","","","","","",""
"426","","image-button-response","213","1521788","0.0-212.0","A2VLK57ZQ2YI28","img_art/20.jpg","4","","","","","","","","","","","","","","","","","","","","","","","","",""
"718","","image-button-response","214","1522508","0.0-213.0-0.0","A2VLK57ZQ2YI28","img_art/20.jpg","1","","","","","","","","","","","","","","","","","","","","","","","","",""
"231","","image-button-response","215","1522741","0.0-214.0-0.0","A2VLK57ZQ2YI28","img_art/20.jpg","0","","","","","","","","","","","","","","","","","","","","","","","","",""
"null","","html-keyboard-response","216","1524242","0.0-215.0","A2VLK57ZQ2YI28","<p style=""font-size: 48px;"">+</p>","","","","","null","allTrialResponses","1500","1","24","img_art/20.jpg","-39","looks sloppy","Tanner,Kenneth,Jordan,Alexander,Daniel,Jesse","danger, car crash, stressful,-12,180,20","I want to like this more, but i wish it was more detailed. It's hard for me to see what it is.,5,300,20","A mountain vacation,46,160,20","The beach and industry.,12,120,20","Fails to capture what similar styles do,-12,320,20","I do at least like the dark colors blending,6,80,20","Daniel","Fails to capture what similar styles do,-12,320,20","Kenneth","I want to like this more, but i wish it was more detailed. It's hard for me to see what it is.,5,300,20","Tanner","danger, car crash, stressful,-12,180,20","2"
"6941","","survey-text","217","1531187","0.0-216.0-0.0","A2VLK57ZQ2YI28","","","","{""Q0"":""looks gross and confusing""}","","","","","","","","","","","","","","","","","","","","","","",""
"1956.2999999523163","","image-slider-response","218","1533145","0.0-217.0","A2VLK57ZQ2YI28","","","","","-45","","","","","","","","","","","","","","","","","","","","","",""
"null","","image-button-response","219","1538148","0.0-218.0","A2VLK57ZQ2YI28","img_art/13.jpg","null","","","","","","","","","","","","","","","","","","","","","","","","",""
"605","","image-button-response","220","1538755","0.0-219.0","A2VLK57ZQ2YI28","img_art/13.jpg","3","","","","","","","","","","","","","","","","","","","","","","","","",""
"295","","image-button-response","221","1539051","0.0-220.0-0.0","A2VLK57ZQ2YI28","img_art/13.jpg","4","","","","","","","","","","","","","","","","","","","","","","","","",""
"909","","image-button-response","222","1539961","0.0-221.0-0.0","A2VLK57ZQ2YI28","img_art/13.jpg","2","","","","","","","","","","","","","","","","","","","","","","","","",""
"null","","html-keyboard-response","223","1541463","0.0-222.0","A2VLK57ZQ2YI28","<p style=""font-size: 48px;"">+</p>","","","","","null","allTrialResponses","1500","1","25","img_art/13.jpg","-45","looks gross and confusing","Tanner,Kenneth,Carlos,Jorge,Daniel,Bradley","happy, serenity,30,180,20","I would hang this photo in my room.,21,300,20","Rain on a cold window.,22,80,20","It reminds me of rain,11,180,20","Average overly symmetrical safe,-26,320,20","I like the colors used in this piece.,2,300,20","Jorge","It reminds me of rain,11,180,20","Daniel","Average overly symmetrical safe,-26,320,20","Carlos","Rain on a cold window.,22,80,20","2"
"2572","","survey-text","224","1544042","0.0-223.0-0.0","A2VLK57ZQ2YI28","","","","{""Q0"":""table""}","","","","","","","","","","","","","","","","","","","","","","",""
"8682","","survey-text","225","1552726","0.0-224.0-0.0","A2VLK57ZQ2YI28","","","","{""Q0"":""looks like an aerial shot of mars, i love it""}","","","","","","","","","","","","","","","","","","","","","","",""
"1490.3999998569489","","image-slider-response","226","1554218","0.0-225.0","A2VLK57ZQ2YI28","","","","","43","","","","","","","","","","","","","","","","","","","","","",""
"null","","image-button-response","227","1559220","0.0-226.0","A2VLK57ZQ2YI28","img_art/7.jpg","null","","","","","","","","","","","","","","","","","","","","","","","","",""
"2857","","image-button-response","228","1562078","0.0-227.0","A2VLK57ZQ2YI28","img_art/7.jpg","4","","","","","","","","","","","","","","","","","","","","","","","","",""
"584","","image-button-response","229","1562664","0.0-228.0-0.0","A2VLK57ZQ2YI28","img_art/7.jpg","3","","","","","","","","","","","","","","","","","","","","","","","","",""
"520","","image-button-response","230","1563186","0.0-229.0-0.0","A2VLK57ZQ2YI28","img_art/7.jpg","5","","","","","","","","","","","","","","","","","","","","","","","","",""
"null","","html-keyboard-response","231","1563687","0.0-230.0","A2VLK57ZQ2YI28","<p style=""font-size: 48px;"">+</p>","","","","","null","allTrialResponses","500","1","26","img_art/7.jpg","43","looks like an aerial shot of mars, i love it","Kyle,Stephen,Carlos,Jorge,Daniel,Jesus","It just reminds me of dirt,-10,340,20","Nice realistic feel but nothing stands out.,4,140,20","The dried bottom of a puddle in July.,-41,80,20","time and change,1,180,20","Great portrayal of solid surface,19,320,20","Is simple in color and texture,11,100,20","Daniel","Great portrayal of solid surface,19,320,20","Jorge","time and change,1,180,20","Jesus","Is simple in color and texture,11,100,20","2"
"6289","","survey-text","232","1569980","0.0-231.0-0.0","A2VLK57ZQ2YI28","","","","{""Q0"":""looks like a storm coming in""}","","","","","","","","","","","","","","","","","","","","","","",""
"1580.5999999046326","","image-slider-response","233","1571562","0.0-232.0","A2VLK57ZQ2YI28","","","","","14","","","","","","","","","","","","","","","","","","","","","",""
"null","","image-button-response","234","1576564","0.0-233.0","A2VLK57ZQ2YI28","img_art/21.jpg","null","","","","","","","","","","","","","","","","","","","","","","","","",""
"164166","","image-button-response","235","1740732","0.0-234.0","A2VLK57ZQ2YI28","img_art/21.jpg","3","","","","","","","","","","","","","","","","","","","","","","","","",""
"333","","image-button-response","236","1741067","0.0-235.0-0.0","A2VLK57ZQ2YI28","img_art/21.jpg","4","","","","","","","","","","","","","","","","","","","","","","","","",""
"399","","image-button-response","237","1741467","0.0-236.0-0.0","A2VLK57ZQ2YI28","img_art/21.jpg","5","","","","","","","","","","","","","","","","","","","","","","","","",""
"null","","html-keyboard-response","238","1741969","0.0-237.0","A2VLK57ZQ2YI28","<p style=""font-size: 48px;"">+</p>","","","","","null","allTrialResponses","500","1","27","img_art/21.jpg","14","looks like a storm coming in","Kevin,Nathan,Taylor,Jorge,Daniel,Jesus","Another ship on fire.,-10,320,20","I like it. It's some of war-scene, bloodshed and battle on the left, field of dispair on the right, dark and rich,40,200,20","Remove the rocks(?) on the lower right.,5,200,20","mythical between good and evil,16,180,20","Nice asymmetry with maritime colors city meets the sea,34,320,20","The shapes and colors are very interesting to look at.,41,100,20","Jorge","mythical between good and evil,16,180,20","Daniel","Nice asymmetry with maritime colors city meets the sea,34,320,20","Jesus","The shapes and colors are very interesting to look at.,41,100,20","2"
"11186","","survey-text","239","1753160","0.0-238.0-0.0","A2VLK57ZQ2YI28","","","","{""Q0"":""looks like ships in battle, kind of cool""}","","","","","","","","","","","","","","","","","","","","","","",""
"216503.79999995232","","image-slider-response","240","1969665","0.0-239.0","A2VLK57ZQ2YI28","","","","","7","","","","","","","","","","","","","","","","","","","","","",""
"null","","image-button-response","241","1974668","0.0-240.0","A2VLK57ZQ2YI28","img_art/10.jpg","null","","","","","","","","","","","","","","","","","","","","","","","","",""
"1828","","image-button-response","242","1976497","0.0-241.0","A2VLK57ZQ2YI28","img_art/10.jpg","4","","","","","","","","","","","","","","","","","","","","","","","","",""
"306","","image-button-response","243","1976805","0.0-242.0-0.0","A2VLK57ZQ2YI28","img_art/10.jpg","3","","","","","","","","","","","","","","","","","","","","","","","","",""
"521","","image-button-response","244","1977327","0.0-243.0-0.0","A2VLK57ZQ2YI28","img_art/10.jpg","5","","","","","","","","","","","","","","","","","","","","","","","","",""
"null","","html-keyboard-response","245","1978828","0.0-244.0","A2VLK57ZQ2YI28","<p style=""font-size: 48px;"">+</p>","","","","","null","allTrialResponses","1500","1","28","img_art/10.jpg","7","looks like ships in battle, kind of cool","Bryce,Vincent,Garrett,Jorge,Daniel,Jesus","Kinda creepy not my favorite,-26,20,20","A very conversational piece could be of many different ideas,38,360,20","I can't tell what this picture is supposed to mean and I think the colors are lacking variety.,-42,180,20","cultural with a symphony,40,180,20","Music visualized with subtle color,17,320,20","The design is very fluid and fun to interpret,35,100,20","Daniel","Music visualized with subtle color,17,320,20","Jorge","cultural with a symphony,40,180,20","Jesus","The design is very fluid and fun to interpret,35,100,20","2"
"7482","","survey-text","246","1986315","0.0-245.0-0.0","A2VLK57ZQ2YI28","","","","{""Q0"":""looks like a lot of people standing in a line""}","","","","","","","","","","","","","","","","","","","","","","",""
"2664.5999999046326","","image-slider-response","247","1988981","0.0-246.0","A2VLK57ZQ2YI28","","","","","8","","","","","","","","","","","","","","","","","","","","","",""
"null","","image-button-response","248","1993984","0.0-247.0","A2VLK57ZQ2YI28","img_art/23.jpg","null","","","","","","","","","","","","","","","","","","","","","","","","",""
"134","","image-button-response","249","1994120","0.0-248.0","A2VLK57ZQ2YI28","img_art/23.jpg","2","","","","","","","","","","","","","","","","","","","","","","","","",""
"356","","image-button-response","250","1994477","0.0-249.0-0.0","A2VLK57ZQ2YI28","img_art/23.jpg","1","","","","","","","","","","","","","","","","","","","","","","","","",""
"253","","image-button-response","251","1994732","0.0-250.0-0.0","A2VLK57ZQ2YI28","img_art/23.jpg","0","","","","","","","","","","","","","","","","","","","","","","","","",""
"null","","html-keyboard-response","252","1995734","0.0-251.0","A2VLK57ZQ2YI28","<p style=""font-size: 48px;"">+</p>","","","","","null","allTrialResponses","1000","1","29","img_art/23.jpg","8","looks like a lot of people standing in a line","Antonio,Dalton,Ian,Jorge,Daniel,Jesus","Like the colors and made me feel happy,23,220,20","illegible wording with a graffiti background,1,300,20","It's very colorful and different, the white looks like people dancing,26,260,20","puzzled with curiosity,31,180,20","Too busy with color with warrior lineup,0,320,20","The usage of color is great, but not my style.,-15,100,20","Ian","It's very colorful and different, the white looks like people dancing,26,260,20","Dalton","illegible wording with a graffiti background,1,300,20","Antonio","Like the colors and made me feel happy,23,220,20","2"
"6244","","survey-text","253","2001982","0.0-252.0-0.0","A2VLK57ZQ2YI28","","","","{""Q0"":""lots of scribbles, very unappealing""}","","","","","","","","","","","","","","","","","","","","","","",""
"2199.800000190735","","image-slider-response","254","2004184","0.0-253.0","A2VLK57ZQ2YI28","","","","","-32","","","","","","","","","","","","","","","","","","","","","",""
"null","","image-button-response","255","2009186","0.0-254.0","A2VLK57ZQ2YI28","img_art/3.jpg","null","","","","","","","","","","","","","","","","","","","","","","","","",""
"1398","","image-button-response","256","2010586","0.0-255.0","A2VLK57ZQ2YI28","img_art/3.jpg","4","","","","","","","","","","","","","","","","","","","","","","","","",""
"1244","","image-button-response","257","2011832","0.0-256.0-0.0","A2VLK57ZQ2YI28","img_art/3.jpg","5","","","","","","","","","","","","","","","","","","","","","","","","",""
"294","","image-button-response","258","2012127","0.0-257.0-0.0","A2VLK57ZQ2YI28","img_art/3.jpg","3","","","","","","","","","","","","","","","","","","","","","","","","",""
"null","","html-keyboard-response","259","2012629","0.0-258.0","A2VLK57ZQ2YI28","<p style=""font-size: 48px;"">+</p>","","","","","null","allTrialResponses","500","1","30","img_art/3.jpg","-32","lots of scribbles, very unappealing","Antonio,Dalton,Ian,Tristan,Chase,Angel","The red makes me think of blood which makes me think of pain,-50,220,20","Blood splatter and one black spot.,1,300,20","It just makes me think of blood splattered everywhere.,-31,260,20","i like the colors particulairly the contrast of foreground to background. Exciting and thoughtful.,10,300,20","Looks like a bloody head with teeth.,-16,120,20","This gives me a negative feeling, like someone trying to scratch out their flaws. I see low self-esteem.,-20,180,20","Chase","Looks like a bloody head with teeth.,-16,120,20","Angel","This gives me a negative feeling, like someone trying to scratch out their flaws. I see low self-esteem.,-20,180,20","Tristan","i like the colors particulairly the contrast of foreground to background. Exciting and thoughtful.,10,300,20","2"
"1641","","image-button-response_instructions","260","2014275","0.0-259.0","A2VLK57ZQ2YI28","","0","instructions","","","","","","","","","","","","","","","","","","","","","","","",""
"1325","","image-button-response","261","2015606","0.0-260.0","A2VLK57ZQ2YI28","","0","","","","","","","","","","","","","","","","","","","","","","","","",""
