"rt","url","trial_type","trial_index","time_elapsed","internal_node_id","participant_id","stimulus","button_pressed","Name","responses","response","key_press","variableName","fixationTime","condition","trial","photo","subjectRating","subjectResponse","agentsNames","agent_1_Response","agent_2_Response","agent_3_Response","agent_4_Response","agent_5_Response","agent_6_Response","kept_1_name","kept_1_response","kept_2_name","kept_2_response","kept_3_name","kept_3_response","errorCounter"
"14749","external_page_harvard.html","external-html","0","14970","0.0-0.0","A2VNSNAN1LZBAM","","","","","","","","","","","","","","","","","","","","","","","","","","",""
"1761","","image-button-response","1","16736","0.0-1.0","A2VNSNAN1LZBAM","","1","","","","","","","","","","","","","","","","","","","","","","","","",""
"2397","","image-button-response","2","19142","0.0-2.0-0.0","A2VNSNAN1LZBAM","","1","phone","","","","","","","","","","","","","","","","","","","","","","","",""
"7730","","survey-text","3","26874","0.0-3.0-0.0","A2VNSNAN1LZBAM","","","","{""Q0"":""A2VNSNAN1LZBAM""}","","","","","","","","","","","","","","","","","","","","","","",""
"8081","","image-button-response_instructions","4","34959","0.0-4.0","A2VNSNAN1LZBAM","","0","instructions","","","","","","","","","","","","","","","","","","","","","","","",""
"19438","","image-button-response_instructions","5","54400","0.0-5.0","A2VNSNAN1LZBAM","img_art/ins/popularity/ins1.png","0","instructions","","","","","","","","","","","","","","","","","","","","","","","",""
"4116","","image-button-response_instructions","6","58518","0.0-6.0","A2VNSNAN1LZBAM","img_art/ins/popularity/ins2.png","0","instructions","","","","","","","","","","","","","","","","","","","","","","","",""
"8160","","image-button-response_instructions","7","66681","0.0-7.0","A2VNSNAN1LZBAM","img_art/ins/popularity/ins2Extreme.png","0","instructions","","","","","","","","","","","","","","","","","","","","","","","",""
"19789","","image-button-response_instructions","8","86472","0.0-8.0","A2VNSNAN1LZBAM","img_art/ins/popularity/ins3KEEPpop.PNG","0","instructions","","","","","","","","","","","","","","","","","","","","","","","",""
"3923","","image-button-response_instructions","9","90398","0.0-9.0","A2VNSNAN1LZBAM","img_art/ins/popularity/ins3ANamepop.PNG","0","instructions","","","","","","","","","","","","","","","","","","","","","","","",""
"2597","","image-button-response_instructions","10","92997","0.0-10.0","A2VNSNAN1LZBAM","img_art/ins/popularity/ins3ARatingpop.png","0","instructions","","","","","","","","","","","","","","","","","","","","","","","",""
"3085","","image-button-response_instructions","11","96083","0.0-11.0","A2VNSNAN1LZBAM","img_art/ins/popularity/ins3ATextpop.png","0","instructions","","","","","","","","","","","","","","","","","","","","","","","",""
"6587","","image-button-response_instructions","12","102672","0.0-12.0","A2VNSNAN1LZBAM","img_art/ins/popularity/ins3ALikespop.png","0","instructions","","","","","","","","","","","","","","","","","","","","","","","",""
"12248","","image-button-response_instructions","13","114922","0.0-13.0","A2VNSNAN1LZBAM","img_art/ins/popularity/ins3KEEPpop.PNG","0","instructions","","","","","","","","","","","","","","","","","","","","","","","",""
"10121","","image-button-response_instructions","14","125045","0.0-14.0","A2VNSNAN1LZBAM","img_art/ins/popularity/ins3_5RED.png","0","instructions","","","","","","","","","","","","","","","","","","","","","","","",""
"3860","","image-button-response_instructions","15","128907","0.0-15.0","A2VNSNAN1LZBAM","img_art/ins/popularity/ins3KEEPpop.PNG","0","instructions","","","","","","","","","","","","","","","","","","","","","","","",""
"11840","","image-button-response_instructions","16","140750","0.0-16.0","A2VNSNAN1LZBAM","img_art/ins/popularity/ins4KEEPpop.PNG","0","instructions","","","","","","","","","","","","","","","","","","","","","","","",""
"6811","","image-button-response_instructions","17","147563","0.0-17.0","A2VNSNAN1LZBAM","img_art/ins/popularity/ins5KEEPpop.PNG","0","instructions","","","","","","","","","","","","","","","","","","","","","","","",""
"2013","","image-button-response_instructions","18","149578","0.0-18.0","A2VNSNAN1LZBAM","","0","instructions","","","","","","","","","","","","","","","","","","","","","","","",""
"10215","","survey-text","19","159845","0.0-19.0-0.0","A2VNSNAN1LZBAM","","","","{""Q0"":""but""}","","","","","","","","","","","","","","","","","","","","","","",""
"24043","","survey-text","20","183890","0.0-20.0-0.0","A2VNSNAN1LZBAM","","","","{""Q0"":""I don't understand this painting and don't find it attractive.""}","","","","","","","","","","","","","","","","","","","","","","",""
"14677.199999928474","","image-slider-response","21","198572","0.0-21.0","A2VNSNAN1LZBAM","","","","","-40","","","","","","","","","","","","","","","","","","","","","",""
"null","","image-button-response","22","203577","0.0-22.0","A2VNSNAN1LZBAM","img_art/ins/1.jpg","null","","","","","","","","","","","","","","","","","","","","","","","","",""
"118","","image-button-response","23","203698","0.0-23.0","A2VNSNAN1LZBAM","img_art/ins/1.jpg","1","","","","","","","","","","","","","","","","","","","","","","","","",""
"5026","","image-button-response","24","208727","0.0-24.0-0.0","A2VNSNAN1LZBAM","img_art/ins/1.jpg","3","","","","","","","","","","","","","","","","","","","","","","","","",""
"6154","","image-button-response","25","214885","0.0-25.0-0.0","A2VNSNAN1LZBAM","img_art/ins/1.jpg","5","","","","","","","","","","","","","","","","","","","","","","","","",""
"null","","html-keyboard-response","26","215888","0.0-26.0","A2VNSNAN1LZBAM","<p style=""font-size: 48px;"">+</p>","","","","","null","allTrialResponses","1000","1","-2","img_art/ins/1.jpg","-40","I don't understand this painting and don't find it attractive.","Allison,Ashley,Beth,Dora,Erika,Jen","looks like a lot of things going on in the mist,20,20,20","I just don't get why these type of art would be popular,-32,40,20","This color reminds me of poo,-46,60,20","looks like what my niece in 3rd grade did this afternoon,-50,80,20","I like the sophisticated brushwork,40,100,20","It reminds me of a candy land dream I had,36,120,20","Ashley","I just don't get why these type of art would be popular,-32,40,20","Dora","looks like what my niece in 3rd grade did this afternoon,-50,80,20","Jen","It reminds me of a candy land dream I had,36,120,20","0"
"25650","","survey-text","27","241544","0.0-27.0-0.0","A2VNSNAN1LZBAM","","","","{""Q0"":""It reminds me a city block with lots of building.""}","","","","","","","","","","","","","","","","","","","","","","",""
"14266.400000095367","","image-slider-response","28","255816","0.0-28.0","A2VNSNAN1LZBAM","","","","","-20","","","","","","","","","","","","","","","","","","","","","",""
"null","","image-button-response","29","260821","0.0-29.0","A2VNSNAN1LZBAM","img_art/ins/2.jpg","null","","","","","","","","","","","","","","","","","","","","","","","","",""
"3150","","image-button-response","30","263975","0.0-30.0","A2VNSNAN1LZBAM","img_art/ins/2.jpg","4","","","","","","","","","","","","","","","","","","","","","","","","",""
"6761","","image-button-response","31","270739","0.0-31.0-0.0","A2VNSNAN1LZBAM","img_art/ins/2.jpg","5","","","","","","","","","","","","","","","","","","","","","","","","",""
"2387","","image-button-response","32","273130","0.0-32.0-0.0","A2VNSNAN1LZBAM","img_art/ins/2.jpg","3","","","","","","","","","","","","","","","","","","","","","","","","",""
"null","","html-keyboard-response","33","273633","0.0-33.0","A2VNSNAN1LZBAM","<p style=""font-size: 48px;"">+</p>","","","","","null","allTrialResponses","500","1","-1","img_art/ins/2.jpg","-20","It reminds me a city block with lots of building.","Jenna,Ashley,Katie,Dora,Kara,Jen","One of my pet peevs,-48,140,20","Idk, it is just annoying,-32,40,20","too much color!,-28,180,20","looks too angry,-50,80,20","I like the blocks of color arrangements,30,160,20","It reminds me of a fireplace,36,120,20","Kara","I like the blocks of color arrangements,30,160,20","Jen","It reminds me of a fireplace,36,120,20","Dora","looks too angry,-50,80,20","0"
"25711","","survey-text","34","299350","0.0-34.0-0.0","A2VNSNAN1LZBAM","","","","{""Q0"":""I'm thinking this looks like some kind of ice sculpture.""}","","","","","","","","","","","","","","","","","","","","","","",""
"11071.399999976158","","image-slider-response","35","310424","0.0-35.0","A2VNSNAN1LZBAM","","","","","18","","","","","","","","","","","","","","","","","","","","","",""
"null","","image-button-response","36","315430","0.0-36.0","A2VNSNAN1LZBAM","img_art/ins/3.jpg","null","","","","","","","","","","","","","","","","","","","","","","","","",""
"2459","","image-button-response","37","317892","0.0-37.0","A2VNSNAN1LZBAM","img_art/ins/3.jpg","4","","","","","","","","","","","","","","","","","","","","","","","","",""
"1278","","image-button-response","38","319173","0.0-38.0-0.0","A2VNSNAN1LZBAM","img_art/ins/3.jpg","5","","","","","","","","","","","","","","","","","","","","","","","","",""
"2306","","image-button-response","39","321483","0.0-39.0-0.0","A2VNSNAN1LZBAM","img_art/ins/3.jpg","2","","","","","","","","","","","","","","","","","","","","","","","","",""
"null","","html-keyboard-response","40","321986","0.0-40.0","A2VNSNAN1LZBAM","<p style=""font-size: 48px;"">+</p>","","","","","null","allTrialResponses","500","1","0","img_art/ins/3.jpg","18","I'm thinking this looks like some kind of ice sculpture.","Leslie,Rose,Mary,Dora,Kara,Jen","It's an alright work,15,200,20","My daily routine, it's depressing,-20,240,20","I like the overlapping of brushes,41,220,20","My worst nightmare,-42,80,20","calming blue is very nice,36,160,20","I can feel a rainy day from this painting,18,120,20","Kara","calming blue is very nice,36,160,20","Jen","I can feel a rainy day from this painting,18,120,20","Mary","I like the overlapping of brushes,41,220,20","0"
"5580","","image-button-response_instructions","41","327576","0.0-41.0","A2VNSNAN1LZBAM","","0","instructions","","","","","","","","","","","","","","","","","","","","","","","",""
"9953","","survey-likert","42","337532","0.0-42.0-0.0","A2VNSNAN1LZBAM","","","","{""Q0"":"""",""Q1"":0,""Q2"":1}","","","","","","","","","","","","","","","","","","","","","","",""
"4844","","survey-text","43","342385","0.0-43.0-0.0","A2VNSNAN1LZBAM","","","","{""Q0"":""rock""}","","","","","","","","","","","","","","","","","","","","","","",""
"13151","","survey-text","44","355539","0.0-44.0-0.0","A2VNSNAN1LZBAM","","","","{""Q0"":""Boring and ugly.""}","","","","","","","","","","","","","","","","","","","","","","",""
"3035.3000000715256","","image-slider-response","45","358577","0.0-45.0","A2VNSNAN1LZBAM","","","","","-50","","","","","","","","","","","","","","","","","","","","","",""
"null","","image-button-response","46","363621","0.0-46.0","A2VNSNAN1LZBAM","img_art/1.jpg","null","","","","","","","","","","","","","","","","","","","","","","","","",""
"7452","","image-button-response","47","371077","0.0-47.0","A2VNSNAN1LZBAM","img_art/1.jpg","0","","","","","","","","","","","","","","","","","","","","","","","","",""
"4555","","image-button-response","48","375635","0.0-48.0-0.0","A2VNSNAN1LZBAM","img_art/1.jpg","3","","","","","","","","","","","","","","","","","","","","","","","","",""
"2498","","image-button-response","49","378137","0.0-49.0-0.0","A2VNSNAN1LZBAM","img_art/1.jpg","5","","","","","","","","","","","","","","","","","","","","","","","","",""
"null","","html-keyboard-response","50","379140","0.0-50.0","A2VNSNAN1LZBAM","<p style=""font-size: 48px;"">+</p>","","","","","null","allTrialResponses","1000","1","1","img_art/1.jpg","-50","Boring and ugly.","Olivia,Brianna,Angela,Mackenzie,Dominique,Alexa","feels like there is meaning,9,40,20","It's very colorful, and I like it,11,20,20","Like the colors very much, and this piece makes me feel peaceful.,29,260,20","I like the simple aspect to the design,21,20,20","I love the detail and colors like a beautiful autumn day,35,400,20","The blend of colors are gorgeous and reminds me of fall,32,40,20","Olivia","feels like there is meaning,9,40,20","Mackenzie","I like the simple aspect to the design,21,20,20","Alexa","The blend of colors are gorgeous and reminds me of fall,32,40,20","0"
"25546","","survey-text","51","404692","0.0-51.0-0.0","A2VNSNAN1LZBAM","","","","{""Q0"":""A scribble like this is considered art??""}","","","","","","","","","","","","","","","","","","","","","","",""
"8569.399999976158","","image-slider-response","52","413264","0.0-52.0","A2VNSNAN1LZBAM","","","","","-42","","","","","","","","","","","","","","","","","","","","","",""
"null","","image-button-response","53","418269","0.0-53.0","A2VNSNAN1LZBAM","img_art/3.jpg","null","","","","","","","","","","","","","","","","","","","","","","","","",""
"951","","image-button-response","54","419222","0.0-54.0","A2VNSNAN1LZBAM","img_art/3.jpg","1","","","","","","","","","","","","","","","","","","","","","","","","",""
"4532","","image-button-response","55","423756","0.0-55.0-0.0","A2VNSNAN1LZBAM","img_art/3.jpg","5","","","","","","","","","","","","","","","","","","","","","","","","",""
"1066","","image-button-response","56","424827","0.0-56.0-0.0","A2VNSNAN1LZBAM","img_art/3.jpg","0","","","","","","","","","","","","","","","","","","","","","","","","",""
"null","","html-keyboard-response","57","425829","0.0-57.0","A2VNSNAN1LZBAM","<p style=""font-size: 48px;"">+</p>","","","","","null","allTrialResponses","1000","1","2","img_art/3.jpg","-42","A scribble like this is considered art??","Olivia,Lindsey,Grace,Mackenzie,Katelyn,Alexa","confusing taking over,-15,40,20","Angry red crayons, like a child throwing a tantrum. No thanks.,-10,400,20","Just no. I love red but this looks like blood splatter on a wall from a horrific killing.,-45,180,20","I like the simplicity of it.,20,20,20","No substance or feeling to it,-20,100,20","Looks messy and too much for my eyes,-35,40,20","Lindsey","Angry red crayons, like a child throwing a tantrum. No thanks.,-10,400,20","Alexa","Looks messy and too much for my eyes,-35,40,20","Olivia","confusing taking over,-15,40,20","0"
"23589","","survey-text","58","449424","0.0-58.0-0.0","A2VNSNAN1LZBAM","","","","{""Q0"":""This could be a tree or some kind of landscape.""}","","","","","","","","","","","","","","","","","","","","","","",""
"5585.899999976158","","image-slider-response","59","455014","0.0-59.0","A2VNSNAN1LZBAM","","","","","-8","","","","","","","","","","","","","","","","","","","","","",""
"null","","image-button-response","60","460018","0.0-60.0","A2VNSNAN1LZBAM","img_art/14.jpg","null","","","","","","","","","","","","","","","","","","","","","","","","",""
"607","","image-button-response","61","460628","0.0-61.0","A2VNSNAN1LZBAM","img_art/14.jpg","2","","","","","","","","","","","","","","","","","","","","","","","","",""
"4034","","image-button-response","62","464665","0.0-62.0-0.0","A2VNSNAN1LZBAM","img_art/14.jpg","4","","","","","","","","","","","","","","","","","","","","","","","","",""
"1468","","image-button-response","63","466136","0.0-63.0-0.0","A2VNSNAN1LZBAM","img_art/14.jpg","0","","","","","","","","","","","","","","","","","","","","","","","","",""
"null","","html-keyboard-response","64","467654","0.0-64.0","A2VNSNAN1LZBAM","<p style=""font-size: 48px;"">+</p>","","","","","null","allTrialResponses","1500","1","3","img_art/14.jpg","-8","This could be a tree or some kind of landscape.","Olivia,Lindsey,Madison,Shannon,Cynthia,Alexa","tree of life brings hope,7,40,20","Warm, positive, growth.,8,400,20","No strong feelings either direction.,-4,60,20","I like this picture because it looks like a tree and the colors used look cool.,20,220,20","unsure and dull feeling,-1,320,20","Very abstract and colorful,40,40,20","Madison","No strong feelings either direction.,-4,60,20","Cynthia","unsure and dull feeling,-1,320,20","Olivia","tree of life brings hope,7,40,20","0"
"16381","","survey-text","65","484048","0.0-65.0-0.0","A2VNSNAN1LZBAM","","","","{""Q0"":""What? What the heck is this? ""}","","","","","","","","","","","","","","","","","","","","","","",""
"3619.899999976158","","image-slider-response","66","487671","0.0-66.0","A2VNSNAN1LZBAM","","","","","-50","","","","","","","","","","","","","","","","","","","","","",""
"4376","","image-button-response","67","492676","0.0-67.0","A2VNSNAN1LZBAM","img_art/5.jpg","3","","","","","","","","","","","","","","","","","","","","","","","","",""
"2110","","image-button-response","68","494788","0.0-68.0","A2VNSNAN1LZBAM","img_art/5.jpg","1","","","","","","","","","","","","","","","","","","","","","","","","",""
"3322","","image-button-response","69","498114","0.0-69.0-0.0","A2VNSNAN1LZBAM","img_art/5.jpg","3","","","","","","","","","","","","","","","","","","","","","","","","",""
"2876","","image-button-response","70","500993","0.0-70.0-0.0","A2VNSNAN1LZBAM","img_art/5.jpg","4","","","","","","","","","","","","","","","","","","","","","","","","",""
"null","","html-keyboard-response","71","501496","0.0-71.0","A2VNSNAN1LZBAM","<p style=""font-size: 48px;"">+</p>","","","","","null","allTrialResponses","500","1","4","img_art/5.jpg","-50","What? What the heck is this? ","Olivia,Sara,Madison,Bailey,Cynthia,Jasmine","a brush in time,-14,40,20","It looks random,-10,160,20","Bright and luminous,31,60,20","Not sure what that even is. Looks like a 2-year old drawing,-40,360,20","boring and unsure,-25,320,20","Not sure what to say about this piece honestly. It's okay I guess.,0,340,20","Sara","It looks random,-10,160,20","Bailey","Not sure what that even is. Looks like a 2-year old drawing,-40,360,20","Cynthia","boring and unsure,-25,320,20","0"
"18881","","survey-text","72","520383","0.0-72.0-0.0","A2VNSNAN1LZBAM","","","","{""Q0"":""The first thing I see is a person smiling.""}","","","","","","","","","","","","","","","","","","","","","","",""
"4292","","image-slider-response","73","524678","0.0-73.0","A2VNSNAN1LZBAM","","","","","7","","","","","","","","","","","","","","","","","","","","","",""
"null","","image-button-response","74","529682","0.0-74.0","A2VNSNAN1LZBAM","img_art/2.jpg","null","","","","","","","","","","","","","","","","","","","","","","","","",""
"3837","","image-button-response","75","533522","0.0-75.0","A2VNSNAN1LZBAM","img_art/2.jpg","0","","","","","","","","","","","","","","","","","","","","","","","","",""
"3451","","image-button-response","76","536976","0.0-76.0-0.0","A2VNSNAN1LZBAM","img_art/2.jpg","2","","","","","","","","","","","","","","","","","","","","","","","","",""
"4714","","image-button-response","77","541694","0.0-77.0-0.0","A2VNSNAN1LZBAM","img_art/2.jpg","4","","","","","","","","","","","","","","","","","","","","","","","","",""
"null","","html-keyboard-response","78","542209","0.0-78.0","A2VNSNAN1LZBAM","<p style=""font-size: 48px;"">+</p>","","","","","null","allTrialResponses","500","1","5","img_art/2.jpg","7","The first thing I see is a person smiling.","Meghan,Sara,Victoria,Bailey,Cynthia,Leah","looks like a child's artwork,-40,220,20","Dark tone feels sad,-30,160,20","I like the colors,22,400,20","Too gloopy and unfocused,-38,360,20","Confused and disoriented,-33,320,20","Kind of looks upside down, I need a focal point,-29,360,20","Meghan","looks like a child's artwork,-40,220,20","Victoria","I like the colors,22,400,20","Cynthia","Confused and disoriented,-33,320,20","0"
"4989","","survey-text","79","547210","0.0-79.0-0.0","A2VNSNAN1LZBAM","","","","{""Q0"":""sky""}","","","","","","","","","","","","","","","","","","","","","","",""
"16038","","survey-text","80","563251","0.0-80.0-0.0","A2VNSNAN1LZBAM","","","","{""Q0"":""Too depressing. The color is nice though.""}","","","","","","","","","","","","","","","","","","","","","","",""
"4195.299999952316","","image-slider-response","81","567450","0.0-81.0","A2VNSNAN1LZBAM","","","","","-30","","","","","","","","","","","","","","","","","","","","","",""
"2195","","image-button-response","82","572454","0.0-82.0","A2VNSNAN1LZBAM","img_art/25.jpg","0","","","","","","","","","","","","","","","","","","","","","","","","",""
"917","","image-button-response","83","573374","0.0-83.0","A2VNSNAN1LZBAM","img_art/25.jpg","0","","","","","","","","","","","","","","","","","","","","","","","","",""
"2788","","image-button-response","84","576166","0.0-84.0-0.0","A2VNSNAN1LZBAM","img_art/25.jpg","2","","","","","","","","","","","","","","","","","","","","","","","","",""
"2491","","image-button-response","85","578661","0.0-85.0-0.0","A2VNSNAN1LZBAM","img_art/25.jpg","5","","","","","","","","","","","","","","","","","","","","","","","","",""
"null","","html-keyboard-response","86","579664","0.0-86.0","A2VNSNAN1LZBAM","<p style=""font-size: 48px;"">+</p>","","","","","null","allTrialResponses","1000","1","6","img_art/25.jpg","-30","Too depressing. The color is nice though.","Meghan,Danielle,Victoria,Molly,Cynthia,Kaylee","reminds me of a zombie,-36,220,20","I like it, a bit cryptic and obscene, I enjoy that,30,340,20","makes me think of a scary movie,-20,400,20","Well-designed, interesting.,30,340,20","Somewhat feel protected by a messenger,33,320,20","is this an ancient woman?,-16,200,20","Meghan","reminds me of a zombie,-36,220,20","Victoria","makes me think of a scary movie,-20,400,20","Kaylee","is this an ancient woman?,-16,200,20","0"
"19900","","survey-text","87","599570","0.0-87.0-0.0","A2VNSNAN1LZBAM","","","","{""Q0"":""Looks like a mix of collage and painting.""}","","","","","","","","","","","","","","","","","","","","","","",""
"4194.299999952316","","image-slider-response","88","603768","0.0-88.0","A2VNSNAN1LZBAM","","","","","7","","","","","","","","","","","","","","","","","","","","","",""
"null","","image-button-response","89","608786","0.0-89.0","A2VNSNAN1LZBAM","img_art/16.jpg","null","","","","","","","","","","","","","","","","","","","","","","","","",""
"602","","image-button-response","90","609391","0.0-90.0","A2VNSNAN1LZBAM","img_art/16.jpg","2","","","","","","","","","","","","","","","","","","","","","","","","",""
"4309","","image-button-response","91","613703","0.0-91.0-0.0","A2VNSNAN1LZBAM","img_art/16.jpg","5","","","","","","","","","","","","","","","","","","","","","","","","",""
"9325","","image-button-response","92","623032","0.0-92.0-0.0","A2VNSNAN1LZBAM","img_art/16.jpg","3","","","","","","","","","","","","","","","","","","","","","","","","",""
"null","","html-keyboard-response","93","624035","0.0-93.0","A2VNSNAN1LZBAM","<p style=""font-size: 48px;"">+</p>","","","","","null","allTrialResponses","1000","1","7","img_art/16.jpg","7","Looks like a mix of collage and painting.","Meghan,Vanessa,Victoria,Chelsea,Christina,Kaylee","feels chaotic and morbid,-39,220,20","This is too bizarre.,-39,380,20","liked the bear, nothing else made sense,10,400,20","I wouldn't hang it up on my wall but I like the colors of the bear.,25,180,20","very creepy with a bear and a gun,-50,240,20","cool teddy bear,50,200,20","Victoria","liked the bear, nothing else made sense,10,400,20","Kaylee","cool teddy bear,50,200,20","Chelsea","I wouldn't hang it up on my wall but I like the colors of the bear.,25,180,20","0"
"16574","","survey-text","94","640615","0.0-94.0-0.0","A2VNSNAN1LZBAM","","","","{""Q0"":""Messy and sloppy. A child could do this.""}","","","","","","","","","","","","","","","","","","","","","","",""
"9280.699999928474","","image-slider-response","95","649898","0.0-95.0","A2VNSNAN1LZBAM","","","","","-46","","","","","","","","","","","","","","","","","","","","","",""
"3741","","image-button-response","96","654904","0.0-96.0","A2VNSNAN1LZBAM","img_art/4.jpg","0","","","","","","","","","","","","","","","","","","","","","","","","",""
"2101","","image-button-response","97","657008","0.0-97.0","A2VNSNAN1LZBAM","img_art/4.jpg","0","","","","","","","","","","","","","","","","","","","","","","","","",""
"4330","","image-button-response","98","661342","0.0-98.0-0.0","A2VNSNAN1LZBAM","img_art/4.jpg","3","","","","","","","","","","","","","","","","","","","","","","","","",""
"6416","","image-button-response","99","667762","0.0-99.0-0.0","A2VNSNAN1LZBAM","img_art/4.jpg","0","","","","","","","","","","","","","","","","","","","","","","","","",""
"3484","","image-button-response","100","676047","0.0-99.1-0.1","A2VNSNAN1LZBAM","img_art/4.jpg","2","","","","","","","","","","","","","","","","","","","","","","","","",""
"null","","html-keyboard-response","101","677560","0.0-100.0","A2VNSNAN1LZBAM","<p style=""font-size: 48px;"">+</p>","","","","","null","allTrialResponses","1500","1","8","img_art/4.jpg","-46","Messy and sloppy. A child could do this.","Hannah,Mariah,Victoria,Chelsea,Marissa,Kaylee","looks very rudimentary and too simple.,-14,240,20","Movement. Snakes. Hair. The uncertainty makes my eye return.,21,140,20","dont like the colors,-31,400,20","The colors remind me of McDonalds.,-41,180,20","I'm disappointed that such a simple piece, with very little effort spent, could be grouped with other detailed pieces,-31,160,20","just a scuffed hand,-15,200,20","Hannah","looks very rudimentary and too simple.,-14,240,20","Chelsea","The colors remind me of McDonalds.,-41,180,20","Victoria","dont like the colors,-31,400,20","2"
"18656","","survey-text","102","696222","0.0-101.0-0.0","A2VNSNAN1LZBAM","","","","{""Q0"":""Kind of surreal. Not my favorite.""}","","","","","","","","","","","","","","","","","","","","","","",""
"3378.399999976158","","image-slider-response","103","699604","0.0-102.0","A2VNSNAN1LZBAM","","","","","-35","","","","","","","","","","","","","","","","","","","","","",""
"null","","image-button-response","104","704621","0.0-103.0","A2VNSNAN1LZBAM","img_art/17.jpg","null","","","","","","","","","","","","","","","","","","","","","","","","",""
"6304","","image-button-response","105","710927","0.0-104.0","A2VNSNAN1LZBAM","img_art/17.jpg","3","","","","","","","","","","","","","","","","","","","","","","","","",""
"4412","","image-button-response","106","715342","0.0-105.0-0.0","A2VNSNAN1LZBAM","img_art/17.jpg","0","","","","","","","","","","","","","","","","","","","","","","","","",""
"4402","","image-button-response","107","719747","0.0-106.0-0.0","A2VNSNAN1LZBAM","img_art/17.jpg","1","","","","","","","","","","","","","","","","","","","","","","","","",""
"null","","html-keyboard-response","108","721258","0.0-107.0","A2VNSNAN1LZBAM","<p style=""font-size: 48px;"">+</p>","","","","","null","allTrialResponses","1500","1","9","img_art/17.jpg","-35","Kind of surreal. Not my favorite.","Hannah,Catherine,Victoria,Chelsea,Kimberly,Sydney","Looks like an abandoned building that is being overtaken by nature.,-10,240,20","Nature coming to the inside of your space that you are locked into.,50,160,20","love the wispyness of it,34,400,20","The colors are soft.,32,180,20","I like the trees, but the doors less so,19,260,20","This picture is calming to me, and I love the colors.,45,320,20","Chelsea","The colors are soft.,32,180,20","Hannah","Looks like an abandoned building that is being overtaken by nature.,-10,240,20","Catherine","Nature coming to the inside of your space that you are locked into.,50,160,20","2"
"15212","","survey-text","109","736475","0.0-108.0-0.0","A2VNSNAN1LZBAM","","","","{""Q0"":""Another finger painting by a child.""}","","","","","","","","","","","","","","","","","","","","","","",""
"3794.7999999523163","","image-slider-response","110","740273","0.0-109.0","A2VNSNAN1LZBAM","","","","","-44","","","","","","","","","","","","","","","","","","","","","",""
"null","","image-button-response","111","745292","0.0-110.0","A2VNSNAN1LZBAM","img_art/30.jpg","null","","","","","","","","","","","","","","","","","","","","","","","","",""
"4583","","image-button-response","112","749878","0.0-111.0","A2VNSNAN1LZBAM","img_art/30.jpg","3","","","","","","","","","","","","","","","","","","","","","","","","",""
"1872","","image-button-response","113","751754","0.0-112.0-0.0","A2VNSNAN1LZBAM","img_art/30.jpg","0","","","","","","","","","","","","","","","","","","","","","","","","",""
"5286","","image-button-response","114","757043","0.0-113.0-0.0","A2VNSNAN1LZBAM","img_art/30.jpg","2","","","","","","","","","","","","","","","","","","","","","","","","",""
"null","","html-keyboard-response","115","758046","0.0-114.0","A2VNSNAN1LZBAM","<p style=""font-size: 48px;"">+</p>","","","","","null","allTrialResponses","1000","1","10","img_art/30.jpg","-44","Another finger painting by a child.","Hannah,Catherine,Shelby,Chelsea,Kayla,Jamie","It's just all right.,5,240,20","connection, Everything is connected even in contrast.,42,160,20","It's pleasent but otherwise unprovoking,8,240,20","It looks like it was painted in 5 minutes.,-32,180,20","It's soothing- the page is full, but there aren't too many things happening.,23,180,20","Cool design and contrast of colors,30,320,20","Chelsea","It looks like it was painted in 5 minutes.,-32,180,20","Hannah","It's just all right.,5,240,20","Shelby","It's pleasent but otherwise unprovoking,8,240,20","2"
"5108","","survey-text","116","763167","0.0-115.0-0.0","A2VNSNAN1LZBAM","","","","{""Q0"":""our""}","","","","","","","","","","","","","","","","","","","","","","",""
"16181","","survey-text","117","779351","0.0-116.0-0.0","A2VNSNAN1LZBAM","","","","{""Q0"":""Boring and not very pretty colors.""}","","","","","","","","","","","","","","","","","","","","","","",""
"4060.100000023842","","image-slider-response","118","783414","0.0-117.0","A2VNSNAN1LZBAM","","","","","-43","","","","","","","","","","","","","","","","","","","","","",""
"4985","","image-button-response","119","788419","0.0-118.0","A2VNSNAN1LZBAM","img_art/26.jpg","0","","","","","","","","","","","","","","","","","","","","","","","","",""
"1334","","image-button-response","120","789757","0.0-119.0","A2VNSNAN1LZBAM","img_art/26.jpg","0","","","","","","","","","","","","","","","","","","","","","","","","",""
"6775","","image-button-response","121","796535","0.0-120.0-0.0","A2VNSNAN1LZBAM","img_art/26.jpg","5","","","","","","","","","","","","","","","","","","","","","","","","",""
"7081","","image-button-response","122","803621","0.0-121.0-0.0","A2VNSNAN1LZBAM","img_art/26.jpg","3","","","","","","","","","","","","","","","","","","","","","","","","",""
"null","","html-keyboard-response","123","805124","0.0-122.0","A2VNSNAN1LZBAM","<p style=""font-size: 48px;"">+</p>","","","","","null","allTrialResponses","1500","1","11","img_art/26.jpg","-43","Boring and not very pretty colors.","Hannah,Rachel,Shelby,Chelsea,Mikayla,Savannah","This is boring.,-15,240,20","Pretty trees and bushes around fancy brown stones. I like the soft nature.,20,80,20","Very pleasent little scene,40,240,20","I wish it were more pastel but I think it is relaxing to look at.,30,180,20","Love the colors in this one.,22,300,20","Appears childish and unfinished.,-20,200,20","Hannah","This is boring.,-15,240,20","Savannah","Appears childish and unfinished.,-20,200,20","Chelsea","I wish it were more pastel but I think it is relaxing to look at.,30,180,20","2"
"17104","","survey-text","124","822236","0.0-123.0-0.0","A2VNSNAN1LZBAM","","","","{""Q0"":""Just a bunch of splattered colors.""}","","","","","","","","","","","","","","","","","","","","","","",""
"3827.2000000476837","","image-slider-response","125","826066","0.0-124.0","A2VNSNAN1LZBAM","","","","","-27","","","","","","","","","","","","","","","","","","","","","",""
"null","","image-button-response","126","831070","0.0-125.0","A2VNSNAN1LZBAM","img_art/13.jpg","null","","","","","","","","","","","","","","","","","","","","","","","","",""
"4215","","image-button-response","127","835287","0.0-126.0","A2VNSNAN1LZBAM","img_art/13.jpg","2","","","","","","","","","","","","","","","","","","","","","","","","",""
"6659","","image-button-response","128","841948","0.0-127.0-0.0","A2VNSNAN1LZBAM","img_art/13.jpg","1","","","","","","","","","","","","","","","","","","","","","","","","",""
"3546","","image-button-response","129","845498","0.0-128.0-0.0","A2VNSNAN1LZBAM","img_art/13.jpg","3","","","","","","","","","","","","","","","","","","","","","","","","",""
"null","","html-keyboard-response","130","847008","0.0-129.0","A2VNSNAN1LZBAM","<p style=""font-size: 48px;"">+</p>","","","","","null","allTrialResponses","1500","1","12","img_art/13.jpg","-27","Just a bunch of splattered colors.","Hannah,Nicole,Jessica,Chelsea,Natalie,Savannah","Like this a lot and would hang in my house.,27,240,20","It's pretty basic but it makes me feel like I'm looking at the ocean,30,20,20","The paint splatter idea is kind of overused but I like how it brings the piece together,16,400,20","The colors are okay but I don't like the shapes here.,-18,180,20","I like the colors,7,400,20","Lots of depth and character.,30,200,20","Jessica","The paint splatter idea is kind of overused but I like how it brings the piece together,16,400,20","Nicole","It's pretty basic but it makes me feel like I'm looking at the ocean,30,20,20","Chelsea","The colors are okay but I don't like the shapes here.,-18,180,20","2"
"20370","","survey-text","131","867384","0.0-130.0-0.0","A2VNSNAN1LZBAM","","","","{""Q0"":""Oh wow.....this is unfocused and bizarre.""}","","","","","","","","","","","","","","","","","","","","","","",""
"3634.7999999523163","","image-slider-response","132","871021","0.0-131.0","A2VNSNAN1LZBAM","","","","","-40","","","","","","","","","","","","","","","","","","","","","",""
"null","","image-button-response","133","876040","0.0-132.0","A2VNSNAN1LZBAM","img_art/21.jpg","null","","","","","","","","","","","","","","","","","","","","","","","","",""
"10477","","image-button-response","134","886519","0.0-133.0","A2VNSNAN1LZBAM","img_art/21.jpg","0","","","","","","","","","","","","","","","","","","","","","","","","",""
"2340","","image-button-response","135","888862","0.0-134.0-0.0","A2VNSNAN1LZBAM","img_art/21.jpg","1","","","","","","","","","","","","","","","","","","","","","","","","",""
"4627","","image-button-response","136","893492","0.0-135.0-0.0","A2VNSNAN1LZBAM","img_art/21.jpg","5","","","","","","","","","","","","","","","","","","","","","","","","",""
"null","","html-keyboard-response","137","893995","0.0-136.0","A2VNSNAN1LZBAM","<p style=""font-size: 48px;"">+</p>","","","","","null","allTrialResponses","500","1","13","img_art/21.jpg","-40","Oh wow.....this is unfocused and bizarre.","Kathryn,Nicole,Jessica,Chelsea,Brooke,Destiny","This feels chaotic, like a battle or a storm.,-20,140,20","Makes me think of a natural disaster but I love how it looks. Makes you think,30,20,20","I like how the colors blend together like a beautiful sunset.,25,400,20","I like the colors. It looks dramatic.,5,180,20","Like the colors. Don't like the white dots on the right side of the painting though.,15,60,20","Pink is my favorite, against blue it looks like sunset. Seems like a boat burning down, so don't absolutely love it,23,360,20","Kathryn","This feels chaotic, like a battle or a storm.,-20,140,20","Nicole","Makes me think of a natural disaster but I love how it looks. Makes you think,30,20,20","Destiny","Pink is my favorite, against blue it looks like sunset. Seems like a boat burning down, so don't absolutely love it,23,360,20","2"
"20526","","survey-text","138","914529","0.0-137.0-0.0","A2VNSNAN1LZBAM","","","","{""Q0"":""Reminds me of a table and chairs with food all over.""}","","","","","","","","","","","","","","","","","","","","","","",""
"3778.7999999523163","","image-slider-response","139","918311","0.0-138.0","A2VNSNAN1LZBAM","","","","","-37","","","","","","","","","","","","","","","","","","","","","",""
"null","","image-button-response","140","923320","0.0-139.0","A2VNSNAN1LZBAM","img_art/19.jpg","null","","","","","","","","","","","","","","","","","","","","","","","","",""
"2731","","image-button-response","141","926053","0.0-140.0","A2VNSNAN1LZBAM","img_art/19.jpg","2","","","","","","","","","","","","","","","","","","","","","","","","",""
"3683","","image-button-response","142","929739","0.0-141.0-0.0","A2VNSNAN1LZBAM","img_art/19.jpg","4","","","","","","","","","","","","","","","","","","","","","","","","",""
"3012","","image-button-response","143","932754","0.0-142.0-0.0","A2VNSNAN1LZBAM","img_art/19.jpg","0","","","","","","","","","","","","","","","","","","","","","","","","",""
"null","","html-keyboard-response","144","934268","0.0-143.0","A2VNSNAN1LZBAM","<p style=""font-size: 48px;"">+</p>","","","","","null","allTrialResponses","1500","1","14","img_art/19.jpg","-37","Reminds me of a table and chairs with food all over.","Kathryn,Nicole,Margaret,Michaela,Angelica,Destiny","This one feels pretty neutral. Like a window into someone's life, one person in a bustling metropolis.,0,140,20","Feels like something I would hang in my dining room,42,20,20","i think it is ugly and hate the colors,-35,100,20","It's ok but it's nothing I would hang on my wall,11,260,20","This is like an ugly version of a Basquiat.,-24,280,20","this flow I just really like how everything blends but also doesn't,45,360,20","Margaret","i think it is ugly and hate the colors,-35,100,20","Angelica","This is like an ugly version of a Basquiat.,-24,280,20","Kathryn","This one feels pretty neutral. Like a window into someone's life, one person in a bustling metropolis.,0,140,20","2"
"20371","","survey-text","145","954647","0.0-144.0-0.0","A2VNSNAN1LZBAM","","","","{""Q0"":""A planet revolving around many colors.""}","","","","","","","","","","","","","","","","","","","","","","",""
"3811.399999976158","","image-slider-response","146","958461","0.0-145.0","A2VNSNAN1LZBAM","","","","","-24","","","","","","","","","","","","","","","","","","","","","",""
"null","","image-button-response","147","963465","0.0-146.0","A2VNSNAN1LZBAM","img_art/22.jpg","null","","","","","","","","","","","","","","","","","","","","","","","","",""
"6884","","image-button-response","148","970352","0.0-147.0","A2VNSNAN1LZBAM","img_art/22.jpg","4","","","","","","","","","","","","","","","","","","","","","","","","",""
"6027","","image-button-response","149","976381","0.0-148.0-0.0","A2VNSNAN1LZBAM","img_art/22.jpg","1","","","","","","","","","","","","","","","","","","","","","","","","",""
"2739","","image-button-response","150","979124","0.0-149.0-0.0","A2VNSNAN1LZBAM","img_art/22.jpg","2","","","","","","","","","","","","","","","","","","","","","","","","",""
"null","","html-keyboard-response","151","979626","0.0-150.0","A2VNSNAN1LZBAM","<p style=""font-size: 48px;"">+</p>","","","","","null","allTrialResponses","500","1","15","img_art/22.jpg","-24","A planet revolving around many colors.","Kathryn,Mary,Margaret,Katie,Angelica,Madeline","This piece gives off a cool vibe. Reminds me of being out in the city at night.,20,140,20","I do not like the color combo. This piece is too much the same throughout.,-1,180,20","i feel like this is a a basic art piece that a school would have on the wall,-24,100,20","Too much red. The red/yellow/orange make me think of heat/fire, which makes me anxious.,-10,160,20","It's bland and ugly.,-21,280,20","I really like the colors here,3,40,20","Angelica","It's bland and ugly.,-21,280,20","Mary","I do not like the color combo. This piece is too much the same throughout.,-1,180,20","Margaret","i feel like this is a a basic art piece that a school would have on the wall,-24,100,20","2"
"5538","","survey-text","152","985176","0.0-151.0-0.0","A2VNSNAN1LZBAM","","","","{""Q0"":""course""}","","","","","","","","","","","","","","","","","","","","","","",""
"21204","","survey-text","153","1006383","0.0-152.0-0.0","A2VNSNAN1LZBAM","","","","{""Q0"":""Looks almost like tile someone would put in their kitchen.""}","","","","","","","","","","","","","","","","","","","","","","",""
"3867.399999976158","","image-slider-response","154","1010253","0.0-153.0","A2VNSNAN1LZBAM","","","","","4","","","","","","","","","","","","","","","","","","","","","",""
"null","","image-button-response","155","1015256","0.0-154.0","A2VNSNAN1LZBAM","img_art/7.jpg","null","","","","","","","","","","","","","","","","","","","","","","","","",""
"1263","","image-button-response","156","1016522","0.0-155.0","A2VNSNAN1LZBAM","img_art/7.jpg","1","","","","","","","","","","","","","","","","","","","","","","","","",""
"4379","","image-button-response","157","1020904","0.0-156.0-0.0","A2VNSNAN1LZBAM","img_art/7.jpg","3","","","","","","","","","","","","","","","","","","","","","","","","",""
"2035","","image-button-response","158","1022942","0.0-157.0-0.0","A2VNSNAN1LZBAM","img_art/7.jpg","0","","","","","","","","","","","","","","","","","","","","","","","","",""
"null","","html-keyboard-response","159","1023946","0.0-158.0","A2VNSNAN1LZBAM","<p style=""font-size: 48px;"">+</p>","","","","","null","allTrialResponses","1000","1","16","img_art/7.jpg","4","Looks almost like tile someone would put in their kitchen.","Alicia,Mary,Margaret,Cassidy,Angelica,Jenna","I don't get it. looks like a picture of the ground.,-42,120,20","This reminds me of a close up photo of a stone wall.,-19,180,20","looks like a close up of irritated skin under a microscope,-49,100,20","I like the texture,12,140,20","This is vague and ugly.,-3,280,20","reminds me of a desert from far above,23,360,20","Mary","This reminds me of a close up photo of a stone wall.,-19,180,20","Cassidy","I like the texture,12,140,20","Alicia","I don't get it. looks like a picture of the ground.,-42,120,20","2"
"17591","","survey-text","160","1041543","0.0-159.0-0.0","A2VNSNAN1LZBAM","","","","{""Q0"":""Kind of looks like a violin.""}","","","","","","","","","","","","","","","","","","","","","","",""
"3850.7000000476837","","image-slider-response","161","1045397","0.0-160.0","A2VNSNAN1LZBAM","","","","","6","","","","","","","","","","","","","","","","","","","","","",""
"null","","image-button-response","162","1050403","0.0-161.0","A2VNSNAN1LZBAM","img_art/10.jpg","null","","","","","","","","","","","","","","","","","","","","","","","","",""
"10128","","image-button-response","163","1060534","0.0-162.0","A2VNSNAN1LZBAM","img_art/10.jpg","4","","","","","","","","","","","","","","","","","","","","","","","","",""
"1020","","image-button-response","164","1061557","0.0-163.0-0.0","A2VNSNAN1LZBAM","img_art/10.jpg","5","","","","","","","","","","","","","","","","","","","","","","","","",""
"6122","","image-button-response","165","1067683","0.0-164.0-0.0","A2VNSNAN1LZBAM","img_art/10.jpg","0","","","","","","","","","","","","","","","","","","","","","","","","",""
"null","","html-keyboard-response","166","1068203","0.0-165.0","A2VNSNAN1LZBAM","<p style=""font-size: 48px;"">+</p>","","","","","null","allTrialResponses","500","1","17","img_art/10.jpg","6","Kind of looks like a violin.","Alicia,Mary,Alexis,Cassidy,Rebecca,Heather","It's art. (for some),7,120,20","The flow of lines is off. There are curvy and straight angry lines. It's not flattering at all.,-27,180,20","Too abstract and it doesn't really remind me of anything,-40,100,20","Looks like someone just smeared some paint and called it good. Do not like.,-6,140,20","gives a sense of a roller coaster unit splashed in water. it's not but i love it nevertheless,44,100,20","for some reason reminds me of music,2,260,20","Rebecca","gives a sense of a roller coaster unit splashed in water. it's not but i love it nevertheless,44,100,20","Heather","for some reason reminds me of music,2,260,20","Alicia","It's art. (for some),7,120,20","2"
"18503","","survey-text","167","1086713","0.0-166.0-0.0","A2VNSNAN1LZBAM","","","","{""Q0"":""Gloomy oceanside town.""}","","","","","","","","","","","","","","","","","","","","","","",""
"3195.4000000953674","","image-slider-response","168","1089912","0.0-167.0","A2VNSNAN1LZBAM","","","","","-50","","","","","","","","","","","","","","","","","","","","","",""
"null","","image-button-response","169","1094927","0.0-168.0","A2VNSNAN1LZBAM","img_art/11.jpg","null","","","","","","","","","","","","","","","","","","","","","","","","",""
"7768","","image-button-response","170","1102698","0.0-169.0","A2VNSNAN1LZBAM","img_art/11.jpg","5","","","","","","","","","","","","","","","","","","","","","","","","",""
"8130","","image-button-response","171","1110831","0.0-170.0-0.0","A2VNSNAN1LZBAM","img_art/11.jpg","1","","","","","","","","","","","","","","","","","","","","","","","","",""
"1612","","image-button-response","172","1112446","0.0-171.0-0.0","A2VNSNAN1LZBAM","img_art/11.jpg","2","","","","","","","","","","","","","","","","","","","","","","","","",""
"null","","html-keyboard-response","173","1113457","0.0-172.0","A2VNSNAN1LZBAM","<p style=""font-size: 48px;"">+</p>","","","","","null","allTrialResponses","1000","1","18","img_art/11.jpg","-50","Gloomy oceanside town.","Alicia,Maria,Isabella,Hailey,Rebecca,Heather","dna, odd but nice.,25,120,20","I enjoy the kandinsky-like general vibe, but the grey brings me down a bit,27,120,20","City on a hill, tranquility,42,280,20","a train going around the country,14,200,20","to me, perfect reflection of the modern commute,32,100,20","looks like highways and homes and lives intertwining.,27,260,20","Heather","looks like highways and homes and lives intertwining.,27,260,20","Maria","I enjoy the kandinsky-like general vibe, but the grey brings me down a bit,27,120,20","Isabella","City on a hill, tranquility,42,280,20","2"
"19123","","survey-text","174","1132589","0.0-173.0-0.0","A2VNSNAN1LZBAM","","","","{""Q0"":""First thing I see is two people talking.""}","","","","","","","","","","","","","","","","","","","","","","",""
"3819.7000000476837","","image-slider-response","175","1136412","0.0-174.0","A2VNSNAN1LZBAM","","","","","-38","","","","","","","","","","","","","","","","","","","","","",""
"null","","image-button-response","176","1141417","0.0-175.0","A2VNSNAN1LZBAM","img_art/28.jpg","null","","","","","","","","","","","","","","","","","","","","","","","","",""
"1998","","image-button-response","177","1143417","0.0-176.0","A2VNSNAN1LZBAM","img_art/28.jpg","0","","","","","","","","","","","","","","","","","","","","","","","","",""
"8033","","image-button-response","178","1151453","0.0-177.0-0.0","A2VNSNAN1LZBAM","img_art/28.jpg","5","","","","","","","","","","","","","","","","","","","","","","","","",""
"1107","","image-button-response","179","1152564","0.0-178.0-0.0","A2VNSNAN1LZBAM","img_art/28.jpg","4","","","","","","","","","","","","","","","","","","","","","","","","",""
"null","","html-keyboard-response","180","1154067","0.0-179.0","A2VNSNAN1LZBAM","<p style=""font-size: 48px;"">+</p>","","","","","null","allTrialResponses","1500","1","19","img_art/28.jpg","-38","First thing I see is two people talking.","Elizabeth,Maria,Isabella,Sophia,Brittany,Heather","Not really exciting,23,20,20","I want to like it, but I'm not really sure what to make of it,2,120,20","This is also something I would see in a serious but safe environment,14,280,20","I think this may have to do with humpty dumpty?,-7,280,20","I don't like the colors or the design.,-20,40,20","not sure what i feel but it makes me feel uncomfortable,1,260,20","Elizabeth","Not really exciting,23,20,20","Heather","not sure what i feel but it makes me feel uncomfortable,1,260,20","Brittany","I don't like the colors or the design.,-20,40,20","2"
"13977","","survey-text","181","1168051","0.0-180.0-0.0","A2VNSNAN1LZBAM","","","","{""Q0"":""A scene of fall colors with trees.""}","","","","","","","","","","","","","","","","","","","","","","",""
"2844.8000000715256","","image-slider-response","182","1170899","0.0-181.0","A2VNSNAN1LZBAM","","","","","-40","","","","","","","","","","","","","","","","","","","","","",""
"null","","image-button-response","183","1175904","0.0-182.0","A2VNSNAN1LZBAM","img_art/27.jpg","null","","","","","","","","","","","","","","","","","","","","","","","","",""
"4325","","image-button-response","184","1180232","0.0-183.0","A2VNSNAN1LZBAM","img_art/27.jpg","5","","","","","","","","","","","","","","","","","","","","","","","","",""
"4234","","image-button-response","185","1184470","0.0-184.0-0.0","A2VNSNAN1LZBAM","img_art/27.jpg","1","","","","","","","","","","","","","","","","","","","","","","","","",""
"2003","","image-button-response","186","1186477","0.0-185.0-0.0","A2VNSNAN1LZBAM","img_art/27.jpg","2","","","","","","","","","","","","","","","","","","","","","","","","",""
"null","","html-keyboard-response","187","1187481","0.0-186.0","A2VNSNAN1LZBAM","<p style=""font-size: 48px;"">+</p>","","","","","null","allTrialResponses","1000","1","20","img_art/27.jpg","-40","A scene of fall colors with trees.","Elizabeth,Stephanie,Anna,Claire,Brittany,Heather","Like the abstractness of this picture,20,20,20","The black sketchy over the colors doesn't fit.,-4,300,20","It looks like when my little sister took magic markers to the wall.,-11,300,20","looks like a little kid did it,-30,260,20","The colors are put together in an interesting way.,-9,40,20","looks like a garden in between two storms.,33,260,20","Heather","looks like a garden in between two storms.,33,260,20","Stephanie","The black sketchy over the colors doesn't fit.,-4,300,20","Anna","It looks like when my little sister took magic markers to the wall.,-11,300,20","2"
"5996","","survey-text","188","1193489","0.0-187.0-0.0","A2VNSNAN1LZBAM","","","","{""Q0"":""we""}","","","","","","","","","","","","","","","","","","","","","","",""
"18916","","survey-text","189","1212407","0.0-188.0-0.0","A2VNSNAN1LZBAM","","","","{""Q0"":""A city with God watching it.""}","","","","","","","","","","","","","","","","","","","","","","",""
"2844","","image-slider-response","190","1215255","0.0-189.0","A2VNSNAN1LZBAM","","","","","-12","","","","","","","","","","","","","","","","","","","","","",""
"null","","image-button-response","191","1220263","0.0-190.0","A2VNSNAN1LZBAM","img_art/8.jpg","null","","","","","","","","","","","","","","","","","","","","","","","","",""
"3864","","image-button-response","192","1224131","0.0-191.0","A2VNSNAN1LZBAM","img_art/8.jpg","1","","","","","","","","","","","","","","","","","","","","","","","","",""
"5902","","image-button-response","193","1230038","0.0-192.0-0.0","A2VNSNAN1LZBAM","img_art/8.jpg","4","","","","","","","","","","","","","","","","","","","","","","","","",""
"2740","","image-button-response","194","1232782","0.0-193.0-0.0","A2VNSNAN1LZBAM","img_art/8.jpg","0","","","","","","","","","","","","","","","","","","","","","","","","",""
"null","","html-keyboard-response","195","1233285","0.0-194.0","A2VNSNAN1LZBAM","<p style=""font-size: 48px;"">+</p>","","","","","null","allTrialResponses","500","1","21","img_art/8.jpg","-12","A city with God watching it.","Jennifer,Stephanie,Anna,Alyssa,Diana,Heather","Not my favorite but has an interesting concept,32,380,20","I like the colors and geometrical shapes but the face in the sky makes it look scary,-10,300,20","The shapes and colors work well together.,40,300,20","I like how the more you like at it there are more things to discover.Very creative.,33,160,20","I don't care for the piece, but I appreciate the talent that it took to create it.,22,380,20","woman looking over a the community,1,260,20","Stephanie","I like the colors and geometrical shapes but the face in the sky makes it look scary,-10,300,20","Diana","I don't care for the piece, but I appreciate the talent that it took to create it.,22,380,20","Jennifer","Not my favorite but has an interesting concept,32,380,20","2"
"11003","","survey-text","196","1244297","0.0-195.0-0.0","A2VNSNAN1LZBAM","","","","{""Q0"":""A line of dancers in the sky.""}","","","","","","","","","","","","","","","","","","","","","","",""
"2652.3000000715256","","image-slider-response","197","1246952","0.0-196.0","A2VNSNAN1LZBAM","","","","","19","","","","","","","","","","","","","","","","","","","","","",""
"null","","image-button-response","198","1251966","0.0-197.0","A2VNSNAN1LZBAM","img_art/23.jpg","null","","","","","","","","","","","","","","","","","","","","","","","","",""
"4405","","image-button-response","199","1256373","0.0-198.0","A2VNSNAN1LZBAM","img_art/23.jpg","1","","","","","","","","","","","","","","","","","","","","","","","","",""
"1235","","image-button-response","200","1257611","0.0-199.0-0.0","A2VNSNAN1LZBAM","img_art/23.jpg","4","","","","","","","","","","","","","","","","","","","","","","","","",""
"3233","","image-button-response","201","1260849","0.0-200.0-0.0","A2VNSNAN1LZBAM","img_art/23.jpg","3","","","","","","","","","","","","","","","","","","","","","","","","",""
"null","","html-keyboard-response","202","1261352","0.0-201.0","A2VNSNAN1LZBAM","<p style=""font-size: 48px;"">+</p>","","","","","null","allTrialResponses","500","1","22","img_art/23.jpg","19","A line of dancers in the sky.","Jennifer,Stephanie,Monica,Caroline,Diana,Abigail","The cluster of white silhouettes against the colorful background makes me feel uneasy for some reason,-36,380,20","This makes me think of an orchestra playing a forth of july song,12,300,20","I like the sharp contrast of the white on the colorful background,27,360,20","Like the colors and made me feel happy,23,100,20","I thought this art was exciting and it reminded me of dancing people.,12,380,20","I like the contrast,29,20,20","Stephanie","This makes me think of an orchestra playing a forth of july song,12,300,20","Diana","I thought this art was exciting and it reminded me of dancing people.,12,380,20","Caroline","Like the colors and made me feel happy,23,100,20","2"
"19415","","survey-text","203","1280776","0.0-202.0-0.0","A2VNSNAN1LZBAM","","","","{""Q0"":""Looks like a shipwreck on the ocean.""}","","","","","","","","","","","","","","","","","","","","","","",""
"2778.3000000715256","","image-slider-response","204","1283558","0.0-203.0","A2VNSNAN1LZBAM","","","","","-36","","","","","","","","","","","","","","","","","","","","","",""
"null","","image-button-response","205","1288565","0.0-204.0","A2VNSNAN1LZBAM","img_art/18.jpg","null","","","","","","","","","","","","","","","","","","","","","","","","",""
"2125","","image-button-response","206","1290692","0.0-205.0","A2VNSNAN1LZBAM","img_art/18.jpg","2","","","","","","","","","","","","","","","","","","","","","","","","",""
"3355","","image-button-response","207","1294051","0.0-206.0-0.0","A2VNSNAN1LZBAM","img_art/18.jpg","3","","","","","","","","","","","","","","","","","","","","","","","","",""
"4979","","image-button-response","208","1299033","0.0-207.0-0.0","A2VNSNAN1LZBAM","img_art/18.jpg","1","","","","","","","","","","","","","","","","","","","","","","","","",""
"null","","html-keyboard-response","209","1299537","0.0-208.0","A2VNSNAN1LZBAM","<p style=""font-size: 48px;"">+</p>","","","","","null","allTrialResponses","500","1","23","img_art/18.jpg","-36","Looks like a shipwreck on the ocean.","Erin,Stephanie,Miranda,Caroline,Diana,Sarah","See a weird horse,-22,120,20","It made me think of a car crash,-39,300,20","This one raises some questions, there could be some sort of fight or battle going on.,11,320,20","I think of the ocean and a boat tossed about on the waves. In the upper left is a figure. It is pleasant,30,100,20","This painting reminds me of the 4 horsemen of the apocalypse. It feels haunting.,31,380,20","this is kind of cool. I like the color scheme and the figure in the upper left is interesting,15,180,20","Miranda","This one raises some questions, there could be some sort of fight or battle going on.,11,320,20","Caroline","I think of the ocean and a boat tossed about on the waves. In the upper left is a figure. It is pleasant,30,100,20","Stephanie","It made me think of a car crash,-39,300,20","2"
"16607","","survey-text","210","1316151","0.0-209.0-0.0","A2VNSNAN1LZBAM","","","","{""Q0"":""Patchwork quilt. Ugly.""}","","","","","","","","","","","","","","","","","","","","","","",""
"5011.399999976158","","image-slider-response","211","1321165","0.0-210.0","A2VNSNAN1LZBAM","","","","","-42","","","","","","","","","","","","","","","","","","","","","",""
"null","","image-button-response","212","1326170","0.0-211.0","A2VNSNAN1LZBAM","img_art/12.jpg","null","","","","","","","","","","","","","","","","","","","","","","","","",""
"15104","","image-button-response","213","1341276","0.0-212.0","A2VNSNAN1LZBAM","img_art/12.jpg","2","","","","","","","","","","","","","","","","","","","","","","","","",""
"5562","","image-button-response","214","1346842","0.0-213.0-0.0","A2VNSNAN1LZBAM","img_art/12.jpg","0","","","","","","","","","","","","","","","","","","","","","","","","",""
"1162","","image-button-response","215","1348008","0.0-214.0-0.0","A2VNSNAN1LZBAM","img_art/12.jpg","1","","","","","","","","","","","","","","","","","","","","","","","","",""
"null","","html-keyboard-response","216","1348511","0.0-215.0","A2VNSNAN1LZBAM","<p style=""font-size: 48px;"">+</p>","","","","","null","allTrialResponses","500","1","24","img_art/12.jpg","-42","Patchwork quilt. Ugly.","Jacqueline,Stephanie,Miranda,Caroline,Erica,Autumn","It's not particularly interesting or ugly.,-7,300,20","I like the pattern to it.,31,300,20","This is like going to a really old mcdoanlds in a tiny town and it's never been renovated so it's breaking down,-31,320,20","I like the colors in both sections, brights compared to neutrals. Each block has a different view. I think of the future,11,100,20","good colours scheme; organised,17,80,20","Good too basic.,18,340,20","Miranda","This is like going to a really old mcdoanlds in a tiny town and it's never been renovated so it's breaking down,-31,320,20","Jacqueline","It's not particularly interesting or ugly.,-7,300,20","Stephanie","I like the pattern to it.,31,300,20","2"
"18855","","survey-text","217","1367375","0.0-216.0-0.0","A2VNSNAN1LZBAM","","","","{""Q0"":""A desert landscape with an adobe house on it.""}","","","","","","","","","","","","","","","","","","","","","","",""
"3731.9000000953674","","image-slider-response","218","1371111","0.0-217.0","A2VNSNAN1LZBAM","","","","","-50","","","","","","","","","","","","","","","","","","","","","",""
"null","","image-button-response","219","1376128","0.0-218.0","A2VNSNAN1LZBAM","img_art/20.jpg","null","","","","","","","","","","","","","","","","","","","","","","","","",""
"10398","","image-button-response","220","1386528","0.0-219.0","A2VNSNAN1LZBAM","img_art/20.jpg","0","","","","","","","","","","","","","","","","","","","","","","","","",""
"1899","","image-button-response","221","1388431","0.0-220.0-0.0","A2VNSNAN1LZBAM","img_art/20.jpg","1","","","","","","","","","","","","","","","","","","","","","","","","",""
"5674","","image-button-response","222","1394108","0.0-221.0-0.0","A2VNSNAN1LZBAM","img_art/20.jpg","5","","","","","","","","","","","","","","","","","","","","","","","","",""
"null","","html-keyboard-response","223","1395611","0.0-222.0","A2VNSNAN1LZBAM","<p style=""font-size: 48px;"">+</p>","","","","","null","allTrialResponses","1500","1","25","img_art/20.jpg","-50","A desert landscape with an adobe house on it.","Jacqueline,Stephanie,Miranda,Melissa,Cheyenne,Samantha","Looks like a refinery dumping shit into the water.,-40,300,20","Looks like an old gold mining down now deserted.,11,300,20","A painting within a painting, the inner painting looks like a car crash with a semi truck.,21,320,20","feels underdeveloped,-11,240,20","Liked the background,15,200,20","Use of white on foreground is too big and steals eyes away from rest of painting,2,140,20","Jacqueline","Looks like a refinery dumping shit into the water.,-40,300,20","Stephanie","Looks like an old gold mining down now deserted.,11,300,20","Samantha","Use of white on foreground is too big and steals eyes away from rest of painting,2,140,20","2"
"4830","","survey-text","224","1400465","0.0-223.0-0.0","A2VNSNAN1LZBAM","","","","{""Q0"":""table""}","","","","","","","","","","","","","","","","","","","","","","",""
"17118","","survey-text","225","1417585","0.0-224.0-0.0","A2VNSNAN1LZBAM","","","","{""Q0"":""For some reason this reminds me of a berry bush.""}","","","","","","","","","","","","","","","","","","","","","","",""
"3532.1999999284744","","image-slider-response","226","1421120","0.0-225.0","A2VNSNAN1LZBAM","","","","","-50","","","","","","","","","","","","","","","","","","","","","",""
"null","","image-button-response","227","1426123","0.0-226.0","A2VNSNAN1LZBAM","img_art/15.jpg","null","","","","","","","","","","","","","","","","","","","","","","","","",""
"4534","","image-button-response","228","1430660","0.0-227.0","A2VNSNAN1LZBAM","img_art/15.jpg","1","","","","","","","","","","","","","","","","","","","","","","","","",""
"4787","","image-button-response","229","1435450","0.0-228.0-0.0","A2VNSNAN1LZBAM","img_art/15.jpg","5","","","","","","","","","","","","","","","","","","","","","","","","",""
"5034","","image-button-response","230","1440488","0.0-229.0-0.0","A2VNSNAN1LZBAM","img_art/15.jpg","4","","","","","","","","","","","","","","","","","","","","","","","","",""
"null","","html-keyboard-response","231","1442013","0.0-230.0","A2VNSNAN1LZBAM","<p style=""font-size: 48px;"">+</p>","","","","","null","allTrialResponses","1500","1","26","img_art/15.jpg","-50","For some reason this reminds me of a berry bush.","Jacqueline,Stephanie,Michelle,Cassandra,Katherine,Samantha","I don't like how the black dots are aligned.,-20,300,20","This piece is too dark,-42,300,20","Interesting to look at but I don't appreciate the abstraction,2,280,20","Hate it...black dots.,-47,120,20","black dots too ant-like,-25,120,20","Not interesting enough. Boring,-37,140,20","Stephanie","This piece is too dark,-42,300,20","Samantha","Not interesting enough. Boring,-37,140,20","Katherine","black dots too ant-like,-25,120,20","2"
"18305","","survey-text","232","1460326","0.0-231.0-0.0","A2VNSNAN1LZBAM","","","","{""Q0"":""A waterfall cascading near some flowers.""}","","","","","","","","","","","","","","","","","","","","","","",""
"3195.2000000476837","","image-slider-response","233","1463524","0.0-232.0","A2VNSNAN1LZBAM","","","","","-6","","","","","","","","","","","","","","","","","","","","","",""
"null","","image-button-response","234","1468539","0.0-233.0","A2VNSNAN1LZBAM","img_art/24.jpg","null","","","","","","","","","","","","","","","","","","","","","","","","",""
"3388","","image-button-response","235","1471929","0.0-234.0","A2VNSNAN1LZBAM","img_art/24.jpg","0","","","","","","","","","","","","","","","","","","","","","","","","",""
"1076","","image-button-response","236","1473008","0.0-235.0-0.0","A2VNSNAN1LZBAM","img_art/24.jpg","1","","","","","","","","","","","","","","","","","","","","","","","","",""
"6904","","image-button-response","237","1479916","0.0-236.0-0.0","A2VNSNAN1LZBAM","img_art/24.jpg","4","","","","","","","","","","","","","","","","","","","","","","","","",""
"null","","html-keyboard-response","238","1480422","0.0-237.0","A2VNSNAN1LZBAM","<p style=""font-size: 48px;"">+</p>","","","","","null","allTrialResponses","500","1","27","img_art/24.jpg","-6","A waterfall cascading near some flowers.","Kylie,Stephanie,Julia,Amanda,Katherine,Samantha","Forest waterfall,40,300,20","A beautiful waterfall in the springtime.,40,300,20","it's a nice stream, but I don't care for plain nature,-15,40,20","Beautiful,  peaceful,50,180,20","The combination of nature / realism with abstract colors is unique.,39,120,20","Happy and relaxing bubbling brook,37,140,20","Kylie","Forest waterfall,40,300,20","Stephanie","A beautiful waterfall in the springtime.,40,300,20","Katherine","The combination of nature / realism with abstract colors is unique.,39,120,20","2"
"14014","","survey-text","239","1494446","0.0-238.0-0.0","A2VNSNAN1LZBAM","","","","{""Q0"":""A black bird standing on top of a box.""}","","","","","","","","","","","","","","","","","","","","","","",""
"3891.399999976158","","image-slider-response","240","1498340","0.0-239.0","A2VNSNAN1LZBAM","","","","","-29","","","","","","","","","","","","","","","","","","","","","",""
"null","","image-button-response","241","1503356","0.0-240.0","A2VNSNAN1LZBAM","img_art/6.jpg","null","","","","","","","","","","","","","","","","","","","","","","","","",""
"308","","image-button-response","242","1503667","0.0-241.0","A2VNSNAN1LZBAM","img_art/6.jpg","1","","","","","","","","","","","","","","","","","","","","","","","","",""
"7527","","image-button-response","243","1511199","0.0-242.0-0.0","A2VNSNAN1LZBAM","img_art/6.jpg","4","","","","","","","","","","","","","","","","","","","","","","","","",""
"3850","","image-button-response","244","1515052","0.0-243.0-0.0","A2VNSNAN1LZBAM","img_art/6.jpg","0","","","","","","","","","","","","","","","","","","","","","","","","",""
"null","","html-keyboard-response","245","1516556","0.0-244.0","A2VNSNAN1LZBAM","<p style=""font-size: 48px;"">+</p>","","","","","null","allTrialResponses","1500","1","28","img_art/6.jpg","-29","A black bird standing on top of a box.","Kylie,Stephanie,Andrea,Amber,Katherine,Lauren","Reminds me of feeling incomplete,1,300,20","Nevermore!  A black raven sitting on a pumpkin. Halloween,-35,300,20","So forlorn, and beauty amid desolation.,25,240,20","Something very simplistic about it. The colors mesh well.,10,200,20","This could be so many different things. I saw a bird first but then it looks like a needle going into skin,34,120,20","I like the simplicity of the piece.,10,340,20","Stephanie","Nevermore!  A black raven sitting on a pumpkin. Halloween,-35,300,20","Katherine","This could be so many different things. I saw a bird first but then it looks like a needle going into skin,34,120,20","Kylie","Reminds me of feeling incomplete,1,300,20","2"
"18638","","survey-text","246","1535203","0.0-245.0-0.0","A2VNSNAN1LZBAM","","","","{""Q0"":""Don't like. The colors are nice.""}","","","","","","","","","","","","","","","","","","","","","","",""
"3738.8000000715256","","image-slider-response","247","1538945","0.0-246.0","A2VNSNAN1LZBAM","","","","","-37","","","","","","","","","","","","","","","","","","","","","",""
"null","","image-button-response","248","1543954","0.0-247.0","A2VNSNAN1LZBAM","img_art/9.jpg","null","","","","","","","","","","","","","","","","","","","","","","","","",""
"3528","","image-button-response","249","1547485","0.0-248.0","A2VNSNAN1LZBAM","img_art/9.jpg","1","","","","","","","","","","","","","","","","","","","","","","","","",""
"5043","","image-button-response","250","1552532","0.0-249.0-0.0","A2VNSNAN1LZBAM","img_art/9.jpg","5","","","","","","","","","","","","","","","","","","","","","","","","",""
"7193","","image-button-response","251","1559729","0.0-250.0-0.0","A2VNSNAN1LZBAM","img_art/9.jpg","4","","","","","","","","","","","","","","","","","","","","","","","","",""
"null","","html-keyboard-response","252","1560731","0.0-251.0","A2VNSNAN1LZBAM","<p style=""font-size: 48px;"">+</p>","","","","","null","allTrialResponses","1000","1","29","img_art/9.jpg","-37","Don't like. The colors are nice.","Kylie,Stephanie,Sierra,Emma,Katherine,Kelly","Peaceful dreaming,40,300,20","Someone sleeping in a cave. Dont like the scribble look.,-30,300,20","it looks like a lady resting. it is soothing.,4,260,20","Feels angry .....,-40,60,20","Idk what is in the middle but the blurry image makes it seem like the subject is of the painters interest,22,120,20","It looks like a child drew it.,-28,220,20","Stephanie","Someone sleeping in a cave. Dont like the scribble look.,-30,300,20","Kelly","It looks like a child drew it.,-28,220,20","Katherine","Idk what is in the middle but the blurry image makes it seem like the subject is of the painters interest,22,120,20","2"
"20987","","survey-text","253","1581726","0.0-252.0-0.0","A2VNSNAN1LZBAM","","","","{""Q0"":""I see a paintbrush in the middle of the picture.""}","","","","","","","","","","","","","","","","","","","","","","",""
"3002.600000023842","","image-slider-response","254","1584732","0.0-253.0","A2VNSNAN1LZBAM","","","","","-39","","","","","","","","","","","","","","","","","","","","","",""
"null","","image-button-response","255","1589738","0.0-254.0","A2VNSNAN1LZBAM","img_art/29.jpg","null","","","","","","","","","","","","","","","","","","","","","","","","",""
"3780","","image-button-response","256","1593520","0.0-255.0","A2VNSNAN1LZBAM","img_art/29.jpg","3","","","","","","","","","","","","","","","","","","","","","","","","",""
"8937","","image-button-response","257","1602460","0.0-256.0-0.0","A2VNSNAN1LZBAM","img_art/29.jpg","1","","","","","","","","","","","","","","","","","","","","","","","","",""
"2675","","image-button-response","258","1605139","0.0-257.0-0.0","A2VNSNAN1LZBAM","img_art/29.jpg","5","","","","","","","","","","","","","","","","","","","","","","","","",""
"null","","html-keyboard-response","259","1605643","0.0-258.0","A2VNSNAN1LZBAM","<p style=""font-size: 48px;"">+</p>","","","","","null","allTrialResponses","500","1","30","img_art/29.jpg","-39","I see a paintbrush in the middle of the picture.","Gabrielle,Stephanie,Megan,Gabriela,Katherine,Kelly","it's OK, no clue to what's going on but good use of light and dark,4,160,20","Looks like a murder,-50,300,20","Pinball meets a dark dream meets whale alien, drab,13,200,20","I like that it looks like a scene from perhaps a failed painted project,10,140,20","I think the grey and red inspire negative feelings but it's not the worst thing.,13,120,20","Too much going on, and I don't like the colors. It looks like a crime scene.,-50,220,20","Gabriela","I like that it looks like a scene from perhaps a failed painted project,10,140,20","Stephanie","Looks like a murder,-50,300,20","Kelly","Too much going on, and I don't like the colors. It looks like a crime scene.,-50,220,20","2"
"6515","","image-button-response_instructions","260","1612168","0.0-259.0","A2VNSNAN1LZBAM","","0","instructions","","","","","","","","","","","","","","","","","","","","","","","",""
"1293","","image-button-response","261","1613471","0.0-260.0","A2VNSNAN1LZBAM","","0","","","","","","","","","","","","","","","","","","","","","","","","",""
