"rt","url","trial_type","trial_index","time_elapsed","internal_node_id","participant_id","stimulus","button_pressed","Name","responses","response","key_press","variableName","fixationTime","condition","trial","photo","subjectRating","subjectResponse","agentsNames","agent_1_Response","agent_2_Response","agent_3_Response","agent_4_Response","agent_5_Response","agent_6_Response","kept_1_name","kept_1_response","kept_2_name","kept_2_response","kept_3_name","kept_3_response","errorCounter"
"12902","external_page_harvard.html","external-html","0","13565","0.0-0.0","A2WJMGV0HKQG3Z","","","","","","","","","","","","","","","","","","","","","","","","","","",""
"3132","","image-button-response","1","17331","0.0-1.0","A2WJMGV0HKQG3Z","","1","","","","","","","","","","","","","","","","","","","","","","","","",""
"3001","","image-button-response","2","20348","0.0-2.0-0.0","A2WJMGV0HKQG3Z","","1","phone","","","","","","","","","","","","","","","","","","","","","","","",""
"15168","","survey-text","3","35522","0.0-3.0-0.0","A2WJMGV0HKQG3Z","","","","{""Q0"":""A2WJMGV0HKQG3Z""}","","","","","","","","","","","","","","","","","","","","","","",""
"7243","","image-button-response_instructions","4","42770","0.0-4.0","A2WJMGV0HKQG3Z","","0","instructions","","","","","","","","","","","","","","","","","","","","","","","",""
"20068","","image-button-response_instructions","5","62842","0.0-5.0","A2WJMGV0HKQG3Z","img_art/ins/popularity/ins1.png","0","instructions","","","","","","","","","","","","","","","","","","","","","","","",""
"5596","","image-button-response_instructions","6","68441","0.0-6.0","A2WJMGV0HKQG3Z","img_art/ins/popularity/ins2.png","0","instructions","","","","","","","","","","","","","","","","","","","","","","","",""
"8065","","image-button-response_instructions","7","76509","0.0-7.0","A2WJMGV0HKQG3Z","img_art/ins/popularity/ins2Extreme.png","0","instructions","","","","","","","","","","","","","","","","","","","","","","","",""
"14422","","image-button-response_instructions","8","90936","0.0-8.0","A2WJMGV0HKQG3Z","img_art/ins/popularity/ins3KEEPpop.PNG","0","instructions","","","","","","","","","","","","","","","","","","","","","","","",""
"6071","","image-button-response_instructions","9","97009","0.0-9.0","A2WJMGV0HKQG3Z","img_art/ins/popularity/ins3ANamepop.PNG","0","instructions","","","","","","","","","","","","","","","","","","","","","","","",""
"3619","","image-button-response_instructions","10","100632","0.0-10.0","A2WJMGV0HKQG3Z","img_art/ins/popularity/ins3ARatingpop.png","0","instructions","","","","","","","","","","","","","","","","","","","","","","","",""
"6210","","image-button-response_instructions","11","106845","0.0-11.0","A2WJMGV0HKQG3Z","img_art/ins/popularity/ins3ATextpop.png","0","instructions","","","","","","","","","","","","","","","","","","","","","","","",""
"2619","","image-button-response_instructions","12","109468","0.0-12.0","A2WJMGV0HKQG3Z","img_art/ins/popularity/ins3ALikespop.png","0","instructions","","","","","","","","","","","","","","","","","","","","","","","",""
"4115","","image-button-response_instructions","13","113587","0.0-13.0","A2WJMGV0HKQG3Z","img_art/ins/popularity/ins3KEEPpop.PNG","0","instructions","","","","","","","","","","","","","","","","","","","","","","","",""
"10445","","image-button-response_instructions","14","124035","0.0-14.0","A2WJMGV0HKQG3Z","img_art/ins/popularity/ins3_5RED.png","0","instructions","","","","","","","","","","","","","","","","","","","","","","","",""
"3890","","image-button-response_instructions","15","127928","0.0-15.0","A2WJMGV0HKQG3Z","img_art/ins/popularity/ins3KEEPpop.PNG","0","instructions","","","","","","","","","","","","","","","","","","","","","","","",""
"2289","","image-button-response_instructions","16","130219","0.0-16.0","A2WJMGV0HKQG3Z","img_art/ins/popularity/ins4KEEPpop.PNG","0","instructions","","","","","","","","","","","","","","","","","","","","","","","",""
"2972","","image-button-response_instructions","17","133194","0.0-17.0","A2WJMGV0HKQG3Z","img_art/ins/popularity/ins5KEEPpop.PNG","0","instructions","","","","","","","","","","","","","","","","","","","","","","","",""
"2474","","image-button-response_instructions","18","135671","0.0-18.0","A2WJMGV0HKQG3Z","","0","instructions","","","","","","","","","","","","","","","","","","","","","","","",""
"12274","","survey-text","19","148065","0.0-19.0-0.0","A2WJMGV0HKQG3Z","","","","{""Q0"":""but""}","","","","","","","","","","","","","","","","","","","","","","",""
"10893","","survey-text","20","158962","0.0-20.0-0.0","A2WJMGV0HKQG3Z","","","","{""Q0"":""eye catching""}","","","","","","","","","","","","","","","","","","","","","","",""
"9222.399999976158","","image-slider-response","21","168202","0.0-21.0","A2WJMGV0HKQG3Z","","","","","38","","","","","","","","","","","","","","","","","","","","","",""
"null","","image-button-response","22","173214","0.0-22.0","A2WJMGV0HKQG3Z","img_art/ins/1.jpg","null","","","","","","","","","","","","","","","","","","","","","","","","",""
"15704","","image-button-response","23","188931","0.0-23.0","A2WJMGV0HKQG3Z","img_art/ins/1.jpg","4","","","","","","","","","","","","","","","","","","","","","","","","",""
"7305","","image-button-response","24","196243","0.0-24.0-0.0","A2WJMGV0HKQG3Z","img_art/ins/1.jpg","0","","","","","","","","","","","","","","","","","","","","","","","","",""
"9786","","image-button-response","25","206040","0.0-25.0-0.0","A2WJMGV0HKQG3Z","img_art/ins/1.jpg","5","","","","","","","","","","","","","","","","","","","","","","","","",""
"null","","html-keyboard-response","26","206550","0.0-26.0","A2WJMGV0HKQG3Z","<p style=""font-size: 48px;"">+</p>","","","","","null","allTrialResponses","500","1","-2","img_art/ins/1.jpg","38","eye catching","Allison,Ashley,Beth,Dora,Erika,Jen","looks like a lot of things going on in the mist,20,20,20","I just don't get why these type of art would be popular,-32,40,20","This color reminds me of poo,-46,60,20","looks like what my niece in 3rd grade did this afternoon,-50,80,20","I like the sophisticated brushwork,40,100,20","It reminds me of a candy land dream I had,36,120,20","Erika","I like the sophisticated brushwork,40,100,20","Allison","looks like a lot of things going on in the mist,20,20,20","Jen","It reminds me of a candy land dream I had,36,120,20","0"
"12495","","survey-text","27","219092","0.0-27.0-0.0","A2WJMGV0HKQG3Z","","","","{""Q0"":""colorful""}","","","","","","","","","","","","","","","","","","","","","","",""
"4183.400000095367","","image-slider-response","28","223280","0.0-28.0","A2WJMGV0HKQG3Z","","","","","11","","","","","","","","","","","","","","","","","","","","","",""
"4848","","image-button-response","29","228307","0.0-29.0","A2WJMGV0HKQG3Z","img_art/ins/2.jpg","1","","","","","","","","","","","","","","","","","","","","","","","","",""
"10023","","image-button-response","30","238344","0.0-30.0","A2WJMGV0HKQG3Z","img_art/ins/2.jpg","4","","","","","","","","","","","","","","","","","","","","","","","","",""
"3655","","image-button-response","31","242004","0.0-31.0-0.0","A2WJMGV0HKQG3Z","img_art/ins/2.jpg","1","","","","","","","","","","","","","","","","","","","","","","","","",""
"3089","","image-button-response","32","245098","0.0-32.0-0.0","A2WJMGV0HKQG3Z","img_art/ins/2.jpg","0","","","","","","","","","","","","","","","","","","","","","","","","",""
"null","","html-keyboard-response","33","246104","0.0-33.0","A2WJMGV0HKQG3Z","<p style=""font-size: 48px;"">+</p>","","","","","null","allTrialResponses","1000","1","-1","img_art/ins/2.jpg","11","colorful","Allison,Kara,Katie,Jenna,Erika,Jen","I don't have strong feelings about this,10,20,20","I like the blocks of color arrangements,30,160,20","too much color!,-28,180,20","One of my pet peevs,-48,140,20","I would never be able to compose a sophisticated pallete like this,48,100,20","It reminds me of a fireplace,36,120,20","Erika","I would never be able to compose a sophisticated pallete like this,48,100,20","Kara","I like the blocks of color arrangements,30,160,20","Allison","I don't have strong feelings about this,10,20,20","0"
"22314","","survey-text","34","268450","0.0-34.0-0.0","A2WJMGV0HKQG3Z","","","","{""Q0"":""dramatic""}","","","","","","","","","","","","","","","","","","","","","","",""
"4530.799999952316","","image-slider-response","35","272985","0.0-35.0","A2WJMGV0HKQG3Z","","","","","13","","","","","","","","","","","","","","","","","","","","","",""
"3036","","image-button-response","36","277994","0.0-36.0","A2WJMGV0HKQG3Z","img_art/ins/3.jpg","0","","","","","","","","","","","","","","","","","","","","","","","","",""
"761","","image-button-response","37","278765","0.0-37.0","A2WJMGV0HKQG3Z","img_art/ins/3.jpg","1","","","","","","","","","","","","","","","","","","","","","","","","",""
"887","","image-button-response","38","279657","0.0-38.0-0.0","A2WJMGV0HKQG3Z","img_art/ins/3.jpg","0","","","","","","","","","","","","","","","","","","","","","","","","",""
"5634","","image-button-response","39","285299","0.0-39.0-0.0","A2WJMGV0HKQG3Z","img_art/ins/3.jpg","2","","","","","","","","","","","","","","","","","","","","","","","","",""
"null","","html-keyboard-response","40","286308","0.0-40.0","A2WJMGV0HKQG3Z","<p style=""font-size: 48px;"">+</p>","","","","","null","allTrialResponses","1000","1","0","img_art/ins/3.jpg","13","dramatic","Allison,Kara,Mary,Leslie,Erika,Rose","enjoy the different shades of blue,22,20,20","calming blue is very nice,36,160,20","I like the overlapping of brushes,41,220,20","It's an alright work,15,200,20","I feel connected to the artist,40,100,20","My daily routine, it's depressing,-20,240,20","Kara","calming blue is very nice,36,160,20","Allison","enjoy the different shades of blue,22,20,20","Mary","I like the overlapping of brushes,41,220,20","0"
"23374","","image-button-response_instructions","41","309723","0.0-41.0","A2WJMGV0HKQG3Z","","0","instructions","","","","","","","","","","","","","","","","","","","","","","","",""
"14298","","survey-likert","42","324026","0.0-42.0-0.0","A2WJMGV0HKQG3Z","","","","{""Q0"":"""",""Q1"":0,""Q2"":1}","","","","","","","","","","","","","","","","","","","","","","",""
"5780","","survey-text","43","329842","0.0-43.0-0.0","A2WJMGV0HKQG3Z","","","","{""Q0"":""rock""}","","","","","","","","","","","","","","","","","","","","","","",""
"9258","","survey-text","44","339104","0.0-44.0-0.0","A2WJMGV0HKQG3Z","","","","{""Q0"":""different""}","","","","","","","","","","","","","","","","","","","","","","",""
"4261.799999952316","","image-slider-response","45","343370","0.0-45.0","A2WJMGV0HKQG3Z","","","","","28","","","","","","","","","","","","","","","","","","","","","",""
"null","","image-button-response","46","348463","0.0-46.0","A2WJMGV0HKQG3Z","img_art/15.jpg","null","","","","","","","","","","","","","","","","","","","","","","","","",""
"2468","","image-button-response","47","350941","0.0-47.0","A2WJMGV0HKQG3Z","img_art/15.jpg","1","","","","","","","","","","","","","","","","","","","","","","","","",""
"1501","","image-button-response","48","352449","0.0-48.0-0.0","A2WJMGV0HKQG3Z","img_art/15.jpg","2","","","","","","","","","","","","","","","","","","","","","","","","",""
"14992","","image-button-response","49","367449","0.0-49.0-0.0","A2WJMGV0HKQG3Z","img_art/15.jpg","3","","","","","","","","","","","","","","","","","","","","","","","","",""
"null","","html-keyboard-response","50","367955","0.0-50.0","A2WJMGV0HKQG3Z","<p style=""font-size: 48px;"">+</p>","","","","","null","allTrialResponses","500","1","1","img_art/15.jpg","28","different","Monica,Sarah,Maria,Brooke,Stephanie,Paige","I don't feel much of anything when looking at this, it's just a random pattern,1,360,20","this is really pretty! i like the pops of blue in all the black,26,180,20","i enjoy its apaprent simplicity (of colour and shape),32,120,20","This one reminds me of a postage stamp, but branches and leaves. Kind of fun.,15,60,20","This piece is too dark,-42,300,20","I feel nothing when looking at this,1,60,20","Sarah","this is really pretty! i like the pops of blue in all the black,26,180,20","Maria","i enjoy its apaprent simplicity (of colour and shape),32,120,20","Brooke","This one reminds me of a postage stamp, but branches and leaves. Kind of fun.,15,60,20","0"
"7585","","survey-text","51","375574","0.0-51.0-0.0","A2WJMGV0HKQG3Z","","","","{""Q0"":""love it""}","","","","","","","","","","","","","","","","","","","","","","",""
"5098.799999952316","","image-slider-response","52","380678","0.0-52.0","A2WJMGV0HKQG3Z","","","","","50","","","","","","","","","","","","","","","","","","","","","",""
"null","","image-button-response","53","385691","0.0-53.0","A2WJMGV0HKQG3Z","img_art/30.jpg","null","","","","","","","","","","","","","","","","","","","","","","","","",""
"3495","","image-button-response","54","389197","0.0-54.0","A2WJMGV0HKQG3Z","img_art/30.jpg","3","","","","","","","","","","","","","","","","","","","","","","","","",""
"1072","","image-button-response","55","390275","0.0-55.0-0.0","A2WJMGV0HKQG3Z","img_art/30.jpg","2","","","","","","","","","","","","","","","","","","","","","","","","",""
"3972","","image-button-response","56","394256","0.0-56.0-0.0","A2WJMGV0HKQG3Z","img_art/30.jpg","4","","","","","","","","","","","","","","","","","","","","","","","","",""
"null","","html-keyboard-response","57","395764","0.0-57.0","A2WJMGV0HKQG3Z","<p style=""font-size: 48px;"">+</p>","","","","","null","allTrialResponses","1500","1","2","img_art/30.jpg","50","love it","Jasmine,Sarah,Maria,Brooke,Jessica,Autumn","Pretty neutral about this one,0,340,20","looks simple, I can't see a lot of care going into this,-33,180,20","uplifted and yet calmed,15,120,20","Like the color and style,31,60,20","Looks cool , but no meaning,1,400,20","Absolutely messy,-31,340,20","Brooke","Like the color and style,31,60,20","Maria","uplifted and yet calmed,15,120,20","Jessica","Looks cool , but no meaning,1,400,20","0"
"8934","","survey-text","58","404708","0.0-58.0-0.0","A2WJMGV0HKQG3Z","","","","{""Q0"":""very calming""}","","","","","","","","","","","","","","","","","","","","","","",""
"3786.899999976158","","image-slider-response","59","408500","0.0-59.0","A2WJMGV0HKQG3Z","","","","","42","","","","","","","","","","","","","","","","","","","","","",""
"null","","image-button-response","60","413510","0.0-60.0","A2WJMGV0HKQG3Z","img_art/21.jpg","null","","","","","","","","","","","","","","","","","","","","","","","","",""
"6141","","image-button-response","61","419664","0.0-61.0","A2WJMGV0HKQG3Z","img_art/21.jpg","5","","","","","","","","","","","","","","","","","","","","","","","","",""
"1627","","image-button-response","62","421301","0.0-62.0-0.0","A2WJMGV0HKQG3Z","img_art/21.jpg","4","","","","","","","","","","","","","","","","","","","","","","","","",""
"2875","","image-button-response","63","424183","0.0-63.0-0.0","A2WJMGV0HKQG3Z","img_art/21.jpg","2","","","","","","","","","","","","","","","","","","","","","","","","",""
"null","","html-keyboard-response","64","425189","0.0-64.0","A2WJMGV0HKQG3Z","<p style=""font-size: 48px;"">+</p>","","","","","null","allTrialResponses","1000","1","3","img_art/21.jpg","42","very calming","Andrea,Jennifer,Maria,Brooke,Jessica,Katie","It feels like a day at sea but the pink is slightly jarring and holding my eye.,26,240,20","Bland, this painting is my least favorite,-20,380,20","brings up imagery of the sea and clashing, though not in a negative way,31,120,20","Like the colors. Don't like the white dots on the right side of the painting though.,15,60,20","I like how the colors blend together like a beautiful sunset.,25,400,20","Immediately a positive response! I like the muted colors. the blurriness calms me. It's serene,40,160,20","Katie","Immediately a positive response! I like the muted colors. the blurriness calms me. It's serene,40,160,20","Jessica","I like how the colors blend together like a beautiful sunset.,25,400,20","Maria","brings up imagery of the sea and clashing, though not in a negative way,31,120,20","0"
"17459","","survey-text","65","442680","0.0-65.0-0.0","A2WJMGV0HKQG3Z","","","","{""Q0"":""very messy""}","","","","","","","","","","","","","","","","","","","","","","",""
"4641.100000023842","","image-slider-response","66","447326","0.0-66.0","A2WJMGV0HKQG3Z","","","","","-16","","","","","","","","","","","","","","","","","","","","","",""
"null","","image-button-response","67","452342","0.0-67.0","A2WJMGV0HKQG3Z","img_art/7.jpg","null","","","","","","","","","","","","","","","","","","","","","","","","",""
"606","","image-button-response","68","452961","0.0-68.0","A2WJMGV0HKQG3Z","img_art/7.jpg","3","","","","","","","","","","","","","","","","","","","","","","","","",""
"4369","","image-button-response","69","457344","0.0-69.0-0.0","A2WJMGV0HKQG3Z","img_art/7.jpg","5","","","","","","","","","","","","","","","","","","","","","","","","",""
"2458","","image-button-response","70","459808","0.0-70.0-0.0","A2WJMGV0HKQG3Z","img_art/7.jpg","2","","","","","","","","","","","","","","","","","","","","","","","","",""
"null","","html-keyboard-response","71","460312","0.0-71.0","A2WJMGV0HKQG3Z","<p style=""font-size: 48px;"">+</p>","","","","","null","allTrialResponses","500","1","4","img_art/7.jpg","-16","very messy","Michaela,Sophia,Maria,Margaret,Jessica,Katie","It looks like maybe some seeds?,14,260,20","Is this cookie dough?  Yum!,-10,280,20","elicits no real response,0,120,20","looks like a close up of irritated skin under a microscope,-49,100,20","Looks like a natural texture, reminds me of rocks.,0,400,20","I see dryness, which is sad. Dirt, sand, the dessert. Barren dry lifeless,-30,160,20","Margaret","looks like a close up of irritated skin under a microscope,-49,100,20","Katie","I see dryness, which is sad. Dirt, sand, the dessert. Barren dry lifeless,-30,160,20","Maria","elicits no real response,0,120,20","0"
"16380","","survey-text","72","476739","0.0-72.0-0.0","A2WJMGV0HKQG3Z","","","","{""Q0"":""too busy""}","","","","","","","","","","","","","","","","","","","","","","",""
"5604.600000023842","","image-slider-response","73","482348","0.0-73.0","A2WJMGV0HKQG3Z","","","","","-4","","","","","","","","","","","","","","","","","","","","","",""
"4499","","image-button-response","74","487358","0.0-74.0","A2WJMGV0HKQG3Z","img_art/20.jpg","0","","","","","","","","","","","","","","","","","","","","","","","","",""
"1377","","image-button-response","75","488747","0.0-75.0","A2WJMGV0HKQG3Z","img_art/20.jpg","0","","","","","","","","","","","","","","","","","","","","","","","","",""
"7254","","image-button-response","76","496010","0.0-76.0-0.0","A2WJMGV0HKQG3Z","img_art/20.jpg","5","","","","","","","","","","","","","","","","","","","","","","","","",""
"2255","","image-button-response","77","498273","0.0-77.0-0.0","A2WJMGV0HKQG3Z","img_art/20.jpg","4","","","","","","","","","","","","","","","","","","","","","","","","",""
"null","","html-keyboard-response","78","498790","0.0-78.0","A2WJMGV0HKQG3Z","<p style=""font-size: 48px;"">+</p>","","","","","null","allTrialResponses","500","1","5","img_art/20.jpg","-4","too busy","Mariah,Briana,Maria,Margaret,Tiffany,Katie","It feels like it ""almost"" several things.,-10,140,20","Someone trying to be dali,-15,400,20","just feels generic,-18,120,20","It seems to be a neutral cool toned art piece. Gives me alamo/desert vibes,2,100,20","I feel powerful, like I am looking out a window at this machine, that I am in charge.,17,360,20","I don't like it. Dark sky and black figures. White objects remind me of bones.,-30,160,20","Mariah","It feels like it ""almost"" several things.,-10,140,20","Katie","I don't like it. Dark sky and black figures. White objects remind me of bones.,-30,160,20","Tiffany","I feel powerful, like I am looking out a window at this machine, that I am in charge.,17,360,20","0"
"6315","","survey-text","79","505141","0.0-79.0-0.0","A2WJMGV0HKQG3Z","","","","{""Q0"":""sky""}","","","","","","","","","","","","","","","","","","","","","","",""
"67155","","survey-text","80","572299","0.0-80.0-0.0","A2WJMGV0HKQG3Z","","","","{""Q0"":""too bland""}","","","","","","","","","","","","","","","","","","","","","","",""
"5632.800000071526","","image-slider-response","81","577936","0.0-81.0","A2WJMGV0HKQG3Z","","","","","-17","","","","","","","","","","","","","","","","","","","","","",""
"null","","image-button-response","82","582947","0.0-82.0","A2WJMGV0HKQG3Z","img_art/4.jpg","null","","","","","","","","","","","","","","","","","","","","","","","","",""
"81596","","image-button-response","83","664553","0.0-83.0","A2WJMGV0HKQG3Z","img_art/4.jpg","0","","","","","","","","","","","","","","","","","","","","","","","","",""
"2171","","image-button-response","84","666734","0.0-84.0-0.0","A2WJMGV0HKQG3Z","img_art/4.jpg","1","","","","","","","","","","","","","","","","","","","","","","","","",""
"1164","","image-button-response","85","667904","0.0-85.0-0.0","A2WJMGV0HKQG3Z","img_art/4.jpg","2","","","","","","","","","","","","","","","","","","","","","","","","",""
"null","","html-keyboard-response","86","668420","0.0-86.0","A2WJMGV0HKQG3Z","<p style=""font-size: 48px;"">+</p>","","","","","null","allTrialResponses","500","1","6","img_art/4.jpg","-17","too bland","Mariah,Shannon,Victoria,Brittany,Tiffany,Katie","Movement. Snakes. Hair. The uncertainty makes my eye return.,21,140,20","I think that this picture is too boring in terms of color and it looks ugly.,-41,220,20","dont like the colors,-31,400,20","Rather boring design and colors.,-21,40,20","The sickly looking colors make me feel very uncomfortable.,-35,360,20","Warm colors, but too random. I feel like I'm seeing something mangled. It is unpleasant.,-30,160,20","Mariah","Movement. Snakes. Hair. The uncertainty makes my eye return.,21,140,20","Shannon","I think that this picture is too boring in terms of color and it looks ugly.,-41,220,20","Victoria","dont like the colors,-31,400,20","0"
"72045","","survey-text","87","740510","0.0-87.0-0.0","A2WJMGV0HKQG3Z","","","","{""Q0"":""very bold""}","","","","","","","","","","","","","","","","","","","","","","",""
"3720","","image-slider-response","88","744234","0.0-88.0","A2WJMGV0HKQG3Z","","","","","11","","","","","","","","","","","","","","","","","","","","","",""
"null","","image-button-response","89","749257","0.0-89.0","A2WJMGV0HKQG3Z","img_art/22.jpg","null","","","","","","","","","","","","","","","","","","","","","","","","",""
"41146","","image-button-response","90","790414","0.0-90.0","A2WJMGV0HKQG3Z","img_art/22.jpg","4","","","","","","","","","","","","","","","","","","","","","","","","",""
"1033","","image-button-response","91","791455","0.0-91.0-0.0","A2WJMGV0HKQG3Z","img_art/22.jpg","4","","","","","","","","","","","","","","","","","","","","","","","","",""
"968","","image-button-response","92","798194","0.0-91.1-0.1","A2WJMGV0HKQG3Z","img_art/22.jpg","0","","","","","","","","","","","","","","","","","","","","","","","","",""
"938","","image-button-response","93","799141","0.0-92.0-0.0","A2WJMGV0HKQG3Z","img_art/22.jpg","1","","","","","","","","","","","","","","","","","","","","","","","","",""
"null","","html-keyboard-response","94","800658","0.0-93.0","A2WJMGV0HKQG3Z","<p style=""font-size: 48px;"">+</p>","","","","","null","allTrialResponses","1500","1","7","img_art/22.jpg","11","very bold","Mariah,Shannon,Victoria,Hannah,Mackenzie,Shelby","The colors are pleasant, the shapes are inviting.,21,140,20","I think this picture looks interesting because of the way the colors work together.,20,220,20","love how the colors blend,42,400,20","This one would work in the right frame. It's nice.,20,240,20","Different shapes within the image make it interesting to look at,20,20,20","This painting has a very nostalgic feel,20,240,20","Mackenzie","Different shapes within the image make it interesting to look at,20,20,20","Mariah","The colors are pleasant, the shapes are inviting.,21,140,20","Shannon","I think this picture looks interesting because of the way the colors work together.,20,220,20","2"
"10061","","survey-text","95","810728","0.0-94.0-0.0","A2WJMGV0HKQG3Z","","","","{""Q0"":""very interesting""}","","","","","","","","","","","","","","","","","","","","","","",""
"3671.7999999523163","","image-slider-response","96","814405","0.0-95.0","A2WJMGV0HKQG3Z","","","","","49","","","","","","","","","","","","","","","","","","","","","",""
"null","","image-button-response","97","819418","0.0-96.0","A2WJMGV0HKQG3Z","img_art/27.jpg","null","","","","","","","","","","","","","","","","","","","","","","","","",""
"3575","","image-button-response","98","823009","0.0-97.0","A2WJMGV0HKQG3Z","img_art/27.jpg","2","","","","","","","","","","","","","","","","","","","","","","","","",""
"6867","","image-button-response","99","829881","0.0-98.0-0.0","A2WJMGV0HKQG3Z","img_art/27.jpg","0","","","","","","","","","","","","","","","","","","","","","","","","",""
"544","","image-button-response","100","830432","0.0-99.0-0.0","A2WJMGV0HKQG3Z","img_art/27.jpg","1","","","","","","","","","","","","","","","","","","","","","","","","",""
"null","","html-keyboard-response","101","831949","0.0-100.0","A2WJMGV0HKQG3Z","<p style=""font-size: 48px;"">+</p>","","","","","null","allTrialResponses","1500","1","8","img_art/27.jpg","49","very interesting","Mariah,Shannon,Hailey,Haley,Mackenzie,Lindsey","The green lines disrupt the image in an unpleasant and hurried way.,-30,140,20","This image could do a better job of showing what is going on and it could use more colors.,-42,220,20","fruity and sweet. warm and juicy,10,200,20","First thought is again, that this looks like a child's art assignment,-20,220,20","The color palette isn't my taste,-24,20,20","Looks like my niece's doodles.,-50,400,20","Hailey","fruity and sweet. warm and juicy,10,200,20","Mariah","The green lines disrupt the image in an unpleasant and hurried way.,-30,140,20","Shannon","This image could do a better job of showing what is going on and it could use more colors.,-42,220,20","2"
"30501","","survey-text","102","862466","0.0-101.0-0.0","A2WJMGV0HKQG3Z","","","","{""Q0"":""very unusual""}","","","","","","","","","","","","","","","","","","","","","","",""
"4145.899999976158","","image-slider-response","103","866617","0.0-102.0","A2WJMGV0HKQG3Z","","","","","-39","","","","","","","","","","","","","","","","","","","","","",""
"null","","image-button-response","104","871627","0.0-103.0","A2WJMGV0HKQG3Z","img_art/26.jpg","null","","","","","","","","","","","","","","","","","","","","","","","","",""
"8352","","image-button-response","105","879991","0.0-104.0","A2WJMGV0HKQG3Z","img_art/26.jpg","3","","","","","","","","","","","","","","","","","","","","","","","","",""
"1186","","image-button-response","106","881185","0.0-105.0-0.0","A2WJMGV0HKQG3Z","img_art/26.jpg","5","","","","","","","","","","","","","","","","","","","","","","","","",""
"683","","image-button-response","107","881877","0.0-106.0-0.0","A2WJMGV0HKQG3Z","img_art/26.jpg","4","","","","","","","","","","","","","","","","","","","","","","","","",""
"null","","html-keyboard-response","108","883380","0.0-107.0","A2WJMGV0HKQG3Z","<p style=""font-size: 48px;"">+</p>","","","","","null","allTrialResponses","1500","1","9","img_art/26.jpg","-39","very unusual","Mariah,Shannon,Hailey,Mary,Madeline,Dominique","Pleasant but bland.,10,140,20","I like that it looks like an actual picture and isn't just random colors.,25,220,20","bedroom in the outdoors. warm,9,200,20","I can tell it's some sort of outdoor scene. It looks very amateurish.,-9,180,20","I like the shapes but needs more detail i think,3,40,20","Small town and home feel on A nice day.,28,400,20","Mary","I can tell it's some sort of outdoor scene. It looks very amateurish.,-9,180,20","Dominique","Small town and home feel on A nice day.,28,400,20","Madeline","I like the shapes but needs more detail i think,3,40,20","2"
"9433","","survey-text","109","892824","0.0-108.0-0.0","A2WJMGV0HKQG3Z","","","","{""Q0"":""very simple""}","","","","","","","","","","","","","","","","","","","","","","",""
"5372.799999952316","","image-slider-response","110","898201","0.0-109.0","A2WJMGV0HKQG3Z","","","","","-25","","","","","","","","","","","","","","","","","","","","","",""
"null","","image-button-response","111","903221","0.0-110.0","A2WJMGV0HKQG3Z","img_art/6.jpg","null","","","","","","","","","","","","","","","","","","","","","","","","",""
"645","","image-button-response","112","903870","0.0-111.0","A2WJMGV0HKQG3Z","img_art/6.jpg","0","","","","","","","","","","","","","","","","","","","","","","","","",""
"811","","image-button-response","113","904686","0.0-112.0-0.0","A2WJMGV0HKQG3Z","img_art/6.jpg","1","","","","","","","","","","","","","","","","","","","","","","","","",""
"7758","","image-button-response","114","912452","0.0-113.0-0.0","A2WJMGV0HKQG3Z","img_art/6.jpg","4","","","","","","","","","","","","","","","","","","","","","","","","",""
"null","","html-keyboard-response","115","913974","0.0-114.0","A2WJMGV0HKQG3Z","<p style=""font-size: 48px;"">+</p>","","","","","null","allTrialResponses","1500","1","10","img_art/6.jpg","-25","very simple","Alicia,Abigail,Erica,Mary,Madeline,Dominique","kids book cover, uninteresting.,-10,120,20","This picture is weird,-6,20,20","positive because of bright colours and a bird,20,80,20","This piece has some emotion of isolation. I like it.,6,180,20","Looks a bit like a pickle or something?,-16,40,20","Calm and catching,30,400,20","Alicia","kids book cover, uninteresting.,-10,120,20","Abigail","This picture is weird,-6,20,20","Madeline","Looks a bit like a pickle or something?,-16,40,20","2"
"4607","","survey-text","116","918623","0.0-115.0-0.0","A2WJMGV0HKQG3Z","","","","{""Q0"":""our""}","","","","","","","","","","","","","","","","","","","","","","",""
"9860","","survey-text","117","928486","0.0-116.0-0.0","A2WJMGV0HKQG3Z","","","","{""Q0"":""too simple""}","","","","","","","","","","","","","","","","","","","","","","",""
"18074.600000023842","","image-slider-response","118","946567","0.0-117.0","A2WJMGV0HKQG3Z","","","","","-39","","","","","","","","","","","","","","","","","","","","","",""
"4911","","image-button-response","119","951585","0.0-118.0","A2WJMGV0HKQG3Z","img_art/5.jpg","2","","","","","","","","","","","","","","","","","","","","","","","","",""
"3736","","image-button-response","120","955331","0.0-119.0","A2WJMGV0HKQG3Z","img_art/5.jpg","0","","","","","","","","","","","","","","","","","","","","","","","","",""
"987","","image-button-response","121","956324","0.0-120.0-0.0","A2WJMGV0HKQG3Z","img_art/5.jpg","1","","","","","","","","","","","","","","","","","","","","","","","","",""
"1056","","image-button-response","122","957387","0.0-121.0-0.0","A2WJMGV0HKQG3Z","img_art/5.jpg","2","","","","","","","","","","","","","","","","","","","","","","","","",""
"null","","html-keyboard-response","123","958903","0.0-122.0","A2WJMGV0HKQG3Z","<p style=""font-size: 48px;"">+</p>","","","","","null","allTrialResponses","1500","1","11","img_art/5.jpg","-39","too simple","Alicia,Abigail,Heather,Kaitlin,Madeline,Angelica","pointless, ugly, not creative.,-50,120,20","Reminds me of a broken umbrella,-9,20,20","its something. i just dont know what it is.,1,260,20","a bit confused about this picture,-9,60,20","A bit too messy in my eyes,-4,40,20","This is interesting and nice.,16,280,20","Alicia","pointless, ugly, not creative.,-50,120,20","Abigail","Reminds me of a broken umbrella,-9,20,20","Heather","its something. i just dont know what it is.,1,260,20","2"
"9833","","survey-text","124","968770","0.0-123.0-0.0","A2WJMGV0HKQG3Z","","","","{""Q0"":""very pleasant""}","","","","","","","","","","","","","","","","","","","","","","",""
"4423.799999952316","","image-slider-response","125","973199","0.0-124.0","A2WJMGV0HKQG3Z","","","","","50","","","","","","","","","","","","","","","","","","","","","",""
"3616","","image-button-response","126","978215","0.0-125.0","A2WJMGV0HKQG3Z","img_art/24.jpg","1","","","","","","","","","","","","","","","","","","","","","","","","",""
"1070","","image-button-response","127","979295","0.0-126.0","A2WJMGV0HKQG3Z","img_art/24.jpg","0","","","","","","","","","","","","","","","","","","","","","","","","",""
"739","","image-button-response","128","980040","0.0-127.0-0.0","A2WJMGV0HKQG3Z","img_art/24.jpg","1","","","","","","","","","","","","","","","","","","","","","","","","",""
"1848","","image-button-response","129","981894","0.0-128.0-0.0","A2WJMGV0HKQG3Z","img_art/24.jpg","2","","","","","","","","","","","","","","","","","","","","","","","","",""
"null","","html-keyboard-response","130","982399","0.0-129.0","A2WJMGV0HKQG3Z","<p style=""font-size: 48px;"">+</p>","","","","","null","allTrialResponses","500","1","12","img_art/24.jpg","50","very pleasant","Alicia,Abigail,Heather,Kayla,Chloe,Samantha","Nature, abstract, I'd hang this in my house.,37,120,20","Beautiful waterfall I like waterfalls,39,20,20","i feel peace and wanting. i love waterfalls,50,260,20","It looks like a poor dead bunny in a field of flowers. I don't want the bunny to be dead.,-37,180,20","Pretty but cheesy,-15,220,20","Happy and relaxing bubbling brook,37,140,20","Alicia","Nature, abstract, I'd hang this in my house.,37,120,20","Abigail","Beautiful waterfall I like waterfalls,39,20,20","Heather","i feel peace and wanting. i love waterfalls,50,260,20","2"
"9749","","survey-text","131","992174","0.0-130.0-0.0","A2WJMGV0HKQG3Z","","","","{""Q0"":""too messy""}","","","","","","","","","","","","","","","","","","","","","","",""
"6509.799999952316","","image-slider-response","132","998688","0.0-131.0","A2WJMGV0HKQG3Z","","","","","-49","","","","","","","","","","","","","","","","","","","","","",""
"4701","","image-button-response","133","1003701","0.0-132.0","A2WJMGV0HKQG3Z","img_art/3.jpg","0","","","","","","","","","","","","","","","","","","","","","","","","",""
"786","","image-button-response","134","1004497","0.0-133.0","A2WJMGV0HKQG3Z","img_art/3.jpg","0","","","","","","","","","","","","","","","","","","","","","","","","",""
"900","","image-button-response","135","1005403","0.0-134.0-0.0","A2WJMGV0HKQG3Z","img_art/3.jpg","1","","","","","","","","","","","","","","","","","","","","","","","","",""
"1220","","image-button-response","136","1006631","0.0-135.0-0.0","A2WJMGV0HKQG3Z","img_art/3.jpg","2","","","","","","","","","","","","","","","","","","","","","","","","",""
"null","","html-keyboard-response","137","1007636","0.0-136.0","A2WJMGV0HKQG3Z","<p style=""font-size: 48px;"">+</p>","","","","","null","allTrialResponses","1000","1","13","img_art/3.jpg","-49","too messy","Alicia,Abigail,Heather,Cassidy,Makayla,Leah","scribbles in red. 2 minute piece.,-30,120,20","Reminded me of blood or something bad,-21,20,20","Blood splatter and one black spot.,1,260,20","Again, looks like a child's work. I don't get these types of pieces. Too simple,-47,140,20","Looks like blood scribbled on walls,-20,80,20","Scratchy scrawly all one color, looks like a mistake,-28,360,20","Alicia","scribbles in red. 2 minute piece.,-30,120,20","Abigail","Reminded me of blood or something bad,-21,20,20","Heather","Blood splatter and one black spot.,1,260,20","2"
"12320","","survey-text","138","1020006","0.0-137.0-0.0","A2WJMGV0HKQG3Z","","","","{""Q0"":""interesting""}","","","","","","","","","","","","","","","","","","","","","","",""
"3664","","image-slider-response","139","1023674","0.0-138.0","A2WJMGV0HKQG3Z","","","","","7","","","","","","","","","","","","","","","","","","","","","",""
"null","","image-button-response","140","1028683","0.0-139.0","A2WJMGV0HKQG3Z","img_art/29.jpg","null","","","","","","","","","","","","","","","","","","","","","","","","",""
"1218","","image-button-response","141","1029913","0.0-140.0","A2WJMGV0HKQG3Z","img_art/29.jpg","4","","","","","","","","","","","","","","","","","","","","","","","","",""
"4551","","image-button-response","142","1034471","0.0-141.0-0.0","A2WJMGV0HKQG3Z","img_art/29.jpg","3","","","","","","","","","","","","","","","","","","","","","","","","",""
"1055","","image-button-response","143","1035534","0.0-142.0-0.0","A2WJMGV0HKQG3Z","img_art/29.jpg","5","","","","","","","","","","","","","","","","","","","","","","","","",""
"null","","html-keyboard-response","144","1036542","0.0-143.0","A2WJMGV0HKQG3Z","<p style=""font-size: 48px;"">+</p>","","","","","null","allTrialResponses","1000","1","14","img_art/29.jpg","7","interesting","Alicia,Abigail,Heather,Rachel,Alyssa,Megan","easy, too abstract for me, don't get it.,-25,120,20","Messy and disorganized, to odark,-31,20,20","i dont know how it makes me feel.,1,260,20","It looks like someone did not like their art and drew an x over it.,-32,80,20","Its interesting although doesnt illicit any strong emotions from me,10,160,20","Pinball meets a dark dream meets whale alien, drab,13,200,20","Alyssa","Its interesting although doesnt illicit any strong emotions from me,10,160,20","Rachel","It looks like someone did not like their art and drew an x over it.,-32,80,20","Megan","Pinball meets a dark dream meets whale alien, drab,13,200,20","2"
"18033","","survey-text","145","1054616","0.0-144.0-0.0","A2WJMGV0HKQG3Z","","","","{""Q0"":""good use of colors""}","","","","","","","","","","","","","","","","","","","","","","",""
"4027.8000000715256","","image-slider-response","146","1058649","0.0-145.0","A2WJMGV0HKQG3Z","","","","","41","","","","","","","","","","","","","","","","","","","","","",""
"4431","","image-button-response","147","1063665","0.0-146.0","A2WJMGV0HKQG3Z","img_art/14.jpg","2","","","","","","","","","","","","","","","","","","","","","","","","",""
"893","","image-button-response","148","1064569","0.0-147.0","A2WJMGV0HKQG3Z","img_art/14.jpg","2","","","","","","","","","","","","","","","","","","","","","","","","",""
"1311","","image-button-response","149","1065886","0.0-148.0-0.0","A2WJMGV0HKQG3Z","img_art/14.jpg","0","","","","","","","","","","","","","","","","","","","","","","","","",""
"3102","","image-button-response","150","1068996","0.0-149.0-0.0","A2WJMGV0HKQG3Z","img_art/14.jpg","4","","","","","","","","","","","","","","","","","","","","","","","","",""
"null","","html-keyboard-response","151","1070504","0.0-150.0","A2WJMGV0HKQG3Z","<p style=""font-size: 48px;"">+</p>","","","","","null","allTrialResponses","1500","1","15","img_art/14.jpg","41","good use of colors","Erika,Miranda,Elizabeth,Rachel,Alyssa,Megan","It's alright, something I'd see in a guest bedroom,10,100,20","This just looks like a kids watercolor painting.,-30,320,20","Love the abstractness of this painting,39,20,20","Did not evoke much feeling except confusion. I am not sure what to make of this one.,-20,80,20","Beautiful tree,the use of water colors makes it soothing to look at,37,160,20","Baby's room palette with tree confusion in a more confused substrate.,-15,200,20","Elizabeth","Love the abstractness of this painting,39,20,20","Erika","It's alright, something I'd see in a guest bedroom,10,100,20","Alyssa","Beautiful tree,the use of water colors makes it soothing to look at,37,160,20","2"
"6643","","survey-text","152","1077207","0.0-151.0-0.0","A2WJMGV0HKQG3Z","","","","{""Q0"":""course""}","","","","","","","","","","","","","","","","","","","","","","",""
"7904","","survey-text","153","1085114","0.0-152.0-0.0","A2WJMGV0HKQG3Z","","","","{""Q0"":""beautiful""}","","","","","","","","","","","","","","","","","","","","","","",""
"4875","","image-slider-response","154","1089993","0.0-153.0","A2WJMGV0HKQG3Z","","","","","50","","","","","","","","","","","","","","","","","","","","","",""
"4361","","image-button-response","155","1095011","0.0-154.0","A2WJMGV0HKQG3Z","img_art/17.jpg","4","","","","","","","","","","","","","","","","","","","","","","","","",""
"1128","","image-button-response","156","1096152","0.0-155.0","A2WJMGV0HKQG3Z","img_art/17.jpg","4","","","","","","","","","","","","","","","","","","","","","","","","",""
"984","","image-button-response","157","1097144","0.0-156.0-0.0","A2WJMGV0HKQG3Z","img_art/17.jpg","5","","","","","","","","","","","","","","","","","","","","","","","","",""
"3537","","image-button-response","158","1100687","0.0-157.0-0.0","A2WJMGV0HKQG3Z","img_art/17.jpg","2","","","","","","","","","","","","","","","","","","","","","","","","",""
"null","","html-keyboard-response","159","1101692","0.0-158.0","A2WJMGV0HKQG3Z","<p style=""font-size: 48px;"">+</p>","","","","","null","allTrialResponses","1000","1","16","img_art/17.jpg","50","beautiful","Erika,Kylie,Elizabeth,Katelyn,Alyssa,Kaylee","I love vague, dreamlike styles,50,100,20","Looks like an explosion of pretty artwork,45,300,20","Has a unique vibe to it,50,20,20","Doesnt completely turn me off but wouldnt look twice,-3,100,20","It gorgeous and i love how the tree is almost 3 dimensional.So many elements to it.,50,160,20","colorful tree really cool,27,200,20","Alyssa","It gorgeous and i love how the tree is almost 3 dimensional.So many elements to it.,50,160,20","Kaylee","colorful tree really cool,27,200,20","Elizabeth","Has a unique vibe to it,50,20,20","2"
"8436","","survey-text","160","1110177","0.0-159.0-0.0","A2WJMGV0HKQG3Z","","","","{""Q0"":""powerful""}","","","","","","","","","","","","","","","","","","","","","","",""
"4274.700000047684","","image-slider-response","161","1114455","0.0-160.0","A2WJMGV0HKQG3Z","","","","","22","","","","","","","","","","","","","","","","","","","","","",""
"3067","","image-button-response","162","1119475","0.0-161.0","A2WJMGV0HKQG3Z","img_art/23.jpg","0","","","","","","","","","","","","","","","","","","","","","","","","",""
"1629","","image-button-response","163","1121121","0.0-162.0","A2WJMGV0HKQG3Z","img_art/23.jpg","4","","","","","","","","","","","","","","","","","","","","","","","","",""
"2021","","image-button-response","164","1123148","0.0-163.0-0.0","A2WJMGV0HKQG3Z","img_art/23.jpg","0","","","","","","","","","","","","","","","","","","","","","","","","",""
"1678","","image-button-response","165","1124832","0.0-164.0-0.0","A2WJMGV0HKQG3Z","img_art/23.jpg","1","","","","","","","","","","","","","","","","","","","","","","","","",""
"null","","html-keyboard-response","166","1125336","0.0-165.0","A2WJMGV0HKQG3Z","<p style=""font-size: 48px;"">+</p>","","","","","null","allTrialResponses","500","1","17","img_art/23.jpg","22","powerful","Brianna,Olivia,Elizabeth,Jacqueline,Alyssa,Kaylee","I love the rainbow!,12,20,20","happiness in the universe,28,40,20","Fantastic blend of color and forms,43,20,20","It's kind of neat with the white slash marks.,13,300,20","Very bright and eye catching.The White silhouettes remind me of people celebrating.,31,160,20","i completely dont get it,-47,200,20","Alyssa","Very bright and eye catching.The White silhouettes remind me of people celebrating.,31,160,20","Brianna","I love the rainbow!,12,20,20","Olivia","happiness in the universe,28,40,20","2"
"7687","","survey-text","167","1133058","0.0-166.0-0.0","A2WJMGV0HKQG3Z","","","","{""Q0"":""too dark""}","","","","","","","","","","","","","","","","","","","","","","",""
"4133.5","","image-slider-response","168","1137196","0.0-167.0","A2WJMGV0HKQG3Z","","","","","-30","","","","","","","","","","","","","","","","","","","","","",""
"2842","","image-button-response","169","1142202","0.0-168.0","A2WJMGV0HKQG3Z","img_art/25.jpg","1","","","","","","","","","","","","","","","","","","","","","","","","",""
"1090","","image-button-response","170","1143302","0.0-169.0","A2WJMGV0HKQG3Z","img_art/25.jpg","1","","","","","","","","","","","","","","","","","","","","","","","","",""
"2057","","image-button-response","171","1145365","0.0-170.0-0.0","A2WJMGV0HKQG3Z","img_art/25.jpg","2","","","","","","","","","","","","","","","","","","","","","","","","",""
"2351","","image-button-response","172","1147723","0.0-171.0-0.0","A2WJMGV0HKQG3Z","img_art/25.jpg","3","","","","","","","","","","","","","","","","","","","","","","","","",""
"null","","html-keyboard-response","173","1148227","0.0-172.0","A2WJMGV0HKQG3Z","<p style=""font-size: 48px;"">+</p>","","","","","null","allTrialResponses","500","1","18","img_art/25.jpg","-30","too dark","Brianna,Olivia,Laura,Chelsea,Alyssa,Taylor","This would definitely be hanging in my bedroom in my house,50,20,20","reminds me of burning man,18,40,20","I think of death,-28,320,20","The color and image are unsettling.,-29,180,20","Dark silhouette against the murky background Illicites an ominous feeling. Don't really like it.,-20,160,20","It makes me feel a little uneasy, but I like the painting,11,340,20","Olivia","reminds me of burning man,18,40,20","Laura","I think of death,-28,320,20","Chelsea","The color and image are unsettling.,-29,180,20","2"
"11265","","survey-text","174","1159530","0.0-173.0-0.0","A2WJMGV0HKQG3Z","","","","{""Q0"":""very busy""}","","","","","","","","","","","","","","","","","","","","","","",""
"7499.700000047684","","image-slider-response","175","1167034","0.0-174.0","A2WJMGV0HKQG3Z","","","","","2","","","","","","","","","","","","","","","","","","","","","",""
"2547","","image-button-response","176","1172049","0.0-175.0","A2WJMGV0HKQG3Z","img_art/11.jpg","1","","","","","","","","","","","","","","","","","","","","","","","","",""
"978","","image-button-response","177","1173039","0.0-176.0","A2WJMGV0HKQG3Z","img_art/11.jpg","0","","","","","","","","","","","","","","","","","","","","","","","","",""
"950","","image-button-response","178","1173994","0.0-177.0-0.0","A2WJMGV0HKQG3Z","img_art/11.jpg","1","","","","","","","","","","","","","","","","","","","","","","","","",""
"1684","","image-button-response","179","1175685","0.0-178.0-0.0","A2WJMGV0HKQG3Z","img_art/11.jpg","2","","","","","","","","","","","","","","","","","","","","","","","","",""
"null","","html-keyboard-response","180","1177197","0.0-179.0","A2WJMGV0HKQG3Z","<p style=""font-size: 48px;"">+</p>","","","","","null","allTrialResponses","1500","1","19","img_art/11.jpg","2","very busy","Savannah,Olivia,Laura,Chelsea,Katherine,Nicole","Not quite as abstract as I'd like- It's clearly a dingy city.,-18,200,20","business of traffic,10,40,20","i think of beatnik music and dark piano lounges,25,320,20","I like the harsh black lines against a soft background.,27,180,20","Makes me feel like my vision is breaking,19,120,20","Those vertical strokes are to die for and I love these colors !!!,50,20,20","Savannah","Not quite as abstract as I'd like- It's clearly a dingy city.,-18,200,20","Olivia","business of traffic,10,40,20","Laura","i think of beatnik music and dark piano lounges,25,320,20","2"
"11026","","survey-text","181","1188235","0.0-180.0-0.0","A2WJMGV0HKQG3Z","","","","{""Q0"":""eye catching""}","","","","","","","","","","","","","","","","","","","","","","",""
"3569.8000000715256","","image-slider-response","182","1191809","0.0-181.0","A2WJMGV0HKQG3Z","","","","","21","","","","","","","","","","","","","","","","","","","","","",""
"null","","image-button-response","183","1196819","0.0-182.0","A2WJMGV0HKQG3Z","img_art/10.jpg","null","","","","","","","","","","","","","","","","","","","","","","","","",""
"3921","","image-button-response","184","1200752","0.0-183.0","A2WJMGV0HKQG3Z","img_art/10.jpg","4","","","","","","","","","","","","","","","","","","","","","","","","",""
"1747","","image-button-response","185","1202504","0.0-184.0-0.0","A2WJMGV0HKQG3Z","img_art/10.jpg","0","","","","","","","","","","","","","","","","","","","","","","","","",""
"947","","image-button-response","186","1203456","0.0-185.0-0.0","A2WJMGV0HKQG3Z","img_art/10.jpg","1","","","","","","","","","","","","","","","","","","","","","","","","",""
"null","","html-keyboard-response","187","1204964","0.0-186.0","A2WJMGV0HKQG3Z","<p style=""font-size: 48px;"">+</p>","","","","","null","allTrialResponses","1500","1","20","img_art/10.jpg","21","eye catching","Savannah,Olivia,Laura,Sydney,Molly,Sabrina","This is a scribble of a mad man. Appears low effort.,-33,200,20","feeling the turmoil and ride,12,40,20","I feel a state of readiness without anxiety.,24,320,20","This piece is unusual in a way that makes me uncomfortable.,-5,320,20","For me, it looks like a giant ship on the sea and it's astonishing.,30,340,20","I love the dark and edgy nature of this,50,120,20","Molly","For me, it looks like a giant ship on the sea and it's astonishing.,30,340,20","Savannah","This is a scribble of a mad man. Appears low effort.,-33,200,20","Olivia","feeling the turmoil and ride,12,40,20","2"
"4983","","survey-text","188","1210001","0.0-187.0-0.0","A2WJMGV0HKQG3Z","","","","{""Q0"":""we""}","","","","","","","","","","","","","","","","","","","","","","",""
"8923","","survey-text","189","1218927","0.0-188.0-0.0","A2WJMGV0HKQG3Z","","","","{""Q0"":""love it""}","","","","","","","","","","","","","","","","","","","","","","",""
"4782.200000047684","","image-slider-response","190","1223713","0.0-189.0","A2WJMGV0HKQG3Z","","","","","50","","","","","","","","","","","","","","","","","","","","","",""
"3660","","image-button-response","191","1228722","0.0-190.0","A2WJMGV0HKQG3Z","img_art/8.jpg","2","","","","","","","","","","","","","","","","","","","","","","","","",""
"537","","image-button-response","192","1229272","0.0-191.0","A2WJMGV0HKQG3Z","img_art/8.jpg","0","","","","","","","","","","","","","","","","","","","","","","","","",""
"1183","","image-button-response","193","1230461","0.0-192.0-0.0","A2WJMGV0HKQG3Z","img_art/8.jpg","2","","","","","","","","","","","","","","","","","","","","","","","","",""
"1908","","image-button-response","194","1232376","0.0-193.0-0.0","A2WJMGV0HKQG3Z","img_art/8.jpg","4","","","","","","","","","","","","","","","","","","","","","","","","",""
"null","","html-keyboard-response","195","1233380","0.0-194.0","A2WJMGV0HKQG3Z","<p style=""font-size: 48px;"">+</p>","","","","","null","allTrialResponses","1000","1","21","img_art/8.jpg","50","love it","Savannah,Olivia,Sierra,Ashley,Molly,Catherine","Despite the detail, this picture is very abstract!,31,200,20","being watched over,17,40,20","i love the colors, the church and the face,42,260,20","Escher? Dali? Could be their lovechild?,50,320,20","Different styles make this picture outstanding.,20,340,20","Lost in a big city confuse as to where to go to next. No matter if you live in a mansion or homeless. Being bigger than what is going on around you,30,160,20","Savannah","Despite the detail, this picture is very abstract!,31,200,20","Sierra","i love the colors, the church and the face,42,260,20","Molly","Different styles make this picture outstanding.,20,340,20","2"
"14096","","survey-text","196","1247509","0.0-195.0-0.0","A2WJMGV0HKQG3Z","","","","{""Q0"":""too unusual""}","","","","","","","","","","","","","","","","","","","","","","",""
"3923.7000000476837","","image-slider-response","197","1251441","0.0-196.0","A2WJMGV0HKQG3Z","","","","","-34","","","","","","","","","","","","","","","","","","","","","",""
"3817","","image-button-response","198","1256447","0.0-197.0","A2WJMGV0HKQG3Z","img_art/12.jpg","1","","","","","","","","","","","","","","","","","","","","","","","","",""
"196","","image-button-response","199","1256653","0.0-198.0","A2WJMGV0HKQG3Z","img_art/12.jpg","2","","","","","","","","","","","","","","","","","","","","","","","","",""
"863","","image-button-response","200","1257520","0.0-199.0-0.0","A2WJMGV0HKQG3Z","img_art/12.jpg","1","","","","","","","","","","","","","","","","","","","","","","","","",""
"4669","","image-button-response","201","1262198","0.0-200.0-0.0","A2WJMGV0HKQG3Z","img_art/12.jpg","5","","","","","","","","","","","","","","","","","","","","","","","","",""
"null","","html-keyboard-response","202","1262704","0.0-201.0","A2WJMGV0HKQG3Z","<p style=""font-size: 48px;"">+</p>","","","","","null","allTrialResponses","500","1","22","img_art/12.jpg","-34","too unusual","Savannah,Natalie,Sierra,Grace,Molly,Bailey","Almost natural flowing between abstract sections.,27,200,20","my reaction is that the picture is wierd,-11,400,20","i dont see the point.,-19,260,20","Love the colors & the abstractness.,31,180,20","Seems to be puzzles.,25,340,20","Too many blocks. I can't see a purpose or a focal point,-44,360,20","Sierra","i dont see the point.,-19,260,20","Natalie","my reaction is that the picture is wierd,-11,400,20","Bailey","Too many blocks. I can't see a purpose or a focal point,-44,360,20","2"
"9743","","survey-text","203","1272515","0.0-202.0-0.0","A2WJMGV0HKQG3Z","","","","{""Q0"":""nothing great""}","","","","","","","","","","","","","","","","","","","","","","",""
"4175.200000047684","","image-slider-response","204","1276695","0.0-203.0","A2WJMGV0HKQG3Z","","","","","-37","","","","","","","","","","","","","","","","","","","","","",""
"null","","image-button-response","205","1281713","0.0-204.0","A2WJMGV0HKQG3Z","img_art/13.jpg","null","","","","","","","","","","","","","","","","","","","","","","","","",""
"2991","","image-button-response","206","1284715","0.0-205.0","A2WJMGV0HKQG3Z","img_art/13.jpg","3","","","","","","","","","","","","","","","","","","","","","","","","",""
"1800","","image-button-response","207","1286522","0.0-206.0-0.0","A2WJMGV0HKQG3Z","img_art/13.jpg","2","","","","","","","","","","","","","","","","","","","","","","","","",""
"2643","","image-button-response","208","1289174","0.0-207.0-0.0","A2WJMGV0HKQG3Z","img_art/13.jpg","5","","","","","","","","","","","","","","","","","","","","","","","","",""
"null","","html-keyboard-response","209","1290680","0.0-208.0","A2WJMGV0HKQG3Z","<p style=""font-size: 48px;"">+</p>","","","","","null","allTrialResponses","1500","1","23","img_art/13.jpg","-37","nothing great","Morgan,Natalie,Sierra,Gabriela,Kelly,Bailey","Seeing the world through different lenses.,15,380,20","I like the colors,7,400,20","the blues are soothing but the splatters are too much,-3,260,20","It looks too common, is a bit boring,-41,140,20","I would hang this photo in my room.,21,220,20","Looks like an upclose dried set of water droplets. Boring.,-25,360,20","Gabriela","It looks too common, is a bit boring,-41,140,20","Sierra","the blues are soothing but the splatters are too much,-3,260,20","Bailey","Looks like an upclose dried set of water droplets. Boring.,-25,360,20","2"
"8575","","survey-text","210","1299305","0.0-209.0-0.0","A2WJMGV0HKQG3Z","","","","{""Q0"":""great colors""}","","","","","","","","","","","","","","","","","","","","","","",""
"4499.900000095367","","image-slider-response","211","1303809","0.0-210.0","A2WJMGV0HKQG3Z","","","","","30","","","","","","","","","","","","","","","","","","","","","",""
"null","","image-button-response","212","1308817","0.0-211.0","A2WJMGV0HKQG3Z","img_art/19.jpg","null","","","","","","","","","","","","","","","","","","","","","","","","",""
"1170","","image-button-response","213","1309999","0.0-212.0","A2WJMGV0HKQG3Z","img_art/19.jpg","2","","","","","","","","","","","","","","","","","","","","","","","","",""
"792","","image-button-response","214","1310796","0.0-213.0-0.0","A2WJMGV0HKQG3Z","img_art/19.jpg","1","","","","","","","","","","","","","","","","","","","","","","","","",""
"1932","","image-button-response","215","1312734","0.0-214.0-0.0","A2WJMGV0HKQG3Z","img_art/19.jpg","0","","","","","","","","","","","","","","","","","","","","","","","","",""
"null","","html-keyboard-response","216","1314240","0.0-215.0","A2WJMGV0HKQG3Z","<p style=""font-size: 48px;"">+</p>","","","","","null","allTrialResponses","1500","1","24","img_art/19.jpg","30","great colors","Courtney,Kimberly,Sierra,Gabriela,Kelsey,Bailey","Thats a lazy town,-8,280,20","The blue makes it look like it has depth,11,260,20","green and orange are my favorite colors.  this cityscape feels warm,34,260,20","it looks messy and non-unique.,-9,140,20","not sure if i like it or not,1,240,20","Horrible. Squiggly lines everywhere.,-50,360,20","Sierra","green and orange are my favorite colors.  this cityscape feels warm,34,260,20","Kimberly","The blue makes it look like it has depth,11,260,20","Courtney","Thats a lazy town,-8,280,20","2"
"11328","","survey-text","217","1325614","0.0-216.0-0.0","A2WJMGV0HKQG3Z","","","","{""Q0"":""very artful""}","","","","","","","","","","","","","","","","","","","","","","",""
"4236.5","","image-slider-response","218","1329855","0.0-217.0","A2WJMGV0HKQG3Z","","","","","29","","","","","","","","","","","","","","","","","","","","","",""
"null","","image-button-response","219","1334865","0.0-218.0","A2WJMGV0HKQG3Z","img_art/2.jpg","null","","","","","","","","","","","","","","","","","","","","","","","","",""
"1508","","image-button-response","220","1336386","0.0-219.0","A2WJMGV0HKQG3Z","img_art/2.jpg","2","","","","","","","","","","","","","","","","","","","","","","","","",""
"1847","","image-button-response","221","1338241","0.0-220.0-0.0","A2WJMGV0HKQG3Z","img_art/2.jpg","4","","","","","","","","","","","","","","","","","","","","","","","","",""
"1789","","image-button-response","222","1340037","0.0-221.0-0.0","A2WJMGV0HKQG3Z","img_art/2.jpg","1","","","","","","","","","","","","","","","","","","","","","","","","",""
"null","","html-keyboard-response","223","1340542","0.0-222.0","A2WJMGV0HKQG3Z","<p style=""font-size: 48px;"">+</p>","","","","","null","allTrialResponses","500","1","25","img_art/2.jpg","29","very artful","Courtney,Kimberly,Sierra,Allison,Julia,Rebecca","That looks look a cartoon character of some kind.,11,280,20","I like the green,13,260,20","looks like a happy child,15,260,20","Hate the vomit green.,-31,140,20","I like how it looks like a cute smiling face,43,40,20","do not understand,-21,100,20","Sierra","looks like a happy child,15,260,20","Julia","I like how it looks like a cute smiling face,43,40,20","Kimberly","I like the green,13,260,20","2"
"5904","","survey-text","224","1346496","0.0-223.0-0.0","A2WJMGV0HKQG3Z","","","","{""Q0"":""table""}","","","","","","","","","","","","","","","","","","","","","","",""
"6928","","survey-text","225","1353427","0.0-224.0-0.0","A2WJMGV0HKQG3Z","","","","{""Q0"":""too cute""}","","","","","","","","","","","","","","","","","","","","","","",""
"4591","","image-slider-response","226","1358024","0.0-225.0","A2WJMGV0HKQG3Z","","","","","47","","","","","","","","","","","","","","","","","","","","","",""
"null","","image-button-response","227","1363035","0.0-226.0","A2WJMGV0HKQG3Z","img_art/16.jpg","null","","","","","","","","","","","","","","","","","","","","","","","","",""
"6214","","image-button-response","228","1369262","0.0-227.0","A2WJMGV0HKQG3Z","img_art/16.jpg","4","","","","","","","","","","","","","","","","","","","","","","","","",""
"1041","","image-button-response","229","1370311","0.0-228.0-0.0","A2WJMGV0HKQG3Z","img_art/16.jpg","3","","","","","","","","","","","","","","","","","","","","","","","","",""
"4255","","image-button-response","230","1374575","0.0-229.0-0.0","A2WJMGV0HKQG3Z","img_art/16.jpg","5","","","","","","","","","","","","","","","","","","","","","","","","",""
"null","","html-keyboard-response","231","1375079","0.0-230.0","A2WJMGV0HKQG3Z","<p style=""font-size: 48px;"">+</p>","","","","","null","allTrialResponses","500","1","26","img_art/16.jpg","47","too cute","Meghan,Kimberly,Sierra,Alexa,Julia,Alexis","feels chaotic and morbid,-39,220,20","Weird and creepy,-30,260,20","it looks psychotic,-31,260,20","I can't figure out the meaning of this painting but it is pleasant to look at,40,40,20","I love the teddy bear,50,40,20","Don't like this technique. Too serial killer.,-50,100,20","Julia","I love the teddy bear,50,40,20","Alexa","I can't figure out the meaning of this painting but it is pleasant to look at,40,40,20","Alexis","Don't like this technique. Too serial killer.,-50,100,20","2"
"12825","","survey-text","232","1387972","0.0-231.0-0.0","A2WJMGV0HKQG3Z","","","","{""Q0"":""highly unusual""}","","","","","","","","","","","","","","","","","","","","","","",""
"2671","","image-slider-response","233","1390647","0.0-232.0","A2WJMGV0HKQG3Z","","","","","9","","","","","","","","","","","","","","","","","","","","","",""
"2817","","image-button-response","234","1395656","0.0-233.0","A2WJMGV0HKQG3Z","img_art/9.jpg","0","","","","","","","","","","","","","","","","","","","","","","","","",""
"741","","image-button-response","235","1396413","0.0-234.0","A2WJMGV0HKQG3Z","img_art/9.jpg","5","","","","","","","","","","","","","","","","","","","","","","","","",""
"1798","","image-button-response","236","1398218","0.0-235.0-0.0","A2WJMGV0HKQG3Z","img_art/9.jpg","3","","","","","","","","","","","","","","","","","","","","","","","","",""
"1922","","image-button-response","237","1400146","0.0-236.0-0.0","A2WJMGV0HKQG3Z","img_art/9.jpg","0","","","","","","","","","","","","","","","","","","","","","","","","",""
"null","","html-keyboard-response","238","1400649","0.0-237.0","A2WJMGV0HKQG3Z","<p style=""font-size: 48px;"">+</p>","","","","","null","allTrialResponses","500","1","27","img_art/9.jpg","9","highly unusual","Christina,Vanessa,Jenna,Alexa,Julia,Alexis","nice colors but it looks like it's from the 80s,10,240,20","It's too abstract for my taste. I wish there were more definition.,-9,380,20","gorgeous colors, love the little details,42,360,20","It's wild and chaotic but also beautiful and has some kind of calming factor about it,20,40,20","I don't like the framing of this one,-25,40,20","I like the sense of forboding, the green creates a claustrophobic feeling,10,100,20","Alexis","I like the sense of forboding, the green creates a claustrophobic feeling,10,100,20","Alexa","It's wild and chaotic but also beautiful and has some kind of calming factor about it,20,40,20","Christina","nice colors but it looks like it's from the 80s,10,240,20","2"
"7948","","survey-text","239","1408613","0.0-238.0-0.0","A2WJMGV0HKQG3Z","","","","{""Q0"":""love it""}","","","","","","","","","","","","","","","","","","","","","","",""
"3478.100000023842","","image-slider-response","240","1412095","0.0-239.0","A2WJMGV0HKQG3Z","","","","","45","","","","","","","","","","","","","","","","","","","","","",""
"null","","image-button-response","241","1417103","0.0-240.0","A2WJMGV0HKQG3Z","img_art/18.jpg","null","","","","","","","","","","","","","","","","","","","","","","","","",""
"980","","image-button-response","242","1418090","0.0-241.0","A2WJMGV0HKQG3Z","img_art/18.jpg","3","","","","","","","","","","","","","","","","","","","","","","","","",""
"2050","","image-button-response","243","1420145","0.0-242.0-0.0","A2WJMGV0HKQG3Z","img_art/18.jpg","1","","","","","","","","","","","","","","","","","","","","","","","","",""
"1328","","image-button-response","244","1421479","0.0-243.0-0.0","A2WJMGV0HKQG3Z","img_art/18.jpg","2","","","","","","","","","","","","","","","","","","","","","","","","",""
"null","","html-keyboard-response","245","1422994","0.0-244.0","A2WJMGV0HKQG3Z","<p style=""font-size: 48px;"">+</p>","","","","","null","allTrialResponses","1500","1","28","img_art/18.jpg","45","love it","Christina,Caroline,Emily,Alexa,Sara,Alexis","it looks dreary and not uplifting,-10,240,20","I think of the ocean and a boat tossed about on the waves. In the upper left is a figure. It is pleasant,30,100,20","Not my style but I can see some serious skill went int it.,21,40,20","Very wild and abstract. I love it and would definitely hang this up in my home,50,40,20","Too abstract and swirly,-21,160,20","Crusade-feel, but a little too abstract for my taste,23,100,20","Alexa","Very wild and abstract. I love it and would definitely hang this up in my home,50,40,20","Caroline","I think of the ocean and a boat tossed about on the waves. In the upper left is a figure. It is pleasant,30,100,20","Emily","Not my style but I can see some serious skill went int it.,21,40,20","2"
"14833","","survey-text","246","1437895","0.0-245.0-0.0","A2WJMGV0HKQG3Z","","","","{""Q0"":""very calming""}","","","","","","","","","","","","","","","","","","","","","","",""
"3871.1999999284744","","image-slider-response","247","1441771","0.0-246.0","A2WJMGV0HKQG3Z","","","","","50","","","","","","","","","","","","","","","","","","","","","",""
"4964","","image-button-response","248","1446783","0.0-247.0","A2WJMGV0HKQG3Z","img_art/28.jpg","1","","","","","","","","","","","","","","","","","","","","","","","","",""
"1366","","image-button-response","249","1448154","0.0-248.0","A2WJMGV0HKQG3Z","img_art/28.jpg","0","","","","","","","","","","","","","","","","","","","","","","","","",""
"893","","image-button-response","250","1449053","0.0-249.0-0.0","A2WJMGV0HKQG3Z","img_art/28.jpg","1","","","","","","","","","","","","","","","","","","","","","","","","",""
"4686","","image-button-response","251","1453746","0.0-250.0-0.0","A2WJMGV0HKQG3Z","img_art/28.jpg","3","","","","","","","","","","","","","","","","","","","","","","","","",""
"null","","html-keyboard-response","252","1454750","0.0-251.0","A2WJMGV0HKQG3Z","<p style=""font-size: 48px;"">+</p>","","","","","null","allTrialResponses","1000","1","29","img_art/28.jpg","50","very calming","Isabella,Caroline,Emily,Alexa,Jamie,Mikayla","This is also something I would see in a serious but safe environment,14,280,20","Colors are pleasing. Made me think of two people kneeling and talking. A curious feeling.,15,100,20","Incoherent ugly mess.,-50,40,20","The colors are dull but there's some kind of nostalgic essence of this painting,15,40,20","Gloomy colors and picture,5,320,20","It gives me weird vibes.,-25,300,20","Isabella","This is also something I would see in a serious but safe environment,14,280,20","Caroline","Colors are pleasing. Made me think of two people kneeling and talking. A curious feeling.,15,100,20","Alexa","The colors are dull but there's some kind of nostalgic essence of this painting,15,40,20","2"
"5935","","survey-text","253","1460726","0.0-252.0-0.0","A2WJMGV0HKQG3Z","","","","{""Q0"":""too dull""}","","","","","","","","","","","","","","","","","","","","","","",""
"4193","","image-slider-response","254","1464923","0.0-253.0","A2WJMGV0HKQG3Z","","","","","-8","","","","","","","","","","","","","","","","","","","","","",""
"4477","","image-button-response","255","1469934","0.0-254.0","A2WJMGV0HKQG3Z","img_art/1.jpg","1","","","","","","","","","","","","","","","","","","","","","","","","",""
"2997","","image-button-response","256","1472944","0.0-255.0","A2WJMGV0HKQG3Z","img_art/1.jpg","4","","","","","","","","","","","","","","","","","","","","","","","","",""
"1216","","image-button-response","257","1474170","0.0-256.0-0.0","A2WJMGV0HKQG3Z","img_art/1.jpg","5","","","","","","","","","","","","","","","","","","","","","","","","",""
"1579","","image-button-response","258","1475757","0.0-257.0-0.0","A2WJMGV0HKQG3Z","img_art/1.jpg","1","","","","","","","","","","","","","","","","","","","","","","","","",""
"null","","html-keyboard-response","259","1477262","0.0-258.0","A2WJMGV0HKQG3Z","<p style=""font-size: 48px;"">+</p>","","","","","null","allTrialResponses","1500","1","30","img_art/1.jpg","-8","too dull","Isabella,Caroline,Kristen,Alexa,Danielle,Gabrielle","Warmth of the sun,22,280,20","Felt nothing in response to this painting,3,100,20","river, fall, cozy, warm,12,280,20","The blend of colors are gorgeous and reminds me of fall,32,40,20","Not a fan of the mood, overly party-ish and bright colors do not suit my taste,-40,340,20","nice piece, fall like,31,160,20","Danielle","Not a fan of the mood, overly party-ish and bright colors do not suit my taste,-40,340,20","Gabrielle","nice piece, fall like,31,160,20","Caroline","Felt nothing in response to this painting,3,100,20","2"
"5487","","image-button-response_instructions","260","1482780","0.0-259.0","A2WJMGV0HKQG3Z","","0","instructions","","","","","","","","","","","","","","","","","","","","","","","",""
"1127","","image-button-response","261","1483928","0.0-260.0","A2WJMGV0HKQG3Z","","0","","","","","","","","","","","","","","","","","","","","","","","","",""
