"rt","url","trial_type","trial_index","time_elapsed","internal_node_id","participant_id","stimulus","button_pressed","Name","responses","response","key_press","variableName","fixationTime","condition","trial","photo","subjectRating","subjectResponse","agentsNames","agent_1_Response","agent_2_Response","agent_3_Response","agent_4_Response","agent_5_Response","agent_6_Response","kept_1_name","kept_1_response","kept_2_name","kept_2_response","kept_3_name","kept_3_response","errorCounter"
"5390","external_page_harvard.html","external-html","0","5495","0.0-0.0","A2WWYVKGZZXBOB","","","","","","","","","","","","","","","","","","","","","","","","","","",""
"1024","","image-button-response","1","6522","0.0-1.0","A2WWYVKGZZXBOB","","0","","","","","","","","","","","","","","","","","","","","","","","","",""
"1281","","image-button-response","2","7811","0.0-2.0-0.0","A2WWYVKGZZXBOB","","1","phone","","","","","","","","","","","","","","","","","","","","","","","",""
"2939","","survey-text","3","10754","0.0-3.0-0.0","A2WWYVKGZZXBOB","","","","{""Q0"":""A2WWYVKGZZXBOB""}","","","","","","","","","","","","","","","","","","","","","","",""
"1903","","image-button-response_instructions","4","12660","0.0-4.0","A2WWYVKGZZXBOB","","0","instructions","","","","","","","","","","","","","","","","","","","","","","","",""
"4806","","image-button-response_instructions","5","17469","0.0-5.0","A2WWYVKGZZXBOB","img_art/ins/popularity/ins1.png","0","instructions","","","","","","","","","","","","","","","","","","","","","","","",""
"2903","","image-button-response_instructions","6","20375","0.0-6.0","A2WWYVKGZZXBOB","img_art/ins/popularity/ins2.png","0","instructions","","","","","","","","","","","","","","","","","","","","","","","",""
"2151","","image-button-response_instructions","7","22530","0.0-7.0","A2WWYVKGZZXBOB","img_art/ins/popularity/ins2Extreme.png","0","instructions","","","","","","","","","","","","","","","","","","","","","","","",""
"1256","","image-button-response_instructions","8","23789","0.0-8.0","A2WWYVKGZZXBOB","img_art/ins/popularity/ins3KEEPpop.PNG","0","instructions","","","","","","","","","","","","","","","","","","","","","","","",""
"748","","image-button-response_instructions","9","24539","0.0-9.0","A2WWYVKGZZXBOB","img_art/ins/popularity/ins3ANamepop.PNG","0","instructions","","","","","","","","","","","","","","","","","","","","","","","",""
"607","","image-button-response_instructions","10","25149","0.0-10.0","A2WWYVKGZZXBOB","img_art/ins/popularity/ins3ARatingpop.png","0","instructions","","","","","","","","","","","","","","","","","","","","","","","",""
"539","","image-button-response_instructions","11","25690","0.0-11.0","A2WWYVKGZZXBOB","img_art/ins/popularity/ins3ATextpop.png","0","instructions","","","","","","","","","","","","","","","","","","","","","","","",""
"338","","image-button-response_instructions","12","26031","0.0-12.0","A2WWYVKGZZXBOB","img_art/ins/popularity/ins3ALikespop.png","0","instructions","","","","","","","","","","","","","","","","","","","","","","","",""
"258","","image-button-response_instructions","13","26291","0.0-13.0","A2WWYVKGZZXBOB","img_art/ins/popularity/ins3KEEPpop.PNG","0","instructions","","","","","","","","","","","","","","","","","","","","","","","",""
"128","","image-button-response_instructions","14","26422","0.0-14.0","A2WWYVKGZZXBOB","img_art/ins/popularity/ins3_5RED.png","0","instructions","","","","","","","","","","","","","","","","","","","","","","","",""
"153","","image-button-response_instructions","15","26577","0.0-15.0","A2WWYVKGZZXBOB","img_art/ins/popularity/ins3KEEPpop.PNG","0","instructions","","","","","","","","","","","","","","","","","","","","","","","",""
"139","","image-button-response_instructions","16","26719","0.0-16.0","A2WWYVKGZZXBOB","img_art/ins/popularity/ins4KEEPpop.PNG","0","instructions","","","","","","","","","","","","","","","","","","","","","","","",""
"128","","image-button-response_instructions","17","26848","0.0-17.0","A2WWYVKGZZXBOB","img_art/ins/popularity/ins5KEEPpop.PNG","0","instructions","","","","","","","","","","","","","","","","","","","","","","","",""
"139","","image-button-response_instructions","18","26989","0.0-18.0","A2WWYVKGZZXBOB","","0","instructions","","","","","","","","","","","","","","","","","","","","","","","",""
"4878","","survey-text","19","31997","0.0-19.0-0.0","A2WWYVKGZZXBOB","","","","{""Q0"":""but""}","","","","","","","","","","","","","","","","","","","","","","",""
"4750","","survey-text","20","36749","0.0-20.0-0.0","A2WWYVKGZZXBOB","","","","{""Q0"":""none""}","","","","","","","","","","","","","","","","","","","","","","",""
"4787","","survey-text","21","43076","0.0-20.1-0.1","A2WWYVKGZZXBOB","","","","{""Q0"":""no reaction""}","","","","","","","","","","","","","","","","","","","","","","",""
"8353","","image-slider-response","22","51434","0.0-21.0","A2WWYVKGZZXBOB","","","","","0","","","","","","","","","","","","","","","","","","","","","",""
"2891","","image-button-response","23","56439","0.0-22.0","A2WWYVKGZZXBOB","img_art/ins/1.jpg","1","","","","","","","","","","","","","","","","","","","","","","","","",""
"846","","image-button-response","24","57287","0.0-23.0","A2WWYVKGZZXBOB","img_art/ins/1.jpg","5","","","","","","","","","","","","","","","","","","","","","","","","",""
"3498","","image-button-response","25","60788","0.0-24.0-0.0","A2WWYVKGZZXBOB","img_art/ins/1.jpg","3","","","","","","","","","","","","","","","","","","","","","","","","",""
"1071","","image-button-response","26","61863","0.0-25.0-0.0","A2WWYVKGZZXBOB","img_art/ins/1.jpg","1","","","","","","","","","","","","","","","","","","","","","","","","",""
"null","","html-keyboard-response","27","62868","0.0-26.0","A2WWYVKGZZXBOB","<p style=""font-size: 48px;"">+</p>","","","","","null","allTrialResponses","1000","1","-2","img_art/ins/1.jpg","0","no reaction","Adam,Alex,Ben,Carl,Daniel,Jack","Seems like doodles,-20,20,20","very creative work.,36,40,20","This color reminds me of poo,-46,60,20","very calming artwork,42,80,20","It looks like a murder scene.,-48,100,20","I like the sophisticated brushwork,40,120,20","Jack","I like the sophisticated brushwork,40,120,20","Carl","very calming artwork,42,80,20","Alex","very creative work.,36,40,20","0"
"5550","","survey-text","28","68430","0.0-27.0-0.0","A2WWYVKGZZXBOB","","","","{""Q0"":""no reaction""}","","","","","","","","","","","","","","","","","","","","","","",""
"3110","","image-slider-response","29","71543","0.0-28.0","A2WWYVKGZZXBOB","","","","","0","","","","","","","","","","","","","","","","","","","","","",""
"2796","","image-button-response","30","76549","0.0-29.0","A2WWYVKGZZXBOB","img_art/ins/2.jpg","1","","","","","","","","","","","","","","","","","","","","","","","","",""
"831","","image-button-response","31","77383","0.0-30.0","A2WWYVKGZZXBOB","img_art/ins/2.jpg","4","","","","","","","","","","","","","","","","","","","","","","","","",""
"880","","image-button-response","32","78267","0.0-31.0-0.0","A2WWYVKGZZXBOB","img_art/ins/2.jpg","3","","","","","","","","","","","","","","","","","","","","","","","","",""
"1152","","image-button-response","33","79423","0.0-32.0-0.0","A2WWYVKGZZXBOB","img_art/ins/2.jpg","1","","","","","","","","","","","","","","","","","","","","","","","","",""
"null","","html-keyboard-response","34","80430","0.0-33.0","A2WWYVKGZZXBOB","<p style=""font-size: 48px;"">+</p>","","","","","null","allTrialResponses","1000","1","-1","img_art/ins/2.jpg","0","no reaction","James,Alex,Kyle,Carl,John,Jack","looks too angry,-50,140,20","I like the blocks of color arrangements,30,40,20","Idk, it is just annoying,-32,180,20","I can feel the artist's passion in it,45,80,20","love the texture of paint,48,160,20","I would never be able to compose a sophisticated pallete like this,48,120,20","John","love the texture of paint,48,160,20","Carl","I can feel the artist's passion in it,45,80,20","Alex","I like the blocks of color arrangements,30,40,20","0"
"11710","","survey-text","35","92157","0.0-34.0-0.0","A2WWYVKGZZXBOB","","","","{""Q0"":""I don't care about it""}","","","","","","","","","","","","","","","","","","","","","","",""
"5271","","image-slider-response","36","97432","0.0-35.0","A2WWYVKGZZXBOB","","","","","0","","","","","","","","","","","","","","","","","","","","","",""
"925","","image-button-response","37","102436","0.0-36.0","A2WWYVKGZZXBOB","img_art/ins/3.jpg","1","","","","","","","","","","","","","","","","","","","","","","","","",""
"427","","image-button-response","38","102865","0.0-37.0","A2WWYVKGZZXBOB","img_art/ins/3.jpg","3","","","","","","","","","","","","","","","","","","","","","","","","",""
"548","","image-button-response","39","103416","0.0-38.0-0.0","A2WWYVKGZZXBOB","img_art/ins/3.jpg","4","","","","","","","","","","","","","","","","","","","","","","","","",""
"436","","image-button-response","40","103856","0.0-39.0-0.0","A2WWYVKGZZXBOB","img_art/ins/3.jpg","5","","","","","","","","","","","","","","","","","","","","","","","","",""
"null","","html-keyboard-response","41","104858","0.0-40.0","A2WWYVKGZZXBOB","<p style=""font-size: 48px;"">+</p>","","","","","null","allTrialResponses","1000","1","0","img_art/ins/3.jpg","0","I don't care about it","Mike,Alex,Ron,Carl,John,Sam","enjoy the different shades of blue,22,200,20","calming blue is very nice,36,40,20","It looks depressing,-26,220,20","It's an alright work,15,80,20","I like the overlapping of brushes,41,160,20","I can feel a rainy day from this painting,18,240,20","Carl","It's an alright work,15,80,20","John","I like the overlapping of brushes,41,160,20","Sam","I can feel a rainy day from this painting,18,240,20","0"
"4996","","image-button-response_instructions","42","109861","0.0-41.0","A2WWYVKGZZXBOB","","0","instructions","","","","","","","","","","","","","","","","","","","","","","","",""
"10827","","survey-likert","43","120692","0.0-42.0-0.0","A2WWYVKGZZXBOB","","","","{""Q0"":"""",""Q1"":0,""Q2"":0}","","","","","","","","","","","","","","","","","","","","","","",""
"2498","","survey-likert","44","125217","0.0-42.1-0.1","A2WWYVKGZZXBOB","","","","{""Q0"":"""",""Q1"":0,""Q2"":1}","","","","","","","","","","","","","","","","","","","","","","",""
"4045","","survey-text","45","129268","0.0-43.0-0.0","A2WWYVKGZZXBOB","","","","{""Q0"":""rock""}","","","","","","","","","","","","","","","","","","","","","","",""
"8095","","survey-text","46","137366","0.0-44.0-0.0","A2WWYVKGZZXBOB","","","","{""Q0"":""looks like scribbling""}","","","","","","","","","","","","","","","","","","","","","","",""
"6475","","image-slider-response","47","143849","0.0-45.0","A2WWYVKGZZXBOB","","","","","1","","","","","","","","","","","","","","","","","","","","","",""
"829","","image-button-response","48","148868","0.0-46.0","A2WWYVKGZZXBOB","img_art/3.jpg","1","","","","","","","","","","","","","","","","","","","","","","","","",""
"222","","image-button-response","49","149094","0.0-47.0","A2WWYVKGZZXBOB","img_art/3.jpg","0","","","","","","","","","","","","","","","","","","","","","","","","",""
"193","","image-button-response","50","149291","0.0-48.0-0.0","A2WWYVKGZZXBOB","img_art/3.jpg","0","","","","","","","","","","","","","","","","","","","","","","","","",""
"738","","image-button-response","51","152828","0.0-48.1-0.1","A2WWYVKGZZXBOB","img_art/3.jpg","0","","","","","","","","","","","","","","","","","","","","","","","","",""
"613","","image-button-response","52","155722","0.0-48.2-0.2","A2WWYVKGZZXBOB","img_art/3.jpg","1","","","","","","","","","","","","","","","","","","","","","","","","",""
"772","","image-button-response","53","156498","0.0-49.0-0.0","A2WWYVKGZZXBOB","img_art/3.jpg","2","","","","","","","","","","","","","","","","","","","","","","","","",""
"null","","html-keyboard-response","54","158002","0.0-50.0","A2WWYVKGZZXBOB","<p style=""font-size: 48px;"">+</p>","","","","","null","allTrialResponses","1500","1","1","img_art/3.jpg","1","looks like scribbling","Bradley,Daniel,Andrew,Antonio,Juan,Peter","Marker gone wild?  Not sure what's going on here.,-21,300,20","5 min scribble by a 3 year old,-46,320,20","It doesn't make me think of art,-20,160,20","The red makes me think of blood which makes me think of pain,-50,220,20","It makes me think of just an angry scribble. There's no beauty to it for me.,-50,260,20","Looks like blood scribbled on walls,-20,320,20","Bradley","Marker gone wild?  Not sure what's going on here.,-21,300,20","Daniel","5 min scribble by a 3 year old,-46,320,20","Andrew","It doesn't make me think of art,-20,160,20","5"
"7741","","survey-text","55","165759","0.0-51.0-0.0","A2WWYVKGZZXBOB","","","","{""Q0"":""looks like voimit""}","","","","","","","","","","","","","","","","","","","","","","",""
"2223","","image-slider-response","56","167986","0.0-52.0","A2WWYVKGZZXBOB","","","","","-14","","","","","","","","","","","","","","","","","","","","","",""
"1638","","image-button-response","57","172989","0.0-53.0","A2WWYVKGZZXBOB","img_art/20.jpg","0","","","","","","","","","","","","","","","","","","","","","","","","",""
"726","","image-button-response","58","173717","0.0-54.0","A2WWYVKGZZXBOB","img_art/20.jpg","0","","","","","","","","","","","","","","","","","","","","","","","","",""
"1298","","image-button-response","59","175019","0.0-55.0-0.0","A2WWYVKGZZXBOB","img_art/20.jpg","1","","","","","","","","","","","","","","","","","","","","","","","","",""
"450","","image-button-response","60","175471","0.0-56.0-0.0","A2WWYVKGZZXBOB","img_art/20.jpg","2","","","","","","","","","","","","","","","","","","","","","","","","",""
"null","","html-keyboard-response","61","175975","0.0-57.0","A2WWYVKGZZXBOB","<p style=""font-size: 48px;"">+</p>","","","","","null","allTrialResponses","500","1","2","img_art/20.jpg","-14","looks like voimit","Bradley,Daniel,Andrew,Dakota,Michael,Cody","A truck rolled over?  I do like the pictures and the technique though.,25,300,20","Fails to capture what similar styles do,-12,320,20","I just love this painting,47,160,20","very fluid and mysterious,37,280,20","Brings about an emotion response of dspair. Loose lines but yet has a cohesion.,8,140,20","I like the distortion of the objects, good colors,20,180,20","Bradley","A truck rolled over?  I do like the pictures and the technique though.,25,300,20","Daniel","Fails to capture what similar styles do,-12,320,20","Andrew","I just love this painting,47,160,20","5"
"14355","","survey-text","62","190341","0.0-58.0-0.0","A2WWYVKGZZXBOB","","","","{""Q0"":""looks like a child drew it""}","","","","","","","","","","","","","","","","","","","","","","",""
"3651","","image-slider-response","63","193996","0.0-59.0","A2WWYVKGZZXBOB","","","","","-28","","","","","","","","","","","","","","","","","","","","","",""
"3042","","image-button-response","64","199000","0.0-60.0","A2WWYVKGZZXBOB","img_art/25.jpg","1","","","","","","","","","","","","","","","","","","","","","","","","",""
"717","","image-button-response","65","199725","0.0-61.0","A2WWYVKGZZXBOB","img_art/25.jpg","2","","","","","","","","","","","","","","","","","","","","","","","","",""
"540","","image-button-response","66","200269","0.0-62.0-0.0","A2WWYVKGZZXBOB","img_art/25.jpg","0","","","","","","","","","","","","","","","","","","","","","","","","",""
"930","","image-button-response","67","201204","0.0-63.0-0.0","A2WWYVKGZZXBOB","img_art/25.jpg","1","","","","","","","","","","","","","","","","","","","","","","","","",""
"null","","html-keyboard-response","68","201708","0.0-64.0","A2WWYVKGZZXBOB","<p style=""font-size: 48px;"">+</p>","","","","","null","allTrialResponses","500","1","3","img_art/25.jpg","-28","looks like a child drew it","Bradley,Daniel,Andrew,Benjamin,Jason,Jacob","This one just has a dark feeling to me.,-50,300,20","Beautiful color with an interesting otherworldly figure,29,320,20","It makes me feel a little uneasy, but I like the painting,11,160,20","Regal. Reminds me of Egyptian art.,11,260,20","Love the simplicity and lines,20,20,20","I really like how the lines form this piece.,8,340,20","Andrew","It makes me feel a little uneasy, but I like the painting,11,160,20","Bradley","This one just has a dark feeling to me.,-50,300,20","Daniel","Beautiful color with an interesting otherworldly figure,29,320,20","5"
"8679","","survey-text","69","210402","0.0-65.0-0.0","A2WWYVKGZZXBOB","","","","{""Q0"":""doesn't even look like a painting""}","","","","","","","","","","","","","","","","","","","","","","",""
"2620","","image-slider-response","70","213026","0.0-66.0","A2WWYVKGZZXBOB","","","","","-22","","","","","","","","","","","","","","","","","","","","","",""
"1642","","image-button-response","71","218029","0.0-67.0","A2WWYVKGZZXBOB","img_art/7.jpg","3","","","","","","","","","","","","","","","","","","","","","","","","",""
"445","","image-button-response","72","218476","0.0-68.0","A2WWYVKGZZXBOB","img_art/7.jpg","4","","","","","","","","","","","","","","","","","","","","","","","","",""
"692","","image-button-response","73","219170","0.0-69.0-0.0","A2WWYVKGZZXBOB","img_art/7.jpg","5","","","","","","","","","","","","","","","","","","","","","","","","",""
"755","","image-button-response","74","219930","0.0-70.0-0.0","A2WWYVKGZZXBOB","img_art/7.jpg","3","","","","","","","","","","","","","","","","","","","","","","","","",""
"null","","html-keyboard-response","75","220435","0.0-71.0","A2WWYVKGZZXBOB","<p style=""font-size: 48px;"">+</p>","","","","","null","allTrialResponses","500","1","4","img_art/7.jpg","-22","doesn't even look like a painting","Bradley,Daniel,Andrew,Austin,Mitchell,Luis","Is this cookie dough?  Yum!,-10,300,20","Great portrayal of solid surface,19,320,20","It makes me think of new archaeology discoveries,15,160,20","The picture is just random,-8,240,20","Looking through a microscope at the ground at a beach.,20,180,20","Not getting the vibe i would like from this,-30,400,20","Mitchell","Looking through a microscope at the ground at a beach.,20,180,20","Luis","Not getting the vibe i would like from this,-30,400,20","Austin","The picture is just random,-8,240,20","5"
"15127","","survey-text","76","235583","0.0-72.0-0.0","A2WWYVKGZZXBOB","","","","{""Q0"":""indifferent""}","","","","","","","","","","","","","","","","","","","","","","",""
"2817","","image-slider-response","77","238402","0.0-73.0","A2WWYVKGZZXBOB","","","","","0","","","","","","","","","","","","","","","","","","","","","",""
"2931","","image-button-response","78","243406","0.0-74.0","A2WWYVKGZZXBOB","img_art/18.jpg","3","","","","","","","","","","","","","","","","","","","","","","","","",""
"532","","image-button-response","79","243942","0.0-75.0","A2WWYVKGZZXBOB","img_art/18.jpg","0","","","","","","","","","","","","","","","","","","","","","","","","",""
"624","","image-button-response","80","244570","0.0-76.0-0.0","A2WWYVKGZZXBOB","img_art/18.jpg","3","","","","","","","","","","","","","","","","","","","","","","","","",""
"558","","image-button-response","81","245131","0.0-77.0-0.0","A2WWYVKGZZXBOB","img_art/18.jpg","1","","","","","","","","","","","","","","","","","","","","","","","","",""
"null","","html-keyboard-response","82","246635","0.0-78.0","A2WWYVKGZZXBOB","<p style=""font-size: 48px;"">+</p>","","","","","null","allTrialResponses","1500","1","5","img_art/18.jpg","0","indifferent","Colton,Bryan,Chase,Austin,Mitchell,Luis","reminds me of greek mythology,22,220,20","First saw sailing ship in bad weather but then saw woman in upper left - not sure what I'm seeing.,21,400,20","Kinda neat, looks like cavalry, or a knight.,15,120,20","Nice abstract art,50,240,20","Karma. being ruthless and all the time knowing the shit is gonna catch up with you.,10,180,20","I love the battle vibe in this,50,400,20","Colton","reminds me of greek mythology,22,220,20","Austin","Nice abstract art,50,240,20","Bryan","First saw sailing ship in bad weather but then saw woman in upper left - not sure what I'm seeing.,21,400,20","5"
"3295","","survey-text","83","249945","0.0-79.0-0.0","A2WWYVKGZZXBOB","","","","{""Q0"":""sky""}","","","","","","","","","","","","","","","","","","","","","","",""
"9202","","survey-text","84","259148","0.0-80.0-0.0","A2WWYVKGZZXBOB","","","","{""Q0"":""looks like an eruption""}","","","","","","","","","","","","","","","","","","","","","","",""
"3452","","image-slider-response","85","262603","0.0-81.0","A2WWYVKGZZXBOB","","","","","0","","","","","","","","","","","","","","","","","","","","","",""
"4469","","image-button-response","86","267606","0.0-82.0","A2WWYVKGZZXBOB","img_art/4.jpg","3","","","","","","","","","","","","","","","","","","","","","","","","",""
"832","","image-button-response","87","268442","0.0-83.0","A2WWYVKGZZXBOB","img_art/4.jpg","3","","","","","","","","","","","","","","","","","","","","","","","","",""
"385","","image-button-response","88","268830","0.0-84.0-0.0","A2WWYVKGZZXBOB","img_art/4.jpg","4","","","","","","","","","","","","","","","","","","","","","","","","",""
"457","","image-button-response","89","269290","0.0-85.0-0.0","A2WWYVKGZZXBOB","img_art/4.jpg","1","","","","","","","","","","","","","","","","","","","","","","","","",""
"null","","html-keyboard-response","90","270294","0.0-86.0","A2WWYVKGZZXBOB","<p style=""font-size: 48px;"">+</p>","","","","","null","allTrialResponses","1000","1","6","img_art/4.jpg","0","looks like an eruption","Colton,Bryan,Brandon,Austin,Nathan,Alex","I really don't like the colors,-26,220,20","McDonald's golden arches on steroids.,-20,400,20","Really don't like this. Kindergarten art, sorry.,-50,320,20","Like the color vibrancy,29,240,20","Not my preference when it comes to art styles or subjects,-10,200,20","Looks like more paint smearing but at least there is structure,-5,100,20","Austin","Like the color vibrancy,29,240,20","Nathan","Not my preference when it comes to art styles or subjects,-10,200,20","Bryan","McDonald's golden arches on steroids.,-20,400,20","5"
"7598","","survey-text","91","277900","0.0-87.0-0.0","A2WWYVKGZZXBOB","","","","{""Q0"":""bad depiction of a bird""}","","","","","","","","","","","","","","","","","","","","","","",""
"3560","","image-slider-response","92","281463","0.0-88.0","A2WWYVKGZZXBOB","","","","","-16","","","","","","","","","","","","","","","","","","","","","",""
"3430","","image-button-response","93","286468","0.0-89.0","A2WWYVKGZZXBOB","img_art/6.jpg","0","","","","","","","","","","","","","","","","","","","","","","","","",""
"903","","image-button-response","94","287375","0.0-90.0","A2WWYVKGZZXBOB","img_art/6.jpg","2","","","","","","","","","","","","","","","","","","","","","","","","",""
"857","","image-button-response","95","288235","0.0-91.0-0.0","A2WWYVKGZZXBOB","img_art/6.jpg","4","","","","","","","","","","","","","","","","","","","","","","","","",""
"1078","","image-button-response","96","289315","0.0-92.0-0.0","A2WWYVKGZZXBOB","img_art/6.jpg","0","","","","","","","","","","","","","","","","","","","","","","","","",""
"null","","html-keyboard-response","97","290820","0.0-93.0","A2WWYVKGZZXBOB","<p style=""font-size: 48px;"">+</p>","","","","","null","allTrialResponses","1500","1","7","img_art/6.jpg","-16","bad depiction of a bird","Grant,Bryan,Justin,Austin,Nathan,Nicholas","The limited colors make me feel lonely.,36,200,20","Growth in the desert?  Don't care for it very much.,-26,400,20","It's alright. I imagined the peach from James and the Giant Peach.,1,280,20","Love the simplicity of it,41,240,20","Not a fan of anything in this,-43,200,20","It isnt bad but sort of too bland,0,240,20","Justin","It's alright. I imagined the peach from James and the Giant Peach.,1,280,20","Nathan","Not a fan of anything in this,-43,200,20","Grant","The limited colors make me feel lonely.,36,200,20","5"
"7054","","survey-text","98","297884","0.0-94.0-0.0","A2WWYVKGZZXBOB","","","","{""Q0"":""just looks like a random blob""}","","","","","","","","","","","","","","","","","","","","","","",""
"3238","","image-slider-response","99","301125","0.0-95.0","A2WWYVKGZZXBOB","","","","","-13","","","","","","","","","","","","","","","","","","","","","",""
"4243","","image-button-response","100","306128","0.0-96.0","A2WWYVKGZZXBOB","img_art/9.jpg","5","","","","","","","","","","","","","","","","","","","","","","","","",""
"2814","","image-button-response","101","308944","0.0-97.0","A2WWYVKGZZXBOB","img_art/9.jpg","5","","","","","","","","","","","","","","","","","","","","","","","","",""
"510","","image-button-response","102","309458","0.0-98.0-0.0","A2WWYVKGZZXBOB","img_art/9.jpg","4","","","","","","","","","","","","","","","","","","","","","","","","",""
"377","","image-button-response","103","309839","0.0-99.0-0.0","A2WWYVKGZZXBOB","img_art/9.jpg","3","","","","","","","","","","","","","","","","","","","","","","","","",""
"null","","html-keyboard-response","104","311344","0.0-100.0","A2WWYVKGZZXBOB","<p style=""font-size: 48px;"">+</p>","","","","","null","allTrialResponses","1500","1","8","img_art/9.jpg","-13","just looks like a random blob","Grant,Malik,Justin,Travis,Nathan,Jose","The colors are pretty, and remind me of a circus.,5,200,20","Colorful and expressive,15,40,20","It reminds me of an illustration for a fairy tale.,19,280,20","Stuipid looking...dumb,-48,260,20","Looks like a child's drawing,-40,200,20","Idk what is in the middle but the blurry image makes it seem like the subject is of the painters interest,22,200,20","Jose","Idk what is in the middle but the blurry image makes it seem like the subject is of the painters interest,22,200,20","Nathan","Looks like a child's drawing,-40,200,20","Travis","Stuipid looking...dumb,-48,260,20","5"
"9596","","survey-text","105","320947","0.0-101.0-0.0","A2WWYVKGZZXBOB","","","","{""Q0"":""someone bled all over it""}","","","","","","","","","","","","","","","","","","","","","","",""
"2562","","image-slider-response","106","323512","0.0-102.0","A2WWYVKGZZXBOB","","","","","-14","","","","","","","","","","","","","","","","","","","","","",""
"null","","image-button-response","107","328515","0.0-103.0","A2WWYVKGZZXBOB","img_art/21.jpg","null","","","","","","","","","","","","","","","","","","","","","","","","",""
"9600","","image-button-response","108","338115","0.0-104.0","A2WWYVKGZZXBOB","img_art/21.jpg","0","","","","","","","","","","","","","","","","","","","","","","","","",""
"323","","image-button-response","109","338440","0.0-105.0-0.0","A2WWYVKGZZXBOB","img_art/21.jpg","1","","","","","","","","","","","","","","","","","","","","","","","","",""
"477","","image-button-response","110","338920","0.0-106.0-0.0","A2WWYVKGZZXBOB","img_art/21.jpg","2","","","","","","","","","","","","","","","","","","","","","","","","",""
"null","","html-keyboard-response","111","339424","0.0-107.0","A2WWYVKGZZXBOB","<p style=""font-size: 48px;"">+</p>","","","","","null","allTrialResponses","500","1","9","img_art/21.jpg","-14","someone bled all over it","Anthony,Bryce,Adam,Travis,Nathan,Jose","Bland, this painting is my least favorite,-20,200,20","Nothing exciting in this one.,-36,20,20","I like color mix here,15,40,20","I liked it...it looked like a storm raging.,12,260,20","I like it. It's some of war-scene, bloodshed and battle on the left, field of dispair on the right, dark and rich,40,200,20","I can't explain why this struck me as absolutely gorgeous. Like the clashing between 2 different worlds,43,200,20","Anthony","Bland, this painting is my least favorite,-20,200,20","Bryce","Nothing exciting in this one.,-36,20,20","Adam","I like color mix here,15,40,20","5"
"11237","","survey-text","112","350667","0.0-108.0-0.0","A2WWYVKGZZXBOB","","","","{""Q0"":""painter was clearly insane""}","","","","","","","","","","","","","","","","","","","","","","",""
"2678","","image-slider-response","113","353348","0.0-109.0","A2WWYVKGZZXBOB","","","","","-13","","","","","","","","","","","","","","","","","","","","","",""
"3700","","image-button-response","114","358351","0.0-110.0","A2WWYVKGZZXBOB","img_art/8.jpg","1","","","","","","","","","","","","","","","","","","","","","","","","",""
"1047","","image-button-response","115","359401","0.0-111.0","A2WWYVKGZZXBOB","img_art/8.jpg","1","","","","","","","","","","","","","","","","","","","","","","","","",""
"497","","image-button-response","116","359901","0.0-112.0-0.0","A2WWYVKGZZXBOB","img_art/8.jpg","2","","","","","","","","","","","","","","","","","","","","","","","","",""
"492","","image-button-response","117","360396","0.0-113.0-0.0","A2WWYVKGZZXBOB","img_art/8.jpg","5","","","","","","","","","","","","","","","","","","","","","","","","",""
"null","","html-keyboard-response","118","361900","0.0-114.0","A2WWYVKGZZXBOB","<p style=""font-size: 48px;"">+</p>","","","","","null","allTrialResponses","1500","1","10","img_art/8.jpg","-13","painter was clearly insane","Anthony,Bryce,Adam,Spencer,Hunter,Edward","Not my favorite but has an interesting concept,32,200,20","Its kinda like an optical illusion.,22,20,20","Eclectic city with good mix of colors.,10,40,20","Nice formats, I just don't like it much,-16,120,20","crisp shapes, find more things the longer you look,17,240,20","It's too boxy for my taste,-10,60,20","Bryce","Its kinda like an optical illusion.,22,20,20","Adam","Eclectic city with good mix of colors.,10,40,20","Edward","It's too boxy for my taste,-10,60,20","5"
"3178","","survey-text","119","365094","0.0-115.0-0.0","A2WWYVKGZZXBOB","","","","{""Q0"":""our""}","","","","","","","","","","","","","","","","","","","","","","",""
"10426","","survey-text","120","375522","0.0-116.0-0.0","A2WWYVKGZZXBOB","","","","{""Q0"":""looks like someone finger painting""}","","","","","","","","","","","","","","","","","","","","","","",""
"2383","","image-slider-response","121","377908","0.0-117.0","A2WWYVKGZZXBOB","","","","","-24","","","","","","","","","","","","","","","","","","","","","",""
"3442","","image-button-response","122","382912","0.0-118.0","A2WWYVKGZZXBOB","img_art/30.jpg","4","","","","","","","","","","","","","","","","","","","","","","","","",""
"574","","image-button-response","123","383487","0.0-119.0","A2WWYVKGZZXBOB","img_art/30.jpg","3","","","","","","","","","","","","","","","","","","","","","","","","",""
"291","","image-button-response","124","383780","0.0-120.0-0.0","A2WWYVKGZZXBOB","img_art/30.jpg","4","","","","","","","","","","","","","","","","","","","","","","","","",""
"319","","image-button-response","125","384103","0.0-121.0-0.0","A2WWYVKGZZXBOB","img_art/30.jpg","5","","","","","","","","","","","","","","","","","","","","","","","","",""
"null","","html-keyboard-response","126","385606","0.0-122.0","A2WWYVKGZZXBOB","<p style=""font-size: 48px;"">+</p>","","","","","null","allTrialResponses","1500","1","11","img_art/30.jpg","-24","looks like someone finger painting","Aaron,Bryce,Adam,Joshua,Jesse,Edward","It looks like a pretty but unremarkable painting in a doctors office,15,20,20","Very colorful! Wow!,22,20,20","Dislike the contrast here.,-5,40,20","It's just all right.,5,240,20","I do like the multi-dimensional aspect of this piece,10,80,20","My son made me a painting that looked like this,26,60,20","Joshua","It's just all right.,5,240,20","Jesse","I do like the multi-dimensional aspect of this piece,10,80,20","Edward","My son made me a painting that looked like this,26,60,20","5"
"136844","","survey-text","127","522456","0.0-123.0-0.0","A2WWYVKGZZXBOB","","","","{""Q0"":""dont know what it is""}","","","","","","","","","","","","","","","","","","","","","","",""
"3064","","image-slider-response","128","525523","0.0-124.0","A2WWYVKGZZXBOB","","","","","-35","","","","","","","","","","","","","","","","","","","","","",""
"922","","image-button-response","129","530527","0.0-125.0","A2WWYVKGZZXBOB","img_art/28.jpg","1","","","","","","","","","","","","","","","","","","","","","","","","",""
"688","","image-button-response","130","531215","0.0-126.0","A2WWYVKGZZXBOB","img_art/28.jpg","0","","","","","","","","","","","","","","","","","","","","","","","","",""
"543","","image-button-response","131","531761","0.0-127.0-0.0","A2WWYVKGZZXBOB","img_art/28.jpg","1","","","","","","","","","","","","","","","","","","","","","","","","",""
"527","","image-button-response","132","532291","0.0-128.0-0.0","A2WWYVKGZZXBOB","img_art/28.jpg","4","","","","","","","","","","","","","","","","","","","","","","","","",""
"null","","html-keyboard-response","133","532794","0.0-129.0","A2WWYVKGZZXBOB","<p style=""font-size: 48px;"">+</p>","","","","","null","allTrialResponses","500","1","12","img_art/28.jpg","-35","dont know what it is","Dustin,Gregory,Caleb,Joshua,Jesse,Edward","Like the muted pink colors. However, the mood is sad because of the blurriness,22,20,20","Gloomy colors and picture,5,220,20","White and dark balance is way off- Seems dull.,-33,40,20","The colors are drab and a little depressing.,-20,240,20","Just all blurs together for me. No substance.,-23,80,20","Salvador Dali called and he thinks this looks pretty good,27,60,20","Dustin","Like the muted pink colors. However, the mood is sad because of the blurriness,22,20,20","Gregory","Gloomy colors and picture,5,220,20","Jesse","Just all blurs together for me. No substance.,-23,80,20","5"
"6188","","survey-text","134","538992","0.0-130.0-0.0","A2WWYVKGZZXBOB","","","","{""Q0"":""just random crap""}","","","","","","","","","","","","","","","","","","","","","","",""
"3214","","image-slider-response","135","542211","0.0-131.0","A2WWYVKGZZXBOB","","","","","-43","","","","","","","","","","","","","","","","","","","","","",""
"null","","image-button-response","136","547214","0.0-132.0","A2WWYVKGZZXBOB","img_art/2.jpg","null","","","","","","","","","","","","","","","","","","","","","","","","",""
"2838","","image-button-response","137","550053","0.0-133.0","A2WWYVKGZZXBOB","img_art/2.jpg","4","","","","","","","","","","","","","","","","","","","","","","","","",""
"447","","image-button-response","138","550502","0.0-134.0-0.0","A2WWYVKGZZXBOB","img_art/2.jpg","3","","","","","","","","","","","","","","","","","","","","","","","","",""
"477","","image-button-response","139","550981","0.0-135.0-0.0","A2WWYVKGZZXBOB","img_art/2.jpg","5","","","","","","","","","","","","","","","","","","","","","","","","",""
"null","","html-keyboard-response","140","552483","0.0-136.0","A2WWYVKGZZXBOB","<p style=""font-size: 48px;"">+</p>","","","","","null","allTrialResponses","1500","1","13","img_art/2.jpg","-43","just random crap","Dustin,Gregory,Gabriel,Carlos,Jesse,Adrian","Doesn't look like anything. Just a blob of colors.,1,20,20","Awful color coordination and design,-35,220,20","i dont like it, no thank you,-28,160,20","The colors are soothing, but the composition feels thoughtless.,-11,80,20","Looks childish and i dont like the texture,-25,80,20","Not a fan of the colors or the style.,-31,60,20","Jesse","Looks childish and i dont like the texture,-25,80,20","Carlos","The colors are soothing, but the composition feels thoughtless.,-11,80,20","Adrian","Not a fan of the colors or the style.,-31,60,20","5"
"6590","","survey-text","141","559081","0.0-137.0-0.0","A2WWYVKGZZXBOB","","","","{""Q0"":""have no clue what this is supposed to be""}","","","","","","","","","","","","","","","","","","","","","","",""
"2825","","image-slider-response","142","561908","0.0-138.0","A2WWYVKGZZXBOB","","","","","-39","","","","","","","","","","","","","","","","","","","","","",""
"4887","","image-button-response","143","566912","0.0-139.0","A2WWYVKGZZXBOB","img_art/26.jpg","1","","","","","","","","","","","","","","","","","","","","","","","","",""
"1117","","image-button-response","144","568032","0.0-140.0","A2WWYVKGZZXBOB","img_art/26.jpg","1","","","","","","","","","","","","","","","","","","","","","","","","",""
"608","","image-button-response","145","568641","0.0-141.0-0.0","A2WWYVKGZZXBOB","img_art/26.jpg","2","","","","","","","","","","","","","","","","","","","","","","","","",""
"406","","image-button-response","146","569051","0.0-142.0-0.0","A2WWYVKGZZXBOB","img_art/26.jpg","0","","","","","","","","","","","","","","","","","","","","","","","","",""
"null","","html-keyboard-response","147","570552","0.0-143.0","A2WWYVKGZZXBOB","<p style=""font-size: 48px;"">+</p>","","","","","null","allTrialResponses","1500","1","14","img_art/26.jpg","-39","have no clue what this is supposed to be","Richard,Mason,Matthew,Carlos,Jesse,Adrian","subtle use of colors, city street view?,8,340,20","I like the simple watercolor colors, makes my mind work, thumbs up.,27,100,20","Telented watercolor artist or second grader.,18,120,20","Pleasant but bland.,10,80,20","Looks bland and boring,-5,80,20","I see a suburban neighborhood with townhouses and trees. Not a fan of the colors or style.,-16,60,20","Mason","I like the simple watercolor colors, makes my mind work, thumbs up.,27,100,20","Matthew","Telented watercolor artist or second grader.,18,120,20","Richard","subtle use of colors, city street view?,8,340,20","5"
"9585","","survey-text","148","580143","0.0-144.0-0.0","A2WWYVKGZZXBOB","","","","{""Q0"":""can't tell what the hell it is""}","","","","","","","","","","","","","","","","","","","","","","",""
"2960","","image-slider-response","149","583107","0.0-145.0","A2WWYVKGZZXBOB","","","","","-38","","","","","","","","","","","","","","","","","","","","","",""
"3876","","image-button-response","150","588109","0.0-146.0","A2WWYVKGZZXBOB","img_art/22.jpg","1","","","","","","","","","","","","","","","","","","","","","","","","",""
"680","","image-button-response","151","588791","0.0-147.0","A2WWYVKGZZXBOB","img_art/22.jpg","2","","","","","","","","","","","","","","","","","","","","","","","","",""
"383","","image-button-response","152","589177","0.0-148.0-0.0","A2WWYVKGZZXBOB","img_art/22.jpg","1","","","","","","","","","","","","","","","","","","","","","","","","",""
"429","","image-button-response","153","589608","0.0-149.0-0.0","A2WWYVKGZZXBOB","img_art/22.jpg","4","","","","","","","","","","","","","","","","","","","","","","","","",""
"null","","html-keyboard-response","154","590612","0.0-150.0","A2WWYVKGZZXBOB","<p style=""font-size: 48px;"">+</p>","","","","","null","allTrialResponses","1000","1","15","img_art/22.jpg","-38","can't tell what the hell it is","Richard,Mason,Matthew,Alexis,Marcus,Brendan","another OK work, mostly because of the blend of colors,12,340,20","Could be interpreted so many ways, bold. I like it.,29,100,20","Another servicable piece of abstract art?,20,120,20","Neither like nor dislike it. The red, yellow and blue colors are bright but I don't know what it's meant to be.,1,140,20","Like the colors. I enjoy looking at this one.,15,60,20","its just ugly for me,-50,340,20","Matthew","Another servicable piece of abstract art?,20,120,20","Mason","Could be interpreted so many ways, bold. I like it.,29,100,20","Marcus","Like the colors. I enjoy looking at this one.,15,60,20","5"
"5013","","survey-text","155","595640","0.0-151.0-0.0","A2WWYVKGZZXBOB","","","","{""Q0"":""course""}","","","","","","","","","","","","","","","","","","","","","","",""
"7374","","survey-text","156","603017","0.0-152.0-0.0","A2WWYVKGZZXBOB","","","","{""Q0"":""no clue what it's supposed to be""}","","","","","","","","","","","","","","","","","","","","","","",""
"3673","","image-slider-response","157","606694","0.0-153.0","A2WWYVKGZZXBOB","","","","","-43","","","","","","","","","","","","","","","","","","","","","",""
"null","","image-button-response","158","611699","0.0-154.0","A2WWYVKGZZXBOB","img_art/10.jpg","null","","","","","","","","","","","","","","","","","","","","","","","","",""
"1167","","image-button-response","159","612869","0.0-155.0","A2WWYVKGZZXBOB","img_art/10.jpg","0","","","","","","","","","","","","","","","","","","","","","","","","",""
"383","","image-button-response","160","613255","0.0-156.0-0.0","A2WWYVKGZZXBOB","img_art/10.jpg","1","","","","","","","","","","","","","","","","","","","","","","","","",""
"332","","image-button-response","161","613592","0.0-157.0-0.0","A2WWYVKGZZXBOB","img_art/10.jpg","2","","","","","","","","","","","","","","","","","","","","","","","","",""
"null","","html-keyboard-response","162","614599","0.0-158.0","A2WWYVKGZZXBOB","<p style=""font-size: 48px;"">+</p>","","","","","null","allTrialResponses","1000","1","16","img_art/10.jpg","-43","no clue what it's supposed to be","Kenneth,Mason,Matthew,Jack,Marcus,Seth","I cant tell what this is supposed to be, but I enjoy the simplicity of it.,28,300,20","It's art. (for some),7,100,20","AWESOME VIOLIN!`,26,120,20","this piece is okay. I wish it was more colorful, but it is certainly intriguing.,23,320,20","This makes me think of a city, specifically London.,20,60,20","It reminds me of the ocean. Almost like a battlefield, but on the water.,19,60,20","Kenneth","I cant tell what this is supposed to be, but I enjoy the simplicity of it.,28,300,20","Mason","It's art. (for some),7,100,20","Matthew","AWESOME VIOLIN!`,26,120,20","5"
"7170","","survey-text","163","621784","0.0-159.0-0.0","A2WWYVKGZZXBOB","","","","{""Q0"":""looks like someone threw up a tree""}","","","","","","","","","","","","","","","","","","","","","","",""
"2826","","image-slider-response","164","624616","0.0-160.0","A2WWYVKGZZXBOB","","","","","-26","","","","","","","","","","","","","","","","","","","","","",""
"4922","","image-button-response","165","629627","0.0-161.0","A2WWYVKGZZXBOB","img_art/14.jpg","4","","","","","","","","","","","","","","","","","","","","","","","","",""
"375","","image-button-response","166","630009","0.0-162.0","A2WWYVKGZZXBOB","img_art/14.jpg","3","","","","","","","","","","","","","","","","","","","","","","","","",""
"339","","image-button-response","167","630352","0.0-163.0-0.0","A2WWYVKGZZXBOB","img_art/14.jpg","4","","","","","","","","","","","","","","","","","","","","","","","","",""
"450","","image-button-response","168","630807","0.0-164.0-0.0","A2WWYVKGZZXBOB","img_art/14.jpg","5","","","","","","","","","","","","","","","","","","","","","","","","",""
"null","","html-keyboard-response","169","632316","0.0-165.0","A2WWYVKGZZXBOB","<p style=""font-size: 48px;"">+</p>","","","","","null","allTrialResponses","1500","1","17","img_art/14.jpg","-26","looks like someone threw up a tree","Kenneth,Mason,Matthew,Dylan,Garrett,Jared","Its cute, but not my favorite.,8,300,20","ok, gloomy though.,12,100,20","I like the color tone, it's kind of disturbing.,35,120,20","Pretty, dainty, unique,22,40,20","I like this picture because it looks like a tree and the colors used look cool.,20,180,20","it put me on edge.,-11,400,20","Dylan","Pretty, dainty, unique,22,40,20","Garrett","I like this picture because it looks like a tree and the colors used look cool.,20,180,20","Jared","it put me on edge.,-11,400,20","5"
"10364","","survey-text","170","642688","0.0-166.0-0.0","A2WWYVKGZZXBOB","","","","{""Q0"":""looks like someone spilled oil in a supermarket""}","","","","","","","","","","","","","","","","","","","","","","",""
"2756","","image-slider-response","171","645449","0.0-167.0","A2WWYVKGZZXBOB","","","","","-33","","","","","","","","","","","","","","","","","","","","","",""
"4552","","image-button-response","172","650462","0.0-168.0","A2WWYVKGZZXBOB","img_art/29.jpg","0","","","","","","","","","","","","","","","","","","","","","","","","",""
"675","","image-button-response","173","651139","0.0-169.0","A2WWYVKGZZXBOB","img_art/29.jpg","0","","","","","","","","","","","","","","","","","","","","","","","","",""
"300","","image-button-response","174","651444","0.0-170.0-0.0","A2WWYVKGZZXBOB","img_art/29.jpg","1","","","","","","","","","","","","","","","","","","","","","","","","",""
"503","","image-button-response","175","651952","0.0-171.0-0.0","A2WWYVKGZZXBOB","img_art/29.jpg","4","","","","","","","","","","","","","","","","","","","","","","","","",""
"null","","html-keyboard-response","176","652962","0.0-172.0","A2WWYVKGZZXBOB","<p style=""font-size: 48px;"">+</p>","","","","","null","allTrialResponses","1000","1","18","img_art/29.jpg","-33","looks like someone spilled oil in a supermarket","Miguel,Devin,David,Dylan,Garrett,Jared","It's too messy.,-25,160,20","Looks a bit messy,-13,380,20","Don't really like the red x. It gives the impression that this a discarded piece.,-10,340,20","I don't like this. It is ugly and dark,-29,40,20","I think this image looks ugly and needs more colors so it looks nicer.,-30,180,20","not digging the paintbrush,1,400,20","Miguel","It's too messy.,-25,160,20","Devin","Looks a bit messy,-13,380,20","Garrett","I think this image looks ugly and needs more colors so it looks nicer.,-30,180,20","5"
"11384","","survey-text","177","664360","0.0-173.0-0.0","A2WWYVKGZZXBOB","","","","{""Q0"":""don't know what it is""}","","","","","","","","","","","","","","","","","","","","","","",""
"2313","","image-slider-response","178","666677","0.0-174.0","A2WWYVKGZZXBOB","","","","","-17","","","","","","","","","","","","","","","","","","","","","",""
"null","","image-button-response","179","671685","0.0-175.0","A2WWYVKGZZXBOB","img_art/17.jpg","null","","","","","","","","","","","","","","","","","","","","","","","","",""
"2491","","image-button-response","180","674178","0.0-176.0","A2WWYVKGZZXBOB","img_art/17.jpg","5","","","","","","","","","","","","","","","","","","","","","","","","",""
"471","","image-button-response","181","674651","0.0-177.0-0.0","A2WWYVKGZZXBOB","img_art/17.jpg","4","","","","","","","","","","","","","","","","","","","","","","","","",""
"427","","image-button-response","182","675084","0.0-178.0-0.0","A2WWYVKGZZXBOB","img_art/17.jpg","0","","","","","","","","","","","","","","","","","","","","","","","","",""
"null","","html-keyboard-response","183","676088","0.0-179.0","A2WWYVKGZZXBOB","<p style=""font-size: 48px;"">+</p>","","","","","null","allTrialResponses","1000","1","19","img_art/17.jpg","-17","don't know what it is","Miguel,Devin,James,Taylor,Garrett,William","Looks awesome .,33,160,20","So expressive and wonderful wow!,17,380,20","It's nice and realistic looking.,12,380,20","Somewhat should trim the tree branches at the shopping mall.,10,200,20","I like the way the colors were used behind the tree. Makes the image colorful and interesting.,30,180,20","love the wispyness of it,34,380,20","William","love the wispyness of it,34,380,20","Garrett","I like the way the colors were used behind the tree. Makes the image colorful and interesting.,30,180,20","Miguel","Looks awesome .,33,160,20","5"
"9575","","survey-text","184","685672","0.0-180.0-0.0","A2WWYVKGZZXBOB","","","","{""Q0"":""someone just dripped paint on the ground""}","","","","","","","","","","","","","","","","","","","","","","",""
"2320","","image-slider-response","185","687997","0.0-181.0","A2WWYVKGZZXBOB","","","","","-45","","","","","","","","","","","","","","","","","","","","","",""
"3531","","image-button-response","186","693000","0.0-182.0","A2WWYVKGZZXBOB","img_art/13.jpg","0","","","","","","","","","","","","","","","","","","","","","","","","",""
"467","","image-button-response","187","693470","0.0-183.0","A2WWYVKGZZXBOB","img_art/13.jpg","0","","","","","","","","","","","","","","","","","","","","","","","","",""
"754","","image-button-response","188","694227","0.0-184.0-0.0","A2WWYVKGZZXBOB","img_art/13.jpg","3","","","","","","","","","","","","","","","","","","","","","","","","",""
"490","","image-button-response","189","694722","0.0-185.0-0.0","A2WWYVKGZZXBOB","img_art/13.jpg","0","","","","","","","","","","","","","","","","","","","","","","","","",""
"974","","image-button-response","190","697885","0.0-185.1-0.1","A2WWYVKGZZXBOB","img_art/13.jpg","1","","","","","","","","","","","","","","","","","","","","","","","","",""
"null","","html-keyboard-response","191","698891","0.0-186.0","A2WWYVKGZZXBOB","<p style=""font-size: 48px;"">+</p>","","","","","null","allTrialResponses","1000","1","20","img_art/13.jpg","-45","someone just dripped paint on the ground","Miguel,Noah,Samuel,Kyle,Garrett,William","Nice color abstractions.,21,160,20","evokes a dampening feeling,-9,260,20","eighties here we come,7,400,20","I like the colors together,17,340,20","It looks like someone splattered a bunch of different colors to make a picture; I think its ugly.,-40,180,20","reminds me of rain,36,380,20","Miguel","Nice color abstractions.,21,160,20","Kyle","I like the colors together,17,340,20","Noah","evokes a dampening feeling,-9,260,20","7"
"4232","","survey-text","192","703135","0.0-187.0-0.0","A2WWYVKGZZXBOB","","","","{""Q0"":""we""}","","","","","","","","","","","","","","","","","","","","","","",""
"14572","","survey-text","193","717709","0.0-188.0-0.0","A2WWYVKGZZXBOB","","","","{""Q0"":""looks like highways""}","","","","","","","","","","","","","","","","","","","","","","",""
"2771","","image-slider-response","194","720483","0.0-189.0","A2WWYVKGZZXBOB","","","","","-32","","","","","","","","","","","","","","","","","","","","","",""
"4204","","image-button-response","195","725492","0.0-190.0","A2WWYVKGZZXBOB","img_art/11.jpg","4","","","","","","","","","","","","","","","","","","","","","","","","",""
"498","","image-button-response","196","725991","0.0-191.0","A2WWYVKGZZXBOB","img_art/11.jpg","3","","","","","","","","","","","","","","","","","","","","","","","","",""
"343","","image-button-response","197","726338","0.0-192.0-0.0","A2WWYVKGZZXBOB","img_art/11.jpg","4","","","","","","","","","","","","","","","","","","","","","","","","",""
"417","","image-button-response","198","726760","0.0-193.0-0.0","A2WWYVKGZZXBOB","img_art/11.jpg","1","","","","","","","","","","","","","","","","","","","","","","","","",""
"null","","html-keyboard-response","199","727773","0.0-194.0","A2WWYVKGZZXBOB","<p style=""font-size: 48px;"">+</p>","","","","","null","allTrialResponses","1000","1","21","img_art/11.jpg","-32","looks like highways","Miguel,Noah,Connor,Kyle,Ian,Jordan","Good but not eye catching,14,160,20","I enjoy the kandinsky-like general vibe, but the grey brings me down a bit,27,260,20","Frank Lloyd Wright, music,24,240,20","Reminds me of a city on a grey/rainy winter's day,25,340,20","This one is a little erie, gives me post-apocalyptic feeling,27,260,20","Rainy highways in RI,20,160,20","Kyle","Reminds me of a city on a grey/rainy winter's day,25,340,20","Ian","This one is a little erie, gives me post-apocalyptic feeling,27,260,20","Noah","I enjoy the kandinsky-like general vibe, but the grey brings me down a bit,27,260,20","7"
"16322","","survey-text","200","744111","0.0-195.0-0.0","A2WWYVKGZZXBOB","","","","{""Q0"":""I think the painter was insane""}","","","","","","","","","","","","","","","","","","","","","","",""
"2366","","image-slider-response","201","746481","0.0-196.0","A2WWYVKGZZXBOB","","","","","-23","","","","","","","","","","","","","","","","","","","","","",""
"3524","","image-button-response","202","751491","0.0-197.0","A2WWYVKGZZXBOB","img_art/12.jpg","0","","","","","","","","","","","","","","","","","","","","","","","","",""
"458","","image-button-response","203","751952","0.0-198.0","A2WWYVKGZZXBOB","img_art/12.jpg","0","","","","","","","","","","","","","","","","","","","","","","","","",""
"366","","image-button-response","204","752320","0.0-199.0-0.0","A2WWYVKGZZXBOB","img_art/12.jpg","1","","","","","","","","","","","","","","","","","","","","","","","","",""
"279","","image-button-response","205","752604","0.0-200.0-0.0","A2WWYVKGZZXBOB","img_art/12.jpg","2","","","","","","","","","","","","","","","","","","","","","","","","",""
"null","","html-keyboard-response","206","754115","0.0-201.0","A2WWYVKGZZXBOB","<p style=""font-size: 48px;"">+</p>","","","","","null","allTrialResponses","1500","1","22","img_art/12.jpg","-23","I think the painter was insane","Christian,Noah,Christopher,Kyle,Ian,Jesus","so many different available interpretations for this, would love to closer.,24,140,20","evokes the 80s, and not in a necessarily good way,-10,260,20","i think it's a good piece but it doesn't appeal to me,-18,160,20","It's just not my style,-18,340,20","This is like going to a really old mcdoanlds in a tiny town and it's never been renovated so it's breaking down,-31,260,20","I like the color scheme.,10,100,20","Christian","so many different available interpretations for this, would love to closer.,24,140,20","Noah","evokes the 80s, and not in a necessarily good way,-10,260,20","Christopher","i think it's a good piece but it doesn't appeal to me,-18,160,20","7"
"11668","","survey-text","207","765797","0.0-202.0-0.0","A2WWYVKGZZXBOB","","","","{""Q0"":""not a bad depiction of a waterfall""}","","","","","","","","","","","","","","","","","","","","","","",""
"2981","","image-slider-response","208","768780","0.0-203.0","A2WWYVKGZZXBOB","","","","","1","","","","","","","","","","","","","","","","","","","","","",""
"null","","image-button-response","209","773787","0.0-204.0","A2WWYVKGZZXBOB","img_art/24.jpg","null","","","","","","","","","","","","","","","","","","","","","","","","",""
"982","","image-button-response","210","774772","0.0-205.0","A2WWYVKGZZXBOB","img_art/24.jpg","4","","","","","","","","","","","","","","","","","","","","","","","","",""
"442","","image-button-response","211","775221","0.0-206.0-0.0","A2WWYVKGZZXBOB","img_art/24.jpg","3","","","","","","","","","","","","","","","","","","","","","","","","",""
"625","","image-button-response","212","775853","0.0-207.0-0.0","A2WWYVKGZZXBOB","img_art/24.jpg","2","","","","","","","","","","","","","","","","","","","","","","","","",""
"null","","html-keyboard-response","213","776865","0.0-208.0","A2WWYVKGZZXBOB","<p style=""font-size: 48px;"">+</p>","","","","","null","allTrialResponses","1000","1","23","img_art/24.jpg","1","not a bad depiction of a waterfall","Christian,Noah,Christopher,Angel,Tyler,Joseph","organized mess at first glance, would love to inspect this in closer proximity,39,140,20","this evokes a gutural reaction - it displeases me how similar it is to art I saw growing up,-30,260,20","it's fine, the colors are pleasing, but not my taste,9,160,20","This is clear and healthy. It makes me think of unspoiled nature.,20,180,20","Exceedingly garish,-19,320,20","It looks like a poor dead bunny in a field of flowers. I don't want the bunny to be dead.,-37,220,20","Tyler","Exceedingly garish,-19,320,20","Angel","This is clear and healthy. It makes me think of unspoiled nature.,20,180,20","Christopher","it's fine, the colors are pleasing, but not my taste,9,160,20","7"
"4978","","survey-text","214","781854","0.0-209.0-0.0","A2WWYVKGZZXBOB","","","","{""Q0"":""just a mess""}","","","","","","","","","","","","","","","","","","","","","","",""
"2530","","image-slider-response","215","784389","0.0-210.0","A2WWYVKGZZXBOB","","","","","-37","","","","","","","","","","","","","","","","","","","","","",""
"null","","image-button-response","216","789400","0.0-211.0","A2WWYVKGZZXBOB","img_art/19.jpg","null","","","","","","","","","","","","","","","","","","","","","","","","",""
"898","","image-button-response","217","790300","0.0-212.0","A2WWYVKGZZXBOB","img_art/19.jpg","1","","","","","","","","","","","","","","","","","","","","","","","","",""
"369","","image-button-response","218","790671","0.0-213.0-0.0","A2WWYVKGZZXBOB","img_art/19.jpg","2","","","","","","","","","","","","","","","","","","","","","","","","",""
"376","","image-button-response","219","791052","0.0-214.0-0.0","A2WWYVKGZZXBOB","img_art/19.jpg","4","","","","","","","","","","","","","","","","","","","","","","","","",""
"null","","html-keyboard-response","220","792562","0.0-215.0","A2WWYVKGZZXBOB","<p style=""font-size: 48px;"">+</p>","","","","","null","allTrialResponses","1500","1","24","img_art/19.jpg","-37","just a mess","Eric,Nathaniel,Christopher,Angel,Tyler,Jorge","I like the color and the mix of sketches along with paint.,30,100,20","Horrible. Squiggly lines everywhere.,-50,220,20","too much of a mix of lines and shading,-22,160,20","This one feels pretty neutral. Like a window into someone's life, one person in a bustling metropolis.,0,180,20","Seems unfinished and sloppy,-11,320,20","confused and emotional,-4,180,20","Nathaniel","Horrible. Squiggly lines everywhere.,-50,220,20","Christopher","too much of a mix of lines and shading,-22,160,20","Tyler","Seems unfinished and sloppy,-11,320,20","7"
"12803","","survey-text","221","805382","0.0-216.0-0.0","A2WWYVKGZZXBOB","","","","{""Q0"":""looks like someone made a collage out of magazine photos""}","","","","","","","","","","","","","","","","","","","","","","",""
"2837","","image-slider-response","222","808226","0.0-217.0","A2WWYVKGZZXBOB","","","","","-35","","","","","","","","","","","","","","","","","","","","","",""
"4629","","image-button-response","223","813237","0.0-218.0","A2WWYVKGZZXBOB","img_art/16.jpg","4","","","","","","","","","","","","","","","","","","","","","","","","",""
"631","","image-button-response","224","813871","0.0-219.0","A2WWYVKGZZXBOB","img_art/16.jpg","4","","","","","","","","","","","","","","","","","","","","","","","","",""
"566","","image-button-response","225","814440","0.0-220.0-0.0","A2WWYVKGZZXBOB","img_art/16.jpg","1","","","","","","","","","","","","","","","","","","","","","","","","",""
"326","","image-button-response","226","814769","0.0-221.0-0.0","A2WWYVKGZZXBOB","img_art/16.jpg","2","","","","","","","","","","","","","","","","","","","","","","","","",""
"null","","html-keyboard-response","227","816276","0.0-222.0","A2WWYVKGZZXBOB","<p style=""font-size: 48px;"">+</p>","","","","","null","allTrialResponses","1500","1","25","img_art/16.jpg","-35","looks like someone made a collage out of magazine photos","Vincent,Nathaniel,Christopher,Shawn,Tyler,Luke","Toys toys toys. Happy playful free spirit,30,360,20","Creeps me out. Like..really creeps me out.,-48,220,20","i don't like the collage aspect,-25,160,20","Fun but a little cheesy,15,100,20","Pop art, Tate Modern horse dung.,-50,320,20","while simple, it seems to have a deeper meaning on childhood,33,20,20","Tyler","Pop art, Tate Modern horse dung.,-50,320,20","Nathaniel","Creeps me out. Like..really creeps me out.,-48,220,20","Christopher","i don't like the collage aspect,-25,160,20","7"
"2161","","survey-text","228","818470","0.0-223.0-0.0","A2WWYVKGZZXBOB","","","","{""Q0"":""table""}","","","","","","","","","","","","","","","","","","","","","","",""
"16805","","survey-text","229","835278","0.0-224.0-0.0","A2WWYVKGZZXBOB","","","","{""Q0"":""no substance whatsoever""}","","","","","","","","","","","","","","","","","","","","","","",""
"2433","","image-slider-response","230","837717","0.0-225.0","A2WWYVKGZZXBOB","","","","","-30","","","","","","","","","","","","","","","","","","","","","",""
"null","","image-button-response","231","842723","0.0-226.0","A2WWYVKGZZXBOB","img_art/1.jpg","null","","","","","","","","","","","","","","","","","","","","","","","","",""
"20372","","image-button-response","232","863096","0.0-227.0","A2WWYVKGZZXBOB","img_art/1.jpg","2","","","","","","","","","","","","","","","","","","","","","","","","",""
"658","","image-button-response","233","863757","0.0-228.0-0.0","A2WWYVKGZZXBOB","img_art/1.jpg","3","","","","","","","","","","","","","","","","","","","","","","","","",""
"1132","","image-button-response","234","864894","0.0-229.0-0.0","A2WWYVKGZZXBOB","img_art/1.jpg","5","","","","","","","","","","","","","","","","","","","","","","","","",""
"null","","html-keyboard-response","235","865403","0.0-230.0","A2WWYVKGZZXBOB","<p style=""font-size: 48px;"">+</p>","","","","","null","allTrialResponses","500","1","26","img_art/1.jpg","-30","no substance whatsoever","Alexander,Nathaniel,Christopher,Kevin,Tyler,Brian","Flat colors with no flavor.,5,120,20","A bit of a smokey mess, but it does have an air of mystery I like,7,220,20","it's boring despite all the colors,-2,160,20","I cant make anything of this one.,-7,320,20","This looks like the same artist as the first picture, but cropped? Looks incomplete.,28,320,20","I don't feel like much is happening in this painting,-25,380,20","Christopher","it's boring despite all the colors,-2,160,20","Kevin","I cant make anything of this one.,-7,320,20","Brian","I don't feel like much is happening in this painting,-25,380,20","7"
"10370","","survey-text","236","875781","0.0-231.0-0.0","A2WWYVKGZZXBOB","","","","{""Q0"":""looks like a small child did this""}","","","","","","","","","","","","","","","","","","","","","","",""
"2531","","image-slider-response","237","878318","0.0-232.0","A2WWYVKGZZXBOB","","","","","-32","","","","","","","","","","","","","","","","","","","","","",""
"null","","image-button-response","238","883329","0.0-233.0","A2WWYVKGZZXBOB","img_art/27.jpg","null","","","","","","","","","","","","","","","","","","","","","","","","",""
"260","","image-button-response","239","883591","0.0-234.0","A2WWYVKGZZXBOB","img_art/27.jpg","0","","","","","","","","","","","","","","","","","","","","","","","","",""
"404","","image-button-response","240","883999","0.0-235.0-0.0","A2WWYVKGZZXBOB","img_art/27.jpg","1","","","","","","","","","","","","","","","","","","","","","","","","",""
"358","","image-button-response","241","884360","0.0-236.0-0.0","A2WWYVKGZZXBOB","img_art/27.jpg","4","","","","","","","","","","","","","","","","","","","","","","","","",""
"null","","html-keyboard-response","242","885367","0.0-237.0","A2WWYVKGZZXBOB","<p style=""font-size: 48px;"">+</p>","","","","","null","allTrialResponses","1000","1","27","img_art/27.jpg","-32","looks like a small child did this","Jake,Tristan,Christopher,Kevin,Trevor,Brian","This looks like a poor copy of Cy Twombly's style.,-3,360,20","The colors provide a complexity to the nearly child-like sketches.,5,300,20","i don't think i should like this one because it's a little chaotic and simple but I do,6,160,20","A fall mess going on here,2,320,20","I like the orange but it's a little blah,1,280,20","Colors could be more pleasing, but I really like the thinner lines superimposed over the background,25,380,20","Jake","This looks like a poor copy of Cy Twombly's style.,-3,360,20","Tristan","The colors provide a complexity to the nearly child-like sketches.,5,300,20","Trevor","I like the orange but it's a little blah,1,280,20","7"
"7243","","survey-text","243","892619","0.0-238.0-0.0","A2WWYVKGZZXBOB","","","","{""Q0"":""looks like it took ten minutes to make""}","","","","","","","","","","","","","","","","","","","","","","",""
"2992","","image-slider-response","244","895613","0.0-239.0","A2WWYVKGZZXBOB","","","","","-47","","","","","","","","","","","","","","","","","","","","","",""
"null","","image-button-response","245","900625","0.0-240.0","A2WWYVKGZZXBOB","img_art/5.jpg","null","","","","","","","","","","","","","","","","","","","","","","","","",""
"1620","","image-button-response","246","902247","0.0-241.0","A2WWYVKGZZXBOB","img_art/5.jpg","1","","","","","","","","","","","","","","","","","","","","","","","","",""
"521","","image-button-response","247","902772","0.0-242.0-0.0","A2WWYVKGZZXBOB","img_art/5.jpg","4","","","","","","","","","","","","","","","","","","","","","","","","",""
"795","","image-button-response","248","903570","0.0-243.0-0.0","A2WWYVKGZZXBOB","img_art/5.jpg","5","","","","","","","","","","","","","","","","","","","","","","","","",""
"null","","html-keyboard-response","249","905078","0.0-244.0","A2WWYVKGZZXBOB","<p style=""font-size: 48px;"">+</p>","","","","","null","allTrialResponses","1500","1","28","img_art/5.jpg","-47","looks like it took ten minutes to make","Jake,Tristan,Stephen,Dalton,Trevor,Evan","This is interesting and nice.,16,360,20","Nearly white background gives a lack of context. Questionable skills,-45,300,20","Very little going on.,-4,140,20","its something. i just dont know what it is.,1,300,20","looks like a little kids painting,-50,280,20","I am confused as to what I am seeing is it a handbag, duck foot, bell?,-18,140,20","Tristan","Nearly white background gives a lack of context. Questionable skills,-45,300,20","Trevor","looks like a little kids painting,-50,280,20","Evan","I am confused as to what I am seeing is it a handbag, duck foot, bell?,-18,140,20","7"
"5805","","survey-text","250","910900","0.0-245.0-0.0","A2WWYVKGZZXBOB","","","","{""Q0"":""just random splattering of paint""}","","","","","","","","","","","","","","","","","","","","","","",""
"2419","","image-slider-response","251","913324","0.0-246.0","A2WWYVKGZZXBOB","","","","","-38","","","","","","","","","","","","","","","","","","","","","",""
"null","","image-button-response","252","918328","0.0-247.0","A2WWYVKGZZXBOB","img_art/23.jpg","null","","","","","","","","","","","","","","","","","","","","","","","","",""
"656","","image-button-response","253","918986","0.0-248.0","A2WWYVKGZZXBOB","img_art/23.jpg","4","","","","","","","","","","","","","","","","","","","","","","","","",""
"552","","image-button-response","254","919540","0.0-249.0-0.0","A2WWYVKGZZXBOB","img_art/23.jpg","1","","","","","","","","","","","","","","","","","","","","","","","","",""
"372","","image-button-response","255","919916","0.0-250.0-0.0","A2WWYVKGZZXBOB","img_art/23.jpg","2","","","","","","","","","","","","","","","","","","","","","","","","",""
"null","","html-keyboard-response","256","920927","0.0-251.0","A2WWYVKGZZXBOB","<p style=""font-size: 48px;"">+</p>","","","","","null","allTrialResponses","1000","1","29","img_art/23.jpg","-38","just random splattering of paint","Jeffrey,Tristan,Cole,Zachary,Trevor,Evan","Very energetic, seems like it is pulling me in,24,40,20","So exciting and full of the night.,20,300,20","White in the middle look like people dancing naked,19,200,20","Vivid colors and the white in the middle looks like people dancing.,31,400,20","nice bright colors but looks like it's from the 90's,6,280,20","It feels exciting,23,140,20","Trevor","nice bright colors but looks like it's from the 90's,6,280,20","Tristan","So exciting and full of the night.,20,300,20","Cole","White in the middle look like people dancing naked,19,200,20","7"
"10849","","survey-text","257","931797","0.0-252.0-0.0","A2WWYVKGZZXBOB","","","","{""Q0"":""this is what artists who have no ideas do""}","","","","","","","","","","","","","","","","","","","","","","",""
"2492","","image-slider-response","258","934293","0.0-253.0","A2WWYVKGZZXBOB","","","","","-39","","","","","","","","","","","","","","","","","","","","","",""
"4789","","image-button-response","259","939302","0.0-254.0","A2WWYVKGZZXBOB","img_art/15.jpg","5","","","","","","","","","","","","","","","","","","","","","","","","",""
"637","","image-button-response","260","939943","0.0-255.0","A2WWYVKGZZXBOB","img_art/15.jpg","5","","","","","","","","","","","","","","","","","","","","","","","","",""
"409","","image-button-response","261","940356","0.0-256.0-0.0","A2WWYVKGZZXBOB","img_art/15.jpg","4","","","","","","","","","","","","","","","","","","","","","","","","",""
"268","","image-button-response","262","940627","0.0-257.0-0.0","A2WWYVKGZZXBOB","img_art/15.jpg","3","","","","","","","","","","","","","","","","","","","","","","","","",""
"null","","html-keyboard-response","263","942131","0.0-258.0","A2WWYVKGZZXBOB","<p style=""font-size: 48px;"">+</p>","","","","","null","allTrialResponses","1500","1","30","img_art/15.jpg","-39","this is what artists who have no ideas do","Charles,Tristan,Cole,Paul,Trevor,Corey","it looks like lavender,10,100,20","basic colors and pleasing shapes providing a calming effect,15,300,20","It reminds me of when you look up into a tree,21,200,20","I don't feel much of anything when looking at this, it's just a random pattern,1,300,20","I really like the colors,14,280,20","i like the pop of blue within all the black,8,260,20","Corey","i like the pop of blue within all the black,8,260,20","Trevor","I really like the colors,14,280,20","Paul","I don't feel much of anything when looking at this, it's just a random pattern,1,300,20","7"
"3696","","image-button-response_instructions","264","945846","0.0-259.0","A2WWYVKGZZXBOB","","0","instructions","","","","","","","","","","","","","","","","","","","","","","","",""
