"rt","url","trial_type","trial_index","time_elapsed","internal_node_id","participant_id","stimulus","button_pressed","Name","responses","response","key_press","variableName","fixationTime","condition","trial","photo","subjectRating","subjectResponse","agentsNames","agent_1_Response","agent_2_Response","agent_3_Response","agent_4_Response","agent_5_Response","agent_6_Response","kept_1_name","kept_1_response","kept_2_name","kept_2_response","kept_3_name","kept_3_response","errorCounter"
"34189","external_page_harvard.html","external-html","0","34324","0.0-0.0","A2YR29YNFLZSUG","","","","","","","","","","","","","","","","","","","","","","","","","","",""
"1603","","image-button-response","1","35930","0.0-1.0","A2YR29YNFLZSUG","","0","","","","","","","","","","","","","","","","","","","","","","","","",""
"4555","","image-button-response","2","40491","0.0-2.0-0.0","A2YR29YNFLZSUG","","1","phone","","","","","","","","","","","","","","","","","","","","","","","",""
"4383","","survey-text","3","44875","0.0-3.0-0.0","A2YR29YNFLZSUG","","","","{""Q0"":""A2YR29YNFLZSUG""}","","","","","","","","","","","","","","","","","","","","","","",""
"5319","","image-button-response_instructions","4","50196","0.0-4.0","A2YR29YNFLZSUG","","0","instructions","","","","","","","","","","","","","","","","","","","","","","","",""
"28947","","image-button-response_instructions","5","79145","0.0-5.0","A2YR29YNFLZSUG","img_art/ins/popularity/ins1.png","0","instructions","","","","","","","","","","","","","","","","","","","","","","","",""
"6541","","image-button-response_instructions","6","85688","0.0-6.0","A2YR29YNFLZSUG","img_art/ins/popularity/ins2.png","0","instructions","","","","","","","","","","","","","","","","","","","","","","","",""
"5800","","image-button-response_instructions","7","91490","0.0-7.0","A2YR29YNFLZSUG","img_art/ins/popularity/ins2Extreme.png","0","instructions","","","","","","","","","","","","","","","","","","","","","","","",""
"21195","","image-button-response_instructions","8","112686","0.0-8.0","A2YR29YNFLZSUG","img_art/ins/popularity/ins3KEEPpop.PNG","0","instructions","","","","","","","","","","","","","","","","","","","","","","","",""
"4981","","image-button-response_instructions","9","117669","0.0-9.0","A2YR29YNFLZSUG","img_art/ins/popularity/ins3ANamepop.PNG","0","instructions","","","","","","","","","","","","","","","","","","","","","","","",""
"5927","","image-button-response_instructions","10","123598","0.0-10.0","A2YR29YNFLZSUG","img_art/ins/popularity/ins3ARatingpop.png","0","instructions","","","","","","","","","","","","","","","","","","","","","","","",""
"3070","","image-button-response_instructions","11","126670","0.0-11.0","A2YR29YNFLZSUG","img_art/ins/popularity/ins3ATextpop.png","0","instructions","","","","","","","","","","","","","","","","","","","","","","","",""
"5264","","image-button-response_instructions","12","131935","0.0-12.0","A2YR29YNFLZSUG","img_art/ins/popularity/ins3ALikespop.png","0","instructions","","","","","","","","","","","","","","","","","","","","","","","",""
"14000","","image-button-response_instructions","13","145936","0.0-13.0","A2YR29YNFLZSUG","img_art/ins/popularity/ins3KEEPpop.PNG","0","instructions","","","","","","","","","","","","","","","","","","","","","","","",""
"10706","","image-button-response_instructions","14","156643","0.0-14.0","A2YR29YNFLZSUG","img_art/ins/popularity/ins3_5RED.png","0","instructions","","","","","","","","","","","","","","","","","","","","","","","",""
"3087","","image-button-response_instructions","15","159731","0.0-15.0","A2YR29YNFLZSUG","img_art/ins/popularity/ins3KEEPpop.PNG","0","instructions","","","","","","","","","","","","","","","","","","","","","","","",""
"8247","","image-button-response_instructions","16","167980","0.0-16.0","A2YR29YNFLZSUG","img_art/ins/popularity/ins4KEEPpop.PNG","0","instructions","","","","","","","","","","","","","","","","","","","","","","","",""
"3927","","image-button-response_instructions","17","171908","0.0-17.0","A2YR29YNFLZSUG","img_art/ins/popularity/ins5KEEPpop.PNG","0","instructions","","","","","","","","","","","","","","","","","","","","","","","",""
"1992","","image-button-response_instructions","18","173901","0.0-18.0","A2YR29YNFLZSUG","","0","instructions","","","","","","","","","","","","","","","","","","","","","","","",""
"6063","","survey-text","19","179998","0.0-19.0-0.0","A2YR29YNFLZSUG","","","","{""Q0"":""but""}","","","","","","","","","","","","","","","","","","","","","","",""
"19592","","survey-text","20","199593","0.0-20.0-0.0","A2YR29YNFLZSUG","","","","{""Q0"":""Abstract and colorful""}","","","","","","","","","","","","","","","","","","","","","","",""
"5940","","image-slider-response","21","205537","0.0-21.0","A2YR29YNFLZSUG","","","","","14","","","","","","","","","","","","","","","","","","","","","",""
"null","","image-button-response","22","210558","0.0-22.0","A2YR29YNFLZSUG","img_art/ins/1.jpg","null","","","","","","","","","","","","","","","","","","","","","","","","",""
"4940","","image-button-response","23","215499","0.0-23.0","A2YR29YNFLZSUG","img_art/ins/1.jpg","3","","","","","","","","","","","","","","","","","","","","","","","","",""
"3526","","image-button-response","24","219028","0.0-24.0-0.0","A2YR29YNFLZSUG","img_art/ins/1.jpg","5","","","","","","","","","","","","","","","","","","","","","","","","",""
"5406","","image-button-response","25","224436","0.0-25.0-0.0","A2YR29YNFLZSUG","img_art/ins/1.jpg","1","","","","","","","","","","","","","","","","","","","","","","","","",""
"null","","html-keyboard-response","26","225443","0.0-26.0","A2YR29YNFLZSUG","<p style=""font-size: 48px;"">+</p>","","","","","null","allTrialResponses","1000","1","-2","img_art/ins/1.jpg","14","Abstract and colorful","Adam,Alex,Ben,Carl,Daniel,Jack","Seems like doodles,-20,20,20","very creative work.,36,40,20","This color reminds me of poo,-46,60,20","very calming artwork,42,80,20","It looks like a murder scene.,-48,100,20","I like the sophisticated brushwork,40,120,20","Carl","very calming artwork,42,80,20","Jack","I like the sophisticated brushwork,40,120,20","Alex","very creative work.,36,40,20","0"
"25199","","survey-text","27","250647","0.0-27.0-0.0","A2YR29YNFLZSUG","","","","{""Q0"":""Textured and abstract""}","","","","","","","","","","","","","","","","","","","","","","",""
"6868","","image-slider-response","28","257517","0.0-28.0","A2YR29YNFLZSUG","","","","","6","","","","","","","","","","","","","","","","","","","","","",""
"4191","","image-button-response","29","262539","0.0-29.0","A2YR29YNFLZSUG","img_art/ins/2.jpg","4","","","","","","","","","","","","","","","","","","","","","","","","",""
"1073","","image-button-response","30","263613","0.0-30.0","A2YR29YNFLZSUG","img_art/ins/2.jpg","4","","","","","","","","","","","","","","","","","","","","","","","","",""
"8353","","image-button-response","31","271967","0.0-31.0-0.0","A2YR29YNFLZSUG","img_art/ins/2.jpg","1","","","","","","","","","","","","","","","","","","","","","","","","",""
"6766","","image-button-response","32","278735","0.0-32.0-0.0","A2YR29YNFLZSUG","img_art/ins/2.jpg","3","","","","","","","","","","","","","","","","","","","","","","","","",""
"null","","html-keyboard-response","33","279239","0.0-33.0","A2YR29YNFLZSUG","<p style=""font-size: 48px;"">+</p>","","","","","null","allTrialResponses","500","1","-1","img_art/ins/2.jpg","6","Textured and abstract","James,Alex,Kyle,Carl,John,Jack","looks too angry,-50,140,20","I like the blocks of color arrangements,30,40,20","Idk, it is just annoying,-32,180,20","I can feel the artist's passion in it,45,80,20","love the texture of paint,48,160,20","I would never be able to compose a sophisticated pallete like this,48,120,20","John","love the texture of paint,48,160,20","Alex","I like the blocks of color arrangements,30,40,20","Carl","I can feel the artist's passion in it,45,80,20","0"
"14164","","survey-text","34","293407","0.0-34.0-0.0","A2YR29YNFLZSUG","","","","{""Q0"":""Calming blues""}","","","","","","","","","","","","","","","","","","","","","","",""
"12399","","image-slider-response","35","305809","0.0-35.0","A2YR29YNFLZSUG","","","","","25","","","","","","","","","","","","","","","","","","","","","",""
"null","","image-button-response","36","310828","0.0-36.0","A2YR29YNFLZSUG","img_art/ins/3.jpg","null","","","","","","","","","","","","","","","","","","","","","","","","",""
"1789","","image-button-response","37","312618","0.0-37.0","A2YR29YNFLZSUG","img_art/ins/3.jpg","5","","","","","","","","","","","","","","","","","","","","","","","","",""
"2894","","image-button-response","38","315514","0.0-38.0-0.0","A2YR29YNFLZSUG","img_art/ins/3.jpg","1","","","","","","","","","","","","","","","","","","","","","","","","",""
"4704","","image-button-response","39","320219","0.0-39.0-0.0","A2YR29YNFLZSUG","img_art/ins/3.jpg","0","","","","","","","","","","","","","","","","","","","","","","","","",""
"null","","html-keyboard-response","40","320735","0.0-40.0","A2YR29YNFLZSUG","<p style=""font-size: 48px;"">+</p>","","","","","null","allTrialResponses","500","1","0","img_art/ins/3.jpg","25","Calming blues","Mike,Alex,Ron,Carl,John,Sam","enjoy the different shades of blue,22,200,20","calming blue is very nice,36,40,20","It looks depressing,-26,220,20","It's an alright work,15,80,20","I like the overlapping of brushes,41,160,20","I can feel a rainy day from this painting,18,240,20","Sam","I can feel a rainy day from this painting,18,240,20","Alex","calming blue is very nice,36,40,20","Mike","enjoy the different shades of blue,22,200,20","0"
"11984","","image-button-response_instructions","41","332724","0.0-41.0","A2YR29YNFLZSUG","","0","instructions","","","","","","","","","","","","","","","","","","","","","","","",""
"18837","","survey-likert","42","351562","0.0-42.0-0.0","A2YR29YNFLZSUG","","","","{""Q0"":"""",""Q1"":0,""Q2"":1}","","","","","","","","","","","","","","","","","","","","","","",""
"4314","","survey-text","43","355880","0.0-43.0-0.0","A2YR29YNFLZSUG","","","","{""Q0"":""rock""}","","","","","","","","","","","","","","","","","","","","","","",""
"23282","","survey-text","44","379163","0.0-44.0-0.0","A2YR29YNFLZSUG","","","","{""Q0"":""Abstract and dark""}","","","","","","","","","","","","","","","","","","","","","","",""
"6270","","image-slider-response","45","385436","0.0-45.0","A2YR29YNFLZSUG","","","","","-10","","","","","","","","","","","","","","","","","","","","","",""
"null","","image-button-response","46","390463","0.0-46.0","A2YR29YNFLZSUG","img_art/15.jpg","null","","","","","","","","","","","","","","","","","","","","","","","","",""
"4061","","image-button-response","47","394525","0.0-47.0","A2YR29YNFLZSUG","img_art/15.jpg","5","","","","","","","","","","","","","","","","","","","","","","","","",""
"3888","","image-button-response","48","398414","0.0-48.0-0.0","A2YR29YNFLZSUG","img_art/15.jpg","1","","","","","","","","","","","","","","","","","","","","","","","","",""
"6063","","image-button-response","49","404479","0.0-49.0-0.0","A2YR29YNFLZSUG","img_art/15.jpg","2","","","","","","","","","","","","","","","","","","","","","","","","",""
"null","","html-keyboard-response","50","405987","0.0-50.0","A2YR29YNFLZSUG","<p style=""font-size: 48px;"">+</p>","","","","","null","allTrialResponses","1500","1","1","img_art/15.jpg","-10","Abstract and dark","Kyle,Brett,Colton,Vincent,Eric,Blake","I like it as the colors complement each other well,21,340,20","I don't know how I feel about this,31,360,20","it's alright but a little cluttered,14,220,20","I like the colors and the different style This brings,7,360,20","This picture is too confusing for me. I wouldn't want to stare at it to figure it out.,-10,100,20","ugly picture and don't like it,-22,280,20","Blake","ugly picture and don't like it,-22,280,20","Brett","I don't know how I feel about this,31,360,20","Colton","it's alright but a little cluttered,14,220,20","0"
"70407","","survey-text","51","476400","0.0-51.0-0.0","A2YR29YNFLZSUG","","","","{""Q0"":""Interesting what you find in it""}","","","","","","","","","","","","","","","","","","","","","","",""
"3601","","image-slider-response","52","480002","0.0-52.0","A2YR29YNFLZSUG","","","","","17","","","","","","","","","","","","","","","","","","","","","",""
"null","","image-button-response","53","485018","0.0-53.0","A2YR29YNFLZSUG","img_art/18.jpg","null","","","","","","","","","","","","","","","","","","","","","","","","",""
"915","","image-button-response","54","485933","0.0-54.0","A2YR29YNFLZSUG","img_art/18.jpg","3","","","","","","","","","","","","","","","","","","","","","","","","",""
"10551","","image-button-response","55","496487","0.0-55.0-0.0","A2YR29YNFLZSUG","img_art/18.jpg","2","","","","","","","","","","","","","","","","","","","","","","","","",""
"4638","","image-button-response","56","501127","0.0-56.0-0.0","A2YR29YNFLZSUG","img_art/18.jpg","4","","","","","","","","","","","","","","","","","","","","","","","","",""
"null","","html-keyboard-response","57","502639","0.0-57.0","A2YR29YNFLZSUG","<p style=""font-size: 48px;"">+</p>","","","","","null","allTrialResponses","1500","1","2","img_art/18.jpg","17","Interesting what you find in it","Dustin,Brett,Colton,Grant,Adam,Blake","Looks messy. Reminds me of a battle or war. I have an unpleasant feeling the more I look.,-20,20,20","Kind of weird in a confusing way,10,360,20","reminds me of greek mythology,22,220,20","This is a very energetic painting, and brings to mind scenes of battle.,50,200,20","Colors are okay. Reminds me of cavalry.,10,40,20","i like the colors. outerspace,21,280,20","Grant","This is a very energetic painting, and brings to mind scenes of battle.,50,200,20","Colton","reminds me of greek mythology,22,220,20","Adam","Colors are okay. Reminds me of cavalry.,10,40,20","0"
"28168","","survey-text","58","530812","0.0-58.0-0.0","A2YR29YNFLZSUG","","","","{""Q0"":""Colorful and imaginative""}","","","","","","","","","","","","","","","","","","","","","","",""
"7742","","image-slider-response","59","538556","0.0-59.0","A2YR29YNFLZSUG","","","","","15","","","","","","","","","","","","","","","","","","","","","",""
"null","","image-button-response","60","543578","0.0-60.0","A2YR29YNFLZSUG","img_art/14.jpg","null","","","","","","","","","","","","","","","","","","","","","","","","",""
"1883","","image-button-response","61","545462","0.0-61.0","A2YR29YNFLZSUG","img_art/14.jpg","4","","","","","","","","","","","","","","","","","","","","","","","","",""
"4790","","image-button-response","62","550254","0.0-62.0-0.0","A2YR29YNFLZSUG","img_art/14.jpg","1","","","","","","","","","","","","","","","","","","","","","","","","",""
"7129","","image-button-response","63","557384","0.0-63.0-0.0","A2YR29YNFLZSUG","img_art/14.jpg","3","","","","","","","","","","","","","","","","","","","","","","","","",""
"null","","html-keyboard-response","64","558887","0.0-64.0","A2YR29YNFLZSUG","<p style=""font-size: 48px;"">+</p>","","","","","null","allTrialResponses","1500","1","3","img_art/14.jpg","15","Colorful and imaginative","Bryce,Jacob,Colton,Grant,Adam,Zachary","The red looks like blood and im not a huge fan,15,20,20","I kind of like it!,6,340,20","mythical and nature like,37,220,20","This elicits no reaction in me.,0,200,20","Very abstract. Unsure of what I'm looking at. No emotions towards it.,-6,40,20","Did not evoke much feeling except confusion. I am not sure what to make of this one.,-20,400,20","Adam","Very abstract. Unsure of what I'm looking at. No emotions towards it.,-6,40,20","Jacob","I kind of like it!,6,340,20","Grant","This elicits no reaction in me.,0,200,20","0"
"25583","","survey-text","65","584476","0.0-65.0-0.0","A2YR29YNFLZSUG","","","","{""Q0"":""Very busy.  Colors go well together""}","","","","","","","","","","","","","","","","","","","","","","",""
"5038","","image-slider-response","66","589517","0.0-66.0","A2YR29YNFLZSUG","","","","","18","","","","","","","","","","","","","","","","","","","","","",""
"null","","image-button-response","67","594537","0.0-67.0","A2YR29YNFLZSUG","img_art/19.jpg","null","","","","","","","","","","","","","","","","","","","","","","","","",""
"2914","","image-button-response","68","597454","0.0-68.0","A2YR29YNFLZSUG","img_art/19.jpg","3","","","","","","","","","","","","","","","","","","","","","","","","",""
"1854","","image-button-response","69","599310","0.0-69.0-0.0","A2YR29YNFLZSUG","img_art/19.jpg","1","","","","","","","","","","","","","","","","","","","","","","","","",""
"5663","","image-button-response","70","604974","0.0-70.0-0.0","A2YR29YNFLZSUG","img_art/19.jpg","2","","","","","","","","","","","","","","","","","","","","","","","","",""
"null","","html-keyboard-response","71","606487","0.0-71.0","A2YR29YNFLZSUG","<p style=""font-size: 48px;"">+</p>","","","","","null","allTrialResponses","1500","1","4","img_art/19.jpg","18","Very busy.  Colors go well together","Jorge,Jacob,Seth,Grant,Adam,Ian","confused and emotional,-4,180,20","Vibrant and colorful,13,340,20","I wasn't sure if I liked it or hated it. It oddly reminds me of a clothing store.,11,60,20","It's a cute city scene, but nothing special.,10,200,20","Messy mix of colors.,-5,40,20","It looks cool but at the time looks like it was done by a talented 5 year old.,13,260,20","Grant","It's a cute city scene, but nothing special.,10,200,20","Jacob","Vibrant and colorful,13,340,20","Seth","I wasn't sure if I liked it or hated it. It oddly reminds me of a clothing store.,11,60,20","0"
"25766","","survey-text","72","632259","0.0-72.0-0.0","A2YR29YNFLZSUG","","","","{""Q0"":""Abstract surfing""}","","","","","","","","","","","","","","","","","","","","","","",""
"7455","","image-slider-response","73","639715","0.0-73.0","A2YR29YNFLZSUG","","","","","-3","","","","","","","","","","","","","","","","","","","","","",""
"null","","image-button-response","74","644718","0.0-74.0","A2YR29YNFLZSUG","img_art/1.jpg","null","","","","","","","","","","","","","","","","","","","","","","","","",""
"620","","image-button-response","75","645341","0.0-75.0","A2YR29YNFLZSUG","img_art/1.jpg","2","","","","","","","","","","","","","","","","","","","","","","","","",""
"6512","","image-button-response","76","651854","0.0-76.0-0.0","A2YR29YNFLZSUG","img_art/1.jpg","3","","","","","","","","","","","","","","","","","","","","","","","","",""
"5178","","image-button-response","77","657035","0.0-77.0-0.0","A2YR29YNFLZSUG","img_art/1.jpg","5","","","","","","","","","","","","","","","","","","","","","","","","",""
"null","","html-keyboard-response","78","658043","0.0-78.0","A2YR29YNFLZSUG","<p style=""font-size: 48px;"">+</p>","","","","","null","allTrialResponses","1000","1","5","img_art/1.jpg","-3","Abstract surfing","Jack,Jacob,Seth,Grant,David,Nathaniel","beautiful colors and brush strokes,47,320,20","Looks like the same thing as the last piece shown to me,10,340,20","Might be a person rowing their boat across the lake. Not sure if the background is trees or not.,12,60,20","The use of reds, blues, and yellows together reminds me of fire. Very interesting to look at.,40,200,20","This image doesn't invoke much in me.,0,340,20","A bit of a smokey mess, but it does have an air of mystery I like,7,220,20","Seth","Might be a person rowing their boat across the lake. Not sure if the background is trees or not.,12,60,20","Grant","The use of reds, blues, and yellows together reminds me of fire. Very interesting to look at.,40,200,20","Nathaniel","A bit of a smokey mess, but it does have an air of mystery I like,7,220,20","0"
"7204","","survey-text","79","665267","0.0-79.0-0.0","A2YR29YNFLZSUG","","","","{""Q0"":""sky""}","","","","","","","","","","","","","","","","","","","","","","",""
"22609","","survey-text","80","687877","0.0-80.0-0.0","A2YR29YNFLZSUG","","","","{""Q0"":""An overturned car but colorful""}","","","","","","","","","","","","","","","","","","","","","","",""
"4934","","image-slider-response","81","692814","0.0-81.0","A2YR29YNFLZSUG","","","","","6","","","","","","","","","","","","","","","","","","","","","",""
"null","","image-button-response","82","697818","0.0-82.0","A2YR29YNFLZSUG","img_art/20.jpg","null","","","","","","","","","","","","","","","","","","","","","","","","",""
"7243","","image-button-response","83","705062","0.0-83.0","A2YR29YNFLZSUG","img_art/20.jpg","0","","","","","","","","","","","","","","","","","","","","","","","","",""
"5124","","image-button-response","84","710190","0.0-84.0-0.0","A2YR29YNFLZSUG","img_art/20.jpg","2","","","","","","","","","","","","","","","","","","","","","","","","",""
"7044","","image-button-response","85","717238","0.0-85.0-0.0","A2YR29YNFLZSUG","img_art/20.jpg","5","","","","","","","","","","","","","","","","","","","","","","","","",""
"null","","html-keyboard-response","86","718245","0.0-86.0","A2YR29YNFLZSUG","<p style=""font-size: 48px;"">+</p>","","","","","null","allTrialResponses","1000","1","6","img_art/20.jpg","6","An overturned car but colorful","Nathan,Connor,Seth,Grant,Adrian,Nathaniel","Don't really like the subject it focuses on, however the color usage is great,-10,200,20","Dark frame overpowers the image,-6,240,20","I'm not sure why this reminds me of surrealism. It might be the colors used.,16,60,20","This elicits no reaction in me.,0,200,20","Not sure what it is. The colors are pleasant; makes me want to figure it out. An animal skull in the desert?,10,60,20","A bit hectic, but it does have a bit of coolness to it,6,220,20","Nathan","Don't really like the subject it focuses on, however the color usage is great,-10,200,20","Seth","I'm not sure why this reminds me of surrealism. It might be the colors used.,16,60,20","Nathaniel","A bit hectic, but it does have a bit of coolness to it,6,220,20","0"
"26934","","survey-text","87","745192","0.0-87.0-0.0","A2YR29YNFLZSUG","","","","{""Q0"":""A little dark and confusing""}","","","","","","","","","","","","","","","","","","","","","","",""
"4314","","image-slider-response","88","749510","0.0-88.0","A2YR29YNFLZSUG","","","","","-21","","","","","","","","","","","","","","","","","","","","","",""
"null","","image-button-response","89","754518","0.0-89.0","A2YR29YNFLZSUG","img_art/12.jpg","null","","","","","","","","","","","","","","","","","","","","","","","","",""
"1856","","image-button-response","90","756375","0.0-90.0","A2YR29YNFLZSUG","img_art/12.jpg","5","","","","","","","","","","","","","","","","","","","","","","","","",""
"7127","","image-button-response","91","763504","0.0-91.0-0.0","A2YR29YNFLZSUG","img_art/12.jpg","4","","","","","","","","","","","","","","","","","","","","","","","","",""
"6075","","image-button-response","92","769581","0.0-92.0-0.0","A2YR29YNFLZSUG","img_art/12.jpg","0","","","","","","","","","","","","","","","","","","","","","","","","",""
"null","","html-keyboard-response","93","771088","0.0-93.0","A2YR29YNFLZSUG","<p style=""font-size: 48px;"">+</p>","","","","","null","allTrialResponses","1500","1","7","img_art/12.jpg","-21","A little dark and confusing","Nathan,Tyler,Seth,Jose,Dalton,Nathaniel","Kind of interesting, seems almost nostalgic in a way to me.,10,200,20","Different enough to be memorable. The gradient of hues is appealing and appeasing.,32,320,20","This is beautiful. It looks like 1,000 different sunrises and sunsets.,44,60,20","Not sure why but this is my favorite. I'd put it on my wall,50,200,20","beautiful also reminds me of a quilt,1,300,20","Too many blocks. I can't see a purpose or a focal point,-44,220,20","Nathaniel","Too many blocks. I can't see a purpose or a focal point,-44,220,20","Dalton","beautiful also reminds me of a quilt,1,300,20","Nathan","Kind of interesting, seems almost nostalgic in a way to me.,10,200,20","0"
"18731","","survey-text","94","789837","0.0-94.0-0.0","A2YR29YNFLZSUG","","","","{""Q0"":""Not for me.  Dark and childlike""}","","","","","","","","","","","","","","","","","","","","","","",""
"6868","","image-slider-response","95","796708","0.0-95.0","A2YR29YNFLZSUG","","","","","-28","","","","","","","","","","","","","","","","","","","","","",""
"3903","","image-button-response","96","801727","0.0-96.0","A2YR29YNFLZSUG","img_art/16.jpg","3","","","","","","","","","","","","","","","","","","","","","","","","",""
"771","","image-button-response","97","802502","0.0-97.0","A2YR29YNFLZSUG","img_art/16.jpg","3","","","","","","","","","","","","","","","","","","","","","","","","",""
"2747","","image-button-response","98","805252","0.0-98.0-0.0","A2YR29YNFLZSUG","img_art/16.jpg","5","","","","","","","","","","","","","","","","","","","","","","","","",""
"2685","","image-button-response","99","807940","0.0-99.0-0.0","A2YR29YNFLZSUG","img_art/16.jpg","4","","","","","","","","","","","","","","","","","","","","","","","","",""
"null","","html-keyboard-response","100","809445","0.0-100.0","A2YR29YNFLZSUG","<p style=""font-size: 48px;"">+</p>","","","","","null","allTrialResponses","1500","1","8","img_art/16.jpg","-28","Not for me.  Dark and childlike","Nathan,Kevin,Joshua,Steven,Dalton,Nathaniel","I enjoy how slightly strange this is, while seeming to still have some message,20,200,20","Hmm i don't know what going on here.,1,320,20","This is weird and a little creepy.,6,240,20","Not interested at all,-15,160,20","lol i dont know how i feel about this.,1,300,20","Creeps me out. Like..really creeps me out.,-48,220,20","Steven","Not interested at all,-15,160,20","Nathaniel","Creeps me out. Like..really creeps me out.,-48,220,20","Dalton","lol i dont know how i feel about this.,1,300,20","0"
"40660","","survey-text","101","850114","0.0-101.0-0.0","A2YR29YNFLZSUG","","","","{""Q0"":""VERY colorful.  Is that an orchestra?""}","","","","","","","","","","","","","","","","","","","","","","",""
"5070","","image-slider-response","102","855187","0.0-102.0","A2YR29YNFLZSUG","","","","","-3","","","","","","","","","","","","","","","","","","","","","",""
"4701","","image-button-response","103","860196","0.0-103.0","A2YR29YNFLZSUG","img_art/23.jpg","1","","","","","","","","","","","","","","","","","","","","","","","","",""
"782","","image-button-response","104","860980","0.0-104.0","A2YR29YNFLZSUG","img_art/23.jpg","1","","","","","","","","","","","","","","","","","","","","","","","","",""
"2869","","image-button-response","105","863851","0.0-105.0-0.0","A2YR29YNFLZSUG","img_art/23.jpg","2","","","","","","","","","","","","","","","","","","","","","","","","",""
"9398","","image-button-response","106","873252","0.0-106.0-0.0","A2YR29YNFLZSUG","img_art/23.jpg","0","","","","","","","","","","","","","","","","","","","","","","","","",""
"null","","html-keyboard-response","107","873761","0.0-107.0","A2YR29YNFLZSUG","<p style=""font-size: 48px;"">+</p>","","","","","null","allTrialResponses","500","1","9","img_art/23.jpg","-3","VERY colorful.  Is that an orchestra?","Aaron,Devin,Cole,Steven,Dalton,Nathaniel","I love the colors and the contrast.,50,20,20","background is great but the white is a bit weird,3,380,20","White in the middle look like people dancing naked,19,200,20","NO, I don't get it,-50,160,20","illegible wording with a graffiti background,1,300,20","Not a fan of these dot pieces. They hurt my eyes.,-25,220,20","Devin","background is great but the white is a bit weird,3,380,20","Cole","White in the middle look like people dancing naked,19,200,20","Aaron","I love the colors and the contrast.,50,20,20","0"
"35622","","survey-text","108","909397","0.0-108.0-0.0","A2YR29YNFLZSUG","","","","{""Q0"":""Birds eye view""}","","","","","","","","","","","","","","","","","","","","","","",""
"4222","","image-slider-response","109","913622","0.0-109.0","A2YR29YNFLZSUG","","","","","11","","","","","","","","","","","","","","","","","","","","","",""
"null","","image-button-response","110","918637","0.0-110.0","A2YR29YNFLZSUG","img_art/8.jpg","null","","","","","","","","","","","","","","","","","","","","","","","","",""
"495","","image-button-response","111","919133","0.0-111.0","A2YR29YNFLZSUG","img_art/8.jpg","1","","","","","","","","","","","","","","","","","","","","","","","","",""
"566","","image-button-response","112","919702","0.0-112.0-0.0","A2YR29YNFLZSUG","img_art/8.jpg","2","","","","","","","","","","","","","","","","","","","","","","","","",""
"12840","","image-button-response","113","932544","0.0-113.0-0.0","A2YR29YNFLZSUG","img_art/8.jpg","5","","","","","","","","","","","","","","","","","","","","","","","","",""
"null","","html-keyboard-response","114","933048","0.0-114.0","A2YR29YNFLZSUG","<p style=""font-size: 48px;"">+</p>","","","","","null","allTrialResponses","500","1","10","img_art/8.jpg","11","Birds eye view","Aaron,Devin,Cole,Jared,Antonio,Angel","The shapes and colors work well together.,40,20,20","Very nice detail and colors!,10,380,20","Its abstract and interesting,24,200,20","i love the colors, the church and the face,42,400,20","I love the colors in it and also the faces and door ways. Made me feel hopeful,35,220,20","The angle makes it kind of disorienting but I enjoy the fantastical colors and imagery. It's like a dream.,10,180,20","Devin","Very nice detail and colors!,10,380,20","Cole","Its abstract and interesting,24,200,20","Angel","The angle makes it kind of disorienting but I enjoy the fantastical colors and imagery. It's like a dream.,10,180,20","0"
"4336","","survey-text","115","937404","0.0-115.0-0.0","A2YR29YNFLZSUG","","","","{""Q0"":""our""}","","","","","","","","","","","","","","","","","","","","","","",""
"27163","","survey-text","116","964569","0.0-116.0-0.0","A2YR29YNFLZSUG","","","","{""Q0"":""Not a fan, too simple""}","","","","","","","","","","","","","","","","","","","","","","",""
"11118","","image-slider-response","117","975692","0.0-117.0","A2YR29YNFLZSUG","","","","","-19","","","","","","","","","","","","","","","","","","","","","",""
"null","","image-button-response","118","980708","0.0-118.0","A2YR29YNFLZSUG","img_art/30.jpg","null","","","","","","","","","","","","","","","","","","","","","","","","",""
"2063","","image-button-response","119","982772","0.0-119.0","A2YR29YNFLZSUG","img_art/30.jpg","3","","","","","","","","","","","","","","","","","","","","","","","","",""
"5285","","image-button-response","120","988061","0.0-120.0-0.0","A2YR29YNFLZSUG","img_art/30.jpg","1","","","","","","","","","","","","","","","","","","","","","","","","",""
"1678","","image-button-response","121","989741","0.0-121.0-0.0","A2YR29YNFLZSUG","img_art/30.jpg","2","","","","","","","","","","","","","","","","","","","","","","","","",""
"null","","html-keyboard-response","122","991247","0.0-122.0","A2YR29YNFLZSUG","<p style=""font-size: 48px;"">+</p>","","","","","null","allTrialResponses","1500","1","11","img_art/30.jpg","-19","Not a fan, too simple","Austin,Devin,Cole,Corey,Tristan,Angel","Love the bold brush strokes and the illusion it creates,50,240,20","A bit haphazard looking and lacking in vision,2,380,20","Its ugly. Too simple,-23,200,20","I dont like the colors whatsoever,-15,260,20","Too much abstraction for me, leaving my focus mainly on color. I like the texture.,-20,300,20","It's like a child's art piece: carefree and not trying to conform to anything.,10,180,20","Corey","I dont like the colors whatsoever,-15,260,20","Devin","A bit haphazard looking and lacking in vision,2,380,20","Cole","Its ugly. Too simple,-23,200,20","0"
"18773","","survey-text","123","1010032","0.0-123.0-0.0","A2YR29YNFLZSUG","","","","{""Q0"":""Dreamland in bed""}","","","","","","","","","","","","","","","","","","","","","","",""
"2997","","image-slider-response","124","1013034","0.0-124.0","A2YR29YNFLZSUG","","","","","-8","","","","","","","","","","","","","","","","","","","","","",""
"null","","image-button-response","125","1018047","0.0-125.0","A2YR29YNFLZSUG","img_art/9.jpg","null","","","","","","","","","","","","","","","","","","","","","","","","",""
"15284","","image-button-response","126","1033333","0.0-126.0","A2YR29YNFLZSUG","img_art/9.jpg","2","","","","","","","","","","","","","","","","","","","","","","","","",""
"2877","","image-button-response","127","1036213","0.0-127.0-0.0","A2YR29YNFLZSUG","img_art/9.jpg","3","","","","","","","","","","","","","","","","","","","","","","","","",""
"2341","","image-button-response","128","1038557","0.0-128.0-0.0","A2YR29YNFLZSUG","img_art/9.jpg","4","","","","","","","","","","","","","","","","","","","","","","","","",""
"null","","html-keyboard-response","129","1039567","0.0-129.0","A2YR29YNFLZSUG","<p style=""font-size: 48px;"">+</p>","","","","","null","allTrialResponses","1000","1","12","img_art/9.jpg","-8","Dreamland in bed","Christopher,Devin,Cole,Corey,Bradley,Thomas","I really like the color balance but the image is odd,-5,160,20","I really like the colors and details.,8,380,20","I see a foot. Idk colors are pleasant,12,200,20","keeps me interested. like the colors,17,260,20","Yikes. I'm not sure what to make of this one.,-14,300,20","I don't like the picture, but it wouldn't surprise me if someone did,-20,220,20","Cole","I see a foot. Idk colors are pleasant,12,200,20","Corey","keeps me interested. like the colors,17,260,20","Bradley","Yikes. I'm not sure what to make of this one.,-14,300,20","0"
"33131","","survey-text","130","1072711","0.0-130.0-0.0","A2YR29YNFLZSUG","","","","{""Q0"":""Too simplistic and don't like the color palette""}","","","","","","","","","","","","","","","","","","","","","","",""
"4597","","image-slider-response","131","1077312","0.0-131.0","A2YR29YNFLZSUG","","","","","-23","","","","","","","","","","","","","","","","","","","","","",""
"null","","image-button-response","132","1082328","0.0-132.0","A2YR29YNFLZSUG","img_art/2.jpg","null","","","","","","","","","","","","","","","","","","","","","","","","",""
"679","","image-button-response","133","1083009","0.0-133.0","A2YR29YNFLZSUG","img_art/2.jpg","3","","","","","","","","","","","","","","","","","","","","","","","","",""
"631","","image-button-response","134","1083641","0.0-134.0-0.0","A2YR29YNFLZSUG","img_art/2.jpg","4","","","","","","","","","","","","","","","","","","","","","","","","",""
"9047","","image-button-response","135","1092691","0.0-135.0-0.0","A2YR29YNFLZSUG","img_art/2.jpg","1","","","","","","","","","","","","","","","","","","","","","","","","",""
"null","","html-keyboard-response","136","1093207","0.0-136.0","A2YR29YNFLZSUG","<p style=""font-size: 48px;"">+</p>","","","","","null","allTrialResponses","500","1","13","img_art/2.jpg","-23","Too simplistic and don't like the color palette","Logan,Andrew,Cole,Corey,Bradley,Samuel","omg she's so cute look at that little smile those eyelashes ugh love it,30,360,20","Doesn't give me a reaction,10,160,20","Childish smiley face,-19,200,20","doesn't do anything for me,-7,260,20","I'm not fond of the colors in this one.,-33,300,20","i liked the bright colors,13,400,20","Corey","doesn't do anything for me,-7,260,20","Bradley","I'm not fond of the colors in this one.,-33,300,20","Andrew","Doesn't give me a reaction,10,160,20","0"
"16350","","survey-text","137","1109572","0.0-137.0-0.0","A2YR29YNFLZSUG","","","","{""Q0"":""Boring and colorless""}","","","","","","","","","","","","","","","","","","","","","","",""
"3637","","image-slider-response","138","1113212","0.0-138.0","A2YR29YNFLZSUG","","","","","-29","","","","","","","","","","","","","","","","","","","","","",""
"null","","image-button-response","139","1118218","0.0-139.0","A2YR29YNFLZSUG","img_art/5.jpg","null","","","","","","","","","","","","","","","","","","","","","","","","",""
"2418","","image-button-response","140","1120637","0.0-140.0","A2YR29YNFLZSUG","img_art/5.jpg","4","","","","","","","","","","","","","","","","","","","","","","","","",""
"2846","","image-button-response","141","1123487","0.0-141.0-0.0","A2YR29YNFLZSUG","img_art/5.jpg","5","","","","","","","","","","","","","","","","","","","","","","","","",""
"4335","","image-button-response","142","1127823","0.0-142.0-0.0","A2YR29YNFLZSUG","img_art/5.jpg","2","","","","","","","","","","","","","","","","","","","","","","","","",""
"null","","html-keyboard-response","143","1128337","0.0-143.0","A2YR29YNFLZSUG","<p style=""font-size: 48px;"">+</p>","","","","","null","allTrialResponses","500","1","14","img_art/5.jpg","-29","Boring and colorless","Brendan,Andrew,Christian,Corey,Bradley,Luis","a volcano erruption,21,340,20","Doesn't make me think anything,-1,160,20","sorry not my style,-37,140,20","simple. love the color scheme,27,260,20","Looks like a tied up trash bag.,-10,300,20","Very messy and not a lot of thought,-29,400,20","Bradley","Looks like a tied up trash bag.,-10,300,20","Luis","Very messy and not a lot of thought,-29,400,20","Christian","sorry not my style,-37,140,20","0"
"28403","","survey-text","144","1156752","0.0-144.0-0.0","A2YR29YNFLZSUG","","","","{""Q0"":""Interesting in black and white""}","","","","","","","","","","","","","","","","","","","","","","",""
"2589","","image-slider-response","145","1159346","0.0-145.0","A2YR29YNFLZSUG","","","","","11","","","","","","","","","","","","","","","","","","","","","",""
"null","","image-button-response","146","1164368","0.0-146.0","A2YR29YNFLZSUG","img_art/10.jpg","null","","","","","","","","","","","","","","","","","","","","","","","","",""
"625","","image-button-response","147","1164993","0.0-147.0","A2YR29YNFLZSUG","img_art/10.jpg","4","","","","","","","","","","","","","","","","","","","","","","","","",""
"3543","","image-button-response","148","1168539","0.0-148.0-0.0","A2YR29YNFLZSUG","img_art/10.jpg","3","","","","","","","","","","","","","","","","","","","","","","","","",""
"9253","","image-button-response","149","1177796","0.0-149.0-0.0","A2YR29YNFLZSUG","img_art/10.jpg","5","","","","","","","","","","","","","","","","","","","","","","","","",""
"null","","html-keyboard-response","150","1179318","0.0-150.0","A2YR29YNFLZSUG","<p style=""font-size: 48px;"">+</p>","","","","","null","allTrialResponses","1500","1","15","img_art/10.jpg","11","Interesting in black and white","Jason,Jordan,Christian,Alex,Bradley,Luis","Picture looks smudged,-7,20,20","Looks gross and messy,-39,160,20","gives a sense of a roller coaster unit splashed in water. it's not but i love it nevertheless,44,140,20","This could be a guitar, or it could be a completely random shape.,-3,100,20","This piece is very intriguing to me.,3,300,20","I love the dark and edgy nature of this,50,400,20","Bradley","This piece is very intriguing to me.,3,300,20","Alex","This could be a guitar, or it could be a completely random shape.,-3,100,20","Luis","I love the dark and edgy nature of this,50,400,20","0"
"11793","","survey-text","151","1191133","0.0-151.0-0.0","A2YR29YNFLZSUG","","","","{""Q0"":""course""}","","","","","","","","","","","","","","","","","","","","","","",""
"19058","","survey-text","152","1210193","0.0-152.0-0.0","A2YR29YNFLZSUG","","","","{""Q0"":""Not a huge red scribble fan""}","","","","","","","","","","","","","","","","","","","","","","",""
"3878","","image-slider-response","153","1214073","0.0-153.0","A2YR29YNFLZSUG","","","","","-21","","","","","","","","","","","","","","","","","","","","","",""
"null","","image-button-response","154","1219078","0.0-154.0","A2YR29YNFLZSUG","img_art/3.jpg","null","","","","","","","","","","","","","","","","","","","","","","","","",""
"586","","image-button-response","155","1219667","0.0-155.0","A2YR29YNFLZSUG","img_art/3.jpg","1","","","","","","","","","","","","","","","","","","","","","","","","",""
"5620","","image-button-response","156","1225291","0.0-156.0-0.0","A2YR29YNFLZSUG","img_art/3.jpg","3","","","","","","","","","","","","","","","","","","","","","","","","",""
"2060","","image-button-response","157","1227355","0.0-157.0-0.0","A2YR29YNFLZSUG","img_art/3.jpg","4","","","","","","","","","","","","","","","","","","","","","","","","",""
"null","","html-keyboard-response","158","1228377","0.0-158.0","A2YR29YNFLZSUG","<p style=""font-size: 48px;"">+</p>","","","","","null","allTrialResponses","1000","1","16","img_art/3.jpg","-21","Not a huge red scribble fan","Daniel,Tanner,Jesse,Alex,Bradley,Luis","5 min scribble by a 3 year old,-46,320,20","anger, blood, death,-24,180,20","No substance or feeling to it,-20,80,20","Ok, just a bunch of red lines and a grey smudge. Would pass this right by in a gallery,-12,100,20","Marker gone wild?  Not sure what's going on here.,-21,300,20","I dont really feel anything from this, i cant see or understand any of it,-20,400,20","Tanner","anger, blood, death,-24,180,20","Alex","Ok, just a bunch of red lines and a grey smudge. Would pass this right by in a gallery,-12,100,20","Bradley","Marker gone wild?  Not sure what's going on here.,-21,300,20","0"
"13136","","survey-text","159","1241533","0.0-159.0-0.0","A2YR29YNFLZSUG","","","","{""Q0"":""A pelican on a beach""}","","","","","","","","","","","","","","","","","","","","","","",""
"3878","","image-slider-response","160","1245414","0.0-160.0","A2YR29YNFLZSUG","","","","","-11","","","","","","","","","","","","","","","","","","","","","",""
"null","","image-button-response","161","1250417","0.0-161.0","A2YR29YNFLZSUG","img_art/6.jpg","null","","","","","","","","","","","","","","","","","","","","","","","","",""
"4820","","image-button-response","162","1255238","0.0-162.0","A2YR29YNFLZSUG","img_art/6.jpg","4","","","","","","","","","","","","","","","","","","","","","","","","",""
"9294","","image-button-response","163","1264535","0.0-163.0-0.0","A2YR29YNFLZSUG","img_art/6.jpg","2","","","","","","","","","","","","","","","","","","","","","","","","",""
"6942","","image-button-response","164","1271481","0.0-164.0-0.0","A2YR29YNFLZSUG","img_art/6.jpg","5","","","","","","","","","","","","","","","","","","","","","","","","",""
"null","","html-keyboard-response","165","1272987","0.0-165.0","A2YR29YNFLZSUG","<p style=""font-size: 48px;"">+</p>","","","","","null","allTrialResponses","1500","1","17","img_art/6.jpg","-11","A pelican on a beach","Justin,Tanner,Mark,Alex,Bradley,Spencer","It's alright. I imagined the peach from James and the Giant Peach.,1,280,20","loneliness, fragile, forever alone, a girl who's been there for eternity, only think tracking time is the length of her hair,9,180,20","So forlorn, and beauty amid desolation.,25,80,20","Definitely belongs at a doctor's office, I think it's a crow or a tree?,-3,100,20","It's okay. It kind of looks like a bird with his head buried in his feathers.,2,300,20","Boring, looks like a sad tree in wind,-37,120,20","Bradley","It's okay. It kind of looks like a bird with his head buried in his feathers.,2,300,20","Mark","So forlorn, and beauty amid desolation.,25,80,20","Spencer","Boring, looks like a sad tree in wind,-37,120,20","0"
"14244","","survey-text","166","1287243","0.0-166.0-0.0","A2YR29YNFLZSUG","","","","{""Q0"":""Colorful cloudy sky""}","","","","","","","","","","","","","","","","","","","","","","",""
"2789","","image-slider-response","167","1290035","0.0-167.0","A2YR29YNFLZSUG","","","","","29","","","","","","","","","","","","","","","","","","","","","",""
"null","","image-button-response","168","1295057","0.0-168.0","A2YR29YNFLZSUG","img_art/21.jpg","null","","","","","","","","","","","","","","","","","","","","","","","","",""
"1231","","image-button-response","169","1296291","0.0-169.0","A2YR29YNFLZSUG","img_art/21.jpg","3","","","","","","","","","","","","","","","","","","","","","","","","",""
"2879","","image-button-response","170","1299172","0.0-170.0-0.0","A2YR29YNFLZSUG","img_art/21.jpg","5","","","","","","","","","","","","","","","","","","","","","","","","",""
"8734","","image-button-response","171","1307909","0.0-171.0-0.0","A2YR29YNFLZSUG","img_art/21.jpg","2","","","","","","","","","","","","","","","","","","","","","","","","",""
"null","","html-keyboard-response","172","1309427","0.0-172.0","A2YR29YNFLZSUG","<p style=""font-size: 48px;"">+</p>","","","","","null","allTrialResponses","1500","1","18","img_art/21.jpg","29","Colorful cloudy sky","Bryan,Derek,Mark,Benjamin,Bradley,Spencer","Like the colors, the cloudy, airy effects. Nice.,46,400,20","I love the colors in this painting,30,360,20","It feels like a day at sea but the pink is slightly jarring and holding my eye.,26,80,20","sunset after the rain,49,260,20","Indifferent toward this one.,6,300,20","Love the colors, uplifting and stormy at the same time,32,120,20","Benjamin","sunset after the rain,49,260,20","Spencer","Love the colors, uplifting and stormy at the same time,32,120,20","Mark","It feels like a day at sea but the pink is slightly jarring and holding my eye.,26,80,20","0"
"13949","","survey-text","173","1323391","0.0-173.0-0.0","A2YR29YNFLZSUG","","","","{""Q0"":""A colorful waterfall""}","","","","","","","","","","","","","","","","","","","","","","",""
"3583","","image-slider-response","174","1326976","0.0-174.0","A2YR29YNFLZSUG","","","","","7","","","","","","","","","","","","","","","","","","","","","",""
"null","","image-button-response","175","1331987","0.0-175.0","A2YR29YNFLZSUG","img_art/24.jpg","null","","","","","","","","","","","","","","","","","","","","","","","","",""
"3621","","image-button-response","176","1335609","0.0-176.0","A2YR29YNFLZSUG","img_art/24.jpg","2","","","","","","","","","","","","","","","","","","","","","","","","",""
"6024","","image-button-response","177","1341634","0.0-177.0-0.0","A2YR29YNFLZSUG","img_art/24.jpg","0","","","","","","","","","","","","","","","","","","","","","","","","",""
"5478","","image-button-response","178","1347115","0.0-178.0-0.0","A2YR29YNFLZSUG","img_art/24.jpg","4","","","","","","","","","","","","","","","","","","","","","","","","",""
"null","","html-keyboard-response","179","1348639","0.0-179.0","A2YR29YNFLZSUG","<p style=""font-size: 48px;"">+</p>","","","","","null","allTrialResponses","1500","1","19","img_art/24.jpg","7","A colorful waterfall","Isaiah,Jonathan,Mark,Benjamin,William,Spencer","I feel relaxed and happy, looking at the stream, but it feels hollow, like something is fake.,5,300,20","The colors and brush strokes make it feel adventurous,20,140,20","Waterfall, and I love the coloring.,48,80,20","peaceful and calm yet joyous.,50,260,20","very peaceful and serene,47,380,20","Happy, the forest as I would love to see it,50,120,20","Mark","Waterfall, and I love the coloring.,48,80,20","Isaiah","I feel relaxed and happy, looking at the stream, but it feels hollow, like something is fake.,5,300,20","William","very peaceful and serene,47,380,20","0"
"25913","","survey-text","180","1374573","0.0-180.0-0.0","A2YR29YNFLZSUG","","","","{""Q0"":""Kind of drab city scene""}","","","","","","","","","","","","","","","","","","","","","","",""
"3030","","image-slider-response","181","1377606","0.0-181.0","A2YR29YNFLZSUG","","","","","-19","","","","","","","","","","","","","","","","","","","","","",""
"null","","image-button-response","182","1382617","0.0-182.0","A2YR29YNFLZSUG","img_art/26.jpg","null","","","","","","","","","","","","","","","","","","","","","","","","",""
"1899","","image-button-response","183","1384518","0.0-183.0","A2YR29YNFLZSUG","img_art/26.jpg","2","","","","","","","","","","","","","","","","","","","","","","","","",""
"11904","","image-button-response","184","1396424","0.0-184.0-0.0","A2YR29YNFLZSUG","img_art/26.jpg","1","","","","","","","","","","","","","","","","","","","","","","","","",""
"2414","","image-button-response","185","1398842","0.0-185.0-0.0","A2YR29YNFLZSUG","img_art/26.jpg","4","","","","","","","","","","","","","","","","","","","","","","","","",""
"null","","html-keyboard-response","186","1400346","0.0-186.0","A2YR29YNFLZSUG","<p style=""font-size: 48px;"">+</p>","","","","","null","allTrialResponses","1500","1","20","img_art/26.jpg","-19","Kind of drab city scene","Isaiah,Noah,Mark,Juan,William,Miguel","It is very relaxing to look at, almost a relief.,21,300,20","fairly neutral, really,8,260,20","I get the feeling of a small old world street.,24,80,20","Something I'd see in a thrift store. It looks like not much effort was used to paint this.,9,260,20","feels a tad old,30,380,20","Murky, messy, kid like.,-45,160,20","Mark","I get the feeling of a small old world street.,24,80,20","Noah","fairly neutral, really,8,260,20","William","feels a tad old,30,380,20","0"
"2925","","survey-text","187","1403295","0.0-187.0-0.0","A2YR29YNFLZSUG","","","","{""Q0"":""we""}","","","","","","","","","","","","","","","","","","","","","","",""
"13852","","survey-text","188","1417149","0.0-188.0-0.0","A2YR29YNFLZSUG","","","","{""Q0"":""Yellow scribbles""}","","","","","","","","","","","","","","","","","","","","","","",""
"3036","","image-slider-response","189","1420190","0.0-189.0","A2YR29YNFLZSUG","","","","","-24","","","","","","","","","","","","","","","","","","","","","",""
"null","","image-button-response","190","1425207","0.0-190.0","A2YR29YNFLZSUG","img_art/4.jpg","null","","","","","","","","","","","","","","","","","","","","","","","","",""
"292","","image-button-response","191","1425501","0.0-191.0","A2YR29YNFLZSUG","img_art/4.jpg","3","","","","","","","","","","","","","","","","","","","","","","","","",""
"1588","","image-button-response","192","1427093","0.0-192.0-0.0","A2YR29YNFLZSUG","img_art/4.jpg","4","","","","","","","","","","","","","","","","","","","","","","","","",""
"6102","","image-button-response","193","1433199","0.0-193.0-0.0","A2YR29YNFLZSUG","img_art/4.jpg","1","","","","","","","","","","","","","","","","","","","","","","","","",""
"null","","html-keyboard-response","194","1434217","0.0-194.0","A2YR29YNFLZSUG","<p style=""font-size: 48px;"">+</p>","","","","","null","allTrialResponses","1000","1","21","img_art/4.jpg","-24","Yellow scribbles","Marcus,Noah,Mark,Mason,William,Mitchell","Really like the colors, but don't like the object/squiggle in darker gold and black,4,60,20","no strong feelings about this one,2,260,20","I think it speaks to familial closeness but the tonality is offputting to me.,-10,80,20","ordinary, bland. unmoving.,-6,100,20","dont like the colors,-31,380,20","Hearts, family connected. They are standing on a narrow base and could fall to pieces at anytime.,40,180,20","Mason","ordinary, bland. unmoving.,-6,100,20","William","dont like the colors,-31,380,20","Noah","no strong feelings about this one,2,260,20","0"
"13684","","survey-text","195","1447918","0.0-195.0-0.0","A2YR29YNFLZSUG","","","","{""Q0"":""Dark and uninspiring""}","","","","","","","","","","","","","","","","","","","","","","",""
"3327","","image-slider-response","196","1451247","0.0-196.0","A2YR29YNFLZSUG","","","","","-25","","","","","","","","","","","","","","","","","","","","","",""
"null","","image-button-response","197","1456257","0.0-197.0","A2YR29YNFLZSUG","img_art/25.jpg","null","","","","","","","","","","","","","","","","","","","","","","","","",""
"589","","image-button-response","198","1456847","0.0-198.0","A2YR29YNFLZSUG","img_art/25.jpg","3","","","","","","","","","","","","","","","","","","","","","","","","",""
"919","","image-button-response","199","1457767","0.0-199.0-0.0","A2YR29YNFLZSUG","img_art/25.jpg","4","","","","","","","","","","","","","","","","","","","","","","","","",""
"4871","","image-button-response","200","1462641","0.0-200.0-0.0","A2YR29YNFLZSUG","img_art/25.jpg","2","","","","","","","","","","","","","","","","","","","","","","","","",""
"null","","html-keyboard-response","201","1463150","0.0-201.0","A2YR29YNFLZSUG","<p style=""font-size: 48px;"">+</p>","","","","","null","allTrialResponses","500","1","22","img_art/25.jpg","-25","Dark and uninspiring","Anthony,Noah,Jeffrey,Mason,William,Jeremy","Spooky, but in a good way. I like the green and black color palette.,42,200,20","I find it enjoyable - mainly because it is not art I ever expected to see,16,260,20","reminds me of a demon,-25,40,20","death. childish nightmare.,-29,100,20","makes me think of a scary movie,-20,380,20","reminds me of ancient history which makes me happy,40,60,20","Mason","death. childish nightmare.,-29,100,20","William","makes me think of a scary movie,-20,380,20","Jeffrey","reminds me of a demon,-25,40,20","0"
"31178","","survey-text","202","1494341","0.0-202.0-0.0","A2YR29YNFLZSUG","","","","{""Q0"":""Green scribbles on an otherwise interesting piece""}","","","","","","","","","","","","","","","","","","","","","","",""
"2124","","image-slider-response","203","1496469","0.0-203.0","A2YR29YNFLZSUG","","","","","-11","","","","","","","","","","","","","","","","","","","","","",""
"null","","image-button-response","204","1501487","0.0-204.0","A2YR29YNFLZSUG","img_art/27.jpg","null","","","","","","","","","","","","","","","","","","","","","","","","",""
"2268","","image-button-response","205","1503757","0.0-205.0","A2YR29YNFLZSUG","img_art/27.jpg","0","","","","","","","","","","","","","","","","","","","","","","","","",""
"1870","","image-button-response","206","1505631","0.0-206.0-0.0","A2YR29YNFLZSUG","img_art/27.jpg","0","","","","","","","","","","","","","","","","","","","","","","","","",""
"2393","","image-button-response","207","1512760","0.0-206.1-0.1","A2YR29YNFLZSUG","img_art/27.jpg","1","","","","","","","","","","","","","","","","","","","","","","","","",""
"9757","","image-button-response","208","1522520","0.0-207.0-0.0","A2YR29YNFLZSUG","img_art/27.jpg","3","","","","","","","","","","","","","","","","","","","","","","","","",""
"null","","html-keyboard-response","209","1524029","0.0-208.0","A2YR29YNFLZSUG","<p style=""font-size: 48px;"">+</p>","","","","","null","allTrialResponses","1500","1","23","img_art/27.jpg","-11","Green scribbles on an otherwise interesting piece","Carlos,Isaac,Jeffrey,Mason,William,Ryan","The green lines disrupt the image in an unpleasant and hurried way.,-30,80,20","The green lines look like a child drew over a painting.,-36,280,20","I like the pictures but it is a lot of going on,10,40,20","dont like it, don't hate it, meh.,2,100,20","reminds me of fall,33,380,20","I love the childish aspect to it,37,380,20","Carlos","The green lines disrupt the image in an unpleasant and hurried way.,-30,80,20","Isaac","The green lines look like a child drew over a painting.,-36,280,20","Mason","dont like it, don't hate it, meh.,2,100,20","2"
"18621","","survey-text","210","1542668","0.0-209.0-0.0","A2YR29YNFLZSUG","","","","{""Q0"":""Abstract at its worst""}","","","","","","","","","","","","","","","","","","","","","","",""
"3636","","image-slider-response","211","1546306","0.0-210.0","A2YR29YNFLZSUG","","","","","-19","","","","","","","","","","","","","","","","","","","","","",""
"null","","image-button-response","212","1551329","0.0-211.0","A2YR29YNFLZSUG","img_art/29.jpg","null","","","","","","","","","","","","","","","","","","","","","","","","",""
"545","","image-button-response","213","1551876","0.0-212.0","A2YR29YNFLZSUG","img_art/29.jpg","3","","","","","","","","","","","","","","","","","","","","","","","","",""
"7438","","image-button-response","214","1559317","0.0-213.0-0.0","A2YR29YNFLZSUG","img_art/29.jpg","5","","","","","","","","","","","","","","","","","","","","","","","","",""
"7094","","image-button-response","215","1566414","0.0-214.0-0.0","A2YR29YNFLZSUG","img_art/29.jpg","2","","","","","","","","","","","","","","","","","","","","","","","","",""
"null","","html-keyboard-response","216","1567929","0.0-215.0","A2YR29YNFLZSUG","<p style=""font-size: 48px;"">+</p>","","","","","null","allTrialResponses","1500","1","24","img_art/29.jpg","-19","Abstract at its worst","Carlos,Isaac,Alexis,Mason,Devon,Timothy","It feels like looking through layers of frustration.,19,80,20","It is intriguing but I don't like the red X.,6,280,20","I like that it looks like a scene from perhaps a failed painted project,10,140,20","easy, too abstract for me, don't get it.,-25,100,20","seems fun, looks like a battle zone,22,400,20","Doesnt say much for me,0,240,20","Mason","easy, too abstract for me, don't get it.,-25,100,20","Timothy","Doesnt say much for me,0,240,20","Alexis","I like that it looks like a scene from perhaps a failed painted project,10,140,20","2"
"19723","","survey-text","217","1587668","0.0-216.0-0.0","A2YR29YNFLZSUG","","","","{""Q0"":""Drab and boring""}","","","","","","","","","","","","","","","","","","","","","","",""
"4502","","image-slider-response","218","1592174","0.0-217.0","A2YR29YNFLZSUG","","","","","-25","","","","","","","","","","","","","","","","","","","","","",""
"null","","image-button-response","219","1597190","0.0-218.0","A2YR29YNFLZSUG","img_art/28.jpg","null","","","","","","","","","","","","","","","","","","","","","","","","",""
"470","","image-button-response","220","1597662","0.0-219.0","A2YR29YNFLZSUG","img_art/28.jpg","3","","","","","","","","","","","","","","","","","","","","","","","","",""
"1823","","image-button-response","221","1599486","0.0-220.0-0.0","A2YR29YNFLZSUG","img_art/28.jpg","5","","","","","","","","","","","","","","","","","","","","","","","","",""
"3878","","image-button-response","222","1603367","0.0-221.0-0.0","A2YR29YNFLZSUG","img_art/28.jpg","1","","","","","","","","","","","","","","","","","","","","","","","","",""
"null","","html-keyboard-response","223","1604370","0.0-222.0","A2YR29YNFLZSUG","<p style=""font-size: 48px;"">+</p>","","","","","null","allTrialResponses","1000","1","25","img_art/28.jpg","-25","Drab and boring","John,Brian,Alexis,Mason,Dakota,Timothy","Not a fan of the bleak and dreary colors,-10,120,20","the people kind of scare me in this one,-15,380,20","The brown and green colors used look dull and unappealing,-30,140,20","bland busy ugly,-31,100,20","musical, animated and happy with somber undertones,7,280,20","This one gives me an uneasy feeling,-10,240,20","Mason","bland busy ugly,-31,100,20","Timothy","This one gives me an uneasy feeling,-10,240,20","Brian","the people kind of scare me in this one,-15,380,20","2"
"5345","","survey-text","224","1609744","0.0-223.0-0.0","A2YR29YNFLZSUG","","","","{""Q0"":""table""}","","","","","","","","","","","","","","","","","","","","","","",""
"12989","","survey-text","225","1622737","0.0-224.0-0.0","A2YR29YNFLZSUG","","","","{""Q0"":""Close up of granite""}","","","","","","","","","","","","","","","","","","","","","","",""
"3188","","image-slider-response","226","1625929","0.0-225.0","A2YR29YNFLZSUG","","","","","3","","","","","","","","","","","","","","","","","","","","","",""
"null","","image-button-response","227","1630938","0.0-226.0","A2YR29YNFLZSUG","img_art/7.jpg","null","","","","","","","","","","","","","","","","","","","","","","","","",""
"825","","image-button-response","228","1631764","0.0-227.0","A2YR29YNFLZSUG","img_art/7.jpg","5","","","","","","","","","","","","","","","","","","","","","","","","",""
"1148","","image-button-response","229","1632915","0.0-228.0-0.0","A2YR29YNFLZSUG","img_art/7.jpg","3","","","","","","","","","","","","","","","","","","","","","","","","",""
"4294","","image-button-response","230","1637212","0.0-229.0-0.0","A2YR29YNFLZSUG","img_art/7.jpg","2","","","","","","","","","","","","","","","","","","","","","","","","",""
"null","","html-keyboard-response","231","1637720","0.0-230.0","A2YR29YNFLZSUG","<p style=""font-size: 48px;"">+</p>","","","","","null","allTrialResponses","500","1","26","img_art/7.jpg","3","Close up of granite","Trevor,Brian,Travis,Mason,James,Timothy","looks like the surface of the moon,-28,280,20","I would like this more if I could pretend it was the moon.,-26,380,20","Just neutral...looks like sand at the beach.,3,260,20","I don't get it. looks like a picture of the ground.,-42,100,20","Looks plain and dull, sorry.,-31,380,20","This feels very earthy and grounded,20,240,20","Timothy","This feels very earthy and grounded,20,240,20","Mason","I don't get it. looks like a picture of the ground.,-42,100,20","Travis","Just neutral...looks like sand at the beach.,3,260,20","2"
"22840","","survey-text","232","1660579","0.0-231.0-0.0","A2YR29YNFLZSUG","","","","{""Q0"":""Nice blues and interesting""}","","","","","","","","","","","","","","","","","","","","","","",""
"4191","","image-slider-response","233","1664772","0.0-232.0","A2YR29YNFLZSUG","","","","","22","","","","","","","","","","","","","","","","","","","","","",""
"null","","image-button-response","234","1669785","0.0-233.0","A2YR29YNFLZSUG","img_art/13.jpg","null","","","","","","","","","","","","","","","","","","","","","","","","",""
"1307","","image-button-response","235","1671093","0.0-234.0","A2YR29YNFLZSUG","img_art/13.jpg","2","","","","","","","","","","","","","","","","","","","","","","","","",""
"2532","","image-button-response","236","1673629","0.0-235.0-0.0","A2YR29YNFLZSUG","img_art/13.jpg","1","","","","","","","","","","","","","","","","","","","","","","","","",""
"1580","","image-button-response","237","1675213","0.0-236.0-0.0","A2YR29YNFLZSUG","img_art/13.jpg","0","","","","","","","","","","","","","","","","","","","","","","","","",""
"null","","html-keyboard-response","238","1676229","0.0-237.0","A2YR29YNFLZSUG","<p style=""font-size: 48px;"">+</p>","","","","","null","allTrialResponses","1000","1","27","img_art/13.jpg","22","Nice blues and interesting","Lucas,Kenneth,Travis,Mason,Paul,Timothy","Incredible, curious.,20,380,20","I would hang this photo in my room.,21,300,20","I love the colors and the texture,37,260,20","meh, 80's. retro,-9,100,20","It's like any other splatter paint art piece, nothing special,1,300,20","Doesnt really provoke an emotional responce,0,240,20","Travis","I love the colors and the texture,37,260,20","Kenneth","I would hang this photo in my room.,21,300,20","Lucas","Incredible, curious.,20,380,20","2"
"22181","","survey-text","239","1698432","0.0-238.0-0.0","A2YR29YNFLZSUG","","","","{""Q0"":""Ships at sea""}","","","","","","","","","","","","","","","","","","","","","","",""
"4189","","image-slider-response","240","1702624","0.0-239.0","A2YR29YNFLZSUG","","","","","5","","","","","","","","","","","","","","","","","","","","","",""
"null","","image-button-response","241","1707639","0.0-240.0","A2YR29YNFLZSUG","img_art/11.jpg","null","","","","","","","","","","","","","","","","","","","","","","","","",""
"2988","","image-button-response","242","1710629","0.0-241.0","A2YR29YNFLZSUG","img_art/11.jpg","3","","","","","","","","","","","","","","","","","","","","","","","","",""
"4842","","image-button-response","243","1715473","0.0-242.0-0.0","A2YR29YNFLZSUG","img_art/11.jpg","2","","","","","","","","","","","","","","","","","","","","","","","","",""
"6112","","image-button-response","244","1721587","0.0-243.0-0.0","A2YR29YNFLZSUG","img_art/11.jpg","0","","","","","","","","","","","","","","","","","","","","","","","","",""
"null","","html-keyboard-response","245","1722589","0.0-244.0","A2YR29YNFLZSUG","<p style=""font-size: 48px;"">+</p>","","","","","null","allTrialResponses","1000","1","28","img_art/11.jpg","5","Ships at sea","Lucas,Kenneth,Travis,Dylan,Patrick,Chase","Astounding, extraordinary.,25,380,20","Its a little psychedelic.,10,300,20","I liked it it looked like an roller coasters at an amusment park.,16,260,20","I normally would not like this photo, but the design is nice.,21,40,20","Looks sad but clean,31,280,20","It's too dark and dingy.,-30,120,20","Dylan","I normally would not like this photo, but the design is nice.,21,40,20","Travis","I liked it it looked like an roller coasters at an amusment park.,16,260,20","Lucas","Astounding, extraordinary.,25,380,20","2"
"17837","","survey-text","246","1740438","0.0-245.0-0.0","A2YR29YNFLZSUG","","","","{""Q0"":""Muted colors""}","","","","","","","","","","","","","","","","","","","","","","",""
"2876","","image-slider-response","247","1743317","0.0-246.0","A2YR29YNFLZSUG","","","","","8","","","","","","","","","","","","","","","","","","","","","",""
"null","","image-button-response","248","1748331","0.0-247.0","A2YR29YNFLZSUG","img_art/17.jpg","null","","","","","","","","","","","","","","","","","","","","","","","","",""
"699","","image-button-response","249","1749031","0.0-248.0","A2YR29YNFLZSUG","img_art/17.jpg","5","","","","","","","","","","","","","","","","","","","","","","","","",""
"2598","","image-button-response","250","1751632","0.0-249.0-0.0","A2YR29YNFLZSUG","img_art/17.jpg","2","","","","","","","","","","","","","","","","","","","","","","","","",""
"630","","image-button-response","251","1752265","0.0-250.0-0.0","A2YR29YNFLZSUG","img_art/17.jpg","1","","","","","","","","","","","","","","","","","","","","","","","","",""
"null","","html-keyboard-response","252","1752779","0.0-251.0","A2YR29YNFLZSUG","<p style=""font-size: 48px;"">+</p>","","","","","null","allTrialResponses","500","1","29","img_art/17.jpg","8","Muted colors","Lucas,Gabriel,Travis,Dylan,Sean,Evan","Wow, I haven't seen anything better than this.,40,380,20","this ones alright,10,160,20","Very pretty...the colors and good and flow well.,33,260,20","This is very beautiful and elegant.,42,40,20","my response to the picture is that it looks beautiful,27,40,20","This reminds me of spring,24,140,20","Evan","This reminds me of spring,24,140,20","Travis","Very pretty...the colors and good and flow well.,33,260,20","Gabriel","this ones alright,10,160,20","2"
"15823","","survey-text","253","1768618","0.0-252.0-0.0","A2YR29YNFLZSUG","","","","{""Q0"":""Doesn't do much for me""}","","","","","","","","","","","","","","","","","","","","","","",""
"2734","","image-slider-response","254","1771354","0.0-253.0","A2YR29YNFLZSUG","","","","","-14","","","","","","","","","","","","","","","","","","","","","",""
"null","","image-button-response","255","1776359","0.0-254.0","A2YR29YNFLZSUG","img_art/22.jpg","null","","","","","","","","","","","","","","","","","","","","","","","","",""
"5746","","image-button-response","256","1782108","0.0-255.0","A2YR29YNFLZSUG","img_art/22.jpg","2","","","","","","","","","","","","","","","","","","","","","","","","",""
"1085","","image-button-response","257","1783196","0.0-256.0-0.0","A2YR29YNFLZSUG","img_art/22.jpg","1","","","","","","","","","","","","","","","","","","","","","","","","",""
"3080","","image-button-response","258","1786278","0.0-257.0-0.0","A2YR29YNFLZSUG","img_art/22.jpg","0","","","","","","","","","","","","","","","","","","","","","","","","",""
"null","","html-keyboard-response","259","1787790","0.0-258.0","A2YR29YNFLZSUG","<p style=""font-size: 48px;"">+</p>","","","","","null","allTrialResponses","1500","1","30","img_art/22.jpg","-14","Doesn't do much for me","Hunter,Gabriel,Travis,Cody,Charles,Evan","strong blending skills,7,240,20","its messy, like a child painted it,-14,160,20","Don't like it...too much red,-17,260,20","Love the use of color,50,180,20","I like the key near the sphere in the center,19,100,20","I enjoy the vibrant colors,23,140,20","Travis","Don't like it...too much red,-17,260,20","Gabriel","its messy, like a child painted it,-14,160,20","Hunter","strong blending skills,7,240,20","2"
"3749","","image-button-response_instructions","260","1791550","0.0-259.0","A2YR29YNFLZSUG","","0","instructions","","","","","","","","","","","","","","","","","","","","","","","",""
