"rt","url","trial_type","trial_index","time_elapsed","internal_node_id","participant_id","stimulus","button_pressed","Name","responses","response","key_press","variableName","fixationTime","condition","trial","photo","subjectRating","subjectResponse","agentsNames","agent_1_Response","agent_2_Response","agent_3_Response","agent_4_Response","agent_5_Response","agent_6_Response","kept_1_name","kept_1_response","kept_2_name","kept_2_response","kept_3_name","kept_3_response","errorCounter"
"21287","external_page_harvard.html","external-html","0","21369","0.0-0.0","A2ZXJKX6BD1BRO","","","","","","","","","","","","","","","","","","","","","","","","","","",""
"1378","","image-button-response","1","22750","0.0-1.0","A2ZXJKX6BD1BRO","","1","","","","","","","","","","","","","","","","","","","","","","","","",""
"2188","","image-button-response","2","24942","0.0-2.0-0.0","A2ZXJKX6BD1BRO","","1","phone","","","","","","","","","","","","","","","","","","","","","","","",""
"2862","","survey-text","3","27806","0.0-3.0-0.0","A2ZXJKX6BD1BRO","","","","{""Q0"":""A2ZXJKX6BD1BRO""}","","","","","","","","","","","","","","","","","","","","","","",""
"4181","","image-button-response_instructions","4","31990","0.0-4.0","A2ZXJKX6BD1BRO","","0","instructions","","","","","","","","","","","","","","","","","","","","","","","",""
"10398","","image-button-response_instructions","5","42390","0.0-5.0","A2ZXJKX6BD1BRO","img_art/ins/popularity/ins1.png","0","instructions","","","","","","","","","","","","","","","","","","","","","","","",""
"3414","","image-button-response_instructions","6","45808","0.0-6.0","A2ZXJKX6BD1BRO","img_art/ins/popularity/ins2.png","0","instructions","","","","","","","","","","","","","","","","","","","","","","","",""
"7596","","image-button-response_instructions","7","53406","0.0-7.0","A2ZXJKX6BD1BRO","img_art/ins/popularity/ins2Extreme.png","0","instructions","","","","","","","","","","","","","","","","","","","","","","","",""
"8846","","image-button-response_instructions","8","62254","0.0-8.0","A2ZXJKX6BD1BRO","img_art/ins/popularity/ins3KEEPpop.PNG","0","instructions","","","","","","","","","","","","","","","","","","","","","","","",""
"2893","","image-button-response_instructions","9","65150","0.0-9.0","A2ZXJKX6BD1BRO","img_art/ins/popularity/ins3ANamepop.PNG","0","instructions","","","","","","","","","","","","","","","","","","","","","","","",""
"1951","","image-button-response_instructions","10","67103","0.0-10.0","A2ZXJKX6BD1BRO","img_art/ins/popularity/ins3ARatingpop.png","0","instructions","","","","","","","","","","","","","","","","","","","","","","","",""
"1996","","image-button-response_instructions","11","69102","0.0-11.0","A2ZXJKX6BD1BRO","img_art/ins/popularity/ins3ATextpop.png","0","instructions","","","","","","","","","","","","","","","","","","","","","","","",""
"3373","","image-button-response_instructions","12","72478","0.0-12.0","A2ZXJKX6BD1BRO","img_art/ins/popularity/ins3ALikespop.png","0","instructions","","","","","","","","","","","","","","","","","","","","","","","",""
"8382","","image-button-response_instructions","13","80862","0.0-13.0","A2ZXJKX6BD1BRO","img_art/ins/popularity/ins3KEEPpop.PNG","0","instructions","","","","","","","","","","","","","","","","","","","","","","","",""
"16342","","image-button-response_instructions","14","97206","0.0-14.0","A2ZXJKX6BD1BRO","img_art/ins/popularity/ins3_5RED.png","0","instructions","","","","","","","","","","","","","","","","","","","","","","","",""
"2381","","image-button-response_instructions","15","99590","0.0-15.0","A2ZXJKX6BD1BRO","img_art/ins/popularity/ins3KEEPpop.PNG","0","instructions","","","","","","","","","","","","","","","","","","","","","","","",""
"4173","","image-button-response_instructions","16","103766","0.0-16.0","A2ZXJKX6BD1BRO","img_art/ins/popularity/ins4KEEPpop.PNG","0","instructions","","","","","","","","","","","","","","","","","","","","","","","",""
"2046","","image-button-response_instructions","17","105814","0.0-17.0","A2ZXJKX6BD1BRO","img_art/ins/popularity/ins5KEEPpop.PNG","0","instructions","","","","","","","","","","","","","","","","","","","","","","","",""
"1150","","image-button-response_instructions","18","106966","0.0-18.0","A2ZXJKX6BD1BRO","","0","instructions","","","","","","","","","","","","","","","","","","","","","","","",""
"6282","","survey-text","19","113286","0.0-19.0-0.0","A2ZXJKX6BD1BRO","","","","{""Q0"":""but""}","","","","","","","","","","","","","","","","","","","","","","",""
"10525","","survey-text","20","123814","0.0-20.0-0.0","A2ZXJKX6BD1BRO","","","","{""Q0"":""very nice color combo""}","","","","","","","","","","","","","","","","","","","","","","",""
"3100","","image-slider-response","21","126919","0.0-21.0","A2ZXJKX6BD1BRO","","","","","17","","","","","","","","","","","","","","","","","","","","","",""
"null","","image-button-response","22","131925","0.0-22.0","A2ZXJKX6BD1BRO","img_art/ins/1.jpg","null","","","","","","","","","","","","","","","","","","","","","","","","",""
"2939","","image-button-response","23","134870","0.0-23.0","A2ZXJKX6BD1BRO","img_art/ins/1.jpg","5","","","","","","","","","","","","","","","","","","","","","","","","",""
"2359","","image-button-response","24","137231","0.0-24.0-0.0","A2ZXJKX6BD1BRO","img_art/ins/1.jpg","4","","","","","","","","","","","","","","","","","","","","","","","","",""
"1596","","image-button-response","25","138831","0.0-25.0-0.0","A2ZXJKX6BD1BRO","img_art/ins/1.jpg","0","","","","","","","","","","","","","","","","","","","","","","","","",""
"null","","html-keyboard-response","26","139334","0.0-26.0","A2ZXJKX6BD1BRO","<p style=""font-size: 48px;"">+</p>","","","","","null","allTrialResponses","500","1","-2","img_art/ins/1.jpg","17","very nice color combo","Allison,Ashley,Beth,Dora,Erika,Jen","looks like a lot of things going on in the mist,20,20,20","I just don't get why these type of art would be popular,-32,40,20","This color reminds me of poo,-46,60,20","looks like what my niece in 3rd grade did this afternoon,-50,80,20","I like the sophisticated brushwork,40,100,20","It reminds me of a candy land dream I had,36,120,20","Jen","It reminds me of a candy land dream I had,36,120,20","Erika","I like the sophisticated brushwork,40,100,20","Allison","looks like a lot of things going on in the mist,20,20,20","0"
"13186","","survey-text","27","152526","0.0-27.0-0.0","A2ZXJKX6BD1BRO","","","","{""Q0"":""very moody colors""}","","","","","","","","","","","","","","","","","","","","","","",""
"4782.100000143051","","image-slider-response","28","157310","0.0-28.0","A2ZXJKX6BD1BRO","","","","","-5","","","","","","","","","","","","","","","","","","","","","",""
"2253","","image-button-response","29","162314","0.0-29.0","A2ZXJKX6BD1BRO","img_art/ins/2.jpg","0","","","","","","","","","","","","","","","","","","","","","","","","",""
"2360","","image-button-response","30","164679","0.0-30.0","A2ZXJKX6BD1BRO","img_art/ins/2.jpg","5","","","","","","","","","","","","","","","","","","","","","","","","",""
"2724","","image-button-response","31","167407","0.0-31.0-0.0","A2ZXJKX6BD1BRO","img_art/ins/2.jpg","1","","","","","","","","","","","","","","","","","","","","","","","","",""
"2011","","image-button-response","32","169423","0.0-32.0-0.0","A2ZXJKX6BD1BRO","img_art/ins/2.jpg","0","","","","","","","","","","","","","","","","","","","","","","","","",""
"null","","html-keyboard-response","33","170426","0.0-33.0","A2ZXJKX6BD1BRO","<p style=""font-size: 48px;"">+</p>","","","","","null","allTrialResponses","1000","1","-1","img_art/ins/2.jpg","-5","very moody colors","Allison,Kara,Katie,Jenna,Erika,Jen","I don't have strong feelings about this,10,20,20","I like the blocks of color arrangements,30,160,20","too much color!,-28,180,20","One of my pet peevs,-48,140,20","I would never be able to compose a sophisticated pallete like this,48,100,20","It reminds me of a fireplace,36,120,20","Jen","It reminds me of a fireplace,36,120,20","Kara","I like the blocks of color arrangements,30,160,20","Allison","I don't have strong feelings about this,10,20,20","0"
"9177","","survey-text","34","179606","0.0-34.0-0.0","A2ZXJKX6BD1BRO","","","","{""Q0"":""nice shades of blue, relaxing""}","","","","","","","","","","","","","","","","","","","","","","",""
"3421.2000000476837","","image-slider-response","35","183030","0.0-35.0","A2ZXJKX6BD1BRO","","","","","6","","","","","","","","","","","","","","","","","","","","","",""
"2333","","image-button-response","36","188034","0.0-36.0","A2ZXJKX6BD1BRO","img_art/ins/3.jpg","0","","","","","","","","","","","","","","","","","","","","","","","","",""
"1370","","image-button-response","37","189406","0.0-37.0","A2ZXJKX6BD1BRO","img_art/ins/3.jpg","0","","","","","","","","","","","","","","","","","","","","","","","","",""
"533","","image-button-response","38","189942","0.0-38.0-0.0","A2ZXJKX6BD1BRO","img_art/ins/3.jpg","1","","","","","","","","","","","","","","","","","","","","","","","","",""
"3750","","image-button-response","39","193694","0.0-39.0-0.0","A2ZXJKX6BD1BRO","img_art/ins/3.jpg","5","","","","","","","","","","","","","","","","","","","","","","","","",""
"null","","html-keyboard-response","40","194697","0.0-40.0","A2ZXJKX6BD1BRO","<p style=""font-size: 48px;"">+</p>","","","","","null","allTrialResponses","1000","1","0","img_art/ins/3.jpg","6","nice shades of blue, relaxing","Allison,Kara,Rose,Leslie,Mary,Jen","enjoy the different shades of blue,22,20,20","calming blue is very nice,36,160,20","My daily routine, it's depressing,-20,240,20","It's an alright work,15,200,20","I like the overlapping of brushes,41,220,20","I can feel a rainy day from this painting,18,120,20","Allison","enjoy the different shades of blue,22,20,20","Kara","calming blue is very nice,36,160,20","Jen","I can feel a rainy day from this painting,18,120,20","0"
"3025","","image-button-response_instructions","41","197725","0.0-41.0","A2ZXJKX6BD1BRO","","0","instructions","","","","","","","","","","","","","","","","","","","","","","","",""
"11902","","survey-likert","42","209630","0.0-42.0-0.0","A2ZXJKX6BD1BRO","","","","{""Q0"":"""",""Q1"":0,""Q2"":1}","","","","","","","","","","","","","","","","","","","","","","",""
"3779","","survey-text","43","213413","0.0-43.0-0.0","A2ZXJKX6BD1BRO","","","","{""Q0"":""rock""}","","","","","","","","","","","","","","","","","","","","","","",""
"27183","","survey-text","44","240598","0.0-44.0-0.0","A2ZXJKX6BD1BRO","","","","{""Q0"":""it's ok, looks a little unfinished""}","","","","","","","","","","","","","","","","","","","","","","",""
"2765.0999999046326","","image-slider-response","45","243366","0.0-45.0","A2ZXJKX6BD1BRO","","","","","11","","","","","","","","","","","","","","","","","","","","","",""
"null","","image-button-response","46","248395","0.0-46.0","A2ZXJKX6BD1BRO","img_art/26.jpg","null","","","","","","","","","","","","","","","","","","","","","","","","",""
"9818","","image-button-response","47","258214","0.0-47.0","A2ZXJKX6BD1BRO","img_art/26.jpg","0","","","","","","","","","","","","","","","","","","","","","","","","",""
"2645","","image-button-response","48","260862","0.0-48.0-0.0","A2ZXJKX6BD1BRO","img_art/26.jpg","1","","","","","","","","","","","","","","","","","","","","","","","","",""
"1685","","image-button-response","49","262550","0.0-49.0-0.0","A2ZXJKX6BD1BRO","img_art/26.jpg","2","","","","","","","","","","","","","","","","","","","","","","","","",""
"null","","html-keyboard-response","50","263052","0.0-50.0","A2ZXJKX6BD1BRO","<p style=""font-size: 48px;"">+</p>","","","","","null","allTrialResponses","500","1","1","img_art/26.jpg","11","it's ok, looks a little unfinished","Abigail,Leah,Tiffany,Isabella,Shannon,Christina","Reminds me of walks in my dads city when I was little,22,20,20","Really like it, a very nice neighborhood scene to me,42,360,20","It is very relaxing to look at, almost a relief.,21,360,20","Colors are full and reminds me of a messy room,-9,280,20","I like that it looks like an actual picture and isn't just random colors.,25,220,20","looks like a little kids painting,-17,240,20","Abigail","Reminds me of walks in my dads city when I was little,22,20,20","Leah","Really like it, a very nice neighborhood scene to me,42,360,20","Tiffany","It is very relaxing to look at, almost a relief.,21,360,20","0"
"16381","","survey-text","51","279438","0.0-51.0-0.0","A2ZXJKX6BD1BRO","","","","{""Q0"":""makes me think of hills and telephone poles""}","","","","","","","","","","","","","","","","","","","","","","",""
"3740.2000000476837","","image-slider-response","52","283182","0.0-52.0","A2ZXJKX6BD1BRO","","","","","11","","","","","","","","","","","","","","","","","","","","","",""
"null","","image-button-response","53","288188","0.0-53.0","A2ZXJKX6BD1BRO","img_art/11.jpg","null","","","","","","","","","","","","","","","","","","","","","","","","",""
"3462","","image-button-response","54","291655","0.0-54.0","A2ZXJKX6BD1BRO","img_art/11.jpg","5","","","","","","","","","","","","","","","","","","","","","","","","",""
"970","","image-button-response","55","292630","0.0-55.0-0.0","A2ZXJKX6BD1BRO","img_art/11.jpg","0","","","","","","","","","","","","","","","","","","","","","","","","",""
"1747","","image-button-response","56","294383","0.0-56.0-0.0","A2ZXJKX6BD1BRO","img_art/11.jpg","2","","","","","","","","","","","","","","","","","","","","","","","","",""
"null","","html-keyboard-response","57","295385","0.0-57.0","A2ZXJKX6BD1BRO","<p style=""font-size: 48px;"">+</p>","","","","","null","allTrialResponses","1000","1","2","img_art/11.jpg","11","makes me think of hills and telephone poles","Abigail,Leah,Tiffany,Katherine,Cynthia,Sabrina","Rainy highways in RI,20,20,20","Even with the colors, it is dreary to me,-32,360,20","I feel excited, like I'm in the middle of a bustling city.,26,360,20","Makes me feel like my vision is breaking,19,120,20","Sad but hopeful,43,320,20","I love the city chaos from this,50,120,20","Sabrina","I love the city chaos from this,50,120,20","Abigail","Rainy highways in RI,20,20,20","Tiffany","I feel excited, like I'm in the middle of a bustling city.,26,360,20","0"
"20335","","survey-text","58","315726","0.0-58.0-0.0","A2ZXJKX6BD1BRO","","","","{""Q0"":""very abstract but perhaps a desert scene?""}","","","","","","","","","","","","","","","","","","","","","","",""
"2661.7000000476837","","image-slider-response","59","318390","0.0-59.0","A2ZXJKX6BD1BRO","","","","","8","","","","","","","","","","","","","","","","","","","","","",""
"null","","image-button-response","60","323394","0.0-60.0","A2ZXJKX6BD1BRO","img_art/20.jpg","null","","","","","","","","","","","","","","","","","","","","","","","","",""
"2746","","image-button-response","61","326143","0.0-61.0","A2ZXJKX6BD1BRO","img_art/20.jpg","3","","","","","","","","","","","","","","","","","","","","","","","","",""
"3003","","image-button-response","62","329150","0.0-62.0-0.0","A2ZXJKX6BD1BRO","img_art/20.jpg","4","","","","","","","","","","","","","","","","","","","","","","","","",""
"1685","","image-button-response","63","330838","0.0-63.0-0.0","A2ZXJKX6BD1BRO","img_art/20.jpg","0","","","","","","","","","","","","","","","","","","","","","","","","",""
"null","","html-keyboard-response","64","332340","0.0-64.0","A2ZXJKX6BD1BRO","<p style=""font-size: 48px;"">+</p>","","","","","null","allTrialResponses","1500","1","3","img_art/20.jpg","8","very abstract but perhaps a desert scene?","Abigail,Samantha,Tiffany,Jennifer,Mackenzie,Sabrina","A mountain vacation,46,20,20","Use of white on foreground is too big and steals eyes away from rest of painting,2,140,20","I feel powerful, like I am looking out a window at this machine, that I am in charge.,17,360,20","Neutral, this piece doesn't strike me as particularly bad or good,0,380,20","Shapes are fun to interpret,21,20,20","I love the way it expresses dark nature and uncontrolled situations.,44,120,20","Jennifer","Neutral, this piece doesn't strike me as particularly bad or good,0,380,20","Mackenzie","Shapes are fun to interpret,21,20,20","Abigail","A mountain vacation,46,20,20","0"
"10508","","survey-text","65","342854","0.0-65.0-0.0","A2ZXJKX6BD1BRO","","","","{""Q0"":""I like this color palette a lot""}","","","","","","","","","","","","","","","","","","","","","","",""
"3076.7999999523163","","image-slider-response","66","345934","0.0-66.0","A2ZXJKX6BD1BRO","","","","","22","","","","","","","","","","","","","","","","","","","","","",""
"null","","image-button-response","67","350937","0.0-67.0","A2ZXJKX6BD1BRO","img_art/9.jpg","null","","","","","","","","","","","","","","","","","","","","","","","","",""
"2707","","image-button-response","68","353647","0.0-68.0","A2ZXJKX6BD1BRO","img_art/9.jpg","5","","","","","","","","","","","","","","","","","","","","","","","","",""
"3467","","image-button-response","69","357119","0.0-69.0-0.0","A2ZXJKX6BD1BRO","img_art/9.jpg","4","","","","","","","","","","","","","","","","","","","","","","","","",""
"3316","","image-button-response","70","360438","0.0-70.0-0.0","A2ZXJKX6BD1BRO","img_art/9.jpg","1","","","","","","","","","","","","","","","","","","","","","","","","",""
"null","","html-keyboard-response","71","361940","0.0-71.0","A2ZXJKX6BD1BRO","<p style=""font-size: 48px;"">+</p>","","","","","null","allTrialResponses","1500","1","4","img_art/9.jpg","22","I like this color palette a lot","Abigail,Vanessa,Cheyenne,Jennifer,Mackenzie,Gabrielle","Reminds me of a cave in a scary movie,-21,20,20","It's too abstract for my taste. I wish there were more definition.,-9,380,20","Too much going on, don't know what the focus is,-11,200,20","This piece is very boring to look at.,-27,380,20","I enjoy the design, but the colors look waxy,-7,20,20","looks like an imitation of a real piece of art, reclining lady,-1,160,20","Gabrielle","looks like an imitation of a real piece of art, reclining lady,-1,160,20","Mackenzie","I enjoy the design, but the colors look waxy,-7,20,20","Vanessa","It's too abstract for my taste. I wish there were more definition.,-9,380,20","0"
"10429","","survey-text","72","372374","0.0-72.0-0.0","A2ZXJKX6BD1BRO","","","","{""Q0"":""Not really for me, content or color wise""}","","","","","","","","","","","","","","","","","","","","","","",""
"4653.299999952316","","image-slider-response","73","377030","0.0-73.0","A2ZXJKX6BD1BRO","","","","","-27","","","","","","","","","","","","","","","","","","","","","",""
"2004","","image-button-response","74","382034","0.0-74.0","A2ZXJKX6BD1BRO","img_art/2.jpg","0","","","","","","","","","","","","","","","","","","","","","","","","",""
"2408","","image-button-response","75","384446","0.0-75.0","A2ZXJKX6BD1BRO","img_art/2.jpg","1","","","","","","","","","","","","","","","","","","","","","","","","",""
"2957","","image-button-response","76","387406","0.0-76.0-0.0","A2ZXJKX6BD1BRO","img_art/2.jpg","0","","","","","","","","","","","","","","","","","","","","","","","","",""
"5318","","image-button-response","77","392726","0.0-77.0-0.0","A2ZXJKX6BD1BRO","img_art/2.jpg","2","","","","","","","","","","","","","","","","","","","","","","","","",""
"null","","html-keyboard-response","78","393730","0.0-78.0","A2ZXJKX6BD1BRO","<p style=""font-size: 48px;"">+</p>","","","","","null","allTrialResponses","1000","1","5","img_art/2.jpg","-27","Not really for me, content or color wise","Marissa,Vanessa,Brittany,Breanna,Mackenzie,Gabrielle","I feel bothered by the dark and dingy choice of colors,-22,160,20","I don't like the abstract nature of this painting or the colors used.,-50,380,20","This one feels rather flat and not engaging.,-15,40,20","It's just a splash of paint on a canvas,-31,380,20","Muted green is overpowering,-10,20,20","doctor's office art work, nice colors and not offensive,23,160,20","Vanessa","I don't like the abstract nature of this painting or the colors used.,-50,380,20","Marissa","I feel bothered by the dark and dingy choice of colors,-22,160,20","Brittany","This one feels rather flat and not engaging.,-15,40,20","0"
"4050","","survey-text","79","397790","0.0-79.0-0.0","A2ZXJKX6BD1BRO","","","","{""Q0"":""sky""}","","","","","","","","","","","","","","","","","","","","","","",""
"11469","","survey-text","80","409262","0.0-80.0-0.0","A2ZXJKX6BD1BRO","","","","{""Q0"":""doesn't do much for me""}","","","","","","","","","","","","","","","","","","","","","","",""
"3118","","image-slider-response","81","412382","0.0-81.0","A2ZXJKX6BD1BRO","","","","","-35","","","","","","","","","","","","","","","","","","","","","",""
"3812","","image-button-response","82","417389","0.0-82.0","A2ZXJKX6BD1BRO","img_art/5.jpg","0","","","","","","","","","","","","","","","","","","","","","","","","",""
"2268","","image-button-response","83","419663","0.0-83.0","A2ZXJKX6BD1BRO","img_art/5.jpg","3","","","","","","","","","","","","","","","","","","","","","","","","",""
"4213","","image-button-response","84","423879","0.0-84.0-0.0","A2ZXJKX6BD1BRO","img_art/5.jpg","1","","","","","","","","","","","","","","","","","","","","","","","","",""
"1204","","image-button-response","85","425086","0.0-85.0-0.0","A2ZXJKX6BD1BRO","img_art/5.jpg","0","","","","","","","","","","","","","","","","","","","","","","","","",""
"null","","html-keyboard-response","86","426588","0.0-86.0","A2ZXJKX6BD1BRO","<p style=""font-size: 48px;"">+</p>","","","","","null","allTrialResponses","1500","1","6","img_art/5.jpg","-35","doesn't do much for me","Marissa,Vanessa,Brittany,Michelle,Kristen,Olivia","I am confused as to what I am seeing is it a handbag, duck foot, bell?,-18,160,20","The yellow is garish and the picture doesn't look liked anything.,-49,380,20","Although it's very simple, there's something about the colors that really draws the eye.,11,40,20","What is this? It looks like no effort was put into this work,-2,280,20","sharp, painful yet playful,-5,280,20","a brush in time,-14,40,20","Michelle","What is this? It looks like no effort was put into this work,-2,280,20","Vanessa","The yellow is garish and the picture doesn't look liked anything.,-49,380,20","Marissa","I am confused as to what I am seeing is it a handbag, duck foot, bell?,-18,160,20","0"
"21277","","survey-text","87","447870","0.0-87.0-0.0","A2ZXJKX6BD1BRO","","","","{""Q0"":""reminds me of a pattern you'd find on a sofa""}","","","","","","","","","","","","","","","","","","","","","","",""
"3798","","image-slider-response","88","451670","0.0-88.0","A2ZXJKX6BD1BRO","","","","","-17","","","","","","","","","","","","","","","","","","","","","",""
"null","","image-button-response","89","456674","0.0-89.0","A2ZXJKX6BD1BRO","img_art/12.jpg","null","","","","","","","","","","","","","","","","","","","","","","","","",""
"6986","","image-button-response","90","463662","0.0-90.0","A2ZXJKX6BD1BRO","img_art/12.jpg","0","","","","","","","","","","","","","","","","","","","","","","","","",""
"6180","","image-button-response","91","469846","0.0-91.0-0.0","A2ZXJKX6BD1BRO","img_art/12.jpg","2","","","","","","","","","","","","","","","","","","","","","","","","",""
"708","","image-button-response","92","470558","0.0-92.0-0.0","A2ZXJKX6BD1BRO","img_art/12.jpg","1","","","","","","","","","","","","","","","","","","","","","","","","",""
"null","","html-keyboard-response","93","472061","0.0-93.0","A2ZXJKX6BD1BRO","<p style=""font-size: 48px;"">+</p>","","","","","null","allTrialResponses","1500","1","7","img_art/12.jpg","-17","reminds me of a pattern you'd find on a sofa","Marissa,Vanessa,Claire,Michelle,Kaylee,Sierra","It reminds me of the documentary Paris is Burning, though I'm not sure why,11,160,20","This is too abstract and the colors are too worn out.,-23,380,20","i like the repetition,30,260,20","eww hate everything about this, looks like it belongs in a dentist's office,-14,280,20","wtf is that i dont get it,-50,200,20","i dont see the point.,-19,260,20","Marissa","It reminds me of the documentary Paris is Burning, though I'm not sure why,11,160,20","Claire","i like the repetition,30,260,20","Vanessa","This is too abstract and the colors are too worn out.,-23,380,20","0"
"16894","","survey-text","94","488966","0.0-94.0-0.0","A2ZXJKX6BD1BRO","","","","{""Q0"":""i like this, feels like the longer you look the more you'll see""}","","","","","","","","","","","","","","","","","","","","","","",""
"2812.7999999523163","","image-slider-response","95","491782","0.0-95.0","A2ZXJKX6BD1BRO","","","","","41","","","","","","","","","","","","","","","","","","","","","",""
"null","","image-button-response","96","496785","0.0-96.0","A2ZXJKX6BD1BRO","img_art/8.jpg","null","","","","","","","","","","","","","","","","","","","","","","","","",""
"3563","","image-button-response","97","500351","0.0-97.0","A2ZXJKX6BD1BRO","img_art/8.jpg","3","","","","","","","","","","","","","","","","","","","","","","","","",""
"836","","image-button-response","98","501191","0.0-98.0-0.0","A2ZXJKX6BD1BRO","img_art/8.jpg","4","","","","","","","","","","","","","","","","","","","","","","","","",""
"4189","","image-button-response","99","505383","0.0-99.0-0.0","A2ZXJKX6BD1BRO","img_art/8.jpg","1","","","","","","","","","","","","","","","","","","","","","","","","",""
"null","","html-keyboard-response","100","505886","0.0-100.0","A2ZXJKX6BD1BRO","<p style=""font-size: 48px;"">+</p>","","","","","null","allTrialResponses","500","1","8","img_art/8.jpg","41","i like this, feels like the longer you look the more you'll see","Marissa,Vanessa,Claire,Crystal,Molly,Hailey","I can't tell if this is supposed to portray just city life or a town crumbling,-5,160,20","I don't like the negative emotion this picture makes me feel. It's also too abstract.,-30,380,20","looks like an aerial view, very pretty,32,260,20","i like the abstract nature of a birds eye view of the city. The hard shapes and squares present with a softness rather than rigidity.,26,300,20","Different styles make this picture outstanding.,20,340,20","cold city controlled by evil gods,-17,200,20","Crystal","i like the abstract nature of a birds eye view of the city. The hard shapes and squares present with a softness rather than rigidity.,26,300,20","Molly","Different styles make this picture outstanding.,20,340,20","Vanessa","I don't like the negative emotion this picture makes me feel. It's also too abstract.,-30,380,20","0"
"15237","","survey-text","101","521134","0.0-101.0-0.0","A2ZXJKX6BD1BRO","","","","{""Q0"":""Just looks like a closeup of some kind of rock""}","","","","","","","","","","","","","","","","","","","","","","",""
"2589","","image-slider-response","102","523726","0.0-102.0","A2ZXJKX6BD1BRO","","","","","-22","","","","","","","","","","","","","","","","","","","","","",""
"3020","","image-button-response","103","528730","0.0-103.0","A2ZXJKX6BD1BRO","img_art/7.jpg","1","","","","","","","","","","","","","","","","","","","","","","","","",""
"696","","image-button-response","104","529430","0.0-104.0","A2ZXJKX6BD1BRO","img_art/7.jpg","1","","","","","","","","","","","","","","","","","","","","","","","","",""
"2701","","image-button-response","105","532135","0.0-105.0-0.0","A2ZXJKX6BD1BRO","img_art/7.jpg","3","","","","","","","","","","","","","","","","","","","","","","","","",""
"1764","","image-button-response","106","533902","0.0-106.0-0.0","A2ZXJKX6BD1BRO","img_art/7.jpg","5","","","","","","","","","","","","","","","","","","","","","","","","",""
"null","","html-keyboard-response","107","534405","0.0-107.0","A2ZXJKX6BD1BRO","<p style=""font-size: 48px;"">+</p>","","","","","null","allTrialResponses","500","1","9","img_art/7.jpg","-22","Just looks like a closeup of some kind of rock","Shelby,Vanessa,Amanda,Crystal,Molly,Cassandra","This feels very earthy and grounded,20,240,20","This is borning and lifeless.,-50,380,20","I hate everything about this painting from the cors to it looking like a war,-50,180,20","I thought I was looking at a satellite image of mars.,21,300,20","Don't understand the meaning of this picture.,-30,340,20","Just neutral...looks like sand at the beach.,3,120,20","Vanessa","This is borning and lifeless.,-50,380,20","Crystal","I thought I was looking at a satellite image of mars.,21,300,20","Cassandra","Just neutral...looks like sand at the beach.,3,120,20","0"
"5505","","survey-text","108","539918","0.0-108.0-0.0","A2ZXJKX6BD1BRO","","","","{""Q0"":""Nice blues""}","","","","","","","","","","","","","","","","","","","","","","",""
"2909.9000000953674","","image-slider-response","109","542830","0.0-109.0","A2ZXJKX6BD1BRO","","","","","3","","","","","","","","","","","","","","","","","","","","","",""
"null","","image-button-response","110","547834","0.0-110.0","A2ZXJKX6BD1BRO","img_art/13.jpg","null","","","","","","","","","","","","","","","","","","","","","","","","",""
"905","","image-button-response","111","548742","0.0-111.0","A2ZXJKX6BD1BRO","img_art/13.jpg","0","","","","","","","","","","","","","","","","","","","","","","","","",""
"533","","image-button-response","112","549278","0.0-112.0-0.0","A2ZXJKX6BD1BRO","img_art/13.jpg","1","","","","","","","","","","","","","","","","","","","","","","","","",""
"5526","","image-button-response","113","554806","0.0-113.0-0.0","A2ZXJKX6BD1BRO","img_art/13.jpg","4","","","","","","","","","","","","","","","","","","","","","","","","",""
"null","","html-keyboard-response","114","555809","0.0-114.0","A2ZXJKX6BD1BRO","<p style=""font-size: 48px;"">+</p>","","","","","null","allTrialResponses","1000","1","10","img_art/13.jpg","3","Nice blues","Rachel,Vanessa,Megan,Crystal,Sophia,Cassandra","Peaceful colors.,20,80,20","I love the colors and the contrast between the different blues.,21,380,20","Average overly symmetrical safe,-26,200,20","Reminiscent of Jackson Pollock and gives me a feeling of chaotic satisfaction,50,300,20","I like the colors used in this piece.,2,280,20","I love the colors and the texture,37,120,20","Rachel","Peaceful colors.,20,80,20","Vanessa","I love the colors and the contrast between the different blues.,21,380,20","Sophia","I like the colors used in this piece.,2,280,20","0"
"3348","","survey-text","115","559165","0.0-115.0-0.0","A2ZXJKX6BD1BRO","","","","{""Q0"":""our""}","","","","","","","","","","","","","","","","","","","","","","",""
"21768","","survey-text","116","580934","0.0-116.0-0.0","A2ZXJKX6BD1BRO","","","","{""Q0"":""good color combo but I can't tell what it's supposed to be or make me feel""}","","","","","","","","","","","","","","","","","","","","","","",""
"3525.0999999046326","","image-slider-response","117","584462","0.0-117.0","A2ZXJKX6BD1BRO","","","","","-4","","","","","","","","","","","","","","","","","","","","","",""
"null","","image-button-response","118","589466","0.0-118.0","A2ZXJKX6BD1BRO","img_art/15.jpg","null","","","","","","","","","","","","","","","","","","","","","","","","",""
"553","","image-button-response","119","590022","0.0-119.0","A2ZXJKX6BD1BRO","img_art/15.jpg","1","","","","","","","","","","","","","","","","","","","","","","","","",""
"3086","","image-button-response","120","593111","0.0-120.0-0.0","A2ZXJKX6BD1BRO","img_art/15.jpg","3","","","","","","","","","","","","","","","","","","","","","","","","",""
"2140","","image-button-response","121","595254","0.0-121.0-0.0","A2ZXJKX6BD1BRO","img_art/15.jpg","0","","","","","","","","","","","","","","","","","","","","","","","","",""
"null","","html-keyboard-response","122","596256","0.0-122.0","A2ZXJKX6BD1BRO","<p style=""font-size: 48px;"">+</p>","","","","","null","allTrialResponses","1000","1","11","img_art/15.jpg","-4","good color combo but I can't tell what it's supposed to be or make me feel","Rachel,Vanessa,Maria,Mikayla,Sophia,Melissa","Reminds me of blue birds in a tree at night. I love nature.,40,80,20","I don't even know what's going on here. Again, this is too abstract.,-21,380,20","i enjoy its apaprent simplicity (of colour and shape),32,120,20","The dots are cool with the blue accents.,24,300,20","I feel like there's ski jumping going on here.,2,280,20","reminds me of birds in trees,14,240,20","Vanessa","I don't even know what's going on here. Again, this is too abstract.,-21,380,20","Mikayla","The dots are cool with the blue accents.,24,300,20","Rachel","Reminds me of blue birds in a tree at night. I love nature.,40,80,20","0"
"22993","","survey-text","123","619261","0.0-123.0-0.0","A2ZXJKX6BD1BRO","","","","{""Q0"":""something about it evokes a feeling of violence""}","","","","","","","","","","","","","","","","","","","","","","",""
"2910.2000000476837","","image-slider-response","124","622173","0.0-124.0","A2ZXJKX6BD1BRO","","","","","2","","","","","","","","","","","","","","","","","","","","","",""
"null","","image-button-response","125","627178","0.0-125.0","A2ZXJKX6BD1BRO","img_art/3.jpg","null","","","","","","","","","","","","","","","","","","","","","","","","",""
"2554","","image-button-response","126","629735","0.0-126.0","A2ZXJKX6BD1BRO","img_art/3.jpg","5","","","","","","","","","","","","","","","","","","","","","","","","",""
"7739","","image-button-response","127","637478","0.0-127.0-0.0","A2ZXJKX6BD1BRO","img_art/3.jpg","3","","","","","","","","","","","","","","","","","","","","","","","","",""
"1644","","image-button-response","128","639126","0.0-128.0-0.0","A2ZXJKX6BD1BRO","img_art/3.jpg","4","","","","","","","","","","","","","","","","","","","","","","","","",""
"null","","html-keyboard-response","129","639629","0.0-129.0","A2ZXJKX6BD1BRO","<p style=""font-size: 48px;"">+</p>","","","","","null","allTrialResponses","500","1","12","img_art/3.jpg","2","something about it evokes a feeling of violence","Rachel,Vanessa,Alicia,Mikayla,Angelica,Nicole","Too red and chaotic. Not calming.,-41,80,20","It makes me think of just an angry scribble. There's no beauty to it for me.,-50,380,20","scribbles in red. 2 minute piece.,-30,120,20","Scary. Looks like blood.,-45,300,20","This is angry and childish looking.,-49,280,20","Something I'd paint when I'm mad. I feel that,20,20,20","Nicole","Something I'd paint when I'm mad. I feel that,20,20,20","Mikayla","Scary. Looks like blood.,-45,300,20","Angelica","This is angry and childish looking.,-49,280,20","0"
"12444","","survey-text","130","652086","0.0-130.0-0.0","A2ZXJKX6BD1BRO","","","","{""Q0"":""honestly just boring""}","","","","","","","","","","","","","","","","","","","","","","",""
"6806.600000143051","","image-slider-response","131","658895","0.0-131.0","A2ZXJKX6BD1BRO","","","","","-1","","","","","","","","","","","","","","","","","","","","","",""
"4515","","image-button-response","132","663899","0.0-132.0","A2ZXJKX6BD1BRO","img_art/27.jpg","1","","","","","","","","","","","","","","","","","","","","","","","","",""
"1198","","image-button-response","133","665102","0.0-133.0","A2ZXJKX6BD1BRO","img_art/27.jpg","1","","","","","","","","","","","","","","","","","","","","","","","","",""
"3381","","image-button-response","134","668486","0.0-134.0-0.0","A2ZXJKX6BD1BRO","img_art/27.jpg","3","","","","","","","","","","","","","","","","","","","","","","","","",""
"2060","","image-button-response","135","670550","0.0-135.0-0.0","A2ZXJKX6BD1BRO","img_art/27.jpg","0","","","","","","","","","","","","","","","","","","","","","","","","",""
"null","","html-keyboard-response","136","672052","0.0-136.0","A2ZXJKX6BD1BRO","<p style=""font-size: 48px;"">+</p>","","","","","null","allTrialResponses","1500","1","13","img_art/27.jpg","-1","honestly just boring","Heather,Alexa,Allison,Mikayla,Angelica,Nicole","looks like a garden in between two storms.,33,260,20","I love the mood of this painting,30,40,20","Warn colors are pretty, but too blotchy for me.,3,140,20","It kinda reminds me of sushi.,16,300,20","This looks like a poor copy of Cy Twombly's style.,-3,280,20","Very cool colors and I like the contrast of lights and darks,30,20,20","Alexa","I love the mood of this painting,30,40,20","Mikayla","It kinda reminds me of sushi.,16,300,20","Heather","looks like a garden in between two storms.,33,260,20","0"
"21964","","survey-text","137","694022","0.0-137.0-0.0","A2ZXJKX6BD1BRO","","","","{""Q0"":""It's ok, this just isn't a style I care for""}","","","","","","","","","","","","","","","","","","","","","","",""
"1717.9000000953674","","image-slider-response","138","695742","0.0-138.0","A2ZXJKX6BD1BRO","","","","","-12","","","","","","","","","","","","","","","","","","","","","",""
"null","","image-button-response","139","700746","0.0-139.0","A2ZXJKX6BD1BRO","img_art/19.jpg","null","","","","","","","","","","","","","","","","","","","","","","","","",""
"2583","","image-button-response","140","703334","0.0-140.0","A2ZXJKX6BD1BRO","img_art/19.jpg","4","","","","","","","","","","","","","","","","","","","","","","","","",""
"1869","","image-button-response","141","705207","0.0-141.0-0.0","A2ZXJKX6BD1BRO","img_art/19.jpg","2","","","","","","","","","","","","","","","","","","","","","","","","",""
"4411","","image-button-response","142","709622","0.0-142.0-0.0","A2ZXJKX6BD1BRO","img_art/19.jpg","3","","","","","","","","","","","","","","","","","","","","","","","","",""
"null","","html-keyboard-response","143","710626","0.0-143.0","A2ZXJKX6BD1BRO","<p style=""font-size: 48px;"">+</p>","","","","","null","allTrialResponses","1000","1","14","img_art/19.jpg","-12","It's ok, this just isn't a style I care for","Heather,Alexa,Savannah,Mikayla,Angela,Stephanie","love the images I can pick out of this art,1,260,20","It has a chaotic energy about it that draws me in,40,40,20","Watercolor abstract? Strange.,1,200,20","Very pretty and colorful.,23,300,20","I like the colors but the scene itself feels too jumbled and cluttered,9,260,20","A dreary town in the fall.,-4,300,20","Angela","I like the colors but the scene itself feels too jumbled and cluttered,9,260,20","Savannah","Watercolor abstract? Strange.,1,200,20","Mikayla","Very pretty and colorful.,23,300,20","0"
"11077","","survey-text","144","721710","0.0-144.0-0.0","A2ZXJKX6BD1BRO","","","","{""Q0"":""Looks like a paint spill""}","","","","","","","","","","","","","","","","","","","","","","",""
"1772.4000000953674","","image-slider-response","145","723485","0.0-145.0","A2ZXJKX6BD1BRO","","","","","-16","","","","","","","","","","","","","","","","","","","","","",""
"null","","image-button-response","146","728487","0.0-146.0","A2ZXJKX6BD1BRO","img_art/29.jpg","null","","","","","","","","","","","","","","","","","","","","","","","","",""
"1684","","image-button-response","147","730173","0.0-147.0","A2ZXJKX6BD1BRO","img_art/29.jpg","2","","","","","","","","","","","","","","","","","","","","","","","","",""
"3845","","image-button-response","148","734022","0.0-148.0-0.0","A2ZXJKX6BD1BRO","img_art/29.jpg","4","","","","","","","","","","","","","","","","","","","","","","","","",""
"764","","image-button-response","149","734790","0.0-149.0-0.0","A2ZXJKX6BD1BRO","img_art/29.jpg","5","","","","","","","","","","","","","","","","","","","","","","","","",""
"null","","html-keyboard-response","150","735793","0.0-150.0","A2ZXJKX6BD1BRO","<p style=""font-size: 48px;"">+</p>","","","","","null","allTrialResponses","1000","1","15","img_art/29.jpg","-16","Looks like a paint spill","Kylie,Anna,Savannah,Mikayla,Angela,Kathryn","Reminds me of graffitti gone wrong,15,300,20","I like the texture and colors and how it makes me feel. I like how it's different from other abstract art.,45,300,20","Looks wrong. Like a real painting was vandalized.,-50,200,20","Its kinda scary,-35,300,20","I would like this piece better without the red X across it,-10,260,20","This piece feels gross. Makes me think of pollution/litter strewn across a dirty street.,-20,140,20","Savannah","Looks wrong. Like a real painting was vandalized.,-50,200,20","Angela","I would like this piece better without the red X across it,-10,260,20","Kathryn","This piece feels gross. Makes me think of pollution/litter strewn across a dirty street.,-20,140,20","0"
"3492","","survey-text","151","739293","0.0-151.0-0.0","A2ZXJKX6BD1BRO","","","","{""Q0"":""course""}","","","","","","","","","","","","","","","","","","","","","","",""
"30927","","survey-text","152","770220","0.0-152.0-0.0","A2ZXJKX6BD1BRO","","","","{""Q0"":""nice color combo, but the content is not great""}","","","","","","","","","","","","","","","","","","","","","","",""
"3110.7000000476837","","image-slider-response","153","773333","0.0-153.0","A2ZXJKX6BD1BRO","","","","","-23","","","","","","","","","","","","","","","","","","","","","",""
"1989","","image-button-response","154","778337","0.0-154.0","A2ZXJKX6BD1BRO","img_art/4.jpg","0","","","","","","","","","","","","","","","","","","","","","","","","",""
"1602","","image-button-response","155","779941","0.0-155.0","A2ZXJKX6BD1BRO","img_art/4.jpg","0","","","","","","","","","","","","","","","","","","","","","","","","",""
"1397","","image-button-response","156","781341","0.0-156.0-0.0","A2ZXJKX6BD1BRO","img_art/4.jpg","1","","","","","","","","","","","","","","","","","","","","","","","","",""
"4773","","image-button-response","157","786117","0.0-157.0-0.0","A2ZXJKX6BD1BRO","img_art/4.jpg","4","","","","","","","","","","","","","","","","","","","","","","","","",""
"null","","html-keyboard-response","158","786620","0.0-158.0","A2ZXJKX6BD1BRO","<p style=""font-size: 48px;"">+</p>","","","","","null","allTrialResponses","500","1","16","img_art/4.jpg","-23","nice color combo, but the content is not great","Alexis,Jordan,Savannah,Catherine,Angela,Kathryn","Really don't like this. Kindergarten art, sorry.,-50,100,20","The colors remind me of mcdonalds,-33,20,20","Colors are horrendous, look like bodily fluids have been smeared.,-50,200,20","Hearts, family connected. They are standing on a narrow base and could fall to pieces at anytime.,40,160,20","Really like the colors, but don't like the object/squiggle in darker gold and black,4,260,20","I feel kind of guilty looking at this, like I'm receiving a reward I don't I deserve.,-10,140,20","Alexis","Really don't like this. Kindergarten art, sorry.,-50,100,20","Jordan","The colors remind me of mcdonalds,-33,20,20","Angela","Really like the colors, but don't like the object/squiggle in darker gold and black,4,260,20","0"
"15724","","survey-text","159","802348","0.0-159.0-0.0","A2ZXJKX6BD1BRO","","","","{""Q0"":""This is nice, makes me think of sitting on a patio in a garden""}","","","","","","","","","","","","","","","","","","","","","","",""
"3573.399999856949","","image-slider-response","160","805925","0.0-160.0","A2ZXJKX6BD1BRO","","","","","30","","","","","","","","","","","","","","","","","","","","","",""
"1277","","image-button-response","161","810930","0.0-161.0","A2ZXJKX6BD1BRO","img_art/17.jpg","0","","","","","","","","","","","","","","","","","","","","","","","","",""
"1406","","image-button-response","162","812341","0.0-162.0","A2ZXJKX6BD1BRO","img_art/17.jpg","5","","","","","","","","","","","","","","","","","","","","","","","","",""
"1005","","image-button-response","163","813350","0.0-163.0-0.0","A2ZXJKX6BD1BRO","img_art/17.jpg","0","","","","","","","","","","","","","","","","","","","","","","","","",""
"684","","image-button-response","164","814037","0.0-164.0-0.0","A2ZXJKX6BD1BRO","img_art/17.jpg","1","","","","","","","","","","","","","","","","","","","","","","","","",""
"null","","html-keyboard-response","165","814540","0.0-165.0","A2ZXJKX6BD1BRO","<p style=""font-size: 48px;"">+</p>","","","","","null","allTrialResponses","500","1","17","img_art/17.jpg","30","This is nice, makes me think of sitting on a patio in a garden","Alexis,Jordan,Briana,Danielle,Angela,Alexandra","Love the color and nature motif,36,100,20","absolutely gorgeous, I feel solitude again, but the beauty is there also,50,20,20","It looks unfinished,-7,400,20","It's alright, nothing I particularly like but it's just fine,-10,340,20","I like this, but it's a bit bland.,10,260,20","This is very beautiful and elegant.,42,60,20","Alexandra","This is very beautiful and elegant.,42,60,20","Alexis","Love the color and nature motif,36,100,20","Jordan","absolutely gorgeous, I feel solitude again, but the beauty is there also,50,20,20","0"
"13970","","survey-text","166","828524","0.0-166.0-0.0","A2ZXJKX6BD1BRO","","","","{""Q0"":""Too formless for me""}","","","","","","","","","","","","","","","","","","","","","","",""
"2693.7999999523163","","image-slider-response","167","831220","0.0-167.0","A2ZXJKX6BD1BRO","","","","","-21","","","","","","","","","","","","","","","","","","","","","",""
"null","","image-button-response","168","836225","0.0-168.0","A2ZXJKX6BD1BRO","img_art/21.jpg","null","","","","","","","","","","","","","","","","","","","","","","","","",""
"1992","","image-button-response","169","838221","0.0-169.0","A2ZXJKX6BD1BRO","img_art/21.jpg","4","","","","","","","","","","","","","","","","","","","","","","","","",""
"2877","","image-button-response","170","841101","0.0-170.0-0.0","A2ZXJKX6BD1BRO","img_art/21.jpg","0","","","","","","","","","","","","","","","","","","","","","","","","",""
"853","","image-button-response","171","841956","0.0-171.0-0.0","A2ZXJKX6BD1BRO","img_art/21.jpg","1","","","","","","","","","","","","","","","","","","","","","","","","",""
"null","","html-keyboard-response","172","842458","0.0-172.0","A2ZXJKX6BD1BRO","<p style=""font-size: 48px;"">+</p>","","","","","null","allTrialResponses","500","1","18","img_art/21.jpg","-21","Too formless for me","Alexis,Jordan,Taylor,Kelsey,Brooke,Alexandra","I love this. Reminds me of a coast. The colors flow beautifully,40,100,20","Okay, I love the color schemes, I can't quite figure it out though,14,20,20","I love the contrasting tones between the two sides,36,340,20","i like watercolor,22,240,20","Like the colors. Don't like the white dots on the right side of the painting though.,15,60,20","This one is nice, it reminds me of the sky,42,60,20","Brooke","Like the colors. Don't like the white dots on the right side of the painting though.,15,60,20","Alexis","I love this. Reminds me of a coast. The colors flow beautifully,40,100,20","Jordan","Okay, I love the color schemes, I can't quite figure it out though,14,20,20","0"
"11484","","survey-text","173","853948","0.0-173.0-0.0","A2ZXJKX6BD1BRO","","","","{""Q0"":""I don't get it""}","","","","","","","","","","","","","","","","","","","","","","",""
"1813.2000000476837","","image-slider-response","174","855764","0.0-174.0","A2ZXJKX6BD1BRO","","","","","-20","","","","","","","","","","","","","","","","","","","","","",""
"null","","image-button-response","175","860769","0.0-175.0","A2ZXJKX6BD1BRO","img_art/14.jpg","null","","","","","","","","","","","","","","","","","","","","","","","","",""
"4912","","image-button-response","176","865685","0.0-176.0","A2ZXJKX6BD1BRO","img_art/14.jpg","3","","","","","","","","","","","","","","","","","","","","","","","","",""
"1349","","image-button-response","177","867037","0.0-177.0-0.0","A2ZXJKX6BD1BRO","img_art/14.jpg","0","","","","","","","","","","","","","","","","","","","","","","","","",""
"6389","","image-button-response","178","873429","0.0-178.0-0.0","A2ZXJKX6BD1BRO","img_art/14.jpg","2","","","","","","","","","","","","","","","","","","","","","","","","",""
"null","","html-keyboard-response","179","873932","0.0-179.0","A2ZXJKX6BD1BRO","<p style=""font-size: 48px;"">+</p>","","","","","null","allTrialResponses","500","1","19","img_art/14.jpg","-20","I don't get it","Alexis,Jordan,Erica,Emma,Brooke,Haley","Don't like the colors on this. Too simple,-20,100,20","this one isn't bad, reminds me a tree that gives life, and people are waiting for someone new to be born,27,20,20","positive colours, makes me to look at it and investigate what is going on,27,80,20","Don't love it.,-10,60,20","cotton candy skies. pretty.,35,60,20","I like the colors in the background, but not the bottom/center. It almost looks sloppy.,-20,220,20","Emma","Don't love it.,-10,60,20","Alexis","Don't like the colors on this. Too simple,-20,100,20","Erica","positive colours, makes me to look at it and investigate what is going on,27,80,20","0"
"11661","","survey-text","180","885596","0.0-180.0-0.0","A2ZXJKX6BD1BRO","","","","{""Q0"":""Ugly and depressing""}","","","","","","","","","","","","","","","","","","","","","","",""
"2438.7000000476837","","image-slider-response","181","888037","0.0-181.0","A2ZXJKX6BD1BRO","","","","","-40","","","","","","","","","","","","","","","","","","","","","",""
"null","","image-button-response","182","893039","0.0-182.0","A2ZXJKX6BD1BRO","img_art/22.jpg","null","","","","","","","","","","","","","","","","","","","","","","","","",""
"1588","","image-button-response","183","894629","0.0-183.0","A2ZXJKX6BD1BRO","img_art/22.jpg","0","","","","","","","","","","","","","","","","","","","","","","","","",""
"5045","","image-button-response","184","899677","0.0-184.0-0.0","A2ZXJKX6BD1BRO","img_art/22.jpg","4","","","","","","","","","","","","","","","","","","","","","","","","",""
"4892","","image-button-response","185","904573","0.0-185.0-0.0","A2ZXJKX6BD1BRO","img_art/22.jpg","2","","","","","","","","","","","","","","","","","","","","","","","","",""
"null","","html-keyboard-response","186","905576","0.0-186.0","A2ZXJKX6BD1BRO","<p style=""font-size: 48px;"">+</p>","","","","","null","allTrialResponses","1000","1","20","img_art/22.jpg","-40","Ugly and depressing","Alexis,Monica,Erica,Emma,Madison,Amber","Don't like this type of abstract work,-39,100,20","I really like the bright colors and sunset feel,31,360,20","Picture is very relaxing,32,80,20","Love the use of color,50,60,20","Like the colors, and the even blur. The more I look, the more a story forms. A very narrative image.,18,60,20","Colors are bright and cheerful.,5,200,20","Alexis","Don't like this type of abstract work,-39,100,20","Madison","Like the colors, and the even blur. The more I look, the more a story forms. A very narrative image.,18,60,20","Erica","Picture is very relaxing,32,80,20","0"
"10766","","survey-text","187","916350","0.0-187.0-0.0","A2ZXJKX6BD1BRO","","","","{""Q0"":""we""}","","","","","","","","","","","","","","","","","","","","","","",""
"14547","","survey-text","188","930900","0.0-188.0-0.0","A2ZXJKX6BD1BRO","","","","{""Q0"":""Interesting, death on a pale horse?""}","","","","","","","","","","","","","","","","","","","","","","",""
"2357.2999999523163","","image-slider-response","189","933260","0.0-189.0","A2ZXJKX6BD1BRO","","","","","14","","","","","","","","","","","","","","","","","","","","","",""
"null","","image-button-response","190","938264","0.0-190.0","A2ZXJKX6BD1BRO","img_art/18.jpg","null","","","","","","","","","","","","","","","","","","","","","","","","",""
"2545","","image-button-response","191","940813","0.0-191.0","A2ZXJKX6BD1BRO","img_art/18.jpg","2","","","","","","","","","","","","","","","","","","","","","","","","",""
"4901","","image-button-response","192","945717","0.0-192.0-0.0","A2ZXJKX6BD1BRO","img_art/18.jpg","5","","","","","","","","","","","","","","","","","","","","","","","","",""
"2270","","image-button-response","193","947989","0.0-193.0-0.0","A2ZXJKX6BD1BRO","img_art/18.jpg","1","","","","","","","","","","","","","","","","","","","","","","","","",""
"null","","html-keyboard-response","194","948491","0.0-194.0","A2ZXJKX6BD1BRO","<p style=""font-size: 48px;"">+</p>","","","","","null","allTrialResponses","500","1","21","img_art/18.jpg","14","Interesting, death on a pale horse?","Alexis,Chelsea,Erica,Margaret,Madison,Hannah","Crusade-feel, but a little too abstract for my taste,23,100,20","I like the detail but I wouldn't hang this up on my wall.,14,180,20","Makes me to look at it and investigate what it is about and what is going on,17,80,20","reminds me of dying at sea in the 1700s,-8,100,20","Pleasant design and composition, unpleasant theme and focus.,-19,60,20","Looks like ghost figures on a boat. It's okay.,7,240,20","Erica","Makes me to look at it and investigate what it is about and what is going on,17,80,20","Hannah","Looks like ghost figures on a boat. It's okay.,7,240,20","Chelsea","I like the detail but I wouldn't hang this up on my wall.,14,180,20","0"
"10147","","survey-text","195","958645","0.0-195.0-0.0","A2ZXJKX6BD1BRO","","","","{""Q0"":""I don't like it, too muddy and formless""}","","","","","","","","","","","","","","","","","","","","","","",""
"1918.4000000953674","","image-slider-response","196","960565","0.0-196.0","A2ZXJKX6BD1BRO","","","","","-24","","","","","","","","","","","","","","","","","","","","","",""
"4957","","image-button-response","197","965569","0.0-197.0","A2ZXJKX6BD1BRO","img_art/1.jpg","4","","","","","","","","","","","","","","","","","","","","","","","","",""
"1691","","image-button-response","198","967262","0.0-198.0","A2ZXJKX6BD1BRO","img_art/1.jpg","4","","","","","","","","","","","","","","","","","","","","","","","","",""
"2980","","image-button-response","199","970245","0.0-199.0-0.0","A2ZXJKX6BD1BRO","img_art/1.jpg","1","","","","","","","","","","","","","","","","","","","","","","","","",""
"2158","","image-button-response","200","972405","0.0-200.0-0.0","A2ZXJKX6BD1BRO","img_art/1.jpg","5","","","","","","","","","","","","","","","","","","","","","","","","",""
"null","","html-keyboard-response","201","972908","0.0-201.0","A2ZXJKX6BD1BRO","<p style=""font-size: 48px;"">+</p>","","","","","null","allTrialResponses","500","1","22","img_art/1.jpg","-24","I don't like it, too muddy and formless","Elizabeth,Chelsea,Erica,Meghan,Sara,Hannah","Absolutely love this painting,50,20,20","The colors are a little too intense.,1,180,20","Makes me warm and relaxed,38,80,20","good colors and contrast,31,220,20","I feel uneasy looking at this,-41,160,20","Reminds me of fall.,7,240,20","Sara","I feel uneasy looking at this,-41,160,20","Chelsea","The colors are a little too intense.,1,180,20","Hannah","Reminds me of fall.,7,240,20","0"
"13257","","survey-text","202","986173","0.0-202.0-0.0","A2ZXJKX6BD1BRO","","","","{""Q0"":""i don't feel anything in response to this""}","","","","","","","","","","","","","","","","","","","","","","",""
"2877.899999856949","","image-slider-response","203","989053","0.0-203.0","A2ZXJKX6BD1BRO","","","","","-14","","","","","","","","","","","","","","","","","","","","","",""
"3133","","image-button-response","204","994057","0.0-204.0","A2ZXJKX6BD1BRO","img_art/28.jpg","1","","","","","","","","","","","","","","","","","","","","","","","","",""
"776","","image-button-response","205","994837","0.0-205.0","A2ZXJKX6BD1BRO","img_art/28.jpg","2","","","","","","","","","","","","","","","","","","","","","","","","",""
"2078","","image-button-response","206","996918","0.0-206.0-0.0","A2ZXJKX6BD1BRO","img_art/28.jpg","5","","","","","","","","","","","","","","","","","","","","","","","","",""
"2564","","image-button-response","207","999486","0.0-207.0-0.0","A2ZXJKX6BD1BRO","img_art/28.jpg","1","","","","","","","","","","","","","","","","","","","","","","","","",""
"null","","html-keyboard-response","208","1000488","0.0-208.0","A2ZXJKX6BD1BRO","<p style=""font-size: 48px;"">+</p>","","","","","null","allTrialResponses","1000","1","23","img_art/28.jpg","-14","i don't feel anything in response to this","Caroline,Chelsea,Morgan,Dominique,Sara,Hannah","Colors are pleasing. Made me think of two people kneeling and talking. A curious feeling.,15,100,20","It is too messy.,-38,180,20","Apartment throw up.,-5,380,20","This is one of my favorites. It says to me to take time for people,37,400,20","This swirly drawing i snot my type I get confused and dizzy,-20,160,20","The colors are drab and a little depressing.,-20,240,20","Morgan","Apartment throw up.,-5,380,20","Hannah","The colors are drab and a little depressing.,-20,240,20","Chelsea","It is too messy.,-38,180,20","0"
"16384","","survey-text","209","1016877","0.0-209.0-0.0","A2ZXJKX6BD1BRO","","","","{""Q0"":""a lone bird on a hill?""}","","","","","","","","","","","","","","","","","","","","","","",""
"5469.5","","image-slider-response","210","1022349","0.0-210.0","A2ZXJKX6BD1BRO","","","","","3","","","","","","","","","","","","","","","","","","","","","",""
"4173","","image-button-response","211","1027353","0.0-211.0","A2ZXJKX6BD1BRO","img_art/6.jpg","1","","","","","","","","","","","","","","","","","","","","","","","","",""
"1263","","image-button-response","212","1028621","0.0-212.0","A2ZXJKX6BD1BRO","img_art/6.jpg","1","","","","","","","","","","","","","","","","","","","","","","","","",""
"3269","","image-button-response","213","1031893","0.0-213.0-0.0","A2ZXJKX6BD1BRO","img_art/6.jpg","3","","","","","","","","","","","","","","","","","","","","","","","","",""
"2325","","image-button-response","214","1034222","0.0-214.0-0.0","A2ZXJKX6BD1BRO","img_art/6.jpg","5","","","","","","","","","","","","","","","","","","","","","","","","",""
"null","","html-keyboard-response","215","1035225","0.0-215.0","A2ZXJKX6BD1BRO","<p style=""font-size: 48px;"">+</p>","","","","","null","allTrialResponses","1000","1","24","img_art/6.jpg","3","a lone bird on a hill?","Sydney,Chelsea,Morgan,Alyssa,Madeline,Hannah","This piece reminds me of the lorax.,5,320,20","It looks like one tall ugly bird.,-43,180,20","Desert that's too simple.,-15,380,20","It makes me stop and think about what the artist is trying to say.It creates a feeling of solitude and tranqulity,30,160,20","Looks a bit like a pickle or something?,-16,40,20","Looks like a bird. It's fine.,7,240,20","Chelsea","It looks like one tall ugly bird.,-43,180,20","Alyssa","It makes me stop and think about what the artist is trying to say.It creates a feeling of solitude and tranqulity,30,160,20","Hannah","Looks like a bird. It's fine.,7,240,20","0"
"9959","","survey-text","216","1045189","0.0-216.0-0.0","A2ZXJKX6BD1BRO","","","","{""Q0"":""Ugh. No thank you""}","","","","","","","","","","","","","","","","","","","","","","",""
"2493.100000143051","","image-slider-response","217","1047684","0.0-217.0","A2ZXJKX6BD1BRO","","","","","-37","","","","","","","","","","","","","","","","","","","","","",""
"null","","image-button-response","218","1052687","0.0-218.0","A2ZXJKX6BD1BRO","img_art/23.jpg","null","","","","","","","","","","","","","","","","","","","","","","","","",""
"3716","","image-button-response","219","1056405","0.0-219.0","A2ZXJKX6BD1BRO","img_art/23.jpg","4","","","","","","","","","","","","","","","","","","","","","","","","",""
"4830","","image-button-response","220","1061237","0.0-220.0-0.0","A2ZXJKX6BD1BRO","img_art/23.jpg","0","","","","","","","","","","","","","","","","","","","","","","","","",""
"2884","","image-button-response","221","1064125","0.0-221.0-0.0","A2ZXJKX6BD1BRO","img_art/23.jpg","2","","","","","","","","","","","","","","","","","","","","","","","","",""
"null","","html-keyboard-response","222","1064628","0.0-222.0","A2ZXJKX6BD1BRO","<p style=""font-size: 48px;"">+</p>","","","","","null","allTrialResponses","500","1","25","img_art/23.jpg","-37","Ugh. No thank you","Caitlin,Chelsea,Lauren,Alyssa,Grace,Hannah","SOME thought was put into this one.,5,80,20","I like the royal colors.,38,180,20","I like the symmetrical design and how it portrays the liveliness of a musical environment.,30,340,20","Very bright and eye catching.The White silhouettes remind me of people celebrating.,31,160,20","Looks like fireworks.,21,180,20","This one is interesting. Looks like people with maybe musical instruments?,11,240,20","Grace","Looks like fireworks.,21,180,20","Caitlin","SOME thought was put into this one.,5,80,20","Lauren","I like the symmetrical design and how it portrays the liveliness of a musical environment.,30,340,20","0"
"3755","","survey-text","223","1068397","0.0-223.0-0.0","A2ZXJKX6BD1BRO","","","","{""Q0"":""table""}","","","","","","","","","","","","","","","","","","","","","","",""
"11302","","survey-text","224","1079700","0.0-224.0-0.0","A2ZXJKX6BD1BRO","","","","{""Q0"":""reminds me of a waterfall on a hill in the woods""}","","","","","","","","","","","","","","","","","","","","","","",""
"2653.9000000953674","","image-slider-response","225","1082357","0.0-225.0","A2ZXJKX6BD1BRO","","","","","5","","","","","","","","","","","","","","","","","","","","","",""
"4604","","image-button-response","226","1087360","0.0-226.0","A2ZXJKX6BD1BRO","img_art/24.jpg","0","","","","","","","","","","","","","","","","","","","","","","","","",""
"2216","","image-button-response","227","1089581","0.0-227.0","A2ZXJKX6BD1BRO","img_art/24.jpg","0","","","","","","","","","","","","","","","","","","","","","","","","",""
"1382","","image-button-response","228","1090965","0.0-228.0-0.0","A2ZXJKX6BD1BRO","img_art/24.jpg","3","","","","","","","","","","","","","","","","","","","","","","","","",""
"1381","","image-button-response","229","1092349","0.0-229.0-0.0","A2ZXJKX6BD1BRO","img_art/24.jpg","4","","","","","","","","","","","","","","","","","","","","","","","","",""
"null","","html-keyboard-response","230","1093852","0.0-230.0","A2ZXJKX6BD1BRO","<p style=""font-size: 48px;"">+</p>","","","","","null","allTrialResponses","1500","1","26","img_art/24.jpg","5","reminds me of a waterfall on a hill in the woods","Caitlin,Jenna,Lauren,Brianna,Grace,Jacqueline","I actually like this one. You can tell what it is.,25,80,20","colors are a bit cramped together. really unique take on a waterfall though.,32,360,20","Invokes a strong sense of nature, since the piece can interpreted as a stream or an abstracted bird.,40,340,20","The waterfall looks peaceful,11,20,20","Abstract falls & nature.,41,180,20","This one isn't that abstract. It clearly looks like a waterfall.,31,300,20","Caitlin","I actually like this one. You can tell what it is.,25,80,20","Brianna","The waterfall looks peaceful,11,20,20","Grace","Abstract falls & nature.,41,180,20","0"
"8128","","survey-text","231","1101988","0.0-231.0-0.0","A2ZXJKX6BD1BRO","","","","{""Q0"":""drab, not for me""}","","","","","","","","","","","","","","","","","","","","","","",""
"2149.9000000953674","","image-slider-response","232","1104140","0.0-232.0","A2ZXJKX6BD1BRO","","","","","-24","","","","","","","","","","","","","","","","","","","","","",""
"null","","image-button-response","233","1109144","0.0-233.0","A2ZXJKX6BD1BRO","img_art/10.jpg","null","","","","","","","","","","","","","","","","","","","","","","","","",""
"1639","","image-button-response","234","1110788","0.0-234.0","A2ZXJKX6BD1BRO","img_art/10.jpg","2","","","","","","","","","","","","","","","","","","","","","","","","",""
"1910","","image-button-response","235","1112701","0.0-235.0-0.0","A2ZXJKX6BD1BRO","img_art/10.jpg","4","","","","","","","","","","","","","","","","","","","","","","","","",""
"860","","image-button-response","236","1113565","0.0-236.0-0.0","A2ZXJKX6BD1BRO","img_art/10.jpg","3","","","","","","","","","","","","","","","","","","","","","","","","",""
"null","","html-keyboard-response","237","1114068","0.0-237.0","A2ZXJKX6BD1BRO","<p style=""font-size: 48px;"">+</p>","","","","","null","allTrialResponses","500","1","27","img_art/10.jpg","-24","drab, not for me","Caitlin,Makayla,Jasmine,Brianna,Grace,Destiny","The roller coaster from hell !!!,-10,80,20","I don't hate but don't like it because it looks like a oil slick,2,80,20","It's okay but not giving me the strongest reaction,6,340,20","I have no opinions on this one,0,20,20","First impression was musical instrument then, because of the gray colors, death.,5,180,20","The more I look the more I like. Reminds me of a rollercoaster and a war scene. A lot going on which is unnerving, like a rollercoaster but still fun,22,360,20","Jasmine","It's okay but not giving me the strongest reaction,6,340,20","Grace","First impression was musical instrument then, because of the gray colors, death.,5,180,20","Brianna","I have no opinions on this one,0,20,20","0"
"16448","","survey-text","238","1130524","0.0-238.0-0.0","A2ZXJKX6BD1BRO","","","","{""Q0"":""interesting, I wonder what inspired it""}","","","","","","","","","","","","","","","","","","","","","","",""
"2773.2999999523163","","image-slider-response","239","1133300","0.0-239.0","A2ZXJKX6BD1BRO","","","","","5","","","","","","","","","","","","","","","","","","","","","",""
"4087","","image-button-response","240","1138303","0.0-240.0","A2ZXJKX6BD1BRO","img_art/25.jpg","2","","","","","","","","","","","","","","","","","","","","","","","","",""
"1088","","image-button-response","241","1139397","0.0-241.0","A2ZXJKX6BD1BRO","img_art/25.jpg","2","","","","","","","","","","","","","","","","","","","","","","","","",""
"2588","","image-button-response","242","1141988","0.0-242.0-0.0","A2ZXJKX6BD1BRO","img_art/25.jpg","5","","","","","","","","","","","","","","","","","","","","","","","","",""
"526","","image-button-response","243","1142516","0.0-243.0-0.0","A2ZXJKX6BD1BRO","img_art/25.jpg","4","","","","","","","","","","","","","","","","","","","","","","","","",""
"null","","html-keyboard-response","244","1143022","0.0-244.0","A2ZXJKX6BD1BRO","<p style=""font-size: 48px;"">+</p>","","","","","null","allTrialResponses","500","1","28","img_art/25.jpg","5","interesting, I wonder what inspired it","Chloe,Emily,Jasmine,Brianna,Grace,Paige","Cheesy and unprofessional,-30,220,20","Low skill not impressed.,-14,40,20","I liked it as it seems unique in a way,21,340,20","This would definitely be hanging in my bedroom in my house,50,20,20","Scary. Something out of a Stephen King book/movie.,-31,180,20","reminds me of ancient history which makes me happy,40,60,20","Jasmine","I liked it as it seems unique in a way,21,340,20","Paige","reminds me of ancient history which makes me happy,40,60,20","Grace","Scary. Something out of a Stephen King book/movie.,-31,180,20","0"
"10058","","survey-text","245","1153085","0.0-245.0-0.0","A2ZXJKX6BD1BRO","","","","{""Q0"":""low effort""}","","","","","","","","","","","","","","","","","","","","","","",""
"3725.7000000476837","","image-slider-response","246","1156813","0.0-246.0","A2ZXJKX6BD1BRO","","","","","-32","","","","","","","","","","","","","","","","","","","","","",""
"null","","image-button-response","247","1161817","0.0-247.0","A2ZXJKX6BD1BRO","img_art/16.jpg","null","","","","","","","","","","","","","","","","","","","","","","","","",""
"7057","","image-button-response","248","1168877","0.0-248.0","A2ZXJKX6BD1BRO","img_art/16.jpg","0","","","","","","","","","","","","","","","","","","","","","","","","",""
"2037","","image-button-response","249","1170917","0.0-249.0-0.0","A2ZXJKX6BD1BRO","img_art/16.jpg","1","","","","","","","","","","","","","","","","","","","","","","","","",""
"3510","","image-button-response","250","1174429","0.0-250.0-0.0","A2ZXJKX6BD1BRO","img_art/16.jpg","2","","","","","","","","","","","","","","","","","","","","","","","","",""
"null","","html-keyboard-response","251","1174932","0.0-251.0","A2ZXJKX6BD1BRO","<p style=""font-size: 48px;"">+</p>","","","","","null","allTrialResponses","500","1","29","img_art/16.jpg","-32","low effort","Mariah,Lindsey,Jasmine,Julia,Grace,Paige","Why is that bear there? It looks like it would be gross to touch. The texture bothers me.,-20,140,20","It's depressing. Probably achieved its goal. But I wouldn't want it hanging in my home.,-31,400,20","I like it because it's quite different from the rest,23,340,20","I love the teddy bear,50,40,20","Something terrible happened. Either the figure on the right is the victim or another shredded toy.,-49,180,20","very disturbed seening a gun in the same picture as a teddy bear,-50,60,20","Mariah","Why is that bear there? It looks like it would be gross to touch. The texture bothers me.,-20,140,20","Lindsey","It's depressing. Probably achieved its goal. But I wouldn't want it hanging in my home.,-31,400,20","Jasmine","I like it because it's quite different from the rest,23,340,20","0"
"16352","","survey-text","252","1191293","0.0-252.0-0.0","A2ZXJKX6BD1BRO","","","","{""Q0"":""looks like someone's been cleaning their brushes""}","","","","","","","","","","","","","","","","","","","","","","",""
"2852.7999999523163","","image-slider-response","253","1194148","0.0-253.0","A2ZXJKX6BD1BRO","","","","","-39","","","","","","","","","","","","","","","","","","","","","",""
"null","","image-button-response","254","1199151","0.0-254.0","A2ZXJKX6BD1BRO","img_art/30.jpg","null","","","","","","","","","","","","","","","","","","","","","","","","",""
"835","","image-button-response","255","1199989","0.0-255.0","A2ZXJKX6BD1BRO","img_art/30.jpg","5","","","","","","","","","","","","","","","","","","","","","","","","",""
"2476","","image-button-response","256","1202469","0.0-256.0-0.0","A2ZXJKX6BD1BRO","img_art/30.jpg","0","","","","","","","","","","","","","","","","","","","","","","","","",""
"1717","","image-button-response","257","1204189","0.0-257.0-0.0","A2ZXJKX6BD1BRO","img_art/30.jpg","2","","","","","","","","","","","","","","","","","","","","","","","","",""
"null","","html-keyboard-response","258","1204691","0.0-258.0","A2ZXJKX6BD1BRO","<p style=""font-size: 48px;"">+</p>","","","","","null","allTrialResponses","500","1","30","img_art/30.jpg","-39","looks like someone's been cleaning their brushes","Mariah,Lindsey,Jasmine,Ashley,Kimberly,Cassidy","It just feels hasty and not well composed. Has an angsty teen feel,-31,140,20","Interesting. Not sure what I'm seeing but it makes me want to figure it out.,5,400,20","Pretty neutral about this one,0,340,20","Decent abstract art, ncie colors.,23,320,20","looks like eels,-20,260,20","I just don't see the point of this piece,-11,140,20","Cassidy","I just don't see the point of this piece,-11,140,20","Mariah","It just feels hasty and not well composed. Has an angsty teen feel,-31,140,20","Jasmine","Pretty neutral about this one,0,340,20","0"
"1900","","image-button-response_instructions","259","1206596","0.0-259.0","A2ZXJKX6BD1BRO","","0","instructions","","","","","","","","","","","","","","","","","","","","","","","",""
"1586","","image-button-response","260","1208188","0.0-260.0","A2ZXJKX6BD1BRO","","0","","","","","","","","","","","","","","","","","","","","","","","","",""
