"rt","url","trial_type","trial_index","time_elapsed","internal_node_id","participant_id","stimulus","button_pressed","Name","responses","response","key_press","variableName","fixationTime","condition","trial","photo","subjectRating","subjectResponse","agentsNames","agent_1_Response","agent_2_Response","agent_3_Response","agent_4_Response","agent_5_Response","agent_6_Response","kept_1_name","kept_1_response","kept_2_name","kept_2_response","kept_3_name","kept_3_response","errorCounter"
"8482","external_page_harvard.html","external-html","0","8647","0.0-0.0","A30HUZHJBOX1LK","","","","","","","","","","","","","","","","","","","","","","","","","","",""
"1420","","image-button-response","1","10070","0.0-1.0","A30HUZHJBOX1LK","","0","","","","","","","","","","","","","","","","","","","","","","","","",""
"1176","","image-button-response","2","11255","0.0-2.0-0.0","A30HUZHJBOX1LK","","1","phone","","","","","","","","","","","","","","","","","","","","","","","",""
"3191","","survey-text","3","14447","0.0-3.0-0.0","A30HUZHJBOX1LK","","","","{""Q0"":""A30HUZHJBOX1LK""}","","","","","","","","","","","","","","","","","","","","","","",""
"19767","","image-button-response_instructions","4","34219","0.0-4.0","A30HUZHJBOX1LK","","0","instructions","","","","","","","","","","","","","","","","","","","","","","","",""
"260617","","image-button-response_instructions","5","294841","0.0-5.0","A30HUZHJBOX1LK","img_art/ins/popularity/ins1.png","0","instructions","","","","","","","","","","","","","","","","","","","","","","","",""
"4372","","image-button-response_instructions","6","299215","0.0-6.0","A30HUZHJBOX1LK","img_art/ins/popularity/ins2.png","0","instructions","","","","","","","","","","","","","","","","","","","","","","","",""
"3126","","image-button-response_instructions","7","302345","0.0-7.0","A30HUZHJBOX1LK","img_art/ins/popularity/ins2Extreme.png","0","instructions","","","","","","","","","","","","","","","","","","","","","","","",""
"3585","","image-button-response_instructions","8","305931","0.0-8.0","A30HUZHJBOX1LK","img_art/ins/popularity/ins3KEEPpop.PNG","0","instructions","","","","","","","","","","","","","","","","","","","","","","","",""
"1850","","image-button-response_instructions","9","307783","0.0-9.0","A30HUZHJBOX1LK","img_art/ins/popularity/ins3ANamepop.PNG","0","instructions","","","","","","","","","","","","","","","","","","","","","","","",""
"3875","","image-button-response_instructions","10","311660","0.0-10.0","A30HUZHJBOX1LK","img_art/ins/popularity/ins3ARatingpop.png","0","instructions","","","","","","","","","","","","","","","","","","","","","","","",""
"1464","","image-button-response_instructions","11","313125","0.0-11.0","A30HUZHJBOX1LK","img_art/ins/popularity/ins3ATextpop.png","0","instructions","","","","","","","","","","","","","","","","","","","","","","","",""
"2423","","image-button-response_instructions","12","315551","0.0-12.0","A30HUZHJBOX1LK","img_art/ins/popularity/ins3ALikespop.png","0","instructions","","","","","","","","","","","","","","","","","","","","","","","",""
"5598","","image-button-response_instructions","13","321153","0.0-13.0","A30HUZHJBOX1LK","img_art/ins/popularity/ins3KEEPpop.PNG","0","instructions","","","","","","","","","","","","","","","","","","","","","","","",""
"3790","","image-button-response_instructions","14","324946","0.0-14.0","A30HUZHJBOX1LK","img_art/ins/popularity/ins3_5RED.png","0","instructions","","","","","","","","","","","","","","","","","","","","","","","",""
"3375","","image-button-response_instructions","15","328324","0.0-15.0","A30HUZHJBOX1LK","img_art/ins/popularity/ins3KEEPpop.PNG","0","instructions","","","","","","","","","","","","","","","","","","","","","","","",""
"4974","","image-button-response_instructions","16","333300","0.0-16.0","A30HUZHJBOX1LK","img_art/ins/popularity/ins4KEEPpop.PNG","0","instructions","","","","","","","","","","","","","","","","","","","","","","","",""
"2751","","image-button-response_instructions","17","336053","0.0-17.0","A30HUZHJBOX1LK","img_art/ins/popularity/ins5KEEPpop.PNG","0","instructions","","","","","","","","","","","","","","","","","","","","","","","",""
"1554","","image-button-response_instructions","18","337608","0.0-18.0","A30HUZHJBOX1LK","","0","instructions","","","","","","","","","","","","","","","","","","","","","","","",""
"5739","","survey-text","19","343390","0.0-19.0-0.0","A30HUZHJBOX1LK","","","","{""Q0"":""but""}","","","","","","","","","","","","","","","","","","","","","","",""
"15234","","survey-text","20","358629","0.0-20.0-0.0","A30HUZHJBOX1LK","","","","{""Q0"":""It's fairy peaceful, but very abstract""}","","","","","","","","","","","","","","","","","","","","","","",""
"2776.3999999910593","","image-slider-response","21","361414","0.0-21.0","A30HUZHJBOX1LK","","","","","25","","","","","","","","","","","","","","","","","","","","","",""
"null","","image-button-response","22","366420","0.0-22.0","A30HUZHJBOX1LK","img_art/ins/1.jpg","null","","","","","","","","","","","","","","","","","","","","","","","","",""
"819","","image-button-response","23","367244","0.0-23.0","A30HUZHJBOX1LK","img_art/ins/1.jpg","1","","","","","","","","","","","","","","","","","","","","","","","","",""
"1775","","image-button-response","24","369027","0.0-24.0-0.0","A30HUZHJBOX1LK","img_art/ins/1.jpg","3","","","","","","","","","","","","","","","","","","","","","","","","",""
"1458","","image-button-response","25","370490","0.0-25.0-0.0","A30HUZHJBOX1LK","img_art/ins/1.jpg","5","","","","","","","","","","","","","","","","","","","","","","","","",""
"null","","html-keyboard-response","26","371494","0.0-26.0","A30HUZHJBOX1LK","<p style=""font-size: 48px;"">+</p>","","","","","null","allTrialResponses","1000","1","-2","img_art/ins/1.jpg","25","It's fairy peaceful, but very abstract","Adam,Alex,Ben,Carl,Daniel,Jack","Seems like doodles,-20,20,20","very creative work.,36,40,20","This color reminds me of poo,-46,60,20","very calming artwork,42,80,20","It looks like a murder scene.,-48,100,20","I like the sophisticated brushwork,40,120,20","Alex","very creative work.,36,40,20","Carl","very calming artwork,42,80,20","Jack","I like the sophisticated brushwork,40,120,20","0"
"6874","","survey-text","27","378376","0.0-27.0-0.0","A30HUZHJBOX1LK","","","","{""Q0"":""this is very red""}","","","","","","","","","","","","","","","","","","","","","","",""
"2195.5","","image-slider-response","28","380575","0.0-28.0","A30HUZHJBOX1LK","","","","","-27","","","","","","","","","","","","","","","","","","","","","",""
"1563","","image-button-response","29","385579","0.0-29.0","A30HUZHJBOX1LK","img_art/ins/2.jpg","0","","","","","","","","","","","","","","","","","","","","","","","","",""
"2817","","image-button-response","30","388400","0.0-30.0","A30HUZHJBOX1LK","img_art/ins/2.jpg","2","","","","","","","","","","","","","","","","","","","","","","","","",""
"2117","","image-button-response","31","390521","0.0-31.0-0.0","A30HUZHJBOX1LK","img_art/ins/2.jpg","4","","","","","","","","","","","","","","","","","","","","","","","","",""
"629","","image-button-response","32","391154","0.0-32.0-0.0","A30HUZHJBOX1LK","img_art/ins/2.jpg","5","","","","","","","","","","","","","","","","","","","","","","","","",""
"null","","html-keyboard-response","33","392156","0.0-33.0","A30HUZHJBOX1LK","<p style=""font-size: 48px;"">+</p>","","","","","null","allTrialResponses","1000","1","-1","img_art/ins/2.jpg","-27","this is very red","James,Alex,Kyle,Carl,John,Jack","looks too angry,-50,140,20","I like the blocks of color arrangements,30,40,20","Idk, it is just annoying,-32,180,20","I can feel the artist's passion in it,45,80,20","love the texture of paint,48,160,20","I would never be able to compose a sophisticated pallete like this,48,120,20","Kyle","Idk, it is just annoying,-32,180,20","John","love the texture of paint,48,160,20","Jack","I would never be able to compose a sophisticated pallete like this,48,120,20","0"
"7991","","survey-text","34","400156","0.0-34.0-0.0","A30HUZHJBOX1LK","","","","{""Q0"":""very cool and calming""}","","","","","","","","","","","","","","","","","","","","","","",""
"2743.7000000029802","","image-slider-response","35","402903","0.0-35.0","A30HUZHJBOX1LK","","","","","27","","","","","","","","","","","","","","","","","","","","","",""
"4787","","image-button-response","36","407906","0.0-36.0","A30HUZHJBOX1LK","img_art/ins/3.jpg","0","","","","","","","","","","","","","","","","","","","","","","","","",""
"735","","image-button-response","37","408645","0.0-37.0","A30HUZHJBOX1LK","img_art/ins/3.jpg","0","","","","","","","","","","","","","","","","","","","","","","","","",""
"2307","","image-button-response","38","410954","0.0-38.0-0.0","A30HUZHJBOX1LK","img_art/ins/3.jpg","3","","","","","","","","","","","","","","","","","","","","","","","","",""
"2088","","image-button-response","39","413045","0.0-39.0-0.0","A30HUZHJBOX1LK","img_art/ins/3.jpg","3","","","","","","","","","","","","","","","","","","","","","","","","",""
"1996","","image-button-response","40","419076","0.0-39.1-0.1","A30HUZHJBOX1LK","img_art/ins/3.jpg","4","","","","","","","","","","","","","","","","","","","","","","","","",""
"null","","html-keyboard-response","41","419578","0.0-40.0","A30HUZHJBOX1LK","<p style=""font-size: 48px;"">+</p>","","","","","null","allTrialResponses","500","1","0","img_art/ins/3.jpg","27","very cool and calming","Sam,Ron,Kyle,Mike,John,Jack","I can feel a rainy day from this painting,18,240,20","It looks depressing,-26,220,20","It looks like a playground for bats,-36,180,20","enjoy the different shades of blue,22,200,20","I like the overlapping of brushes,41,160,20","I feel connected to the artist,40,120,20","Sam","I can feel a rainy day from this painting,18,240,20","Mike","enjoy the different shades of blue,22,200,20","John","I like the overlapping of brushes,41,160,20","2"
"4746","","image-button-response_instructions","42","424332","0.0-41.0","A30HUZHJBOX1LK","","0","instructions","","","","","","","","","","","","","","","","","","","","","","","",""
"9322","","survey-likert","43","433656","0.0-42.0-0.0","A30HUZHJBOX1LK","","","","{""Q0"":"""",""Q1"":0,""Q2"":1}","","","","","","","","","","","","","","","","","","","","","","",""
"3822","","survey-text","44","437493","0.0-43.0-0.0","A30HUZHJBOX1LK","","","","{""Q0"":""rock""}","","","","","","","","","","","","","","","","","","","","","","",""
"14637","","survey-text","45","452132","0.0-44.0-0.0","A30HUZHJBOX1LK","","","","{""Q0"":""Spooky, it is a bit scary""}","","","","","","","","","","","","","","","","","","","","","","",""
"1785.2999999970198","","image-slider-response","46","453920","0.0-45.0","A30HUZHJBOX1LK","","","","","9","","","","","","","","","","","","","","","","","","","","","",""
"null","","image-button-response","47","458958","0.0-46.0","A30HUZHJBOX1LK","img_art/8.jpg","null","","","","","","","","","","","","","","","","","","","","","","","","",""
"3032","","image-button-response","48","461995","0.0-47.0","A30HUZHJBOX1LK","img_art/8.jpg","2","","","","","","","","","","","","","","","","","","","","","","","","",""
"4858","","image-button-response","49","466857","0.0-48.0-0.0","A30HUZHJBOX1LK","img_art/8.jpg","5","","","","","","","","","","","","","","","","","","","","","","","","",""
"1461","","image-button-response","50","468323","0.0-49.0-0.0","A30HUZHJBOX1LK","img_art/8.jpg","0","","","","","","","","","","","","","","","","","","","","","","","","",""
"null","","html-keyboard-response","51","468825","0.0-50.0","A30HUZHJBOX1LK","<p style=""font-size: 48px;"">+</p>","","","","","null","allTrialResponses","500","1","1","img_art/8.jpg","9","Spooky, it is a bit scary","Mason,Tyler,Dylan,Logan,Mitchell,Blake","wow. blocky, angled, neat colors. The faces are what makes it. love it.,45,100,20","The composition is striking, and some of the images are quite dramatic,11,320,20","The colors are nice but the big face in the sky is creepy,-11,40,20","a cute little cute with some protectors,25,360,20","Lost in a big city confuse as to where to go to next. No matter if you live in a mansion or homeless. Being bigger than what is going on around you,30,180,20","cold city controlled by evil gods,-17,280,20","Dylan","The colors are nice but the big face in the sky is creepy,-11,40,20","Blake","cold city controlled by evil gods,-17,280,20","Mason","wow. blocky, angled, neat colors. The faces are what makes it. love it.,45,100,20","2"
"8621","","survey-text","52","477453","0.0-51.0-0.0","A30HUZHJBOX1LK","","","","{""Q0"":""calming and peaceful nap""}","","","","","","","","","","","","","","","","","","","","","","",""
"1751.6000000089407","","image-slider-response","53","479207","0.0-52.0","A30HUZHJBOX1LK","","","","","27","","","","","","","","","","","","","","","","","","","","","",""
"null","","image-button-response","54","484210","0.0-53.0","A30HUZHJBOX1LK","img_art/9.jpg","null","","","","","","","","","","","","","","","","","","","","","","","","",""
"2071","","image-button-response","55","486284","0.0-54.0","A30HUZHJBOX1LK","img_art/9.jpg","4","","","","","","","","","","","","","","","","","","","","","","","","",""
"1723","","image-button-response","56","488009","0.0-55.0-0.0","A30HUZHJBOX1LK","img_art/9.jpg","5","","","","","","","","","","","","","","","","","","","","","","","","",""
"3290","","image-button-response","57","491303","0.0-56.0-0.0","A30HUZHJBOX1LK","img_art/9.jpg","0","","","","","","","","","","","","","","","","","","","","","","","","",""
"null","","html-keyboard-response","58","491806","0.0-57.0","A30HUZHJBOX1LK","<p style=""font-size: 48px;"">+</p>","","","","","null","allTrialResponses","500","1","2","img_art/9.jpg","27","calming and peaceful nap","Mason,Devon,Dylan,Spencer,Evan,Blake","Abstract titanic scene. It's nice though. I like how it makes me feel.,28,100,20","this looks to be a child nightmare,-10,400,20","This picture is too busy and ugly,-20,40,20","Depressing to me, like a dark dream,-11,120,20","It makes me think of Snow White sleeping,11,140,20","looks like a woman in bed and its ok,8,280,20","Evan","It makes me think of Snow White sleeping,11,140,20","Blake","looks like a woman in bed and its ok,8,280,20","Mason","Abstract titanic scene. It's nice though. I like how it makes me feel.,28,100,20","2"
"10943","","survey-text","59","502754","0.0-58.0-0.0","A30HUZHJBOX1LK","","","","{""Q0"":""Gross this is a mess""}","","","","","","","","","","","","","","","","","","","","","","",""
"2126.7000000029802","","image-slider-response","60","504885","0.0-59.0","A30HUZHJBOX1LK","","","","","-23","","","","","","","","","","","","","","","","","","","","","",""
"null","","image-button-response","61","509889","0.0-60.0","A30HUZHJBOX1LK","img_art/29.jpg","null","","","","","","","","","","","","","","","","","","","","","","","","",""
"391","","image-button-response","62","510282","0.0-61.0","A30HUZHJBOX1LK","img_art/29.jpg","3","","","","","","","","","","","","","","","","","","","","","","","","",""
"4117","","image-button-response","63","514402","0.0-62.0-0.0","A30HUZHJBOX1LK","img_art/29.jpg","4","","","","","","","","","","","","","","","","","","","","","","","","",""
"4273","","image-button-response","64","518679","0.0-63.0-0.0","A30HUZHJBOX1LK","img_art/29.jpg","0","","","","","","","","","","","","","","","","","","","","","","","","",""
"null","","html-keyboard-response","65","519682","0.0-64.0","A30HUZHJBOX1LK","<p style=""font-size: 48px;"">+</p>","","","","","null","allTrialResponses","1000","1","3","img_art/29.jpg","-23","Gross this is a mess","Mason,Robert,Vincent,Jake,Evan,Blake","easy, too abstract for me, don't get it.,-25,100,20","Looks like a murder,-50,360,20","Another great work of art and very conversational piece,33,360,20","This is very gross and odd looking.,-8,360,20","It makes me feel as though the artist put in a lot of time and effort and then gave up,10,140,20","a hot fireplace with things to burn. warm,12,280,20","Jake","This is very gross and odd looking.,-8,360,20","Evan","It makes me feel as though the artist put in a lot of time and effort and then gave up,10,140,20","Mason","easy, too abstract for me, don't get it.,-25,100,20","2"
"10365","","survey-text","66","530056","0.0-65.0-0.0","A30HUZHJBOX1LK","","","","{""Q0"":""this feels like a nice fall day""}","","","","","","","","","","","","","","","","","","","","","","",""
"3813.5999999940395","","image-slider-response","67","533873","0.0-66.0","A30HUZHJBOX1LK","","","","","28","","","","","","","","","","","","","","","","","","","","","",""
"null","","image-button-response","68","538876","0.0-67.0","A30HUZHJBOX1LK","img_art/27.jpg","null","","","","","","","","","","","","","","","","","","","","","","","","",""
"2995","","image-button-response","69","541875","0.0-68.0","A30HUZHJBOX1LK","img_art/27.jpg","0","","","","","","","","","","","","","","","","","","","","","","","","",""
"3057","","image-button-response","70","544935","0.0-69.0-0.0","A30HUZHJBOX1LK","img_art/27.jpg","1","","","","","","","","","","","","","","","","","","","","","","","","",""
"4138","","image-button-response","71","549076","0.0-70.0-0.0","A30HUZHJBOX1LK","img_art/27.jpg","0","","","","","","","","","","","","","","","","","","","","","","","","",""
"2081","","image-button-response","72","553725","0.0-70.1-0.1","A30HUZHJBOX1LK","img_art/27.jpg","5","","","","","","","","","","","","","","","","","","","","","","","","",""
"null","","html-keyboard-response","73","554727","0.0-71.0","A30HUZHJBOX1LK","<p style=""font-size: 48px;"">+</p>","","","","","null","allTrialResponses","1000","1","4","img_art/27.jpg","28","this feels like a nice fall day","Mason,Trevor,Corey,Jake,Evan,Bradley","dont like it, don't hate it, meh.,2,100,20","I like the orange but it's a little blah,1,280,20","this is ugly and does nothing for me,-35,260,20","This looks like a poor copy of Cy Twombly's style.,-3,360,20","I am bothered by the green doodles,-20,140,20","Yikes. I think I made this in kindergarten.,-20,300,20","Mason","dont like it, don't hate it, meh.,2,100,20","Trevor","I like the orange but it's a little blah,1,280,20","Bradley","Yikes. I think I made this in kindergarten.,-20,300,20","4"
"15697","","survey-text","74","570427","0.0-72.0-0.0","A30HUZHJBOX1LK","","","","{""Q0"":""Looks like a skeleton at halloween""}","","","","","","","","","","","","","","","","","","","","","","",""
"2752.7000000029802","","image-slider-response","75","573183","0.0-73.0","A30HUZHJBOX1LK","","","","","-20","","","","","","","","","","","","","","","","","","","","","",""
"2762","","image-button-response","76","578185","0.0-74.0","A30HUZHJBOX1LK","img_art/25.jpg","0","","","","","","","","","","","","","","","","","","","","","","","","",""
"2469","","image-button-response","77","580657","0.0-75.0","A30HUZHJBOX1LK","img_art/25.jpg","3","","","","","","","","","","","","","","","","","","","","","","","","",""
"1167","","image-button-response","78","581828","0.0-76.0-0.0","A30HUZHJBOX1LK","img_art/25.jpg","4","","","","","","","","","","","","","","","","","","","","","","","","",""
"956","","image-button-response","79","582788","0.0-77.0-0.0","A30HUZHJBOX1LK","img_art/25.jpg","5","","","","","","","","","","","","","","","","","","","","","","","","",""
"null","","html-keyboard-response","80","583790","0.0-78.0","A30HUZHJBOX1LK","<p style=""font-size: 48px;"">+</p>","","","","","null","allTrialResponses","1000","1","5","img_art/25.jpg","-20","Looks like a skeleton at halloween","Mason,Trevor,Shane,Christopher,Derek,Bradley","death. childish nightmare.,-29,100,20","nice colors and it looks like a native work,32,280,20","I love the green and the figure is black but the green makes it pop,29,80,20","green is really cool, and the pieces in black fit together and are interesting,20,160,20","It's really neat and cool looking,20,360,20","This one just has a dark feeling to me.,-50,300,20","Christopher","green is really cool, and the pieces in black fit together and are interesting,20,160,20","Derek","It's really neat and cool looking,20,360,20","Bradley","This one just has a dark feeling to me.,-50,300,20","4"
"5114","","survey-text","81","588918","0.0-79.0-0.0","A30HUZHJBOX1LK","","","","{""Q0"":""sky""}","","","","","","","","","","","","","","","","","","","","","","",""
"7436","","survey-text","82","596356","0.0-80.0-0.0","A30HUZHJBOX1LK","","","","{""Q0"":""what the heck is it""}","","","","","","","","","","","","","","","","","","","","","","",""
"2772.6000000089407","","image-slider-response","83","599131","0.0-81.0","A30HUZHJBOX1LK","","","","","-33","","","","","","","","","","","","","","","","","","","","","",""
"4553","","image-button-response","84","604138","0.0-82.0","A30HUZHJBOX1LK","img_art/5.jpg","3","","","","","","","","","","","","","","","","","","","","","","","","",""
"570","","image-button-response","85","604713","0.0-83.0","A30HUZHJBOX1LK","img_art/5.jpg","3","","","","","","","","","","","","","","","","","","","","","","","","",""
"2303","","image-button-response","86","607020","0.0-84.0-0.0","A30HUZHJBOX1LK","img_art/5.jpg","5","","","","","","","","","","","","","","","","","","","","","","","","",""
"1041","","image-button-response","87","608065","0.0-85.0-0.0","A30HUZHJBOX1LK","img_art/5.jpg","1","","","","","","","","","","","","","","","","","","","","","","","","",""
"null","","html-keyboard-response","88","608569","0.0-86.0","A30HUZHJBOX1LK","<p style=""font-size: 48px;"">+</p>","","","","","null","allTrialResponses","500","1","6","img_art/5.jpg","-33","what the heck is it","Adrian,Cody,Mark,Christopher,Derek,Bradley","Black bit reminds me of a giant splinter. Yellow bit reminds me of urine. I hate it.,-50,60,20","Kind of ugly ....,-21,180,20","Perfume bottle, reminds of fancy nights out.,11,80,20","looks very childish,-35,160,20","It's okay. Don't hate it but don't love it either,0,360,20","Looks like a tied up trash bag.,-10,300,20","Christopher","looks very childish,-35,160,20","Bradley","Looks like a tied up trash bag.,-10,300,20","Cody","Kind of ugly ....,-21,180,20","4"
"11712","","survey-text","89","620290","0.0-87.0-0.0","A30HUZHJBOX1LK","","","","{""Q0"":""I don't know what it is, very abstract""}","","","","","","","","","","","","","","","","","","","","","","",""
"2034.3999999910593","","image-slider-response","90","622326","0.0-88.0","A30HUZHJBOX1LK","","","","","-23","","","","","","","","","","","","","","","","","","","","","",""
"3412","","image-button-response","91","627331","0.0-89.0","A30HUZHJBOX1LK","img_art/1.jpg","3","","","","","","","","","","","","","","","","","","","","","","","","",""
"1319","","image-button-response","92","628654","0.0-90.0","A30HUZHJBOX1LK","img_art/1.jpg","4","","","","","","","","","","","","","","","","","","","","","","","","",""
"3608","","image-button-response","93","632267","0.0-91.0-0.0","A30HUZHJBOX1LK","img_art/1.jpg","3","","","","","","","","","","","","","","","","","","","","","","","","",""
"3340","","image-button-response","94","635612","0.0-92.0-0.0","A30HUZHJBOX1LK","img_art/1.jpg","5","","","","","","","","","","","","","","","","","","","","","","","","",""
"null","","html-keyboard-response","95","637117","0.0-93.0","A30HUZHJBOX1LK","<p style=""font-size: 48px;"">+</p>","","","","","null","allTrialResponses","1500","1","7","img_art/1.jpg","-23","I don't know what it is, very abstract","Dalton,Cody,Austin,Christopher,Kevin,Bradley","the colors are vibrant and beautiful,1,300,20","Pretty, nice use of color,40,180,20","Absolutely love this painting,50,240,20","it's boring despite all the colors,-2,160,20","I cant make anything of this one.,-7,320,20","This is a great piece that has a lot more going on the longer you look at it. I like it!,30,300,20","Kevin","I cant make anything of this one.,-7,320,20","Christopher","it's boring despite all the colors,-2,160,20","Bradley","This is a great piece that has a lot more going on the longer you look at it. I like it!,30,300,20","4"
"10659","","survey-text","96","647783","0.0-94.0-0.0","A30HUZHJBOX1LK","","","","{""Q0"":""This just looks like scribbles""}","","","","","","","","","","","","","","","","","","","","","","",""
"2734.7000000029802","","image-slider-response","97","650520","0.0-95.0","A30HUZHJBOX1LK","","","","","-29","","","","","","","","","","","","","","","","","","","","","",""
"null","","image-button-response","98","655525","0.0-96.0","A30HUZHJBOX1LK","img_art/3.jpg","null","","","","","","","","","","","","","","","","","","","","","","","","",""
"548","","image-button-response","99","656077","0.0-97.0","A30HUZHJBOX1LK","img_art/3.jpg","3","","","","","","","","","","","","","","","","","","","","","","","","",""
"1048","","image-button-response","100","657128","0.0-98.0-0.0","A30HUZHJBOX1LK","img_art/3.jpg","4","","","","","","","","","","","","","","","","","","","","","","","","",""
"1293","","image-button-response","101","658424","0.0-99.0-0.0","A30HUZHJBOX1LK","img_art/3.jpg","5","","","","","","","","","","","","","","","","","","","","","","","","",""
"null","","html-keyboard-response","102","658926","0.0-100.0","A30HUZHJBOX1LK","<p style=""font-size: 48px;"">+</p>","","","","","null","allTrialResponses","500","1","8","img_art/3.jpg","-29","This just looks like scribbles","Antonio,Kenneth,Scott,Christopher,Kevin,Bradley","The red makes me think of blood which makes me think of pain,-50,220,20","Reminds me of blood.,-28,300,20","I like that it's messy,14,20,20","the red is impactful but the work overall doesn't say anything to me,-8,160,20","That just looks like a mess..,-18,320,20","Marker gone wild?  Not sure what's going on here.,-21,300,20","Christopher","the red is impactful but the work overall doesn't say anything to me,-8,160,20","Kevin","That just looks like a mess..,-18,320,20","Bradley","Marker gone wild?  Not sure what's going on here.,-21,300,20","4"
"10750","","survey-text","103","669683","0.0-101.0-0.0","A30HUZHJBOX1LK","","","","{""Q0"":""I like the feel of this one""}","","","","","","","","","","","","","","","","","","","","","","",""
"3194.7999999970198","","image-slider-response","104","672880","0.0-102.0","A30HUZHJBOX1LK","","","","","24","","","","","","","","","","","","","","","","","","","","","",""
"3975","","image-button-response","105","677889","0.0-103.0","A30HUZHJBOX1LK","img_art/21.jpg","0","","","","","","","","","","","","","","","","","","","","","","","","",""
"549","","image-button-response","106","678441","0.0-104.0","A30HUZHJBOX1LK","img_art/21.jpg","0","","","","","","","","","","","","","","","","","","","","","","","","",""
"2883","","image-button-response","107","681328","0.0-105.0-0.0","A30HUZHJBOX1LK","img_art/21.jpg","2","","","","","","","","","","","","","","","","","","","","","","","","",""
"5434","","image-button-response","108","686765","0.0-106.0-0.0","A30HUZHJBOX1LK","img_art/21.jpg","3","","","","","","","","","","","","","","","","","","","","","","","","",""
"null","","html-keyboard-response","109","687268","0.0-107.0","A30HUZHJBOX1LK","<p style=""font-size: 48px;"">+</p>","","","","","null","allTrialResponses","500","1","9","img_art/21.jpg","24","I like the feel of this one","John,Jesse,Daniel,Christopher,Kevin,Bradley","I like the colors that were used and the stark contrast between the two sides,25,120,20","I dont like how nothing is defined and the colors dont work for me,-5,80,20","Nice asymmetry with maritime colors city meets the sea,34,320,20","I love the section of blues, the colors overall are really lovely,31,160,20","Another ship on fire.,-10,320,20","Indifferent toward this one.,6,300,20","John","I like the colors that were used and the stark contrast between the two sides,25,120,20","Daniel","Nice asymmetry with maritime colors city meets the sea,34,320,20","Christopher","I love the section of blues, the colors overall are really lovely,31,160,20","4"
"11255","","survey-text","110","698532","0.0-108.0-0.0","A30HUZHJBOX1LK","","","","{""Q0"":""This is calm and peaceful""}","","","","","","","","","","","","","","","","","","","","","","",""
"1932.5999999940395","","image-slider-response","111","700467","0.0-109.0","A30HUZHJBOX1LK","","","","","26","","","","","","","","","","","","","","","","","","","","","",""
"1984","","image-button-response","112","705471","0.0-110.0","A30HUZHJBOX1LK","img_art/26.jpg","0","","","","","","","","","","","","","","","","","","","","","","","","",""
"3394","","image-button-response","113","708868","0.0-111.0","A30HUZHJBOX1LK","img_art/26.jpg","5","","","","","","","","","","","","","","","","","","","","","","","","",""
"1216","","image-button-response","114","710086","0.0-112.0-0.0","A30HUZHJBOX1LK","img_art/26.jpg","0","","","","","","","","","","","","","","","","","","","","","","","","",""
"3133","","image-button-response","115","713223","0.0-113.0-0.0","A30HUZHJBOX1LK","img_art/26.jpg","2","","","","","","","","","","","","","","","","","","","","","","","","",""
"null","","html-keyboard-response","116","713725","0.0-114.0","A30HUZHJBOX1LK","<p style=""font-size: 48px;"">+</p>","","","","","null","allTrialResponses","500","1","10","img_art/26.jpg","26","This is calm and peaceful","John,Colton,Daniel,Christopher,Adam,Christian","Its pretty.And a nice use of water colors.,25,120,20","very impressionistic,11,220,20","Washed out suburban scene with childish tones.,-24,320,20","too hard to figure out if it's meant to be actual objects or impressions,-36,160,20","pretty colors, but sketch style isn't for me,10,40,20","love the ""lowkey"" vibrant colors that are colorful but at the same time greyscale,12,140,20","Christian","love the ""lowkey"" vibrant colors that are colorful but at the same time greyscale,12,140,20","John","Its pretty.And a nice use of water colors.,25,120,20","Daniel","Washed out suburban scene with childish tones.,-24,320,20","4"
"4019","","survey-text","117","717757","0.0-115.0-0.0","A30HUZHJBOX1LK","","","","{""Q0"":""our""}","","","","","","","","","","","","","","","","","","","","","","",""
"8361","","survey-text","118","726121","0.0-116.0-0.0","A30HUZHJBOX1LK","","","","{""Q0"":""nice abstract watercolor""}","","","","","","","","","","","","","","","","","","","","","","",""
"2959.8999999910593","","image-slider-response","119","729084","0.0-117.0","A30HUZHJBOX1LK","","","","","24","","","","","","","","","","","","","","","","","","","","","",""
"null","","image-button-response","120","734088","0.0-118.0","A30HUZHJBOX1LK","img_art/14.jpg","null","","","","","","","","","","","","","","","","","","","","","","","","",""
"2638","","image-button-response","121","736729","0.0-119.0","A30HUZHJBOX1LK","img_art/14.jpg","0","","","","","","","","","","","","","","","","","","","","","","","","",""
"7238","","image-button-response","122","743971","0.0-120.0-0.0","A30HUZHJBOX1LK","img_art/14.jpg","4","","","","","","","","","","","","","","","","","","","","","","","","",""
"2421","","image-button-response","123","746397","0.0-121.0-0.0","A30HUZHJBOX1LK","img_art/14.jpg","5","","","","","","","","","","","","","","","","","","","","","","","","",""
"null","","html-keyboard-response","124","747400","0.0-122.0","A30HUZHJBOX1LK","<p style=""font-size: 48px;"">+</p>","","","","","null","allTrialResponses","1000","1","11","img_art/14.jpg","24","nice abstract watercolor","John,Taylor,Daniel,Stephen,Shawn,Christian","Beautiful tree,the use of water colors makes it soothing to look at,37,120,20","Are they blowing up a tree?,-5,200,20","Baby's room palette with tree confusion in a more confused substrate.,-15,320,20","I'm a fan of the background.,13,140,20","Like the brushstrokes but not the composition,9,100,20","medium recalls back to an oriental style,16,140,20","John","Beautiful tree,the use of water colors makes it soothing to look at,37,120,20","Shawn","Like the brushstrokes but not the composition,9,100,20","Christian","medium recalls back to an oriental style,16,140,20","4"
"13533","","survey-text","125","760940","0.0-123.0-0.0","A30HUZHJBOX1LK","","","","{""Q0"":""Ok, I really like this one!""}","","","","","","","","","","","","","","","","","","","","","","",""
"1945.0999999940395","","image-slider-response","126","762891","0.0-124.0","A30HUZHJBOX1LK","","","","","46","","","","","","","","","","","","","","","","","","","","","",""
"null","","image-button-response","127","767894","0.0-125.0","A30HUZHJBOX1LK","img_art/18.jpg","null","","","","","","","","","","","","","","","","","","","","","","","","",""
"2767","","image-button-response","128","770664","0.0-126.0","A30HUZHJBOX1LK","img_art/18.jpg","3","","","","","","","","","","","","","","","","","","","","","","","","",""
"4055","","image-button-response","129","774722","0.0-127.0-0.0","A30HUZHJBOX1LK","img_art/18.jpg","5","","","","","","","","","","","","","","","","","","","","","","","","",""
"1251","","image-button-response","130","775977","0.0-128.0-0.0","A30HUZHJBOX1LK","img_art/18.jpg","2","","","","","","","","","","","","","","","","","","","","","","","","",""
"null","","html-keyboard-response","131","776980","0.0-129.0","A30HUZHJBOX1LK","<p style=""font-size: 48px;"">+</p>","","","","","null","allTrialResponses","1000","1","12","img_art/18.jpg","46","Ok, I really like this one!","John,Jesus,Alexis,Alexander,Shawn,Christian","There are alot of elements to this painting and a good mix of colors,32,120,20","The shapes are very fun to interpret,30,100,20","It's possibly of a mermaid luring in a ship,15,140,20","Ghostly sea adventure.,20,120,20","Evocative but cheesy.,-20,100,20","reminds me of the little prince, with the color scheme and all,16,140,20","Alexander","Ghostly sea adventure.,20,120,20","Christian","reminds me of the little prince, with the color scheme and all,16,140,20","Alexis","It's possibly of a mermaid luring in a ship,15,140,20","4"
"7041","","survey-text","132","784028","0.0-130.0-0.0","A30HUZHJBOX1LK","","","","{""Q0"":""This looks like a mars landing""}","","","","","","","","","","","","","","","","","","","","","","",""
"2672.7999999970198","","image-slider-response","133","786704","0.0-131.0","A30HUZHJBOX1LK","","","","","13","","","","","","","","","","","","","","","","","","","","","",""
"null","","image-button-response","134","791708","0.0-132.0","A30HUZHJBOX1LK","img_art/7.jpg","null","","","","","","","","","","","","","","","","","","","","","","","","",""
"1440","","image-button-response","135","793151","0.0-133.0","A30HUZHJBOX1LK","img_art/7.jpg","5","","","","","","","","","","","","","","","","","","","","","","","","",""
"1620","","image-button-response","136","794774","0.0-134.0-0.0","A30HUZHJBOX1LK","img_art/7.jpg","4","","","","","","","","","","","","","","","","","","","","","","","","",""
"2768","","image-button-response","137","797551","0.0-135.0-0.0","A30HUZHJBOX1LK","img_art/7.jpg","0","","","","","","","","","","","","","","","","","","","","","","","","",""
"null","","html-keyboard-response","138","798054","0.0-136.0","A30HUZHJBOX1LK","<p style=""font-size: 48px;"">+</p>","","","","","null","allTrialResponses","500","1","13","img_art/7.jpg","13","This looks like a mars landing","Samuel,Brandon,Alexis,Alexander,Cameron,Christian","looking down on earth,19,400,20","Looks like bad wallpaper,-29,320,20","it looks like an ant farm,12,140,20","Dead bugs on an insect battleground.,-10,120,20","tracks in dirt?,-15,60,20","would love to take a closer look at the texture,15,140,20","Christian","would love to take a closer look at the texture,15,140,20","Cameron","tracks in dirt?,-15,60,20","Samuel","looking down on earth,19,400,20","4"
"9008","","survey-text","139","807068","0.0-137.0-0.0","A30HUZHJBOX1LK","","","","{""Q0"":""a lone tree in a desert""}","","","","","","","","","","","","","","","","","","","","","","",""
"2999.9000000059605","","image-slider-response","140","810072","0.0-138.0","A30HUZHJBOX1LK","","","","","18","","","","","","","","","","","","","","","","","","","","","",""
"null","","image-button-response","141","815076","0.0-139.0","A30HUZHJBOX1LK","img_art/6.jpg","null","","","","","","","","","","","","","","","","","","","","","","","","",""
"3076","","image-button-response","142","818155","0.0-140.0","A30HUZHJBOX1LK","img_art/6.jpg","0","","","","","","","","","","","","","","","","","","","","","","","","",""
"5059","","image-button-response","143","823219","0.0-141.0-0.0","A30HUZHJBOX1LK","img_art/6.jpg","1","","","","","","","","","","","","","","","","","","","","","","","","",""
"5490","","image-button-response","144","828715","0.0-142.0-0.0","A30HUZHJBOX1LK","img_art/6.jpg","2","","","","","","","","","","","","","","","","","","","","","","","","",""
"null","","html-keyboard-response","145","829218","0.0-143.0","A30HUZHJBOX1LK","<p style=""font-size: 48px;"">+</p>","","","","","null","allTrialResponses","500","1","14","img_art/6.jpg","18","a lone tree in a desert","Samuel,Steven,Jeremy,Michael,Cameron,Christian","surviving the dryness of life,30,400,20","This is interesting, I feel solitude, and loneliness from this.,13,160,20","Kind of boring. I don't care for many abstracts,1,60,20","Looks like a kid created it.,-50,140,20","Kind of neat, but then that's a weird looking bird. too weird.,0,60,20","??????? fake floating leaf? headless bird,-28,140,20","Samuel","surviving the dryness of life,30,400,20","Steven","This is interesting, I feel solitude, and loneliness from this.,13,160,20","Jeremy","Kind of boring. I don't care for many abstracts,1,60,20","4"
"19417","","survey-text","146","848642","0.0-144.0-0.0","A30HUZHJBOX1LK","","","","{""Q0"":""This is a cool abstract, reminds me of city traffice""}","","","","","","","","","","","","","","","","","","","","","","",""
"2406.5","","image-slider-response","147","851052","0.0-145.0","A30HUZHJBOX1LK","","","","","21","","","","","","","","","","","","","","","","","","","","","",""
"null","","image-button-response","148","856056","0.0-146.0","A30HUZHJBOX1LK","img_art/11.jpg","null","","","","","","","","","","","","","","","","","","","","","","","","",""
"955","","image-button-response","149","857014","0.0-147.0","A30HUZHJBOX1LK","img_art/11.jpg","0","","","","","","","","","","","","","","","","","","","","","","","","",""
"4677","","image-button-response","150","861694","0.0-148.0-0.0","A30HUZHJBOX1LK","img_art/11.jpg","1","","","","","","","","","","","","","","","","","","","","","","","","",""
"5576","","image-button-response","151","867274","0.0-149.0-0.0","A30HUZHJBOX1LK","img_art/11.jpg","2","","","","","","","","","","","","","","","","","","","","","","","","",""
"null","","html-keyboard-response","152","867776","0.0-150.0","A30HUZHJBOX1LK","<p style=""font-size: 48px;"">+</p>","","","","","null","allTrialResponses","500","1","15","img_art/11.jpg","21","This is a cool abstract, reminds me of city traffice","Samuel,Steven,Jeremy,Grant,Angel,Brendan","business of traffic,10,400,20","Oh, I love this one, it says to me that life is very busy,50,160,20","gave me a sense of gloom,-21,60,20","This elicits no reaction in me.,0,200,20","This is disorienting, like motion sickness.,-20,180,20","i dont understand this painting,-1,340,20","Samuel","business of traffic,10,400,20","Steven","Oh, I love this one, it says to me that life is very busy,50,160,20","Jeremy","gave me a sense of gloom,-21,60,20","4"
"4918","","survey-text","153","872711","0.0-151.0-0.0","A30HUZHJBOX1LK","","","","{""Q0"":""course""}","","","","","","","","","","","","","","","","","","","","","","",""
"9555","","survey-text","154","882269","0.0-152.0-0.0","A30HUZHJBOX1LK","","","","{""Q0"":""Nice nature scene with waterfall""}","","","","","","","","","","","","","","","","","","","","","","",""
"3093.4000000059605","","image-slider-response","155","885367","0.0-153.0","A30HUZHJBOX1LK","","","","","23","","","","","","","","","","","","","","","","","","","","","",""
"null","","image-button-response","156","890375","0.0-154.0","A30HUZHJBOX1LK","img_art/24.jpg","null","","","","","","","","","","","","","","","","","","","","","","","","",""
"1964","","image-button-response","157","892343","0.0-155.0","A30HUZHJBOX1LK","img_art/24.jpg","0","","","","","","","","","","","","","","","","","","","","","","","","",""
"1020","","image-button-response","158","893365","0.0-156.0-0.0","A30HUZHJBOX1LK","img_art/24.jpg","1","","","","","","","","","","","","","","","","","","","","","","","","",""
"3920","","image-button-response","159","897288","0.0-157.0-0.0","A30HUZHJBOX1LK","img_art/24.jpg","3","","","","","","","","","","","","","","","","","","","","","","","","",""
"null","","html-keyboard-response","160","898290","0.0-158.0","A30HUZHJBOX1LK","<p style=""font-size: 48px;"">+</p>","","","","","null","allTrialResponses","1000","1","16","img_art/24.jpg","23","Nice nature scene with waterfall","Samuel,Steven,Jeremy,Zachary,Kyle,Jonathan","tranquility in the stream,34,400,20","It's beautiful! I love it! I see a waterfall, and they are my favorite things in the world,50,160,20","somewhat happy. I like the colors,38,60,20","Looks like a beautiful stream rolling through terrain of rocks and flowers.,43,400,20","This one is nice because it reminds me of nature,18,340,20","The colors and brush strokes make it feel adventurous,20,140,20","Samuel","tranquility in the stream,34,400,20","Steven","It's beautiful! I love it! I see a waterfall, and they are my favorite things in the world,50,160,20","Zachary","Looks like a beautiful stream rolling through terrain of rocks and flowers.,43,400,20","4"
"8098","","survey-text","161","906393","0.0-159.0-0.0","A30HUZHJBOX1LK","","","","{""Q0"":""this is weird, don't like.""}","","","","","","","","","","","","","","","","","","","","","","",""
"2618.9000000059605","","image-slider-response","162","909015","0.0-160.0","A30HUZHJBOX1LK","","","","","-38","","","","","","","","","","","","","","","","","","","","","",""
"null","","image-button-response","163","914020","0.0-161.0","A30HUZHJBOX1LK","img_art/16.jpg","null","","","","","","","","","","","","","","","","","","","","","","","","",""
"664","","image-button-response","164","914686","0.0-162.0","A30HUZHJBOX1LK","img_art/16.jpg","0","","","","","","","","","","","","","","","","","","","","","","","","",""
"3388","","image-button-response","165","918077","0.0-163.0-0.0","A30HUZHJBOX1LK","img_art/16.jpg","1","","","","","","","","","","","","","","","","","","","","","","","","",""
"1978","","image-button-response","166","920059","0.0-164.0-0.0","A30HUZHJBOX1LK","img_art/16.jpg","3","","","","","","","","","","","","","","","","","","","","","","","","",""
"null","","html-keyboard-response","167","921561","0.0-165.0","A30HUZHJBOX1LK","<p style=""font-size: 48px;"">+</p>","","","","","null","allTrialResponses","1500","1","17","img_art/16.jpg","-38","this is weird, don't like.","Samuel,Steven,Edward,Zachary,Nathaniel,Peter","childhood horror,3,400,20","Not interested at all,-15,160,20","It feels lazily done,-9,60,20","Not pleasing to the eyes. I do like that the gun is broken though.,-28,400,20","Creeps me out. Like..really creeps me out.,-48,220,20","It's a little unsettling,2,320,20","Samuel","childhood horror,3,400,20","Steven","Not interested at all,-15,160,20","Zachary","Not pleasing to the eyes. I do like that the gun is broken though.,-28,400,20","4"
"14740","","survey-text","168","936310","0.0-166.0-0.0","A30HUZHJBOX1LK","","","","{""Q0"":""feels lazy don't see anything in it""}","","","","","","","","","","","","","","","","","","","","","","",""
"2979.699999988079","","image-slider-response","169","939291","0.0-167.0","A30HUZHJBOX1LK","","","","","-35","","","","","","","","","","","","","","","","","","","","","",""
"null","","image-button-response","170","944296","0.0-168.0","A30HUZHJBOX1LK","img_art/30.jpg","null","","","","","","","","","","","","","","","","","","","","","","","","",""
"462","","image-button-response","171","944760","0.0-169.0","A30HUZHJBOX1LK","img_art/30.jpg","1","","","","","","","","","","","","","","","","","","","","","","","","",""
"3601","","image-button-response","172","948365","0.0-170.0-0.0","A30HUZHJBOX1LK","img_art/30.jpg","4","","","","","","","","","","","","","","","","","","","","","","","","",""
"932","","image-button-response","173","949302","0.0-171.0-0.0","A30HUZHJBOX1LK","img_art/30.jpg","3","","","","","","","","","","","","","","","","","","","","","","","","",""
"null","","html-keyboard-response","174","950804","0.0-172.0","A30HUZHJBOX1LK","<p style=""font-size: 48px;"">+</p>","","","","","null","allTrialResponses","1500","1","18","img_art/30.jpg","-35","feels lazy don't see anything in it","Samuel,Steven,Andrew,Zachary,Joshua,Charles","perceiving greatness,20,400,20","cant see the meaning behind it,-20,160,20","It's a really interesting piece,20,160,20","I like this one because I am a mom and it reminds me of a child finger-painting.,20,400,20","It's just all right.,5,240,20","looks like eels,-20,100,20","Steven","cant see the meaning behind it,-20,160,20","Joshua","It's just all right.,5,240,20","Zachary","I like this one because I am a mom and it reminds me of a child finger-painting.,20,400,20","4"
"11894","","survey-text","175","962708","0.0-173.0-0.0","A30HUZHJBOX1LK","","","","{""Q0"":""this feels like a man walking in winter""}","","","","","","","","","","","","","","","","","","","","","","",""
"2599.800000011921","","image-slider-response","176","965311","0.0-174.0","A30HUZHJBOX1LK","","","","","7","","","","","","","","","","","","","","","","","","","","","",""
"null","","image-button-response","177","970316","0.0-175.0","A30HUZHJBOX1LK","img_art/19.jpg","null","","","","","","","","","","","","","","","","","","","","","","","","",""
"531","","image-button-response","178","970851","0.0-176.0","A30HUZHJBOX1LK","img_art/19.jpg","1","","","","","","","","","","","","","","","","","","","","","","","","",""
"3647","","image-button-response","179","974502","0.0-177.0-0.0","A30HUZHJBOX1LK","img_art/19.jpg","5","","","","","","","","","","","","","","","","","","","","","","","","",""
"831","","image-button-response","180","975339","0.0-178.0-0.0","A30HUZHJBOX1LK","img_art/19.jpg","3","","","","","","","","","","","","","","","","","","","","","","","","",""
"null","","html-keyboard-response","181","976841","0.0-179.0","A30HUZHJBOX1LK","<p style=""font-size: 48px;"">+</p>","","","","","null","allTrialResponses","1500","1","19","img_art/19.jpg","7","this feels like a man walking in winter","Sean,Steven,Dustin,Zachary,Joshua,Alejandro","the picture gave me anxiety,-38,40,20","I like it, I see someone walking his dog in the early morning time,23,160,20","Too busy, makes me anxious and frustrated. Lots of movement in the brush strokes.,-9,20,20","Reminds me of a busy town. Chaotic in nature.,-11,400,20","Just don't like this one.,-9,240,20","It is an interesting piece but there are too many muted tones,22,80,20","Steven","I like it, I see someone walking his dog in the early morning time,23,160,20","Alejandro","It is an interesting piece but there are too many muted tones,22,80,20","Zachary","Reminds me of a busy town. Chaotic in nature.,-11,400,20","4"
"32550","","survey-text","182","1009396","0.0-180.0-0.0","A30HUZHJBOX1LK","","","","{""Q0"":""this looks like an abstract city scene""}","","","","","","","","","","","","","","","","","","","","","","",""
"2471.5","","image-slider-response","183","1011870","0.0-181.0","A30HUZHJBOX1LK","","","","","12","","","","","","","","","","","","","","","","","","","","","",""
"null","","image-button-response","184","1016874","0.0-182.0","A30HUZHJBOX1LK","img_art/22.jpg","null","","","","","","","","","","","","","","","","","","","","","","","","",""
"642","","image-button-response","185","1017518","0.0-183.0","A30HUZHJBOX1LK","img_art/22.jpg","3","","","","","","","","","","","","","","","","","","","","","","","","",""
"1724","","image-button-response","186","1019244","0.0-184.0-0.0","A30HUZHJBOX1LK","img_art/22.jpg","5","","","","","","","","","","","","","","","","","","","","","","","","",""
"604","","image-button-response","187","1019853","0.0-185.0-0.0","A30HUZHJBOX1LK","img_art/22.jpg","4","","","","","","","","","","","","","","","","","","","","","","","","",""
"null","","html-keyboard-response","188","1020356","0.0-186.0","A30HUZHJBOX1LK","<p style=""font-size: 48px;"">+</p>","","","","","null","allTrialResponses","500","1","20","img_art/22.jpg","12","this looks like an abstract city scene","Hunter,Steven,Lucas,Zachary,Chase,Alejandro","strong blending skills,7,240,20","not a fan of this, it's boring,1,160,20","Unfortunately, I can't see anything special in this painting.,-20,380,20","I like the vivid colors.,11,400,20","I feel like I've seen this one already.,-9,120,20","Beautiful use of chalk or pastels. Love the abstract nature.,35,80,20","Zachary","I like the vivid colors.,11,400,20","Alejandro","Beautiful use of chalk or pastels. Love the abstract nature.,35,80,20","Chase","I feel like I've seen this one already.,-9,120,20","4"
"3029","","survey-text","189","1023401","0.0-187.0-0.0","A30HUZHJBOX1LK","","","","{""Q0"":""we""}","","","","","","","","","","","","","","","","","","","","","","",""
"12540","","survey-text","190","1035944","0.0-188.0-0.0","A30HUZHJBOX1LK","","","","{""Q0"":""Not a fan of this one""}","","","","","","","","","","","","","","","","","","","","","","",""
"3148.2999999970198","","image-slider-response","191","1039101","0.0-189.0","A30HUZHJBOX1LK","","","","","-32","","","","","","","","","","","","","","","","","","","","","",""
"null","","image-button-response","192","1044104","0.0-190.0","A30HUZHJBOX1LK","img_art/2.jpg","null","","","","","","","","","","","","","","","","","","","","","","","","",""
"471","","image-button-response","193","1044578","0.0-191.0","A30HUZHJBOX1LK","img_art/2.jpg","0","","","","","","","","","","","","","","","","","","","","","","","","",""
"2275","","image-button-response","194","1046857","0.0-192.0-0.0","A30HUZHJBOX1LK","img_art/2.jpg","3","","","","","","","","","","","","","","","","","","","","","","","","",""
"1806","","image-button-response","195","1048667","0.0-193.0-0.0","A30HUZHJBOX1LK","img_art/2.jpg","5","","","","","","","","","","","","","","","","","","","","","","","","",""
"null","","html-keyboard-response","196","1050170","0.0-194.0","A30HUZHJBOX1LK","<p style=""font-size: 48px;"">+</p>","","","","","null","allTrialResponses","1500","1","21","img_art/2.jpg","-32","Not a fan of this one","Travis,Jorge,Brian,Zachary,Chase,Alejandro","I didn't like this it looked like a kindergardner painted it and the green was out of place.,-46,260,20","Confused and disoriented,-33,180,20","I like how it looks like a cute smiling face,43,380,20","I am not a fan of the color story. I am confused by the piece and therefore do not like it.,-21,400,20","A bit ugly with the greens.,-20,120,20","Looks contrived and like someone tried to hard to make it abstract,-31,80,20","Travis","I didn't like this it looked like a kindergardner painted it and the green was out of place.,-46,260,20","Zachary","I am not a fan of the color story. I am confused by the piece and therefore do not like it.,-21,400,20","Alejandro","Looks contrived and like someone tried to hard to make it abstract,-31,80,20","4"
"14750","","survey-text","197","1064932","0.0-195.0-0.0","A30HUZHJBOX1LK","","","","{""Q0"":""I think I see a woman working at a sewing machine""}","","","","","","","","","","","","","","","","","","","","","","",""
"3014.699999988079","","image-slider-response","198","1067950","0.0-196.0","A30HUZHJBOX1LK","","","","","15","","","","","","","","","","","","","","","","","","","","","",""
"null","","image-button-response","199","1072955","0.0-197.0","A30HUZHJBOX1LK","img_art/28.jpg","null","","","","","","","","","","","","","","","","","","","","","","","","",""
"602","","image-button-response","200","1073561","0.0-198.0","A30HUZHJBOX1LK","img_art/28.jpg","4","","","","","","","","","","","","","","","","","","","","","","","","",""
"1112","","image-button-response","201","1074677","0.0-199.0-0.0","A30HUZHJBOX1LK","img_art/28.jpg","5","","","","","","","","","","","","","","","","","","","","","","","","",""
"6446","","image-button-response","202","1081127","0.0-200.0-0.0","A30HUZHJBOX1LK","img_art/28.jpg","3","","","","","","","","","","","","","","","","","","","","","","","","",""
"null","","html-keyboard-response","203","1081630","0.0-201.0","A30HUZHJBOX1LK","<p style=""font-size: 48px;"">+</p>","","","","","null","allTrialResponses","500","1","22","img_art/28.jpg","15","I think I see a woman working at a sewing machine","Travis,Justin,Patrick,Zachary,Dakota,Alejandro","Hate it...brown and drab,-37,260,20","I don't like the colors or the design.,-20,280,20","This swirly drawing i snot my type I get confused and dizzy,-20,280,20","Too muted and bland. I like my art to be vivid.,-11,400,20","musical, animated and happy with somber undertones,7,280,20","I like the flow and abstract nature of what seems to be humans,40,80,20","Dakota","musical, animated and happy with somber undertones,7,280,20","Alejandro","I like the flow and abstract nature of what seems to be humans,40,80,20","Zachary","Too muted and bland. I like my art to be vivid.,-11,400,20","4"
"15221","","survey-text","204","1096856","0.0-202.0-0.0","A30HUZHJBOX1LK","","","","{""Q0"":""Looks like a giant violin and the sea""}","","","","","","","","","","","","","","","","","","","","","","",""
"2055.7000000029802","","image-slider-response","205","1098920","0.0-203.0","A30HUZHJBOX1LK","","","","","10","","","","","","","","","","","","","","","","","","","","","",""
"null","","image-button-response","206","1103922","0.0-204.0","A30HUZHJBOX1LK","img_art/10.jpg","null","","","","","","","","","","","","","","","","","","","","","","","","",""
"1470","","image-button-response","207","1105395","0.0-205.0","A30HUZHJBOX1LK","img_art/10.jpg","1","","","","","","","","","","","","","","","","","","","","","","","","",""
"7058","","image-button-response","208","1112457","0.0-206.0-0.0","A30HUZHJBOX1LK","img_art/10.jpg","2","","","","","","","","","","","","","","","","","","","","","","","","",""
"2328","","image-button-response","209","1114790","0.0-207.0-0.0","A30HUZHJBOX1LK","img_art/10.jpg","3","","","","","","","","","","","","","","","","","","","","","","","","",""
"null","","html-keyboard-response","210","1115793","0.0-208.0","A30HUZHJBOX1LK","<p style=""font-size: 48px;"">+</p>","","","","","null","allTrialResponses","1000","1","23","img_art/10.jpg","10","Looks like a giant violin and the sea","Carlos,Nathan,Jacob,Zachary,Dakota,Alejandro","The colors and shapes are soothing but also disconcerting.,21,80,20","Seems very lovecraftian, which I love that style,25,200,20","I feel like this has a cool concept behind it.,11,340,20","Reminds me of a terrarium with cacti inside. It reminds me of home.,27,400,20","I feel a state of readiness without anxiety.,24,280,20","The contrast between the messy dots/dabs vs the straight affluent lines is unappealing,-20,80,20","Nathan","Seems very lovecraftian, which I love that style,25,200,20","Jacob","I feel like this has a cool concept behind it.,11,340,20","Zachary","Reminds me of a terrarium with cacti inside. It reminds me of home.,27,400,20","4"
"14592","","survey-text","211","1130394","0.0-209.0-0.0","A30HUZHJBOX1LK","","","","{""Q0"":""This is odd, I like the colors, feels watery""}","","","","","","","","","","","","","","","","","","","","","","",""
"2789","","image-slider-response","212","1133186","0.0-210.0","A30HUZHJBOX1LK","","","","","13","","","","","","","","","","","","","","","","","","","","","",""
"4690","","image-button-response","213","1138193","0.0-211.0","A30HUZHJBOX1LK","img_art/13.jpg","2","","","","","","","","","","","","","","","","","","","","","","","","",""
"655","","image-button-response","214","1138850","0.0-212.0","A30HUZHJBOX1LK","img_art/13.jpg","2","","","","","","","","","","","","","","","","","","","","","","","","",""
"2298","","image-button-response","215","1141152","0.0-213.0-0.0","A30HUZHJBOX1LK","img_art/13.jpg","4","","","","","","","","","","","","","","","","","","","","","","","","",""
"1238","","image-button-response","216","1142396","0.0-214.0-0.0","A30HUZHJBOX1LK","img_art/13.jpg","3","","","","","","","","","","","","","","","","","","","","","","","","",""
"null","","html-keyboard-response","217","1143399","0.0-215.0","A30HUZHJBOX1LK","<p style=""font-size: 48px;"">+</p>","","","","","null","allTrialResponses","1000","1","24","img_art/13.jpg","13","This is odd, I like the colors, feels watery","Jeffrey,Nathan,Jacob,Zachary,Gabriel,Ethan","Messy but organised, helps me to relax and observe,8,40,20","While it is a bit basic and doesn't speak to me much, I like the feeling it gives,40,200,20","The paint splatter idea is kind of overused but I like how it brings the piece together,16,340,20","Peaceful colors.,20,400,20","its like the ocean,24,160,20","I do not care for the colors in this art. it doesnt go well at all.,-15,120,20","Jacob","The paint splatter idea is kind of overused but I like how it brings the piece together,16,340,20","Gabriel","its like the ocean,24,160,20","Zachary","Peaceful colors.,20,400,20","4"
"8580","","survey-text","218","1151990","0.0-216.0-0.0","A30HUZHJBOX1LK","","","","{""Q0"":""Don't know what to make of this one""}","","","","","","","","","","","","","","","","","","","","","","",""
"1428.5999999940395","","image-slider-response","219","1153422","0.0-217.0","A30HUZHJBOX1LK","","","","","-31","","","","","","","","","","","","","","","","","","","","","",""
"null","","image-button-response","220","1158432","0.0-218.0","A30HUZHJBOX1LK","img_art/15.jpg","null","","","","","","","","","","","","","","","","","","","","","","","","",""
"455","","image-button-response","221","1158890","0.0-219.0","A30HUZHJBOX1LK","img_art/15.jpg","1","","","","","","","","","","","","","","","","","","","","","","","","",""
"4937","","image-button-response","222","1163830","0.0-220.0-0.0","A30HUZHJBOX1LK","img_art/15.jpg","2","","","","","","","","","","","","","","","","","","","","","","","","",""
"680","","image-button-response","223","1164516","0.0-221.0-0.0","A30HUZHJBOX1LK","img_art/15.jpg","0","","","","","","","","","","","","","","","","","","","","","","","","",""
"null","","html-keyboard-response","224","1165519","0.0-222.0","A30HUZHJBOX1LK","<p style=""font-size: 48px;"">+</p>","","","","","null","allTrialResponses","1000","1","25","img_art/15.jpg","-31","Don't know what to make of this one","William,Jared,Jacob,Zachary,Gabriel,Jack","makes me feel calm,40,380,20","i cant find somthing ilike about it,-31,400,20","I think it's trying to execute a cool idea, but unfortunately it doesn't appeal,5,340,20","Reminds me of blue birds in a tree at night. I love nature.,40,400,20","i kinda like this one but wouldnt buy it for myself,17,160,20","interesting technique. the blue is very pretty,18,320,20","Jared","i cant find somthing ilike about it,-31,400,20","Jacob","I think it's trying to execute a cool idea, but unfortunately it doesn't appeal,5,340,20","William","makes me feel calm,40,380,20","4"
"3486","","survey-text","225","1169025","0.0-223.0-0.0","A30HUZHJBOX1LK","","","","{""Q0"":""table""}","","","","","","","","","","","","","","","","","","","","","","",""
"11831","","survey-text","226","1180859","0.0-224.0-0.0","A30HUZHJBOX1LK","","","","{""Q0"":""car wreck? Don't like""}","","","","","","","","","","","","","","","","","","","","","","",""
"2299.300000011921","","image-slider-response","227","1183161","0.0-225.0","A30HUZHJBOX1LK","","","","","-28","","","","","","","","","","","","","","","","","","","","","",""
"4046","","image-button-response","228","1188165","0.0-226.0","A30HUZHJBOX1LK","img_art/20.jpg","3","","","","","","","","","","","","","","","","","","","","","","","","",""
"603","","image-button-response","229","1188771","0.0-227.0","A30HUZHJBOX1LK","img_art/20.jpg","3","","","","","","","","","","","","","","","","","","","","","","","","",""
"676","","image-button-response","230","1189450","0.0-228.0-0.0","A30HUZHJBOX1LK","img_art/20.jpg","4","","","","","","","","","","","","","","","","","","","","","","","","",""
"614","","image-button-response","231","1190067","0.0-229.0-0.0","A30HUZHJBOX1LK","img_art/20.jpg","5","","","","","","","","","","","","","","","","","","","","","","","","",""
"null","","html-keyboard-response","232","1190570","0.0-230.0","A30HUZHJBOX1LK","<p style=""font-size: 48px;"">+</p>","","","","","null","allTrialResponses","500","1","26","img_art/20.jpg","-28","car wreck? Don't like","William,Jared,Jacob,Jose,Miguel,Seth","like the colors and desert feel,7,380,20","i like the rounded edges,18,400,20","It looks painted really nicely.,5,340,20","More dark colors and blurry objects.,13,200,20","It's ok. Very abstract.,18,160,20","I'm not sure why this reminds me of surrealism. It might be the colors used.,16,60,20","Jose","More dark colors and blurry objects.,13,200,20","Miguel","It's ok. Very abstract.,18,160,20","Seth","I'm not sure why this reminds me of surrealism. It might be the colors used.,16,60,20","4"
"6538","","survey-text","233","1197120","0.0-231.0-0.0","A30HUZHJBOX1LK","","","","{""Q0"":""Looks asian""}","","","","","","","","","","","","","","","","","","","","","","",""
"2361.2000000029802","","image-slider-response","234","1199484","0.0-232.0","A30HUZHJBOX1LK","","","","","15","","","","","","","","","","","","","","","","","","","","","",""
"null","","image-button-response","235","1204489","0.0-233.0","A30HUZHJBOX1LK","img_art/17.jpg","null","","","","","","","","","","","","","","","","","","","","","","","","",""
"603","","image-button-response","236","1205097","0.0-234.0","A30HUZHJBOX1LK","img_art/17.jpg","4","","","","","","","","","","","","","","","","","","","","","","","","",""
"677","","image-button-response","237","1205780","0.0-235.0-0.0","A30HUZHJBOX1LK","img_art/17.jpg","3","","","","","","","","","","","","","","","","","","","","","","","","",""
"3631","","image-button-response","238","1209417","0.0-236.0-0.0","A30HUZHJBOX1LK","img_art/17.jpg","5","","","","","","","","","","","","","","","","","","","","","","","","",""
"null","","html-keyboard-response","239","1210920","0.0-237.0","A30HUZHJBOX1LK","<p style=""font-size: 48px;"">+</p>","","","","","null","allTrialResponses","1500","1","27","img_art/17.jpg","15","Looks asian","Caleb,Ryan,Benjamin,Jose,Miguel,Seth","Not even abstract to me, very clear meaning.,44,40,20","Feels supernatural and scary,-16,380,20","Don't really like pastels.,-10,260,20","Looks like a weird blurry heaven again! I dig,32,200,20","Looks awesome .,33,160,20","I really enjoyed this piece, it's a play on bringing the outside indoors.,32,60,20","Miguel","Looks awesome .,33,160,20","Jose","Looks like a weird blurry heaven again! I dig,32,200,20","Seth","I really enjoyed this piece, it's a play on bringing the outside indoors.,32,60,20","4"
"21344","","survey-text","240","1232275","0.0-238.0-0.0","A30HUZHJBOX1LK","","","","{""Q0"":""it's like a collection of scenes""}","","","","","","","","","","","","","","","","","","","","","","",""
"2679.2999999970198","","image-slider-response","241","1234958","0.0-239.0","A30HUZHJBOX1LK","","","","","14","","","","","","","","","","","","","","","","","","","","","",""
"null","","image-button-response","242","1239962","0.0-240.0","A30HUZHJBOX1LK","img_art/12.jpg","null","","","","","","","","","","","","","","","","","","","","","","","","",""
"2843","","image-button-response","243","1242808","0.0-241.0","A30HUZHJBOX1LK","img_art/12.jpg","3","","","","","","","","","","","","","","","","","","","","","","","","",""
"963","","image-button-response","244","1243776","0.0-242.0-0.0","A30HUZHJBOX1LK","img_art/12.jpg","5","","","","","","","","","","","","","","","","","","","","","","","","",""
"1827","","image-button-response","245","1245608","0.0-243.0-0.0","A30HUZHJBOX1LK","img_art/12.jpg","1","","","","","","","","","","","","","","","","","","","","","","","","",""
"null","","html-keyboard-response","246","1246110","0.0-244.0","A30HUZHJBOX1LK","<p style=""font-size: 48px;"">+</p>","","","","","null","allTrialResponses","500","1","28","img_art/12.jpg","14","it's like a collection of scenes","Noah,David,Anthony,Jose,Miguel,Seth","evokes the 80s, and not in a necessarily good way,-10,260,20","This doesn't invoke anything. Just a mosaic of random images.,0,340,20","This piece doesn't provoke any kind of reaction,0,200,20","Not sure why but this is my favorite. I'd put it on my wall,50,200,20","Good too basic.,18,160,20","This is beautiful. It looks like 1,000 different sunrises and sunsets.,44,60,20","Jose","Not sure why but this is my favorite. I'd put it on my wall,50,200,20","Seth","This is beautiful. It looks like 1,000 different sunrises and sunsets.,44,60,20","David","This doesn't invoke anything. Just a mosaic of random images.,0,340,20","4"
"11359","","survey-text","247","1257482","0.0-245.0-0.0","A30HUZHJBOX1LK","","","","{""Q0"":""this feels 60s physcodelic""}","","","","","","","","","","","","","","","","","","","","","","",""
"1869.3999999910593","","image-slider-response","248","1259354","0.0-246.0","A30HUZHJBOX1LK","","","","","15","","","","","","","","","","","","","","","","","","","","","",""
"3812","","image-button-response","249","1264358","0.0-247.0","A30HUZHJBOX1LK","img_art/23.jpg","1","","","","","","","","","","","","","","","","","","","","","","","","",""
"446","","image-button-response","250","1264808","0.0-248.0","A30HUZHJBOX1LK","img_art/23.jpg","1","","","","","","","","","","","","","","","","","","","","","","","","",""
"4592","","image-button-response","251","1269404","0.0-249.0-0.0","A30HUZHJBOX1LK","img_art/23.jpg","4","","","","","","","","","","","","","","","","","","","","","","","","",""
"641","","image-button-response","252","1270049","0.0-250.0-0.0","A30HUZHJBOX1LK","img_art/23.jpg","5","","","","","","","","","","","","","","","","","","","","","","","","",""
"null","","html-keyboard-response","253","1271051","0.0-251.0","A30HUZHJBOX1LK","<p style=""font-size: 48px;"">+</p>","","","","","null","allTrialResponses","1000","1","29","img_art/23.jpg","15","this feels 60s physcodelic","Jason,David,Timothy,Jose,Garrett,Seth","Interesting contrast,9,20,20","I like the symmetrical design and how it portrays the liveliness of a musical environment.,30,340,20","This feels so energized, i love it,50,240,20","This one is awesome, kinda looks like a cake with sprinkles but in a different universe,50,200,20","I really like the way all the colors look, I think this is a pretty picture.,40,180,20","I thought this art was exciting and it reminded me of dancing people.,12,60,20","David","I like the symmetrical design and how it portrays the liveliness of a musical environment.,30,340,20","Garrett","I really like the way all the colors look, I think this is a pretty picture.,40,180,20","Seth","I thought this art was exciting and it reminded me of dancing people.,12,60,20","4"
"5955","","survey-text","254","1277016","0.0-252.0-0.0","A30HUZHJBOX1LK","","","","{""Q0"":""Don't like""}","","","","","","","","","","","","","","","","","","","","","","",""
"2579","","image-slider-response","255","1279605","0.0-253.0","A30HUZHJBOX1LK","","","","","-33","","","","","","","","","","","","","","","","","","","","","",""
"null","","image-button-response","256","1284612","0.0-254.0","A30HUZHJBOX1LK","img_art/4.jpg","null","","","","","","","","","","","","","","","","","","","","","","","","",""
"676","","image-button-response","257","1285291","0.0-255.0","A30HUZHJBOX1LK","img_art/4.jpg","4","","","","","","","","","","","","","","","","","","","","","","","","",""
"2869","","image-button-response","258","1288163","0.0-256.0-0.0","A30HUZHJBOX1LK","img_art/4.jpg","2","","","","","","","","","","","","","","","","","","","","","","","","",""
"891","","image-button-response","259","1289058","0.0-257.0-0.0","A30HUZHJBOX1LK","img_art/4.jpg","1","","","","","","","","","","","","","","","","","","","","","","","","",""
"null","","html-keyboard-response","260","1289561","0.0-258.0","A30HUZHJBOX1LK","<p style=""font-size: 48px;"">+</p>","","","","","null","allTrialResponses","500","1","30","img_art/4.jpg","-33","Don't like","Eric,David,Malik,Luke,Garrett,Seth","This piece catches my eye, but it's strange to me.,10,100,20","I like the design. It can be interpreted in various ways, such as a hand of horror or still piece.,15,340,20","Reminds me of late night frustrated paintings of my own made of coffee,12,40,20","it looks like a simple finger painting, yet i liked the color choices,-12,20,20","I think that this picture is too boring in terms of color and it looks ugly.,-41,180,20","Odd but intriguing. I feel emotion from this. Like a woman bent over carrying these emotions on her back.,33,60,20","Garrett","I think that this picture is too boring in terms of color and it looks ugly.,-41,180,20","Malik","Reminds me of late night frustrated paintings of my own made of coffee,12,40,20","David","I like the design. It can be interpreted in various ways, such as a hand of horror or still piece.,15,340,20","4"
"2038","","image-button-response_instructions","261","1291610","0.0-259.0","A30HUZHJBOX1LK","","0","instructions","","","","","","","","","","","","","","","","","","","","","","","",""
"886","","image-button-response","262","1292506","0.0-260.0","A30HUZHJBOX1LK","","0","","","","","","","","","","","","","","","","","","","","","","","","",""
