"rt","url","trial_type","trial_index","time_elapsed","internal_node_id","participant_id","stimulus","button_pressed","Name","responses","response","key_press","variableName","fixationTime","condition","trial","photo","subjectRating","subjectResponse","agentsNames","agent_1_Response","agent_2_Response","agent_3_Response","agent_4_Response","agent_5_Response","agent_6_Response","kept_1_name","kept_1_response","kept_2_name","kept_2_response","kept_3_name","kept_3_response","errorCounter"
"4952","external_page_harvard.html","external-html","0","5094","0.0-0.0","A33Z6BHAJUGCHY","","","","","","","","","","","","","","","","","","","","","","","","","","",""
"1872","","image-button-response","1","6977","0.0-1.0","A33Z6BHAJUGCHY","","0","","","","","","","","","","","","","","","","","","","","","","","","",""
"2450","","image-button-response","2","9450","0.0-2.0-0.0","A33Z6BHAJUGCHY","","1","phone","","","","","","","","","","","","","","","","","","","","","","","",""
"7403","","survey-text","3","16865","0.0-3.0-0.0","A33Z6BHAJUGCHY","","","","{""Q0"":""A33Z6BHAJUGCHY""}","","","","","","","","","","","","","","","","","","","","","","",""
"3255","","image-button-response_instructions","4","20132","0.0-4.0","A33Z6BHAJUGCHY","","0","instructions","","","","","","","","","","","","","","","","","","","","","","","",""
"6910","","image-button-response_instructions","5","27049","0.0-5.0","A33Z6BHAJUGCHY","img_art/ins/popularity/ins1.png","0","instructions","","","","","","","","","","","","","","","","","","","","","","","",""
"3202","","image-button-response_instructions","6","30259","0.0-6.0","A33Z6BHAJUGCHY","img_art/ins/popularity/ins2.png","0","instructions","","","","","","","","","","","","","","","","","","","","","","","",""
"3885","","image-button-response_instructions","7","34156","0.0-7.0","A33Z6BHAJUGCHY","img_art/ins/popularity/ins2Extreme.png","0","instructions","","","","","","","","","","","","","","","","","","","","","","","",""
"9630","","image-button-response_instructions","8","43795","0.0-8.0","A33Z6BHAJUGCHY","img_art/ins/popularity/ins3KEEPpop.PNG","0","instructions","","","","","","","","","","","","","","","","","","","","","","","",""
"2564","","image-button-response_instructions","9","46367","0.0-9.0","A33Z6BHAJUGCHY","img_art/ins/popularity/ins3ANamepop.PNG","0","instructions","","","","","","","","","","","","","","","","","","","","","","","",""
"2111","","image-button-response_instructions","10","48487","0.0-10.0","A33Z6BHAJUGCHY","img_art/ins/popularity/ins3ARatingpop.png","0","instructions","","","","","","","","","","","","","","","","","","","","","","","",""
"2757","","image-button-response_instructions","11","51254","0.0-11.0","A33Z6BHAJUGCHY","img_art/ins/popularity/ins3ATextpop.png","0","instructions","","","","","","","","","","","","","","","","","","","","","","","",""
"3149","","image-button-response_instructions","12","54410","0.0-12.0","A33Z6BHAJUGCHY","img_art/ins/popularity/ins3ALikespop.png","0","instructions","","","","","","","","","","","","","","","","","","","","","","","",""
"8647","","image-button-response_instructions","13","63066","0.0-13.0","A33Z6BHAJUGCHY","img_art/ins/popularity/ins3KEEPpop.PNG","0","instructions","","","","","","","","","","","","","","","","","","","","","","","",""
"6797","","image-button-response_instructions","14","69869","0.0-14.0","A33Z6BHAJUGCHY","img_art/ins/popularity/ins3_5RED.png","0","instructions","","","","","","","","","","","","","","","","","","","","","","","",""
"2940","","image-button-response_instructions","15","72814","0.0-15.0","A33Z6BHAJUGCHY","img_art/ins/popularity/ins3KEEPpop.PNG","0","instructions","","","","","","","","","","","","","","","","","","","","","","","",""
"11142","","image-button-response_instructions","16","83964","0.0-16.0","A33Z6BHAJUGCHY","img_art/ins/popularity/ins4KEEPpop.PNG","0","instructions","","","","","","","","","","","","","","","","","","","","","","","",""
"2508","","image-button-response_instructions","17","86480","0.0-17.0","A33Z6BHAJUGCHY","img_art/ins/popularity/ins5KEEPpop.PNG","0","instructions","","","","","","","","","","","","","","","","","","","","","","","",""
"1765","","image-button-response_instructions","18","88253","0.0-18.0","A33Z6BHAJUGCHY","","0","instructions","","","","","","","","","","","","","","","","","","","","","","","",""
"5895","","survey-text","19","94249","0.0-19.0-0.0","A33Z6BHAJUGCHY","","","","{""Q0"":""but""}","","","","","","","","","","","","","","","","","","","","","","",""
"6175","","survey-text","20","100436","0.0-20.0-0.0","A33Z6BHAJUGCHY","","","","{""Q0"":""it is messy""}","","","","","","","","","","","","","","","","","","","","","","",""
"3965.400000035763","","image-slider-response","21","104412","0.0-21.0","A33Z6BHAJUGCHY","","","","","-12","","","","","","","","","","","","","","","","","","","","","",""
"null","","image-button-response","22","109429","0.0-22.0","A33Z6BHAJUGCHY","img_art/ins/1.jpg","null","","","","","","","","","","","","","","","","","","","","","","","","",""
"2032","","image-button-response","23","111474","0.0-23.0","A33Z6BHAJUGCHY","img_art/ins/1.jpg","4","","","","","","","","","","","","","","","","","","","","","","","","",""
"1342","","image-button-response","24","112826","0.0-24.0-0.0","A33Z6BHAJUGCHY","img_art/ins/1.jpg","5","","","","","","","","","","","","","","","","","","","","","","","","",""
"2061","","image-button-response","25","114904","0.0-25.0-0.0","A33Z6BHAJUGCHY","img_art/ins/1.jpg","0","","","","","","","","","","","","","","","","","","","","","","","","",""
"null","","html-keyboard-response","26","115412","0.0-26.0","A33Z6BHAJUGCHY","<p style=""font-size: 48px;"">+</p>","","","","","null","allTrialResponses","500","1","-2","img_art/ins/1.jpg","-12","it is messy","Adam,Alex,Ben,Carl,Daniel,Jack","Seems like doodles,-20,20,20","very creative work.,36,40,20","This color reminds me of poo,-46,60,20","very calming artwork,42,80,20","It looks like a murder scene.,-48,100,20","I like the sophisticated brushwork,40,120,20","Daniel","It looks like a murder scene.,-48,100,20","Jack","I like the sophisticated brushwork,40,120,20","Adam","Seems like doodles,-20,20,20","0"
"6743","","survey-text","27","122175","0.0-27.0-0.0","A33Z6BHAJUGCHY","","","","{""Q0"":""I like the texture""}","","","","","","","","","","","","","","","","","","","","","","",""
"3083.300000011921","","image-slider-response","28","125270","0.0-28.0","A33Z6BHAJUGCHY","","","","","25","","","","","","","","","","","","","","","","","","","","","",""
"null","","image-button-response","29","130283","0.0-29.0","A33Z6BHAJUGCHY","img_art/ins/2.jpg","null","","","","","","","","","","","","","","","","","","","","","","","","",""
"371","","image-button-response","30","130664","0.0-30.0","A33Z6BHAJUGCHY","img_art/ins/2.jpg","1","","","","","","","","","","","","","","","","","","","","","","","","",""
"1757","","image-button-response","31","132440","0.0-31.0-0.0","A33Z6BHAJUGCHY","img_art/ins/2.jpg","5","","","","","","","","","","","","","","","","","","","","","","","","",""
"1621","","image-button-response","32","134074","0.0-32.0-0.0","A33Z6BHAJUGCHY","img_art/ins/2.jpg","0","","","","","","","","","","","","","","","","","","","","","","","","",""
"null","","html-keyboard-response","33","135580","0.0-33.0","A33Z6BHAJUGCHY","<p style=""font-size: 48px;"">+</p>","","","","","null","allTrialResponses","1500","1","-1","img_art/ins/2.jpg","25","I like the texture","Adam,John,Kyle,James,Daniel,Jack","too much color,-18,20,20","love the texture of paint,48,160,20","Idk, it is just annoying,-32,180,20","looks too angry,-50,140,20","One of my pet peevs,-48,100,20","I would never be able to compose a sophisticated pallete like this,48,120,20","John","love the texture of paint,48,160,20","Jack","I would never be able to compose a sophisticated pallete like this,48,120,20","Adam","too much color,-18,20,20","0"
"12896","","survey-text","34","148495","0.0-34.0-0.0","A33Z6BHAJUGCHY","","","","{""Q0"":""looks like Japanese symbols""}","","","","","","","","","","","","","","","","","","","","","","",""
"3336","","image-slider-response","35","151839","0.0-35.0","A33Z6BHAJUGCHY","","","","","32","","","","","","","","","","","","","","","","","","","","","",""
"4017","","image-button-response","36","156850","0.0-36.0","A33Z6BHAJUGCHY","img_art/ins/3.jpg","3","","","","","","","","","","","","","","","","","","","","","","","","",""
"1915","","image-button-response","37","158775","0.0-37.0","A33Z6BHAJUGCHY","img_art/ins/3.jpg","2","","","","","","","","","","","","","","","","","","","","","","","","",""
"2036","","image-button-response","38","160825","0.0-38.0-0.0","A33Z6BHAJUGCHY","img_art/ins/3.jpg","3","","","","","","","","","","","","","","","","","","","","","","","","",""
"1526","","image-button-response","39","162364","0.0-39.0-0.0","A33Z6BHAJUGCHY","img_art/ins/3.jpg","1","","","","","","","","","","","","","","","","","","","","","","","","",""
"null","","html-keyboard-response","40","162869","0.0-40.0","A33Z6BHAJUGCHY","<p style=""font-size: 48px;"">+</p>","","","","","null","allTrialResponses","500","1","0","img_art/ins/3.jpg","32","looks like Japanese symbols","Adam,John,Sam,Mike,Ron,Jack","My daily routine, it's depressing,-20,20,20","I like the overlapping of brushes,41,160,20","I can feel a rainy day from this painting,18,240,20","enjoy the different shades of blue,22,200,20","It looks depressing,-26,220,20","I feel connected to the artist,40,120,20","Sam","I can feel a rainy day from this painting,18,240,20","Mike","enjoy the different shades of blue,22,200,20","John","I like the overlapping of brushes,41,160,20","0"
"4954","","image-button-response_instructions","41","167858","0.0-41.0","A33Z6BHAJUGCHY","","0","instructions","","","","","","","","","","","","","","","","","","","","","","","",""
"7754","","survey-likert","42","175625","0.0-42.0-0.0","A33Z6BHAJUGCHY","","","","{""Q0"":"""",""Q1"":0,""Q2"":1}","","","","","","","","","","","","","","","","","","","","","","",""
"3583","","survey-text","43","179248","0.0-43.0-0.0","A33Z6BHAJUGCHY","","","","{""Q0"":""rock""}","","","","","","","","","","","","","","","","","","","","","","",""
"17759","","survey-text","44","197017","0.0-44.0-0.0","A33Z6BHAJUGCHY","","","","{""Q0"":""looks like hieroglyphics ""}","","","","","","","","","","","","","","","","","","","","","","",""
"3257.600000023842","","image-slider-response","45","200284","0.0-45.0","A33Z6BHAJUGCHY","","","","","8","","","","","","","","","","","","","","","","","","","","","",""
"null","","image-button-response","46","205381","0.0-46.0","A33Z6BHAJUGCHY","img_art/25.jpg","null","","","","","","","","","","","","","","","","","","","","","","","","",""
"2345","","image-button-response","47","207736","0.0-47.0","A33Z6BHAJUGCHY","img_art/25.jpg","5","","","","","","","","","","","","","","","","","","","","","","","","",""
"3149","","image-button-response","48","210899","0.0-48.0-0.0","A33Z6BHAJUGCHY","img_art/25.jpg","3","","","","","","","","","","","","","","","","","","","","","","","","",""
"2029","","image-button-response","49","212943","0.0-49.0-0.0","A33Z6BHAJUGCHY","img_art/25.jpg","1","","","","","","","","","","","","","","","","","","","","","","","","",""
"null","","html-keyboard-response","50","213950","0.0-50.0","A33Z6BHAJUGCHY","<p style=""font-size: 48px;"">+</p>","","","","","null","allTrialResponses","1000","1","1","img_art/25.jpg","8","looks like hieroglyphics ","Tyler,John,Blake,Cody,David,Nathaniel","Meh. Hardly abstract, though.,-40,320,20","Dark silhouette against the murky background Illicites an ominous feeling. Don't really like it.,-20,120,20","ugly color and very sad old lady,-45,280,20","Like the colors and the figure,30,180,20","Depicts something negative, such as ritual. I'm not a fan.,-10,340,20","I love the background color and it's creepy...but cool.,30,220,20","Nathaniel","I love the background color and it's creepy...but cool.,30,220,20","Cody","Like the colors and the figure,30,180,20","John","Dark silhouette against the murky background Illicites an ominous feeling. Don't really like it.,-20,120,20","0"
"8385","","survey-text","51","222351","0.0-51.0-0.0","A33Z6BHAJUGCHY","","","","{""Q0"":""This piece is too busy and messy""}","","","","","","","","","","","","","","","","","","","","","","",""
"3029.599999964237","","image-slider-response","52","225393","0.0-52.0","A33Z6BHAJUGCHY","","","","","-33","","","","","","","","","","","","","","","","","","","","","",""
"1540","","image-button-response","53","230408","0.0-53.0","A33Z6BHAJUGCHY","img_art/29.jpg","0","","","","","","","","","","","","","","","","","","","","","","","","",""
"172","","image-button-response","54","230596","0.0-54.0","A33Z6BHAJUGCHY","img_art/29.jpg","0","","","","","","","","","","","","","","","","","","","","","","","","",""
"163","","image-button-response","55","230771","0.0-55.0-0.0","A33Z6BHAJUGCHY","img_art/29.jpg","0","","","","","","","","","","","","","","","","","","","","","","","","",""
"2061","","image-button-response","56","236280","0.0-55.1-0.1","A33Z6BHAJUGCHY","img_art/29.jpg","3","","","","","","","","","","","","","","","","","","","","","","","","",""
"1210","","image-button-response","57","237503","0.0-56.0-0.0","A33Z6BHAJUGCHY","img_art/29.jpg","0","","","","","","","","","","","","","","","","","","","","","","","","",""
"3231","","image-button-response","58","243440","0.0-56.1-0.1","A33Z6BHAJUGCHY","img_art/29.jpg","5","","","","","","","","","","","","","","","","","","","","","","","","",""
"null","","html-keyboard-response","59","243948","0.0-57.0","A33Z6BHAJUGCHY","<p style=""font-size: 48px;"">+</p>","","","","","null","allTrialResponses","500","1","2","img_art/29.jpg","-33","This piece is too busy and messy","Scott,John,Luis,Cody,Patrick,Nathaniel","feels random and not thoughtout,-37,20,20","Its interesting although doesnt illicit any strong emotions from me,10,120,20","I love the representation of a mess,50,400,20","Feels messy, stressful,-22,180,20","I don't like the black,-50,280,20","Giant messy blob. Looks like it tries to be edgy, but fails.,-40,220,20","Scott","feels random and not thoughtout,-37,20,20","Cody","Feels messy, stressful,-22,180,20","Nathaniel","Giant messy blob. Looks like it tries to be edgy, but fails.,-40,220,20","4"
"13200","","survey-text","60","257181","0.0-58.0-0.0","A33Z6BHAJUGCHY","","","","{""Q0"":""I don't like the contrast""}","","","","","","","","","","","","","","","","","","","","","","",""
"6152.300000011921","","image-slider-response","61","263343","0.0-59.0","A33Z6BHAJUGCHY","","","","","-26","","","","","","","","","","","","","","","","","","","","","",""
"1583","","image-button-response","62","268358","0.0-60.0","A33Z6BHAJUGCHY","img_art/16.jpg","0","","","","","","","","","","","","","","","","","","","","","","","","",""
"421","","image-button-response","63","268797","0.0-61.0","A33Z6BHAJUGCHY","img_art/16.jpg","3","","","","","","","","","","","","","","","","","","","","","","","","",""
"3056","","image-button-response","64","271866","0.0-62.0-0.0","A33Z6BHAJUGCHY","img_art/16.jpg","4","","","","","","","","","","","","","","","","","","","","","","","","",""
"1780","","image-button-response","65","273657","0.0-63.0-0.0","A33Z6BHAJUGCHY","img_art/16.jpg","0","","","","","","","","","","","","","","","","","","","","","","","","",""
"null","","html-keyboard-response","66","275164","0.0-64.0","A33Z6BHAJUGCHY","<p style=""font-size: 48px;"">+</p>","","","","","null","allTrialResponses","1500","1","3","img_art/16.jpg","-26","I don't like the contrast","Scott,Christopher,Cameron,Cody,Dustin,Nathaniel","feels chaotic and morbid,-39,20,20","i don't like the collage aspect,-25,160,20","Don't like teddy bears in art. I could draw that house.,-20,60,20","Kind of creepyyyyyy,-41,180,20","Upsetting and disturbing. Random bear and indistinguishable objects. None of it goes together. Too chaotic and random,-50,20,20","Creeps me out. Like..really creeps me out.,-48,220,20","Cody","Kind of creepyyyyyy,-41,180,20","Dustin","Upsetting and disturbing. Random bear and indistinguishable objects. None of it goes together. Too chaotic and random,-50,20,20","Scott","feels chaotic and morbid,-39,20,20","4"
"9853","","survey-text","67","285052","0.0-65.0-0.0","A33Z6BHAJUGCHY","","","","{""Q0"":""looks like rocks in a desert""}","","","","","","","","","","","","","","","","","","","","","","",""
"2427.699999988079","","image-slider-response","68","287491","0.0-66.0","A33Z6BHAJUGCHY","","","","","9","","","","","","","","","","","","","","","","","","","","","",""
"2220","","image-button-response","69","292512","0.0-67.0","A33Z6BHAJUGCHY","img_art/7.jpg","1","","","","","","","","","","","","","","","","","","","","","","","","",""
"1529","","image-button-response","70","294054","0.0-68.0","A33Z6BHAJUGCHY","img_art/7.jpg","1","","","","","","","","","","","","","","","","","","","","","","","","",""
"3633","","image-button-response","71","297704","0.0-69.0-0.0","A33Z6BHAJUGCHY","img_art/7.jpg","3","","","","","","","","","","","","","","","","","","","","","","","","",""
"1833","","image-button-response","72","299552","0.0-70.0-0.0","A33Z6BHAJUGCHY","img_art/7.jpg","5","","","","","","","","","","","","","","","","","","","","","","","","",""
"null","","html-keyboard-response","73","301062","0.0-71.0","A33Z6BHAJUGCHY","<p style=""font-size: 48px;"">+</p>","","","","","null","allTrialResponses","1500","1","4","img_art/7.jpg","9","looks like rocks in a desert","Scott,Kevin,Travis,Cody,Dustin,Jesse","I don't like the texture,-49,20,20","That a desert floor,16,320,20","Just neutral...looks like sand at the beach.,3,260,20","Cool, makes me think of archeology,15,180,20","I see dryness, which is sad. Dirt, sand, the dessert. Barren dry lifeless,-30,20,20","Makes me think of the beach which makes me happy,14,80,20","Kevin","That a desert floor,16,320,20","Cody","Cool, makes me think of archeology,15,180,20","Jesse","Makes me think of the beach which makes me happy,14,80,20","4"
"10225","","survey-text","74","311316","0.0-72.0-0.0","A33Z6BHAJUGCHY","","","","{""Q0"":""looks like a sky with clouds and sunset""}","","","","","","","","","","","","","","","","","","","","","","",""
"3198.300000011921","","image-slider-response","75","314524","0.0-73.0","A33Z6BHAJUGCHY","","","","","16","","","","","","","","","","","","","","","","","","","","","",""
"1275","","image-button-response","76","319539","0.0-74.0","A33Z6BHAJUGCHY","img_art/21.jpg","3","","","","","","","","","","","","","","","","","","","","","","","","",""
"233","","image-button-response","77","319782","0.0-75.0","A33Z6BHAJUGCHY","img_art/21.jpg","0","","","","","","","","","","","","","","","","","","","","","","","","",""
"4020","","image-button-response","78","323814","0.0-76.0-0.0","A33Z6BHAJUGCHY","img_art/21.jpg","4","","","","","","","","","","","","","","","","","","","","","","","","",""
"866","","image-button-response","79","324697","0.0-77.0-0.0","A33Z6BHAJUGCHY","img_art/21.jpg","3","","","","","","","","","","","","","","","","","","","","","","","","",""
"null","","html-keyboard-response","80","325701","0.0-78.0","A33Z6BHAJUGCHY","<p style=""font-size: 48px;"">+</p>","","","","","null","allTrialResponses","1000","1","5","img_art/21.jpg","16","looks like a sky with clouds and sunset","Jack,Kevin,Marcus,Cody,Derek,Jesse","beautiful. reminds me of a storm brewing over sea. i love the white dots.,45,320,20","Another ship on fire.,-10,320,20","I feel like I'm looking at two different paintings mashed together in the middle.,20,60,20","Pretty, good colors,30,180,20","I love the colors in this painting,30,360,20","I dont like how nothing is defined and the colors dont work for me,-5,80,20","Jack","beautiful. reminds me of a storm brewing over sea. i love the white dots.,45,320,20","Derek","I love the colors in this painting,30,360,20","Cody","Pretty, good colors,30,180,20","4"
"3257","","survey-text","81","328986","0.0-79.0-0.0","A33Z6BHAJUGCHY","","","","{""Q0"":""sky""}","","","","","","","","","","","","","","","","","","","","","","",""
"8075","","survey-text","82","337069","0.0-80.0-0.0","A33Z6BHAJUGCHY","","","","{""Q0"":""a bird sitting on sand""}","","","","","","","","","","","","","","","","","","","","","","",""
"3291.199999988079","","image-slider-response","83","340371","0.0-81.0","A33Z6BHAJUGCHY","","","","","14","","","","","","","","","","","","","","","","","","","","","",""
"null","","image-button-response","84","345383","0.0-82.0","A33Z6BHAJUGCHY","img_art/6.jpg","null","","","","","","","","","","","","","","","","","","","","","","","","",""
"3574","","image-button-response","85","348969","0.0-83.0","A33Z6BHAJUGCHY","img_art/6.jpg","2","","","","","","","","","","","","","","","","","","","","","","","","",""
"701","","image-button-response","86","349679","0.0-84.0-0.0","A33Z6BHAJUGCHY","img_art/6.jpg","1","","","","","","","","","","","","","","","","","","","","","","","","",""
"954","","image-button-response","87","350647","0.0-85.0-0.0","A33Z6BHAJUGCHY","img_art/6.jpg","3","","","","","","","","","","","","","","","","","","","","","","","","",""
"null","","html-keyboard-response","88","351152","0.0-86.0","A33Z6BHAJUGCHY","<p style=""font-size: 48px;"">+</p>","","","","","null","allTrialResponses","500","1","6","img_art/6.jpg","14","a bird sitting on sand","Jack,Andrew,Paul,Cody,Derek,Jonathan","I like the bottom half, but not the top,-7,320,20","Reminds me of my friend's bird,21,160,20","Maybe it's supposed to be a bird but it looks like a scary cloaked figure. it's just too simple and jarring,-23,300,20","Birds are cool but I don't love it,10,180,20","Too basic for me,-20,360,20","The colors and rough brush strokes make me nervous,-10,140,20","Paul","Maybe it's supposed to be a bird but it looks like a scary cloaked figure. it's just too simple and jarring,-23,300,20","Andrew","Reminds me of my friend's bird,21,160,20","Cody","Birds are cool but I don't love it,10,180,20","4"
"9262","","survey-text","89","360436","0.0-87.0-0.0","A33Z6BHAJUGCHY","","","","{""Q0"":""I see a skeleton riding a horse""}","","","","","","","","","","","","","","","","","","","","","","",""
"3013","","image-slider-response","90","363458","0.0-88.0","A33Z6BHAJUGCHY","","","","","5","","","","","","","","","","","","","","","","","","","","","",""
"null","","image-button-response","91","368642","0.0-89.0","A33Z6BHAJUGCHY","img_art/18.jpg","null","","","","","","","","","","","","","","","","","","","","","","","","",""
"4314","","image-button-response","92","372966","0.0-90.0","A33Z6BHAJUGCHY","img_art/18.jpg","1","","","","","","","","","","","","","","","","","","","","","","","","",""
"4267","","image-button-response","93","377244","0.0-91.0-0.0","A33Z6BHAJUGCHY","img_art/18.jpg","3","","","","","","","","","","","","","","","","","","","","","","","","",""
"2432","","image-button-response","94","379688","0.0-92.0-0.0","A33Z6BHAJUGCHY","img_art/18.jpg","0","","","","","","","","","","","","","","","","","","","","","","","","",""
"null","","html-keyboard-response","95","380196","0.0-93.0","A33Z6BHAJUGCHY","<p style=""font-size: 48px;"">+</p>","","","","","null","allTrialResponses","500","1","7","img_art/18.jpg","5","I see a skeleton riding a horse","Antonio,Andrew,Paul,Cody,Miguel,Jeffrey","I think of the ocean and a boat tossed about on the waves. In the upper left is a figure. It is pleasant,30,220,20","Another ominous painting,-10,160,20","It doesn't look like much, the colors are dark and it doesn't really make me feel anything.,-2,300,20","Vaguely creepy ........,-20,180,20","This looks amazing.,40,160,20","Makes me to look at it and investigate what it is about and what is going on,17,40,20","Andrew","Another ominous painting,-10,160,20","Cody","Vaguely creepy ........,-20,180,20","Antonio","I think of the ocean and a boat tossed about on the waves. In the upper left is a figure. It is pleasant,30,220,20","4"
"9482","","survey-text","96","389704","0.0-94.0-0.0","A33Z6BHAJUGCHY","","","","{""Q0"":""looks like a ship on water""}","","","","","","","","","","","","","","","","","","","","","","",""
"3742.399999976158","","image-slider-response","97","393458","0.0-95.0","A33Z6BHAJUGCHY","","","","","29","","","","","","","","","","","","","","","","","","","","","",""
"null","","image-button-response","98","398474","0.0-96.0","A33Z6BHAJUGCHY","img_art/10.jpg","null","","","","","","","","","","","","","","","","","","","","","","","","",""
"983","","image-button-response","99","399470","0.0-97.0","A33Z6BHAJUGCHY","img_art/10.jpg","0","","","","","","","","","","","","","","","","","","","","","","","","",""
"1647","","image-button-response","100","401131","0.0-98.0-0.0","A33Z6BHAJUGCHY","img_art/10.jpg","3","","","","","","","","","","","","","","","","","","","","","","","","",""
"869","","image-button-response","101","402012","0.0-99.0-0.0","A33Z6BHAJUGCHY","img_art/10.jpg","0","","","","","","","","","","","","","","","","","","","","","","","","",""
"1817","","image-button-response","102","406440","0.0-99.1-0.1","A33Z6BHAJUGCHY","img_art/10.jpg","1","","","","","","","","","","","","","","","","","","","","","","","","",""
"null","","html-keyboard-response","103","407948","0.0-100.0","A33Z6BHAJUGCHY","<p style=""font-size: 48px;"">+</p>","","","","","null","allTrialResponses","1500","1","8","img_art/10.jpg","29","looks like a ship on water","Antonio,Andrew,Carlos,Cody,Justin,Spencer","This painting made me think of a guitar which made me think of music which envoked happy feelings.,28,220,20","Makes me think of the exhilaration of a roller coaster,31,160,20","The colors and shapes are soothing but also disconcerting.,21,80,20","Feels musical .....,40,180,20","The design is dynamic and interesting.,14,280,20","Dark with no object, looks like experimentation, slightly like a storm on the ocean,-21,120,20","Antonio","This painting made me think of a guitar which made me think of music which envoked happy feelings.,28,220,20","Cody","Feels musical .....,40,180,20","Andrew","Makes me think of the exhilaration of a roller coaster,31,160,20","6"
"12138","","survey-text","104","420113","0.0-101.0-0.0","A33Z6BHAJUGCHY","","","","{""Q0"":""a path through a forest or a boardwalk""}","","","","","","","","","","","","","","","","","","","","","","",""
"3329.300000011921","","image-slider-response","105","423451","0.0-102.0","A33Z6BHAJUGCHY","","","","","31","","","","","","","","","","","","","","","","","","","","","",""
"null","","image-button-response","106","428463","0.0-103.0","A33Z6BHAJUGCHY","img_art/17.jpg","null","","","","","","","","","","","","","","","","","","","","","","","","",""
"511","","image-button-response","107","428987","0.0-104.0","A33Z6BHAJUGCHY","img_art/17.jpg","5","","","","","","","","","","","","","","","","","","","","","","","","",""
"851","","image-button-response","108","429848","0.0-105.0-0.0","A33Z6BHAJUGCHY","img_art/17.jpg","4","","","","","","","","","","","","","","","","","","","","","","","","",""
"1766","","image-button-response","109","431627","0.0-106.0-0.0","A33Z6BHAJUGCHY","img_art/17.jpg","3","","","","","","","","","","","","","","","","","","","","","","","","",""
"null","","html-keyboard-response","110","433133","0.0-107.0","A33Z6BHAJUGCHY","<p style=""font-size: 48px;"">+</p>","","","","","null","allTrialResponses","1500","1","9","img_art/17.jpg","31","a path through a forest or a boardwalk","Antonio,Andrew,Anthony,Cody,Kenneth,Robert","Beautiful colors. Made me feel soft and feminine,50,220,20","A very inspiring piece,41,160,20","Very elegant, this design reminds me of trees,31,200,20","Love the colors and the movement,46,180,20","I really like this, especially the tree.,23,300,20","The wispy trees caught my eye.,42,360,20","Robert","The wispy trees caught my eye.,42,360,20","Kenneth","I really like this, especially the tree.,23,300,20","Cody","Love the colors and the movement,46,180,20","6"
"10454","","survey-text","111","443602","0.0-108.0-0.0","A33Z6BHAJUGCHY","","","","{""Q0"":""looks like a group of people in space""}","","","","","","","","","","","","","","","","","","","","","","",""
"3565.699999988079","","image-slider-response","112","447177","0.0-109.0","A33Z6BHAJUGCHY","","","","","-9","","","","","","","","","","","","","","","","","","","","","",""
"null","","image-button-response","113","452188","0.0-110.0","A33Z6BHAJUGCHY","img_art/23.jpg","null","","","","","","","","","","","","","","","","","","","","","","","","",""
"3698","","image-button-response","114","455894","0.0-111.0","A33Z6BHAJUGCHY","img_art/23.jpg","1","","","","","","","","","","","","","","","","","","","","","","","","",""
"1626","","image-button-response","115","457529","0.0-112.0-0.0","A33Z6BHAJUGCHY","img_art/23.jpg","0","","","","","","","","","","","","","","","","","","","","","","","","",""
"1091","","image-button-response","116","458630","0.0-113.0-0.0","A33Z6BHAJUGCHY","img_art/23.jpg","2","","","","","","","","","","","","","","","","","","","","","","","","",""
"null","","html-keyboard-response","117","460637","0.0-114.0","A33Z6BHAJUGCHY","<p style=""font-size: 48px;"">+</p>","","","","","null","allTrialResponses","1500","1","10","img_art/23.jpg","-9","looks like a group of people in space","Dylan,Grant,Jorge,Cody,Kenneth,Robert","This is my favorite of them all. I love the colors.,41,40,20","It reminds me of being in a crowded place.,-10,200,20","puzzled with curiosity,31,180,20","Love the use of colors and light,50,180,20","Love this. I love the white, really pops with the colors surrounding it.,44,300,20","This makes me think of an orchestra playing a forth of july song,12,360,20","Grant","It reminds me of being in a crowded place.,-10,200,20","Dylan","This is my favorite of them all. I love the colors.,41,40,20","Jorge","puzzled with curiosity,31,180,20","6"
"4136","","survey-text","118","464824","0.0-115.0-0.0","A33Z6BHAJUGCHY","","","","{""Q0"":""our""}","","","","","","","","","","","","","","","","","","","","","","",""
"8170","","survey-text","119","473003","0.0-116.0-0.0","A33Z6BHAJUGCHY","","","","{""Q0"":""flowers on a backdrop""}","","","","","","","","","","","","","","","","","","","","","","",""
"2763.7000000476837","","image-slider-response","120","475776","0.0-117.0","A33Z6BHAJUGCHY","","","","","-8","","","","","","","","","","","","","","","","","","","","","",""
"4717","","image-button-response","121","480784","0.0-118.0","A33Z6BHAJUGCHY","img_art/15.jpg","1","","","","","","","","","","","","","","","","","","","","","","","","",""
"1048","","image-button-response","122","481841","0.0-119.0","A33Z6BHAJUGCHY","img_art/15.jpg","1","","","","","","","","","","","","","","","","","","","","","","","","",""
"4802","","image-button-response","123","486652","0.0-120.0-0.0","A33Z6BHAJUGCHY","img_art/15.jpg","5","","","","","","","","","","","","","","","","","","","","","","","","",""
"3754","","image-button-response","124","490423","0.0-121.0-0.0","A33Z6BHAJUGCHY","img_art/15.jpg","4","","","","","","","","","","","","","","","","","","","","","","","","",""
"null","","html-keyboard-response","125","491929","0.0-122.0","A33Z6BHAJUGCHY","<p style=""font-size: 48px;"">+</p>","","","","","null","allTrialResponses","1500","1","11","img_art/15.jpg","-8","flowers on a backdrop","Dylan,Grant,Jorge,Shane,Alexander,Jacob","This is sort of ugly, but I do like the design.,10,40,20","This elicits no reaction in me.,0,200,20","interested in this transformation,20,180,20","Too intense with the black dotting,-22,80,20","Leafs spread on the ground.,27,120,20","I think it's trying to execute a cool idea, but unfortunately it doesn't appeal,5,340,20","Grant","This elicits no reaction in me.,0,200,20","Jacob","I think it's trying to execute a cool idea, but unfortunately it doesn't appeal,5,340,20","Alexander","Leafs spread on the ground.,27,120,20","6"
"14783","","survey-text","126","506733","0.0-123.0-0.0","A33Z6BHAJUGCHY","","","","{""Q0"":""I like the contrasting sides""}","","","","","","","","","","","","","","","","","","","","","","",""
"3240.900000035763","","image-slider-response","127","509986","0.0-124.0","A33Z6BHAJUGCHY","","","","","21","","","","","","","","","","","","","","","","","","","","","",""
"null","","image-button-response","128","514999","0.0-125.0","A33Z6BHAJUGCHY","img_art/12.jpg","null","","","","","","","","","","","","","","","","","","","","","","","","",""
"411","","image-button-response","129","515430","0.0-126.0","A33Z6BHAJUGCHY","img_art/12.jpg","3","","","","","","","","","","","","","","","","","","","","","","","","",""
"2067","","image-button-response","130","517508","0.0-127.0-0.0","A33Z6BHAJUGCHY","img_art/12.jpg","2","","","","","","","","","","","","","","","","","","","","","","","","",""
"1938","","image-button-response","131","519463","0.0-128.0-0.0","A33Z6BHAJUGCHY","img_art/12.jpg","5","","","","","","","","","","","","","","","","","","","","","","","","",""
"null","","html-keyboard-response","132","520968","0.0-129.0","A33Z6BHAJUGCHY","<p style=""font-size: 48px;"">+</p>","","","","","null","allTrialResponses","1500","1","12","img_art/12.jpg","21","I like the contrasting sides","Juan,Grant,Ian,Alexis,Alexander,Jacob","This is too abstract and the colors are too worn out.,-23,260,20","This elicits no reaction in me.,0,200,20","This is like going to a really old mcdoanlds in a tiny town and it's never been renovated so it's breaking down,-31,260,20","In my opinion, this photo has an old school vibe,22,140,20","Ugly color combinations, no focus.,-25,120,20","I like this concept.,11,340,20","Alexis","In my opinion, this photo has an old school vibe,22,140,20","Ian","This is like going to a really old mcdoanlds in a tiny town and it's never been renovated so it's breaking down,-31,260,20","Jacob","I like this concept.,11,340,20","6"
"8420","","survey-text","133","529411","0.0-130.0-0.0","A33Z6BHAJUGCHY","","","","{""Q0"":""just looks like a schmear""}","","","","","","","","","","","","","","","","","","","","","","",""
"10368.5","","image-slider-response","134","539789","0.0-131.0","A33Z6BHAJUGCHY","","","","","-3","","","","","","","","","","","","","","","","","","","","","",""
"null","","image-button-response","135","544804","0.0-132.0","A33Z6BHAJUGCHY","img_art/4.jpg","null","","","","","","","","","","","","","","","","","","","","","","","","",""
"894","","image-button-response","136","545715","0.0-133.0","A33Z6BHAJUGCHY","img_art/4.jpg","5","","","","","","","","","","","","","","","","","","","","","","","","",""
"1055","","image-button-response","137","546781","0.0-134.0-0.0","A33Z6BHAJUGCHY","img_art/4.jpg","2","","","","","","","","","","","","","","","","","","","","","","","","",""
"6683","","image-button-response","138","553480","0.0-135.0-0.0","A33Z6BHAJUGCHY","img_art/4.jpg","0","","","","","","","","","","","","","","","","","","","","","","","","",""
"null","","html-keyboard-response","139","555637","0.0-136.0","A33Z6BHAJUGCHY","<p style=""font-size: 48px;"">+</p>","","","","","null","allTrialResponses","1500","1","13","img_art/4.jpg","-3","just looks like a schmear","Colton,Seth,Ian,Alexis,Lucas,Jacob","I really don't like the colors,-26,220,20","Odd but intriguing. I feel emotion from this. Like a woman bent over carrying these emotions on her back.,33,60,20","I just don't understand this one at all, I do not like it,-43,260,20","The bold colors are exciting. It looks like a statue on someone's mantle.,18,140,20","Not bad at all.,20,380,20","Looks like they just smothered on some paint and called it a day.,-17,340,20","Jacob","Looks like they just smothered on some paint and called it a day.,-17,340,20","Ian","I just don't understand this one at all, I do not like it,-43,260,20","Colton","I really don't like the colors,-26,220,20","6"
"8344","","survey-text","140","564005","0.0-137.0-0.0","A33Z6BHAJUGCHY","","","","{""Q0"":""too jumbled for me""}","","","","","","","","","","","","","","","","","","","","","","",""
"2932.800000011921","","image-slider-response","141","566944","0.0-138.0","A33Z6BHAJUGCHY","","","","","-32","","","","","","","","","","","","","","","","","","","","","",""
"null","","image-button-response","142","571953","0.0-139.0","A33Z6BHAJUGCHY","img_art/28.jpg","null","","","","","","","","","","","","","","","","","","","","","","","","",""
"3564","","image-button-response","143","575532","0.0-140.0","A33Z6BHAJUGCHY","img_art/28.jpg","3","","","","","","","","","","","","","","","","","","","","","","","","",""
"939","","image-button-response","144","576485","0.0-141.0-0.0","A33Z6BHAJUGCHY","img_art/28.jpg","5","","","","","","","","","","","","","","","","","","","","","","","","",""
"2030","","image-button-response","145","578528","0.0-142.0-0.0","A33Z6BHAJUGCHY","img_art/28.jpg","0","","","","","","","","","","","","","","","","","","","","","","","","",""
"null","","html-keyboard-response","146","579034","0.0-143.0","A33Z6BHAJUGCHY","<p style=""font-size: 48px;"">+</p>","","","","","null","allTrialResponses","500","1","14","img_art/28.jpg","-32","too jumbled for me","Colton,Elijah,Ian,Austin,Brandon,Jacob","not a fan of the colors or strokes used,-27,220,20","The colors are depressing,-5,80,20","This one looks very dark and seems like it has a lot of depth to it.,31,260,20","Not really exciting,23,240,20","Interesting. I like the ""old woman"" on the left. Lots of different entities to look at,21,320,20","I can't tell what's going on but it looks a little bit more lively at least,7,340,20","Austin","Not really exciting,23,240,20","Jacob","I can't tell what's going on but it looks a little bit more lively at least,7,340,20","Colton","not a fan of the colors or strokes used,-27,220,20","6"
"10780","","survey-text","147","589836","0.0-144.0-0.0","A33Z6BHAJUGCHY","","","","{""Q0"":""I like the colors but don't get the design""}","","","","","","","","","","","","","","","","","","","","","","",""
"3616.899999976158","","image-slider-response","148","593462","0.0-145.0","A33Z6BHAJUGCHY","","","","","6","","","","","","","","","","","","","","","","","","","","","",""
"null","","image-button-response","149","598474","0.0-146.0","A33Z6BHAJUGCHY","img_art/22.jpg","null","","","","","","","","","","","","","","","","","","","","","","","","",""
"1421","","image-button-response","150","599906","0.0-147.0","A33Z6BHAJUGCHY","img_art/22.jpg","0","","","","","","","","","","","","","","","","","","","","","","","","",""
"1035","","image-button-response","151","600953","0.0-148.0-0.0","A33Z6BHAJUGCHY","img_art/22.jpg","5","","","","","","","","","","","","","","","","","","","","","","","","",""
"1988","","image-button-response","152","602954","0.0-149.0-0.0","A33Z6BHAJUGCHY","img_art/22.jpg","4","","","","","","","","","","","","","","","","","","","","","","","","",""
"null","","html-keyboard-response","153","603459","0.0-150.0","A33Z6BHAJUGCHY","<p style=""font-size: 48px;"">+</p>","","","","","null","allTrialResponses","500","1","15","img_art/22.jpg","6","I like the colors but don't get the design","Colton,Jesus,Mark,Austin,Dalton,Jacob","I enjoy the colors used,24,220,20","Different shapes within the image make it interesting to look at,20,100,20","I don't feel much of anything.,0,80,20","Great color palette,29,240,20","i think its pretty but im not sure what i see,1,300,20","I like the mixing of the primary colors.,8,340,20","Colton","I enjoy the colors used,24,220,20","Jacob","I like the mixing of the primary colors.,8,340,20","Dalton","i think its pretty but im not sure what i see,1,300,20","6"
"2998","","survey-text","154","606496","0.0-151.0-0.0","A33Z6BHAJUGCHY","","","","{""Q0"":""course""}","","","","","","","","","","","","","","","","","","","","","","",""
"7929","","survey-text","155","614437","0.0-152.0-0.0","A33Z6BHAJUGCHY","","","","{""Q0"":""I love the green lines""}","","","","","","","","","","","","","","","","","","","","","","",""
"3148.599999964237","","image-slider-response","156","617598","0.0-153.0","A33Z6BHAJUGCHY","","","","","25","","","","","","","","","","","","","","","","","","","","","",""
"null","","image-button-response","157","622610","0.0-154.0","A33Z6BHAJUGCHY","img_art/27.jpg","null","","","","","","","","","","","","","","","","","","","","","","","","",""
"471","","image-button-response","158","623098","0.0-155.0","A33Z6BHAJUGCHY","img_art/27.jpg","1","","","","","","","","","","","","","","","","","","","","","","","","",""
"4576","","image-button-response","159","627684","0.0-156.0-0.0","A33Z6BHAJUGCHY","img_art/27.jpg","2","","","","","","","","","","","","","","","","","","","","","","","","",""
"4686","","image-button-response","160","632386","0.0-157.0-0.0","A33Z6BHAJUGCHY","img_art/27.jpg","3","","","","","","","","","","","","","","","","","","","","","","","","",""
"null","","html-keyboard-response","161","633893","0.0-158.0","A33Z6BHAJUGCHY","<p style=""font-size: 48px;"">+</p>","","","","","null","allTrialResponses","1500","1","16","img_art/27.jpg","25","I love the green lines","Colton,Bryce,Tristan,Benjamin,Dalton,Jacob","looks like a little kid did it,-30,220,20","It kinda reminds me of sushi.,16,20,20","The colors provide a complexity to the nearly child-like sketches.,5,300,20","I like the colors.,6,260,20","looks like a garden in between two storms.,33,300,20","Don't get the point of this piece that much, but it doesn't bug me,1,340,20","Bryce","It kinda reminds me of sushi.,16,20,20","Tristan","The colors provide a complexity to the nearly child-like sketches.,5,300,20","Benjamin","I like the colors.,6,260,20","6"
"8412","","survey-text","162","642330","0.0-159.0-0.0","A33Z6BHAJUGCHY","","","","{""Q0"":""just looks like some scribbles""}","","","","","","","","","","","","","","","","","","","","","","",""
"2987.699999988079","","image-slider-response","163","645329","0.0-160.0","A33Z6BHAJUGCHY","","","","","-19","","","","","","","","","","","","","","","","","","","","","",""
"null","","image-button-response","164","650339","0.0-161.0","A33Z6BHAJUGCHY","img_art/9.jpg","null","","","","","","","","","","","","","","","","","","","","","","","","",""
"328","","image-button-response","165","650678","0.0-162.0","A33Z6BHAJUGCHY","img_art/9.jpg","1","","","","","","","","","","","","","","","","","","","","","","","","",""
"1650","","image-button-response","166","652344","0.0-163.0-0.0","A33Z6BHAJUGCHY","img_art/9.jpg","5","","","","","","","","","","","","","","","","","","","","","","","","",""
"2448","","image-button-response","167","654809","0.0-164.0-0.0","A33Z6BHAJUGCHY","img_art/9.jpg","2","","","","","","","","","","","","","","","","","","","","","","","","",""
"null","","html-keyboard-response","168","655314","0.0-165.0","A33Z6BHAJUGCHY","<p style=""font-size: 48px;"">+</p>","","","","","null","allTrialResponses","500","1","17","img_art/9.jpg","-19","just looks like some scribbles","Caleb,Bryce,Tristan,Benjamin,Richard,Timothy","Unfinished, weird composition.,-34,40,20","Looks like a crayon drawing.,21,20,20","The busyness and harsh nature of the lines in this painting  mute my emotional response.,-10,300,20","looks like sleeping beauty in a garden,10,260,20","looks like an imitation of a real piece of art, reclining lady,-1,340,20","A little too weird for me,-30,240,20","Bryce","Looks like a crayon drawing.,21,20,20","Timothy","A little too weird for me,-30,240,20","Tristan","The busyness and harsh nature of the lines in this painting  mute my emotional response.,-10,300,20","6"
"11598","","survey-text","169","666936","0.0-166.0-0.0","A33Z6BHAJUGCHY","","","","{""Q0"":""I feel like I see a building in the desert""}","","","","","","","","","","","","","","","","","","","","","","",""
"5818.300000011921","","image-slider-response","170","672766","0.0-167.0","A33Z6BHAJUGCHY","","","","","26","","","","","","","","","","","","","","","","","","","","","",""
"null","","image-button-response","171","677777","0.0-168.0","A33Z6BHAJUGCHY","img_art/20.jpg","null","","","","","","","","","","","","","","","","","","","","","","","","",""
"595","","image-button-response","172","678382","0.0-169.0","A33Z6BHAJUGCHY","img_art/20.jpg","0","","","","","","","","","","","","","","","","","","","","","","","","",""
"5674","","image-button-response","173","684071","0.0-170.0-0.0","A33Z6BHAJUGCHY","img_art/20.jpg","4","","","","","","","","","","","","","","","","","","","","","","","","",""
"2808","","image-button-response","174","686890","0.0-171.0-0.0","A33Z6BHAJUGCHY","img_art/20.jpg","2","","","","","","","","","","","","","","","","","","","","","","","","",""
"null","","html-keyboard-response","175","687897","0.0-172.0","A33Z6BHAJUGCHY","<p style=""font-size: 48px;"">+</p>","","","","","null","allTrialResponses","1000","1","18","img_art/20.jpg","26","I feel like I see a building in the desert","William,Bryce,Tristan,Chase,Brian,Timothy","like the colors and desert feel,7,380,20","Kinda freaks me out.,-40,20,20","Elements that are more defined are incongruous to the soft and melting nature of this painting,5,300,20","Looks like a refinery dumping shit into the water.,-40,120,20","The colors are nice, and the shapes conjure the decay of the city in the face of natural entropy,19,380,20","Makes me think if a car crash or some sort of disaster,-20,240,20","William","like the colors and desert feel,7,380,20","Brian","The colors are nice, and the shapes conjure the decay of the city in the face of natural entropy,19,380,20","Tristan","Elements that are more defined are incongruous to the soft and melting nature of this painting,5,300,20","6"
"7906","","survey-text","176","695823","0.0-173.0-0.0","A33Z6BHAJUGCHY","","","","{""Q0"":""I like the vague trees""}","","","","","","","","","","","","","","","","","","","","","","",""
"2966.399999976158","","image-slider-response","177","698798","0.0-174.0","A33Z6BHAJUGCHY","","","","","9","","","","","","","","","","","","","","","","","","","","","",""
"null","","image-button-response","178","703815","0.0-175.0","A33Z6BHAJUGCHY","img_art/26.jpg","null","","","","","","","","","","","","","","","","","","","","","","","","",""
"237","","image-button-response","179","704060","0.0-176.0","A33Z6BHAJUGCHY","img_art/26.jpg","1","","","","","","","","","","","","","","","","","","","","","","","","",""
"2061","","image-button-response","180","706134","0.0-177.0-0.0","A33Z6BHAJUGCHY","img_art/26.jpg","3","","","","","","","","","","","","","","","","","","","","","","","","",""
"4228","","image-button-response","181","710378","0.0-178.0-0.0","A33Z6BHAJUGCHY","img_art/26.jpg","5","","","","","","","","","","","","","","","","","","","","","","","","",""
"null","","html-keyboard-response","182","711385","0.0-179.0","A33Z6BHAJUGCHY","<p style=""font-size: 48px;"">+</p>","","","","","null","allTrialResponses","1000","1","19","img_art/26.jpg","9","I like the vague trees","William,Vincent,Tristan,Jordan,Brian,Ethan","feels a tad old,30,380,20","Small town and home feel on A nice day.,28,360,20","The feeling that I am looking at the world through a dingy filter makes this unpleasant for me.,-20,300,20","Reminds me of walks in my dads city when I was little,22,160,20","I'm not really into landscapes unless I have a personal connection to them,-21,380,20","I can tell it's some sort of outdoor scene. It looks very amateurish.,-9,120,20","Vincent","Small town and home feel on A nice day.,28,360,20","Jordan","Reminds me of walks in my dads city when I was little,22,160,20","Ethan","I can tell it's some sort of outdoor scene. It looks very amateurish.,-9,120,20","6"
"11922","","survey-text","183","723332","0.0-180.0-0.0","A33Z6BHAJUGCHY","","","","{""Q0"":""looks like paint splatters but I like the colors""}","","","","","","","","","","","","","","","","","","","","","","",""
"4923.699999988079","","image-slider-response","184","728265","0.0-181.0","A33Z6BHAJUGCHY","","","","","9","","","","","","","","","","","","","","","","","","","","","",""
"null","","image-button-response","185","733279","0.0-182.0","A33Z6BHAJUGCHY","img_art/13.jpg","null","","","","","","","","","","","","","","","","","","","","","","","","",""
"301","","image-button-response","186","733593","0.0-183.0","A33Z6BHAJUGCHY","img_art/13.jpg","0","","","","","","","","","","","","","","","","","","","","","","","","",""
"989","","image-button-response","187","734593","0.0-184.0-0.0","A33Z6BHAJUGCHY","img_art/13.jpg","2","","","","","","","","","","","","","","","","","","","","","","","","",""
"3218","","image-button-response","188","737821","0.0-185.0-0.0","A33Z6BHAJUGCHY","img_art/13.jpg","3","","","","","","","","","","","","","","","","","","","","","","","","",""
"null","","html-keyboard-response","189","738828","0.0-186.0","A33Z6BHAJUGCHY","<p style=""font-size: 48px;"">+</p>","","","","","null","allTrialResponses","1000","1","20","img_art/13.jpg","9","looks like paint splatters but I like the colors","Victor,Vincent,Bradley,Jordan,Mason,Ethan","Great color balance. I like the splatter, and how the vertical lines go from sharper to more blended.,31,340,20","I love the colors reminds me of a rainy day..it's calm and relaxing,32,360,20","I like the colors used in this piece.,2,300,20","This is easy to look at,46,160,20","meh, 80's. retro,-9,100,20","I do not care for the colors in this art. it doesnt go well at all.,-15,120,20","Victor","Great color balance. I like the splatter, and how the vertical lines go from sharper to more blended.,31,340,20","Bradley","I like the colors used in this piece.,2,300,20","Jordan","This is easy to look at,46,160,20","6"
"2407","","survey-text","190","741274","0.0-187.0-0.0","A33Z6BHAJUGCHY","","","","{""Q0"":""we""}","","","","","","","","","","","","","","","","","","","","","","",""
"9679","","survey-text","191","750965","0.0-188.0-0.0","A33Z6BHAJUGCHY","","","","{""Q0"":""looks like flags on a line ""}","","","","","","","","","","","","","","","","","","","","","","",""
"2544.5","","image-slider-response","192","753519","0.0-189.0","A33Z6BHAJUGCHY","","","","","7","","","","","","","","","","","","","","","","","","","","","",""
"null","","image-button-response","193","758532","0.0-190.0","A33Z6BHAJUGCHY","img_art/11.jpg","null","","","","","","","","","","","","","","","","","","","","","","","","",""
"1576","","image-button-response","194","760123","0.0-191.0","A33Z6BHAJUGCHY","img_art/11.jpg","3","","","","","","","","","","","","","","","","","","","","","","","","",""
"2531","","image-button-response","195","762665","0.0-192.0-0.0","A33Z6BHAJUGCHY","img_art/11.jpg","5","","","","","","","","","","","","","","","","","","","","","","","","",""
"1453","","image-button-response","196","764136","0.0-193.0-0.0","A33Z6BHAJUGCHY","img_art/11.jpg","0","","","","","","","","","","","","","","","","","","","","","","","","",""
"null","","html-keyboard-response","197","764646","0.0-194.0","A33Z6BHAJUGCHY","<p style=""font-size: 48px;"">+</p>","","","","","null","allTrialResponses","500","1","21","img_art/11.jpg","7","looks like flags on a line ","Victor,Joshua,Bradley,Jordan,Cole,Samuel","Love the colors against the black and gray. The lines are calming.,22,340,20","Is interesting. Wouldn't bother me to have this hanging where I'd see it every day.,11,240,20","WOW!  I love how the ships and the seas become one in this piece.,50,300,20","Rainy highways in RI,20,160,20","Grays arent my thing,-25,200,20","business of traffic,10,400,20","Jordan","Rainy highways in RI,20,160,20","Samuel","business of traffic,10,400,20","Victor","Love the colors against the black and gray. The lines are calming.,22,340,20","6"
"14103","","survey-text","198","778771","0.0-195.0-0.0","A33Z6BHAJUGCHY","","","","{""Q0"":""this just looks like random streaks on a streaky background""}","","","","","","","","","","","","","","","","","","","","","","",""
"2685","","image-slider-response","199","781463","0.0-196.0","A33Z6BHAJUGCHY","","","","","-13","","","","","","","","","","","","","","","","","","","","","",""
"4015","","image-button-response","200","786476","0.0-197.0","A33Z6BHAJUGCHY","img_art/30.jpg","4","","","","","","","","","","","","","","","","","","","","","","","","",""
"782","","image-button-response","201","787273","0.0-198.0","A33Z6BHAJUGCHY","img_art/30.jpg","4","","","","","","","","","","","","","","","","","","","","","","","","",""
"3215","","image-button-response","202","790500","0.0-199.0-0.0","A33Z6BHAJUGCHY","img_art/30.jpg","0","","","","","","","","","","","","","","","","","","","","","","","","",""
"925","","image-button-response","203","791439","0.0-200.0-0.0","A33Z6BHAJUGCHY","img_art/30.jpg","3","","","","","","","","","","","","","","","","","","","","","","","","",""
"null","","html-keyboard-response","204","792447","0.0-201.0","A33Z6BHAJUGCHY","<p style=""font-size: 48px;"">+</p>","","","","","null","allTrialResponses","1000","1","22","img_art/30.jpg","-13","this just looks like random streaks on a streaky background","Victor,Stephen,Luke,Jordan,Trevor,Samuel","I just don't see the point of this piece,-11,340,20","A bit too dark for my liking,-10,140,20","the lines and colors look purposeful,18,20,20","Combination of colors arent good,-6,160,20","it looks like some thing I could make it my garage,-18,280,20","perceiving greatness,20,400,20","Trevor","it looks like some thing I could make it my garage,-18,280,20","Victor","I just don't see the point of this piece,-11,340,20","Jordan","Combination of colors arent good,-6,160,20","6"
"9520","","survey-text","205","802000","0.0-202.0-0.0","A33Z6BHAJUGCHY","","","","{""Q0"":""this just looks like random blobs""}","","","","","","","","","","","","","","","","","","","","","","",""
"5530","","image-slider-response","206","807538","0.0-203.0","A33Z6BHAJUGCHY","","","","","-27","","","","","","","","","","","","","","","","","","","","","",""
"null","","image-button-response","207","812551","0.0-204.0","A33Z6BHAJUGCHY","img_art/2.jpg","null","","","","","","","","","","","","","","","","","","","","","","","","",""
"747","","image-button-response","208","813308","0.0-205.0","A33Z6BHAJUGCHY","img_art/2.jpg","5","","","","","","","","","","","","","","","","","","","","","","","","",""
"1700","","image-button-response","209","815025","0.0-206.0-0.0","A33Z6BHAJUGCHY","img_art/2.jpg","2","","","","","","","","","","","","","","","","","","","","","","","","",""
"917","","image-button-response","210","815958","0.0-207.0-0.0","A33Z6BHAJUGCHY","img_art/2.jpg","1","","","","","","","","","","","","","","","","","","","","","","","","",""
"null","","html-keyboard-response","211","816963","0.0-208.0","A33Z6BHAJUGCHY","<p style=""font-size: 48px;"">+</p>","","","","","null","allTrialResponses","1000","1","23","img_art/2.jpg","-27","this just looks like random blobs","Victor,Gabriel,Shawn,Jordan,Trevor,Bryan","It's interesting. The chunks of black here and there are nice,13,340,20","i dont like it, no thank you,-28,160,20","The color choices and lines seem a bit sloppy?,-10,100,20","Reminds me of my baby brother,11,160,20","It looks like a little kids primary color picture,3,280,20","Like the colors but reminds me of a kids show done in cubism.,0,400,20","Bryan","Like the colors but reminds me of a kids show done in cubism.,0,400,20","Shawn","The color choices and lines seem a bit sloppy?,-10,100,20","Gabriel","i dont like it, no thank you,-28,160,20","6"
"15381","","survey-text","212","832372","0.0-209.0-0.0","A33Z6BHAJUGCHY","","","","{""Q0"":""looks like a shoe or a tea kettle. Maybe even a volcano""}","","","","","","","","","","","","","","","","","","","","","","",""
"3412","","image-slider-response","213","835795","0.0-210.0","A33Z6BHAJUGCHY","","","","","4","","","","","","","","","","","","","","","","","","","","","",""
"4097","","image-button-response","214","840807","0.0-211.0","A33Z6BHAJUGCHY","img_art/5.jpg","3","","","","","","","","","","","","","","","","","","","","","","","","",""
"353","","image-button-response","215","841173","0.0-212.0","A33Z6BHAJUGCHY","img_art/5.jpg","3","","","","","","","","","","","","","","","","","","","","","","","","",""
"977","","image-button-response","216","842160","0.0-213.0-0.0","A33Z6BHAJUGCHY","img_art/5.jpg","4","","","","","","","","","","","","","","","","","","","","","","","","",""
"2421","","image-button-response","217","844595","0.0-214.0-0.0","A33Z6BHAJUGCHY","img_art/5.jpg","5","","","","","","","","","","","","","","","","","","","","","","","","",""
"null","","html-keyboard-response","218","845101","0.0-215.0","A33Z6BHAJUGCHY","<p style=""font-size: 48px;"">+</p>","","","","","null","allTrialResponses","500","1","24","img_art/5.jpg","4","looks like a shoe or a tea kettle. Maybe even a volcano","Isaiah,Gabriel,Shawn,Eric,Brendan,Bryan","I feel nothing looking at this.,-5,300,20","too abstract, looks like a pyramid,-22,160,20","Black stripe looks violent,-31,100,20","I'm reminded of a volcano with weird colors.,-5,100,20","a volcano erruption,21,340,20","Looks like a yellow plastic trash bag.,-42,400,20","Eric","I'm reminded of a volcano with weird colors.,-5,100,20","Brendan","a volcano erruption,21,340,20","Bryan","Looks like a yellow plastic trash bag.,-42,400,20","6"
"6695","","survey-text","219","851834","0.0-216.0-0.0","A33Z6BHAJUGCHY","","","","{""Q0"":""The colors are relaxing""}","","","","","","","","","","","","","","","","","","","","","","",""
"2830.199999988079","","image-slider-response","220","854671","0.0-217.0","A33Z6BHAJUGCHY","","","","","18","","","","","","","","","","","","","","","","","","","","","",""
"null","","image-button-response","221","859914","0.0-218.0","A33Z6BHAJUGCHY","img_art/1.jpg","null","","","","","","","","","","","","","","","","","","","","","","","","",""
"2243","","image-button-response","222","862167","0.0-219.0","A33Z6BHAJUGCHY","img_art/1.jpg","3","","","","","","","","","","","","","","","","","","","","","","","","",""
"2927","","image-button-response","223","865110","0.0-220.0-0.0","A33Z6BHAJUGCHY","img_art/1.jpg","5","","","","","","","","","","","","","","","","","","","","","","","","",""
"3714","","image-button-response","224","868840","0.0-221.0-0.0","A33Z6BHAJUGCHY","img_art/1.jpg","0","","","","","","","","","","","","","","","","","","","","","","","","",""
"null","","html-keyboard-response","225","869346","0.0-222.0","A33Z6BHAJUGCHY","<p style=""font-size: 48px;"">+</p>","","","","","null","allTrialResponses","500","1","25","img_art/1.jpg","18","The colors are relaxing","Aaron,Hunter,Jake,Eric,Brendan,Bryan","The colors are nice but that's all it is,21,20,20","muddy and uninteresting,-16,240,20","This is ugly with bad colors.,-6,360,20","I like the way that the colors blend.,35,100,20","a colorful piece of art,25,340,20","Again, like the colors & abstractness.,29,400,20","Eric","I like the way that the colors blend.,35,100,20","Bryan","Again, like the colors & abstractness.,29,400,20","Aaron","The colors are nice but that's all it is,21,20,20","6"
"3083","","survey-text","226","872477","0.0-223.0-0.0","A33Z6BHAJUGCHY","","","","{""Q0"":""table""}","","","","","","","","","","","","","","","","","","","","","","",""
"11100","","survey-text","227","883588","0.0-224.0-0.0","A33Z6BHAJUGCHY","","","","{""Q0"":""Looks like a creek with rapids""}","","","","","","","","","","","","","","","","","","","","","","",""
"2979.400000035763","","image-slider-response","228","886578","0.0-225.0","A33Z6BHAJUGCHY","","","","","30","","","","","","","","","","","","","","","","","","","","","",""
"null","","image-button-response","229","891590","0.0-226.0","A33Z6BHAJUGCHY","img_art/24.jpg","null","","","","","","","","","","","","","","","","","","","","","","","","",""
"1116","","image-button-response","230","892722","0.0-227.0","A33Z6BHAJUGCHY","img_art/24.jpg","0","","","","","","","","","","","","","","","","","","","","","","","","",""
"1536","","image-button-response","231","894274","0.0-228.0-0.0","A33Z6BHAJUGCHY","img_art/24.jpg","2","","","","","","","","","","","","","","","","","","","","","","","","",""
"1506","","image-button-response","232","895798","0.0-229.0-0.0","A33Z6BHAJUGCHY","img_art/24.jpg","5","","","","","","","","","","","","","","","","","","","","","","","","",""
"null","","html-keyboard-response","233","896804","0.0-230.0","A33Z6BHAJUGCHY","<p style=""font-size: 48px;"">+</p>","","","","","null","allTrialResponses","1000","1","26","img_art/24.jpg","30","Looks like a creek with rapids","Aaron,Devon,Tanner,Eric,Edward,Bryan","I like how it evokes the feeling of being in a forest. The colors are pretty,31,20,20","Aww. I love the peace brought by this picture.,40,400,20","calm, nature, safe, happy place,,50,180,20","I'm reminded of a waterfall, but I feel like it could've been better portrayed.,5,100,20","Very pretty and soft,37,60,20","Abstract falls & nature.,41,400,20","Aaron","I like how it evokes the feeling of being in a forest. The colors are pretty,31,20,20","Tanner","calm, nature, safe, happy place,,50,180,20","Bryan","Abstract falls & nature.,41,400,20","6"
"12914","","survey-text","234","909748","0.0-231.0-0.0","A33Z6BHAJUGCHY","","","","{""Q0"":""a lone tree in a landscape""}","","","","","","","","","","","","","","","","","","","","","","",""
"2161.199999988079","","image-slider-response","235","911917","0.0-232.0","A33Z6BHAJUGCHY","","","","","-3","","","","","","","","","","","","","","","","","","","","","",""
"null","","image-button-response","236","916930","0.0-233.0","A33Z6BHAJUGCHY","img_art/14.jpg","null","","","","","","","","","","","","","","","","","","","","","","","","",""
"473","","image-button-response","237","917414","0.0-234.0","A33Z6BHAJUGCHY","img_art/14.jpg","0","","","","","","","","","","","","","","","","","","","","","","","","",""
"2389","","image-button-response","238","919814","0.0-235.0-0.0","A33Z6BHAJUGCHY","img_art/14.jpg","5","","","","","","","","","","","","","","","","","","","","","","","","",""
"781","","image-button-response","239","920612","0.0-236.0-0.0","A33Z6BHAJUGCHY","img_art/14.jpg","3","","","","","","","","","","","","","","","","","","","","","","","","",""
"null","","html-keyboard-response","240","921118","0.0-237.0","A33Z6BHAJUGCHY","<p style=""font-size: 48px;"">+</p>","","","","","null","allTrialResponses","500","1","27","img_art/14.jpg","-3","a lone tree in a landscape","Aaron,Connor,Tanner,Noah,Ryan,Bryan","It reminds me of a tree in the desert.,15,20,20","Looks childish and basic,-42,240,20","somewhat stressful, crazy,-3,180,20","I enjoy what comes across as a playful take on nature themes,26,260,20","Gorgeous use of water color,50,380,20","Like some of the colors but not much else.,1,400,20","Aaron","It reminds me of a tree in the desert.,15,20,20","Bryan","Like some of the colors but not much else.,1,400,20","Noah","I enjoy what comes across as a playful take on nature themes,26,260,20","6"
"8177","","survey-text","241","929325","0.0-238.0-0.0","A33Z6BHAJUGCHY","","","","{""Q0"":""this is just scribble""}","","","","","","","","","","","","","","","","","","","","","","",""
"3594","","image-slider-response","242","932930","0.0-239.0","A33Z6BHAJUGCHY","","","","","-24","","","","","","","","","","","","","","","","","","","","","",""
"null","","image-button-response","243","937939","0.0-240.0","A33Z6BHAJUGCHY","img_art/3.jpg","null","","","","","","","","","","","","","","","","","","","","","","","","",""
"872","","image-button-response","244","938826","0.0-241.0","A33Z6BHAJUGCHY","img_art/3.jpg","3","","","","","","","","","","","","","","","","","","","","","","","","",""
"3770","","image-button-response","245","942604","0.0-242.0-0.0","A33Z6BHAJUGCHY","img_art/3.jpg","2","","","","","","","","","","","","","","","","","","","","","","","","",""
"1096","","image-button-response","246","943721","0.0-243.0-0.0","A33Z6BHAJUGCHY","img_art/3.jpg","5","","","","","","","","","","","","","","","","","","","","","","","","",""
"null","","html-keyboard-response","247","945227","0.0-244.0","A33Z6BHAJUGCHY","<p style=""font-size: 48px;"">+</p>","","","","","null","allTrialResponses","1500","1","28","img_art/3.jpg","-24","this is just scribble","Aaron,Matthew,Sean,Noah,Charles,Bryan","Definition of mediocre abstract art,-12,20,20","Reminds of John Lenonn's art a bit.,27,120,20","my response to the picture is a lot of red, danger,,-21,40,20","I struggle to see the art,-20,260,20","I like that it feels kind of simple but still chaotic,6,100,20","Just no. I love red but this looks like blood splatter on a wall from a horrific killing.,-45,400,20","Noah","I struggle to see the art,-20,260,20","Sean","my response to the picture is a lot of red, danger,,-21,40,20","Bryan","Just no. I love red but this looks like blood splatter on a wall from a horrific killing.,-45,400,20","6"
"12807","","survey-text","248","958066","0.0-245.0-0.0","A33Z6BHAJUGCHY","","","","{""Q0"":""I see a person in a costal town""}","","","","","","","","","","","","","","","","","","","","","","",""
"3109.5","","image-slider-response","249","961185","0.0-246.0","A33Z6BHAJUGCHY","","","","","25","","","","","","","","","","","","","","","","","","","","","",""
"null","","image-button-response","250","966199","0.0-247.0","A33Z6BHAJUGCHY","img_art/19.jpg","null","","","","","","","","","","","","","","","","","","","","","","","","",""
"308","","image-button-response","251","966519","0.0-248.0","A33Z6BHAJUGCHY","img_art/19.jpg","1","","","","","","","","","","","","","","","","","","","","","","","","",""
"5326","","image-button-response","252","971857","0.0-249.0-0.0","A33Z6BHAJUGCHY","img_art/19.jpg","3","","","","","","","","","","","","","","","","","","","","","","","","",""
"555","","image-button-response","253","972428","0.0-250.0-0.0","A33Z6BHAJUGCHY","img_art/19.jpg","4","","","","","","","","","","","","","","","","","","","","","","","","",""
"null","","html-keyboard-response","254","973433","0.0-251.0","A33Z6BHAJUGCHY","<p style=""font-size: 48px;"">+</p>","","","","","null","allTrialResponses","1000","1","29","img_art/19.jpg","25","I see a person in a costal town","Kyle,Steven,Sean,Noah,Christian,Bryan","Just stirred a negative reaction. Don't really like it perhaps because of the structure?,-8,340,20","I like it, I see someone walking his dog in the early morning time,23,160,20","the picture gave me anxiety,-38,40,20","the way the landscape is portrayed captivates me - I enjoy studying the structure,32,260,20","interesting take on depth (reminds me of those 1000 piece puzzles),2,140,20","Looks like a child's rendering of a city street but not too sure.,0,400,20","Steven","I like it, I see someone walking his dog in the early morning time,23,160,20","Noah","the way the landscape is portrayed captivates me - I enjoy studying the structure,32,260,20","Christian","interesting take on depth (reminds me of those 1000 piece puzzles),2,140,20","6"
"14223","","survey-text","255","987689","0.0-252.0-0.0","A33Z6BHAJUGCHY","","","","{""Q0"":""The face is scary but I like the squares""}","","","","","","","","","","","","","","","","","","","","","","",""
"3101.199999988079","","image-slider-response","256","990799","0.0-253.0","A33Z6BHAJUGCHY","","","","","3","","","","","","","","","","","","","","","","","","","","","",""
"null","","image-button-response","257","995811","0.0-254.0","A33Z6BHAJUGCHY","img_art/8.jpg","null","","","","","","","","","","","","","","","","","","","","","","","","",""
"431","","image-button-response","258","996258","0.0-255.0","A33Z6BHAJUGCHY","img_art/8.jpg","4","","","","","","","","","","","","","","","","","","","","","","","","",""
"2736","","image-button-response","259","999006","0.0-256.0-0.0","A33Z6BHAJUGCHY","img_art/8.jpg","5","","","","","","","","","","","","","","","","","","","","","","","","",""
"1334","","image-button-response","260","1000349","0.0-257.0-0.0","A33Z6BHAJUGCHY","img_art/8.jpg","0","","","","","","","","","","","","","","","","","","","","","","","","",""
"null","","html-keyboard-response","261","1001354","0.0-258.0","A33Z6BHAJUGCHY","<p style=""font-size: 48px;"">+</p>","","","","","null","allTrialResponses","1000","1","30","img_art/8.jpg","3","The face is scary but I like the squares","Devin,Steven,Dakota,Noah,Christian,Adam","Very nice detail and colors!,10,380,20","very nice, i love what's going on here,21,160,20","chaotic and disassembled,-8,280,20","not sure what to make of this - just neutral again,-1,260,20","gives off inception vibes <3,50,140,20","Eclectic city with good mix of colors.,10,40,20","Christian","gives off inception vibes <3,50,140,20","Adam","Eclectic city with good mix of colors.,10,40,20","Devin","Very nice detail and colors!,10,380,20","6"
"3109","","image-button-response_instructions","262","1004499","0.0-259.0","A33Z6BHAJUGCHY","","0","instructions","","","","","","","","","","","","","","","","","","","","","","","",""
"1405","","image-button-response","263","1005940","0.0-260.0","A33Z6BHAJUGCHY","","0","","","","","","","","","","","","","","","","","","","","","","","","",""
