"rt","url","trial_type","trial_index","time_elapsed","internal_node_id","participant_id","stimulus","button_pressed","Name","responses","response","key_press","variableName","fixationTime","condition","trial","photo","subjectRating","subjectResponse","agentsNames","agent_1_Response","agent_2_Response","agent_3_Response","agent_4_Response","agent_5_Response","agent_6_Response","kept_1_name","kept_1_response","kept_2_name","kept_2_response","kept_3_name","kept_3_response","errorCounter"
"114442","external_page_harvard.html","external-html","0","114750","0.0-0.0","A34YDGVZKRJ0LZ","","","","","","","","","","","","","","","","","","","","","","","","","","",""
"1831","","image-button-response","1","116588","0.0-1.0","A34YDGVZKRJ0LZ","","1","","","","","","","","","","","","","","","","","","","","","","","","",""
"2036","","image-button-response","2","118635","0.0-2.0-0.0","A34YDGVZKRJ0LZ","","1","phone","","","","","","","","","","","","","","","","","","","","","","","",""
"9648","","survey-text","3","128288","0.0-3.0-0.0","A34YDGVZKRJ0LZ","","","","{""Q0"":""A34YDGVZKRJ0LZ""}","","","","","","","","","","","","","","","","","","","","","","",""
"11605","","image-button-response_instructions","4","139896","0.0-4.0","A34YDGVZKRJ0LZ","","0","instructions","","","","","","","","","","","","","","","","","","","","","","","",""
"13337","","image-button-response_instructions","5","153237","0.0-5.0","A34YDGVZKRJ0LZ","img_art/ins/popularity/ins1.png","0","instructions","","","","","","","","","","","","","","","","","","","","","","","",""
"10787","","image-button-response_instructions","6","164026","0.0-6.0","A34YDGVZKRJ0LZ","img_art/ins/popularity/ins2.png","0","instructions","","","","","","","","","","","","","","","","","","","","","","","",""
"6965","","image-button-response_instructions","7","170993","0.0-7.0","A34YDGVZKRJ0LZ","img_art/ins/popularity/ins2Extreme.png","0","instructions","","","","","","","","","","","","","","","","","","","","","","","",""
"29634","","image-button-response_instructions","8","200629","0.0-8.0","A34YDGVZKRJ0LZ","img_art/ins/popularity/ins3KEEPpop.PNG","0","instructions","","","","","","","","","","","","","","","","","","","","","","","",""
"5761","","image-button-response_instructions","9","206393","0.0-9.0","A34YDGVZKRJ0LZ","img_art/ins/popularity/ins3ANamepop.PNG","0","instructions","","","","","","","","","","","","","","","","","","","","","","","",""
"6098","","image-button-response_instructions","10","212495","0.0-10.0","A34YDGVZKRJ0LZ","img_art/ins/popularity/ins3ARatingpop.png","0","instructions","","","","","","","","","","","","","","","","","","","","","","","",""
"6074","","image-button-response_instructions","11","218570","0.0-11.0","A34YDGVZKRJ0LZ","img_art/ins/popularity/ins3ATextpop.png","0","instructions","","","","","","","","","","","","","","","","","","","","","","","",""
"12261","","image-button-response_instructions","12","230832","0.0-12.0","A34YDGVZKRJ0LZ","img_art/ins/popularity/ins3ALikespop.png","0","instructions","","","","","","","","","","","","","","","","","","","","","","","",""
"20464","","image-button-response_instructions","13","251299","0.0-13.0","A34YDGVZKRJ0LZ","img_art/ins/popularity/ins3KEEPpop.PNG","0","instructions","","","","","","","","","","","","","","","","","","","","","","","",""
"12315","","image-button-response_instructions","14","263615","0.0-14.0","A34YDGVZKRJ0LZ","img_art/ins/popularity/ins3_5RED.png","0","instructions","","","","","","","","","","","","","","","","","","","","","","","",""
"12757","","image-button-response_instructions","15","276375","0.0-15.0","A34YDGVZKRJ0LZ","img_art/ins/popularity/ins3KEEPpop.PNG","0","instructions","","","","","","","","","","","","","","","","","","","","","","","",""
"19323","","image-button-response_instructions","16","295700","0.0-16.0","A34YDGVZKRJ0LZ","img_art/ins/popularity/ins4KEEPpop.PNG","0","instructions","","","","","","","","","","","","","","","","","","","","","","","",""
"6599","","image-button-response_instructions","17","302301","0.0-17.0","A34YDGVZKRJ0LZ","img_art/ins/popularity/ins5KEEPpop.PNG","0","instructions","","","","","","","","","","","","","","","","","","","","","","","",""
"2093","","image-button-response_instructions","18","304396","0.0-18.0","A34YDGVZKRJ0LZ","","0","instructions","","","","","","","","","","","","","","","","","","","","","","","",""
"8520","","survey-text","19","312951","0.0-19.0-0.0","A34YDGVZKRJ0LZ","","","","{""Q0"":""but""}","","","","","","","","","","","","","","","","","","","","","","",""
"33055","","survey-text","20","346009","0.0-20.0-0.0","A34YDGVZKRJ0LZ","","","","{""Q0"":""reminds of a field, very Van Gogh-ish""}","","","","","","","","","","","","","","","","","","","","","","",""
"4240","","image-slider-response","21","350255","0.0-21.0","A34YDGVZKRJ0LZ","","","","","25","","","","","","","","","","","","","","","","","","","","","",""
"null","","image-button-response","22","355266","0.0-22.0","A34YDGVZKRJ0LZ","img_art/ins/1.jpg","null","","","","","","","","","","","","","","","","","","","","","","","","",""
"3044","","image-button-response","23","358316","0.0-23.0","A34YDGVZKRJ0LZ","img_art/ins/1.jpg","5","","","","","","","","","","","","","","","","","","","","","","","","",""
"2550","","image-button-response","24","360871","0.0-24.0-0.0","A34YDGVZKRJ0LZ","img_art/ins/1.jpg","4","","","","","","","","","","","","","","","","","","","","","","","","",""
"4404","","image-button-response","25","365281","0.0-25.0-0.0","A34YDGVZKRJ0LZ","img_art/ins/1.jpg","0","","","","","","","","","","","","","","","","","","","","","","","","",""
"null","","html-keyboard-response","26","366287","0.0-26.0","A34YDGVZKRJ0LZ","<p style=""font-size: 48px;"">+</p>","","","","","null","allTrialResponses","1000","1","-2","img_art/ins/1.jpg","25","reminds of a field, very Van Gogh-ish","Allison,Ashley,Beth,Dora,Erika,Jen","looks like a lot of things going on in the mist,20,20,20","I just don't get why these type of art would be popular,-32,40,20","This color reminds me of poo,-46,60,20","looks like what my niece in 3rd grade did this afternoon,-50,80,20","I like the sophisticated brushwork,40,100,20","It reminds me of a candy land dream I had,36,120,20","Jen","It reminds me of a candy land dream I had,36,120,20","Erika","I like the sophisticated brushwork,40,100,20","Allison","looks like a lot of things going on in the mist,20,20,20","0"
"36326","","survey-text","27","402622","0.0-27.0-0.0","A34YDGVZKRJ0LZ","","","","{""Q0"":""Very complicated and makes me feel melancholy""}","","","","","","","","","","","","","","","","","","","","","","",""
"3709.600000023842","","image-slider-response","28","406337","0.0-28.0","A34YDGVZKRJ0LZ","","","","","23","","","","","","","","","","","","","","","","","","","","","",""
"4299","","image-button-response","29","411348","0.0-29.0","A34YDGVZKRJ0LZ","img_art/ins/2.jpg","1","","","","","","","","","","","","","","","","","","","","","","","","",""
"1778","","image-button-response","30","413130","0.0-30.0","A34YDGVZKRJ0LZ","img_art/ins/2.jpg","1","","","","","","","","","","","","","","","","","","","","","","","","",""
"8615","","image-button-response","31","421750","0.0-31.0-0.0","A34YDGVZKRJ0LZ","img_art/ins/2.jpg","4","","","","","","","","","","","","","","","","","","","","","","","","",""
"1587","","image-button-response","32","423342","0.0-32.0-0.0","A34YDGVZKRJ0LZ","img_art/ins/2.jpg","5","","","","","","","","","","","","","","","","","","","","","","","","",""
"null","","html-keyboard-response","33","424348","0.0-33.0","A34YDGVZKRJ0LZ","<p style=""font-size: 48px;"">+</p>","","","","","null","allTrialResponses","1000","1","-1","img_art/ins/2.jpg","23","Very complicated and makes me feel melancholy","Allison,Kara,Katie,Jenna,Erika,Jen","I don't have strong feelings about this,10,20,20","I like the blocks of color arrangements,30,160,20","too much color!,-28,180,20","One of my pet peevs,-48,140,20","I would never be able to compose a sophisticated pallete like this,48,100,20","It reminds me of a fireplace,36,120,20","Kara","I like the blocks of color arrangements,30,160,20","Erika","I would never be able to compose a sophisticated pallete like this,48,100,20","Jen","It reminds me of a fireplace,36,120,20","0"
"38791","","survey-text","34","463148","0.0-34.0-0.0","A34YDGVZKRJ0LZ","","","","{""Q0"":""Interesting and looks like there is person doing something in it""}","","","","","","","","","","","","","","","","","","","","","","",""
"4527.9000000059605","","image-slider-response","35","467679","0.0-35.0","A34YDGVZKRJ0LZ","","","","","15","","","","","","","","","","","","","","","","","","","","","",""
"null","","image-button-response","36","472683","0.0-36.0","A34YDGVZKRJ0LZ","img_art/ins/3.jpg","null","","","","","","","","","","","","","","","","","","","","","","","","",""
"1295","","image-button-response","37","473982","0.0-37.0","A34YDGVZKRJ0LZ","img_art/ins/3.jpg","1","","","","","","","","","","","","","","","","","","","","","","","","",""
"3655","","image-button-response","38","477642","0.0-38.0-0.0","A34YDGVZKRJ0LZ","img_art/ins/3.jpg","5","","","","","","","","","","","","","","","","","","","","","","","","",""
"2861","","image-button-response","39","480510","0.0-39.0-0.0","A34YDGVZKRJ0LZ","img_art/ins/3.jpg","4","","","","","","","","","","","","","","","","","","","","","","","","",""
"null","","html-keyboard-response","40","481515","0.0-40.0","A34YDGVZKRJ0LZ","<p style=""font-size: 48px;"">+</p>","","","","","null","allTrialResponses","1000","1","0","img_art/ins/3.jpg","15","Interesting and looks like there is person doing something in it","Mary,Kara,Rose,Leslie,Erika,Jen","I like the overlapping of brushes,41,220,20","calming blue is very nice,36,160,20","My daily routine, it's depressing,-20,240,20","It's an alright work,15,200,20","I feel connected to the artist,40,100,20","I can feel a rainy day from this painting,18,120,20","Kara","calming blue is very nice,36,160,20","Jen","I can feel a rainy day from this painting,18,120,20","Erika","I feel connected to the artist,40,100,20","0"
"9099","","image-button-response_instructions","41","490621","0.0-41.0","A34YDGVZKRJ0LZ","","0","instructions","","","","","","","","","","","","","","","","","","","","","","","",""
"16034","","survey-likert","42","506662","0.0-42.0-0.0","A34YDGVZKRJ0LZ","","","","{""Q0"":"""",""Q1"":0,""Q2"":1}","","","","","","","","","","","","","","","","","","","","","","",""
"4331","","survey-text","43","511003","0.0-43.0-0.0","A34YDGVZKRJ0LZ","","","","{""Q0"":""rock""}","","","","","","","","","","","","","","","","","","","","","","",""
"21085","","survey-text","44","532092","0.0-44.0-0.0","A34YDGVZKRJ0LZ","","","","{""Q0"":""reminds me of a puzzle or album art""}","","","","","","","","","","","","","","","","","","","","","","",""
"4503.9000000059605","","image-slider-response","45","536603","0.0-45.0","A34YDGVZKRJ0LZ","","","","","21","","","","","","","","","","","","","","","","","","","","","",""
"null","","image-button-response","46","541639","0.0-46.0","A34YDGVZKRJ0LZ","img_art/12.jpg","null","","","","","","","","","","","","","","","","","","","","","","","","",""
"9577","","image-button-response","47","551222","0.0-47.0","A34YDGVZKRJ0LZ","img_art/12.jpg","3","","","","","","","","","","","","","","","","","","","","","","","","",""
"13661","","image-button-response","48","564889","0.0-48.0-0.0","A34YDGVZKRJ0LZ","img_art/12.jpg","0","","","","","","","","","","","","","","","","","","","","","","","","",""
"1120","","image-button-response","49","566014","0.0-49.0-0.0","A34YDGVZKRJ0LZ","img_art/12.jpg","2","","","","","","","","","","","","","","","","","","","","","","","","",""
"null","","html-keyboard-response","50","567520","0.0-50.0","A34YDGVZKRJ0LZ","<p style=""font-size: 48px;"">+</p>","","","","","null","allTrialResponses","1500","1","1","img_art/12.jpg","21","reminds me of a puzzle or album art","Lauren,Shannon,Autumn,Samantha,Alicia,Kayla","This doesn't invoke anything. Just a mosaic of random images.,0,340,20","This image doesn't have anything going on. The top half is really ugly, I kind of like the bottom a little.,-20,220,20","Good too basic.,18,340,20","It is interesting but seems like some cheap painting from like walmart,24,140,20","it's ok, but blocky, looks old.,3,120,20","Yay! Lots of people, lots of lives.,25,180,20","Samantha","It is interesting but seems like some cheap painting from like walmart,24,140,20","Lauren","This doesn't invoke anything. Just a mosaic of random images.,0,340,20","Autumn","Good too basic.,18,340,20","0"
"20791","","survey-text","51","588319","0.0-51.0-0.0","A34YDGVZKRJ0LZ","","","","{""Q0"":""almost like an underwater scene""}","","","","","","","","","","","","","","","","","","","","","","",""
"4840","","image-slider-response","52","593163","0.0-52.0","A34YDGVZKRJ0LZ","","","","","34","","","","","","","","","","","","","","","","","","","","","",""
"4757","","image-button-response","53","598174","0.0-53.0","A34YDGVZKRJ0LZ","img_art/9.jpg","0","","","","","","","","","","","","","","","","","","","","","","","","",""
"1408","","image-button-response","54","599585","0.0-54.0","A34YDGVZKRJ0LZ","img_art/9.jpg","0","","","","","","","","","","","","","","","","","","","","","","","","",""
"8999","","image-button-response","55","608586","0.0-55.0-0.0","A34YDGVZKRJ0LZ","img_art/9.jpg","4","","","","","","","","","","","","","","","","","","","","","","","","",""
"2441","","image-button-response","56","611033","0.0-56.0-0.0","A34YDGVZKRJ0LZ","img_art/9.jpg","5","","","","","","","","","","","","","","","","","","","","","","","","",""
"null","","html-keyboard-response","57","611537","0.0-57.0","A34YDGVZKRJ0LZ","<p style=""font-size: 48px;"">+</p>","","","","","null","allTrialResponses","500","1","2","img_art/9.jpg","34","almost like an underwater scene","Lauren,Madeline,Autumn,Samantha,Erika,Sierra","I like how design can be interpreted differently, I see a person sleeping or a mountainous region.,10,340,20","I really like the colors and details.,8,40,20","Abstract but not well made,-26,340,20","Some nice colors but i do not like it,-18,140,20","Colorful and expressive,15,100,20","it looks like a lady resting. it is soothing.,4,260,20","Lauren","I like how design can be interpreted differently, I see a person sleeping or a mountainous region.,10,340,20","Erika","Colorful and expressive,15,100,20","Sierra","it looks like a lady resting. it is soothing.,4,260,20","0"
"33307","","survey-text","58","644850","0.0-58.0-0.0","A34YDGVZKRJ0LZ","","","","{""Q0"":""beautiful colors with the grey background, reminds me of a city on the water""}","","","","","","","","","","","","","","","","","","","","","","",""
"4223.9000000059605","","image-slider-response","59","649077","0.0-59.0","A34YDGVZKRJ0LZ","","","","","48","","","","","","","","","","","","","","","","","","","","","",""
"null","","image-button-response","60","654083","0.0-60.0","A34YDGVZKRJ0LZ","img_art/11.jpg","null","","","","","","","","","","","","","","","","","","","","","","","","",""
"10180","","image-button-response","61","664270","0.0-61.0","A34YDGVZKRJ0LZ","img_art/11.jpg","5","","","","","","","","","","","","","","","","","","","","","","","","",""
"3318","","image-button-response","62","667592","0.0-62.0-0.0","A34YDGVZKRJ0LZ","img_art/11.jpg","2","","","","","","","","","","","","","","","","","","","","","","","","",""
"5948","","image-button-response","63","673543","0.0-63.0-0.0","A34YDGVZKRJ0LZ","img_art/11.jpg","4","","","","","","","","","","","","","","","","","","","","","","","","",""
"null","","html-keyboard-response","64","674551","0.0-64.0","A34YDGVZKRJ0LZ","<p style=""font-size: 48px;"">+</p>","","","","","null","allTrialResponses","1000","1","3","img_art/11.jpg","48","beautiful colors with the grey background, reminds me of a city on the water","Lauren,Megan,Breanna,Mary,Erika,Sierra","I like how this piece can be interpreted in different ways, such as a village on hilly terrain.,10,340,20","Some interesting color but scratchy train mess.,-14,200,20","Very cool, makes me feel good,39,380,20","I don't care for the color combo. The wavy lines give dimension though.,-13,180,20","I want to know which skyline the artist is depicting,26,100,20","i like the colors and patters and waves,5,260,20","Sierra","i like the colors and patters and waves,5,260,20","Breanna","Very cool, makes me feel good,39,380,20","Erika","I want to know which skyline the artist is depicting,26,100,20","0"
"27388","","survey-text","65","701949","0.0-65.0-0.0","A34YDGVZKRJ0LZ","","","","{""Q0"":""interesting pattern with the blue and black smudges""}","","","","","","","","","","","","","","","","","","","","","","",""
"3441.5","","image-slider-response","66","705396","0.0-66.0","A34YDGVZKRJ0LZ","","","","","15","","","","","","","","","","","","","","","","","","","","","",""
"null","","image-button-response","67","710405","0.0-67.0","A34YDGVZKRJ0LZ","img_art/15.jpg","null","","","","","","","","","","","","","","","","","","","","","","","","",""
"5095","","image-button-response","68","715503","0.0-68.0","A34YDGVZKRJ0LZ","img_art/15.jpg","3","","","","","","","","","","","","","","","","","","","","","","","","",""
"2104","","image-button-response","69","717614","0.0-69.0-0.0","A34YDGVZKRJ0LZ","img_art/15.jpg","4","","","","","","","","","","","","","","","","","","","","","","","","",""
"3017","","image-button-response","70","720634","0.0-70.0-0.0","A34YDGVZKRJ0LZ","img_art/15.jpg","1","","","","","","","","","","","","","","","","","","","","","","","","",""
"null","","html-keyboard-response","71","722141","0.0-71.0","A34YDGVZKRJ0LZ","<p style=""font-size: 48px;"">+</p>","","","","","null","allTrialResponses","1500","1","4","img_art/15.jpg","15","interesting pattern with the blue and black smudges","Catherine,Michelle,Breanna,Anna,Erika,Sierra","ants on the ground playing with bubble gum. They may be thinking of how they can use it to build something,-30,160,20","Interesting to look at but I don't appreciate the abstraction,2,280,20","Makes me feel weird,-16,380,20","I like how it's simple but beautiful.,40,300,20","I like the dense patterns and the splashes  of blue,38,100,20","i cant find somthing ilike about it,-31,260,20","Anna","I like how it's simple but beautiful.,40,300,20","Erika","I like the dense patterns and the splashes  of blue,38,100,20","Michelle","Interesting to look at but I don't appreciate the abstraction,2,280,20","0"
"38544","","survey-text","72","760693","0.0-72.0-0.0","A34YDGVZKRJ0LZ","","","","{""Q0"":""gorgeous blues the colors go well together""}","","","","","","","","","","","","","","","","","","","","","","",""
"3329.2999999821186","","image-slider-response","73","764025","0.0-73.0","A34YDGVZKRJ0LZ","","","","","46","","","","","","","","","","","","","","","","","","","","","",""
"3580","","image-button-response","74","769028","0.0-74.0","A34YDGVZKRJ0LZ","img_art/20.jpg","0","","","","","","","","","","","","","","","","","","","","","","","","",""
"125","","image-button-response","75","769156","0.0-75.0","A34YDGVZKRJ0LZ","img_art/20.jpg","0","","","","","","","","","","","","","","","","","","","","","","","","",""
"3858","","image-button-response","76","773016","0.0-76.0-0.0","A34YDGVZKRJ0LZ","img_art/20.jpg","4","","","","","","","","","","","","","","","","","","","","","","","","",""
"2497","","image-button-response","77","775519","0.0-77.0-0.0","A34YDGVZKRJ0LZ","img_art/20.jpg","2","","","","","","","","","","","","","","","","","","","","","","","","",""
"null","","html-keyboard-response","78","776524","0.0-78.0","A34YDGVZKRJ0LZ","<p style=""font-size: 48px;"">+</p>","","","","","null","allTrialResponses","1000","1","5","img_art/20.jpg","46","gorgeous blues the colors go well together","Emma,Michelle,Kylie,Anna,Erika,Briana","I like the distortion of the objects, good colors,20,60,20","Reminds me of Dali for some reason, whom I don't like,-7,280,20","City life vs shore life,40,300,20","I would like it more without the frame.,10,300,20","The artist had very strong feelings, bold colors,28,100,20","Someone trying to be dali,-15,400,20","Emma","I like the distortion of the objects, good colors,20,60,20","Erika","The artist had very strong feelings, bold colors,28,100,20","Kylie","City life vs shore life,40,300,20","0"
"3639","","survey-text","79","780174","0.0-79.0-0.0","A34YDGVZKRJ0LZ","","","","{""Q0"":""sky""}","","","","","","","","","","","","","","","","","","","","","","",""
"16710","","survey-text","80","796887","0.0-80.0-0.0","A34YDGVZKRJ0LZ","","","","{""Q0"":""This looks like someone painted with mustard""}","","","","","","","","","","","","","","","","","","","","","","",""
"3929.300000011921","","image-slider-response","81","800819","0.0-81.0","A34YDGVZKRJ0LZ","","","","","-26","","","","","","","","","","","","","","","","","","","","","",""
"null","","image-button-response","82","805829","0.0-82.0","A34YDGVZKRJ0LZ","img_art/4.jpg","null","","","","","","","","","","","","","","","","","","","","","","","","",""
"1932","","image-button-response","83","807763","0.0-83.0","A34YDGVZKRJ0LZ","img_art/4.jpg","1","","","","","","","","","","","","","","","","","","","","","","","","",""
"9885","","image-button-response","84","817652","0.0-84.0-0.0","A34YDGVZKRJ0LZ","img_art/4.jpg","4","","","","","","","","","","","","","","","","","","","","","","","","",""
"7447","","image-button-response","85","825107","0.0-85.0-0.0","A34YDGVZKRJ0LZ","img_art/4.jpg","5","","","","","","","","","","","","","","","","","","","","","","","","",""
"null","","html-keyboard-response","86","825611","0.0-86.0","A34YDGVZKRJ0LZ","<p style=""font-size: 48px;"">+</p>","","","","","null","allTrialResponses","500","1","6","img_art/4.jpg","-26","This looks like someone painted with mustard","Emma,Cassandra,Kylie,Cassidy,Erika,Andrea","Interesting but maybe a little creepy,0,60,20","I don't like this...a mustardy scibble.,-47,120,20","I just have no clue,26,300,20","Hate the color, and just do not get the point.,-13,140,20","Reminds me of late night frustrated paintings of my own made of coffee,12,100,20","I think it speaks to familial closeness but the tonality is offputting to me.,-10,240,20","Cassandra","I don't like this...a mustardy scibble.,-47,120,20","Erika","Reminds me of late night frustrated paintings of my own made of coffee,12,100,20","Andrea","I think it speaks to familial closeness but the tonality is offputting to me.,-10,240,20","0"
"33753","","survey-text","87","859370","0.0-87.0-0.0","A34YDGVZKRJ0LZ","","","","{""Q0"":""great use of color and interesting brush strokes""}","","","","","","","","","","","","","","","","","","","","","","",""
"4649.5999999940395","","image-slider-response","88","864022","0.0-88.0","A34YDGVZKRJ0LZ","","","","","12","","","","","","","","","","","","","","","","","","","","","",""
"null","","image-button-response","89","869026","0.0-89.0","A34YDGVZKRJ0LZ","img_art/30.jpg","null","","","","","","","","","","","","","","","","","","","","","","","","",""
"3176","","image-button-response","90","872206","0.0-90.0","A34YDGVZKRJ0LZ","img_art/30.jpg","3","","","","","","","","","","","","","","","","","","","","","","","","",""
"6161","","image-button-response","91","878372","0.0-91.0-0.0","A34YDGVZKRJ0LZ","img_art/30.jpg","2","","","","","","","","","","","","","","","","","","","","","","","","",""
"2937","","image-button-response","92","881314","0.0-92.0-0.0","A34YDGVZKRJ0LZ","img_art/30.jpg","0","","","","","","","","","","","","","","","","","","","","","","","","",""
"null","","html-keyboard-response","93","881818","0.0-93.0","A34YDGVZKRJ0LZ","<p style=""font-size: 48px;"">+</p>","","","","","null","allTrialResponses","500","1","7","img_art/30.jpg","12","great use of color and interesting brush strokes","Monica,Cassandra,Mikayla,Kelly,Erika,Andrea","It looked like a random scribble but I can see a person's face in it now and I think it's clever,13,360,20","I didn't like this...it looks like someone just finger painted it.,-10,120,20","Very colorful! Wow!,22,300,20","The red helps it to pop.,13,220,20","I can't parse any intention or emotion,-17,100,20","It feels like graffiti and the dark colors do nothing for the mood.,-5,240,20","Kelly","The red helps it to pop.,13,220,20","Mikayla","Very colorful! Wow!,22,300,20","Monica","It looked like a random scribble but I can see a person's face in it now and I think it's clever,13,360,20","0"
"35090","","survey-text","94","916912","0.0-94.0-0.0","A34YDGVZKRJ0LZ","","","","{""Q0"":""Love is the key...this makes me feel warm""}","","","","","","","","","","","","","","","","","","","","","","",""
"4547.700000017881","","image-slider-response","95","921464","0.0-95.0","A34YDGVZKRJ0LZ","","","","","50","","","","","","","","","","","","","","","","","","","","","",""
"null","","image-button-response","96","926468","0.0-96.0","A34YDGVZKRJ0LZ","img_art/22.jpg","null","","","","","","","","","","","","","","","","","","","","","","","","",""
"8170","","image-button-response","97","934640","0.0-97.0","A34YDGVZKRJ0LZ","img_art/22.jpg","0","","","","","","","","","","","","","","","","","","","","","","","","",""
"4193","","image-button-response","98","938836","0.0-98.0-0.0","A34YDGVZKRJ0LZ","img_art/22.jpg","2","","","","","","","","","","","","","","","","","","","","","","","","",""
"1379","","image-button-response","99","940219","0.0-99.0-0.0","A34YDGVZKRJ0LZ","img_art/22.jpg","3","","","","","","","","","","","","","","","","","","","","","","","","",""
"null","","html-keyboard-response","100","941221","0.0-100.0","A34YDGVZKRJ0LZ","<p style=""font-size: 48px;"">+</p>","","","","","null","allTrialResponses","1000","1","8","img_art/22.jpg","50","Love is the key...this makes me feel warm","Monica,Morgan,Mikayla,Kelly,Cynthia,Margaret","I really like the bright colors and sunset feel,31,360,20","Glowing city of many emotions.,10,380,20","So colorful i love it!,22,300,20","I really enjoy the blended colors.,20,220,20","A key to the unknown,15,320,20","i feel like this is a a basic art piece that a school would have on the wall,-24,100,20","Monica","I really like the bright colors and sunset feel,31,360,20","Mikayla","So colorful i love it!,22,300,20","Kelly","I really enjoy the blended colors.,20,220,20","0"
"12578","","survey-text","101","953805","0.0-101.0-0.0","A34YDGVZKRJ0LZ","","","","{""Q0"":""complicated and angry""}","","","","","","","","","","","","","","","","","","","","","","",""
"3517.5999999940395","","image-slider-response","102","957329","0.0-102.0","A34YDGVZKRJ0LZ","","","","","12","","","","","","","","","","","","","","","","","","","","","",""
"null","","image-button-response","103","962336","0.0-103.0","A34YDGVZKRJ0LZ","img_art/3.jpg","null","","","","","","","","","","","","","","","","","","","","","","","","",""
"14741","","image-button-response","104","977079","0.0-104.0","A34YDGVZKRJ0LZ","img_art/3.jpg","3","","","","","","","","","","","","","","","","","","","","","","","","",""
"3336","","image-button-response","105","980420","0.0-105.0-0.0","A34YDGVZKRJ0LZ","img_art/3.jpg","4","","","","","","","","","","","","","","","","","","","","","","","","",""
"7560","","image-button-response","106","987987","0.0-106.0-0.0","A34YDGVZKRJ0LZ","img_art/3.jpg","1","","","","","","","","","","","","","","","","","","","","","","","","",""
"null","","html-keyboard-response","107","988992","0.0-107.0","A34YDGVZKRJ0LZ","<p style=""font-size: 48px;"">+</p>","","","","","null","allTrialResponses","1000","1","9","img_art/3.jpg","12","complicated and angry","Monica,Sarah,Mikayla,Kelly,Abigail,Grace","It looks like random scribbles by a child and not appealing,-38,360,20","the red is impactful but the work overall doesn't say anything to me,-8,180,20","Scary. Looks like blood.,-45,300,20","Reminds me of blood.,-28,220,20","Reminded me of blood or something bad,-21,20,20","Just no. I love red but this looks like blood splatter on a wall from a horrific killing.,-45,180,20","Kelly","Reminds me of blood.,-28,220,20","Abigail","Reminded me of blood or something bad,-21,20,20","Sarah","the red is impactful but the work overall doesn't say anything to me,-8,180,20","0"
"30658","","survey-text","108","1019660","0.0-108.0-0.0","A34YDGVZKRJ0LZ","","","","{""Q0"":""interesting, but way to busy, the middle doesn't go with the rest of the painting""}","","","","","","","","","","","","","","","","","","","","","","",""
"4772.100000023842","","image-slider-response","109","1024435","0.0-109.0","A34YDGVZKRJ0LZ","","","","","-30","","","","","","","","","","","","","","","","","","","","","",""
"null","","image-button-response","110","1029440","0.0-110.0","A34YDGVZKRJ0LZ","img_art/23.jpg","null","","","","","","","","","","","","","","","","","","","","","","","","",""
"4085","","image-button-response","111","1033527","0.0-111.0","A34YDGVZKRJ0LZ","img_art/23.jpg","1","","","","","","","","","","","","","","","","","","","","","","","","",""
"10640","","image-button-response","112","1044170","0.0-112.0-0.0","A34YDGVZKRJ0LZ","img_art/23.jpg","4","","","","","","","","","","","","","","","","","","","","","","","","",""
"4983","","image-button-response","113","1049157","0.0-113.0-0.0","A34YDGVZKRJ0LZ","img_art/23.jpg","2","","","","","","","","","","","","","","","","","","","","","","","","",""
"null","","html-keyboard-response","114","1050665","0.0-114.0","A34YDGVZKRJ0LZ","<p style=""font-size: 48px;"">+</p>","","","","","null","allTrialResponses","1500","1","10","img_art/23.jpg","-30","interesting, but way to busy, the middle doesn't go with the rest of the painting","Kristen,Sarah,Leah,Kelly,Abigail,Nicole","fsiries, happy, spiritual,16,280,20","it's not uninteresting, but i'm not responding to it,-7,180,20","Interesting, want to look at it more to identify,25,360,20","Love this. I love the white, really pops with the colors surrounding it.,44,220,20","I like the contrast,29,20,20","Those colors are awesome! And I love the strip of negative space that almost looks like a line of people,50,20,20","Sarah","it's not uninteresting, but i'm not responding to it,-7,180,20","Abigail","I like the contrast,29,20,20","Leah","Interesting, want to look at it more to identify,25,360,20","0"
"3560","","survey-text","115","1054238","0.0-115.0-0.0","A34YDGVZKRJ0LZ","","","","{""Q0"":""our""}","","","","","","","","","","","","","","","","","","","","","","",""
"24759","","survey-text","116","1078999","0.0-116.0-0.0","A34YDGVZKRJ0LZ","","","","{""Q0"":""strange, weird, extremely abstract""}","","","","","","","","","","","","","","","","","","","","","","",""
"4048","","image-slider-response","117","1083050","0.0-117.0","A34YDGVZKRJ0LZ","","","","","-12","","","","","","","","","","","","","","","","","","","","","",""
"4754","","image-button-response","118","1088058","0.0-118.0","A34YDGVZKRJ0LZ","img_art/16.jpg","4","","","","","","","","","","","","","","","","","","","","","","","","",""
"1148","","image-button-response","119","1089211","0.0-119.0","A34YDGVZKRJ0LZ","img_art/16.jpg","4","","","","","","","","","","","","","","","","","","","","","","","","",""
"15879","","image-button-response","120","1105094","0.0-120.0-0.0","A34YDGVZKRJ0LZ","img_art/16.jpg","0","","","","","","","","","","","","","","","","","","","","","","","","",""
"1471","","image-button-response","121","1106570","0.0-121.0-0.0","A34YDGVZKRJ0LZ","img_art/16.jpg","0","","","","","","","","","","","","","","","","","","","","","","","","",""
"3425","","image-button-response","122","1117186","0.0-121.1-0.1","A34YDGVZKRJ0LZ","img_art/16.jpg","2","","","","","","","","","","","","","","","","","","","","","","","","",""
"null","","html-keyboard-response","123","1117689","0.0-122.0","A34YDGVZKRJ0LZ","<p style=""font-size: 48px;"">+</p>","","","","","null","allTrialResponses","500","1","11","img_art/16.jpg","-12","strange, weird, extremely abstract","Danielle,Sarah,Leah,Savannah,Abigail,Jasmine","I enjoy how slightly strange this is, while seeming to still have some message,20,340,20","i don't like the collage aspect,-25,180,20","Know it is a piece relating to children and gun violence. Sad,-30,360,20","A strange collage made by a child. Do not like the colored face of the bear.,-29,200,20","The bear makes me very uncomfortable,-50,20,20","I like it because it's quite different from the rest,23,340,20","Abigail","The bear makes me very uncomfortable,-50,20,20","Danielle","I enjoy how slightly strange this is, while seeming to still have some message,20,340,20","Leah","Know it is a piece relating to children and gun violence. Sad,-30,360,20","2"
"23010","","survey-text","124","1140706","0.0-123.0-0.0","A34YDGVZKRJ0LZ","","","","{""Q0"":""a little too messy, the green is putrid""}","","","","","","","","","","","","","","","","","","","","","","",""
"4719.9000000059605","","image-slider-response","125","1145429","0.0-124.0","A34YDGVZKRJ0LZ","","","","","-36","","","","","","","","","","","","","","","","","","","","","",""
"1897","","image-button-response","126","1150434","0.0-125.0","A34YDGVZKRJ0LZ","img_art/2.jpg","0","","","","","","","","","","","","","","","","","","","","","","","","",""
"1729","","image-button-response","127","1152165","0.0-126.0","A34YDGVZKRJ0LZ","img_art/2.jpg","0","","","","","","","","","","","","","","","","","","","","","","","","",""
"14666","","image-button-response","128","1166835","0.0-127.0-0.0","A34YDGVZKRJ0LZ","img_art/2.jpg","2","","","","","","","","","","","","","","","","","","","","","","","","",""
"1848","","image-button-response","129","1168687","0.0-128.0-0.0","A34YDGVZKRJ0LZ","img_art/2.jpg","5","","","","","","","","","","","","","","","","","","","","","","","","",""
"null","","html-keyboard-response","130","1170189","0.0-129.0","A34YDGVZKRJ0LZ","<p style=""font-size: 48px;"">+</p>","","","","","null","allTrialResponses","1500","1","12","img_art/2.jpg","-36","a little too messy, the green is putrid","Danielle,Shelby,Leah,Victoria,Abigail,Caitlin","Not a fan of this style,-30,340,20","The contrasting colors are a bit harsh,-10,240,20","Kind of looks upside down, I need a focal point,-29,360,20","I like the colors,22,400,20","Reminds me of my baby brother,11,20,20","Have now advanced from kindergarten to the first grade.,-5,80,20","Danielle","Not a fan of this style,-30,340,20","Leah","Kind of looks upside down, I need a focal point,-29,360,20","Caitlin","Have now advanced from kindergarten to the first grade.,-5,80,20","2"
"17618","","survey-text","131","1187815","0.0-130.0-0.0","A34YDGVZKRJ0LZ","","","","{""Q0"":""good use of color""}","","","","","","","","","","","","","","","","","","","","","","",""
"3400.300000011921","","image-slider-response","132","1191219","0.0-131.0","A34YDGVZKRJ0LZ","","","","","5","","","","","","","","","","","","","","","","","","","","","",""
"4754","","image-button-response","133","1196224","0.0-132.0","A34YDGVZKRJ0LZ","img_art/1.jpg","1","","","","","","","","","","","","","","","","","","","","","","","","",""
"806","","image-button-response","134","1197033","0.0-133.0","A34YDGVZKRJ0LZ","img_art/1.jpg","1","","","","","","","","","","","","","","","","","","","","","","","","",""
"5746","","image-button-response","135","1202783","0.0-134.0-0.0","A34YDGVZKRJ0LZ","img_art/1.jpg","3","","","","","","","","","","","","","","","","","","","","","","","","",""
"7397","","image-button-response","136","1210185","0.0-135.0-0.0","A34YDGVZKRJ0LZ","img_art/1.jpg","5","","","","","","","","","","","","","","","","","","","","","","","","",""
"null","","html-keyboard-response","137","1210689","0.0-136.0","A34YDGVZKRJ0LZ","<p style=""font-size: 48px;"">+</p>","","","","","null","allTrialResponses","500","1","13","img_art/1.jpg","5","good use of color","Danielle,Heather,Leah,Sydney,Kathryn,Caitlin","Not a fan of the mood, overly party-ish and bright colors do not suit my taste,-40,340,20","the colors are vibrant and beautiful,1,260,20","Pretty intermeshing of colors, happy,32,360,20","I like the way that the colors blend.,35,320,20","For some reason this makes me want to go ice skating. It's whimsical and free but also very smooth.,20,140,20","Deja vu. Haven't I seen this one before? Not bad for those living in the backwoods.,10,80,20","Heather","the colors are vibrant and beautiful,1,260,20","Sydney","I like the way that the colors blend.,35,320,20","Caitlin","Deja vu. Haven't I seen this one before? Not bad for those living in the backwoods.,10,80,20","2"
"79115","","survey-text","138","1289812","0.0-137.0-0.0","A34YDGVZKRJ0LZ","","","","{""Q0"":""beautiful underlay of blues, and calming. the splatters bring about feelings of chaos""}","","","","","","","","","","","","","","","","","","","","","","",""
"4019.0999999940395","","image-slider-response","139","1293847","0.0-138.0","A34YDGVZKRJ0LZ","","","","","41","","","","","","","","","","","","","","","","","","","","","",""
"3829","","image-button-response","140","1298859","0.0-139.0","A34YDGVZKRJ0LZ","img_art/13.jpg","0","","","","","","","","","","","","","","","","","","","","","","","","",""
"62","","image-button-response","141","1298924","0.0-140.0","A34YDGVZKRJ0LZ","img_art/13.jpg","0","","","","","","","","","","","","","","","","","","","","","","","","",""
"12743","","image-button-response","142","1311672","0.0-141.0-0.0","A34YDGVZKRJ0LZ","img_art/13.jpg","5","","","","","","","","","","","","","","","","","","","","","","","","",""
"3485","","image-button-response","143","1315161","0.0-142.0-0.0","A34YDGVZKRJ0LZ","img_art/13.jpg","2","","","","","","","","","","","","","","","","","","","","","","","","",""
"null","","html-keyboard-response","144","1316163","0.0-143.0","A34YDGVZKRJ0LZ","<p style=""font-size: 48px;"">+</p>","","","","","null","allTrialResponses","1000","1","14","img_art/13.jpg","41","beautiful underlay of blues, and calming. the splatters bring about feelings of chaos","Jamie,Heather,Mackenzie,Sydney,Chloe,Caitlin","Cool colors and looks like rain on a window,45,320,20","rain in blue black and white,1,260,20","I enjoy the cool colors mixed together,31,20,20","I love the style of this piece, but the color choice could've been more eye catching or calming.,40,320,20","Industrial Jackson Pollock knock-off,-20,220,20","Simple and in my favorite color. I actually like this one.,40,80,20","Jamie","Cool colors and looks like rain on a window,45,320,20","Caitlin","Simple and in my favorite color. I actually like this one.,40,80,20","Mackenzie","I enjoy the cool colors mixed together,31,20,20","2"
"30537","","survey-text","145","1346710","0.0-144.0-0.0","A34YDGVZKRJ0LZ","","","","{""Q0"":""peaceful, quiet, with a hint of sadness""}","","","","","","","","","","","","","","","","","","","","","","",""
"4352.399999976158","","image-slider-response","146","1351065","0.0-145.0","A34YDGVZKRJ0LZ","","","","","26","","","","","","","","","","","","","","","","","","","","","",""
"null","","image-button-response","147","1356070","0.0-146.0","A34YDGVZKRJ0LZ","img_art/17.jpg","null","","","","","","","","","","","","","","","","","","","","","","","","",""
"11742","","image-button-response","148","1367816","0.0-147.0","A34YDGVZKRJ0LZ","img_art/17.jpg","2","","","","","","","","","","","","","","","","","","","","","","","","",""
"1023","","image-button-response","149","1368847","0.0-148.0-0.0","A34YDGVZKRJ0LZ","img_art/17.jpg","1","","","","","","","","","","","","","","","","","","","","","","","","",""
"977","","image-button-response","150","1369830","0.0-149.0-0.0","A34YDGVZKRJ0LZ","img_art/17.jpg","0","","","","","","","","","","","","","","","","","","","","","","","","",""
"null","","html-keyboard-response","151","1370334","0.0-150.0","A34YDGVZKRJ0LZ","<p style=""font-size: 48px;"">+</p>","","","","","null","allTrialResponses","500","1","15","img_art/17.jpg","26","peaceful, quiet, with a hint of sadness","Jamie,Mariah,Mackenzie,Erin,Angelica,Caitlin","Looks like some fantasy tree. Nice,30,320,20","It feels like nature overtaking civilization.,21,140,20","Very fun textures,32,20,20","Windows indoor tree, weird palette,-11,120,20","This could have been good but was poorly done.,-5,280,20","Somewhat should trim the tree branches at the shopping mall.,10,80,20","Mackenzie","Very fun textures,32,20,20","Mariah","It feels like nature overtaking civilization.,21,140,20","Jamie","Looks like some fantasy tree. Nice,30,320,20","2"
"5989","","survey-text","152","1376335","0.0-151.0-0.0","A34YDGVZKRJ0LZ","","","","{""Q0"":""course""}","","","","","","","","","","","","","","","","","","","","","","",""
"22674","","survey-text","153","1399011","0.0-152.0-0.0","A34YDGVZKRJ0LZ","","","","{""Q0"":""don't like this one, just nope.""}","","","","","","","","","","","","","","","","","","","","","","",""
"3518.399999976158","","image-slider-response","154","1402534","0.0-153.0","A34YDGVZKRJ0LZ","","","","","-50","","","","","","","","","","","","","","","","","","","","","",""
"null","","image-button-response","155","1407543","0.0-154.0","A34YDGVZKRJ0LZ","img_art/5.jpg","null","","","","","","","","","","","","","","","","","","","","","","","","",""
"6742","","image-button-response","156","1414288","0.0-155.0","A34YDGVZKRJ0LZ","img_art/5.jpg","0","","","","","","","","","","","","","","","","","","","","","","","","",""
"1784","","image-button-response","157","1416076","0.0-156.0-0.0","A34YDGVZKRJ0LZ","img_art/5.jpg","2","","","","","","","","","","","","","","","","","","","","","","","","",""
"4534","","image-button-response","158","1420616","0.0-157.0-0.0","A34YDGVZKRJ0LZ","img_art/5.jpg","3","","","","","","","","","","","","","","","","","","","","","","","","",""
"null","","html-keyboard-response","159","1421623","0.0-158.0","A34YDGVZKRJ0LZ","<p style=""font-size: 48px;"">+</p>","","","","","null","allTrialResponses","1000","1","16","img_art/5.jpg","-50","don't like this one, just nope.","Jamie,Mariah,Mackenzie,Meghan,Natalie,Diana","Don't really see it and yellow/pink don't go well together,-35,320,20","It feels very strong and open.,31,140,20","Overpowering colors.,-26,20,20","I like it but I don't know why,15,220,20","the picture looks ok,8,400,20","I didn't care for this art piece. I wasn't sure about the color choice.,-15,380,20","Jamie","Don't really see it and yellow/pink don't go well together,-35,320,20","Mackenzie","Overpowering colors.,-26,20,20","Meghan","I like it but I don't know why,15,220,20","2"
"24828","","survey-text","160","1446459","0.0-159.0-0.0","A34YDGVZKRJ0LZ","","","","{""Q0"":""I wouldn't want this. looks like an aerial view of the desert""}","","","","","","","","","","","","","","","","","","","","","","",""
"4154.5999999940395","","image-slider-response","161","1450619","0.0-160.0","A34YDGVZKRJ0LZ","","","","","-48","","","","","","","","","","","","","","","","","","","","","",""
"4860","","image-button-response","162","1455627","0.0-161.0","A34YDGVZKRJ0LZ","img_art/7.jpg","1","","","","","","","","","","","","","","","","","","","","","","","","",""
"1078","","image-button-response","163","1456708","0.0-162.0","A34YDGVZKRJ0LZ","img_art/7.jpg","1","","","","","","","","","","","","","","","","","","","","","","","","",""
"2721","","image-button-response","164","1459434","0.0-163.0-0.0","A34YDGVZKRJ0LZ","img_art/7.jpg","3","","","","","","","","","","","","","","","","","","","","","","","","",""
"10110","","image-button-response","165","1469550","0.0-164.0-0.0","A34YDGVZKRJ0LZ","img_art/7.jpg","0","","","","","","","","","","","","","","","","","","","","","","","","",""
"null","","html-keyboard-response","166","1470558","0.0-165.0","A34YDGVZKRJ0LZ","<p style=""font-size: 48px;"">+</p>","","","","","null","allTrialResponses","1000","1","17","img_art/7.jpg","-48","I wouldn't want this. looks like an aerial view of the desert","Jamie,Kelsey,Mackenzie,Meghan,Melissa,Madison","Looks like a battle raging on,20,320,20","its like oatmeal with granola,-47,240,20","Is simple in color and texture,11,20,20","I don't like the texture,-49,220,20","textures are engaging,8,240,20","Is this a painting, really? Very compelling if so, the texture work is incredible.,15,60,20","Kelsey","its like oatmeal with granola,-47,240,20","Meghan","I don't like the texture,-49,220,20","Jamie","Looks like a battle raging on,20,320,20","2"
"49967","","survey-text","167","1520534","0.0-166.0-0.0","A34YDGVZKRJ0LZ","","","","{""Q0"":""lot's of interesting things going on in this, good use of items placed on it""}","","","","","","","","","","","","","","","","","","","","","","",""
"3232.699999988079","","image-slider-response","168","1523769","0.0-167.0","A34YDGVZKRJ0LZ","","","","","25","","","","","","","","","","","","","","","","","","","","","",""
"2853","","image-button-response","169","1528778","0.0-168.0","A34YDGVZKRJ0LZ","img_art/29.jpg","0","","","","","","","","","","","","","","","","","","","","","","","","",""
"558","","image-button-response","170","1529340","0.0-169.0","A34YDGVZKRJ0LZ","img_art/29.jpg","0","","","","","","","","","","","","","","","","","","","","","","","","",""
"3754","","image-button-response","171","1533097","0.0-170.0-0.0","A34YDGVZKRJ0LZ","img_art/29.jpg","4","","","","","","","","","","","","","","","","","","","","","","","","",""
"4805","","image-button-response","172","1537907","0.0-171.0-0.0","A34YDGVZKRJ0LZ","img_art/29.jpg","2","","","","","","","","","","","","","","","","","","","","","","","","",""
"null","","html-keyboard-response","173","1538913","0.0-172.0","A34YDGVZKRJ0LZ","<p style=""font-size: 48px;"">+</p>","","","","","null","allTrialResponses","1000","1","18","img_art/29.jpg","25","lot's of interesting things going on in this, good use of items placed on it","Jamie,Kelsey,Brittany,Meghan,Rebecca,Haley","3D looks is really cool,30,320,20","dont like this one,-20,240,20","It looks likes there's a lot going on, but they don't fit together.,2,40,20","feels random and not thoughtout,-37,220,20","love the texture, i don't know, i just really like it (and the paintbrush adds a nice touch),44,100,20","Looks messy, but not in appealing way,-20,220,20","Jamie","3D looks is really cool,30,320,20","Rebecca","love the texture, i don't know, i just really like it (and the paintbrush adds a nice touch),44,100,20","Brittany","It looks likes there's a lot going on, but they don't fit together.,2,40,20","2"
"51677","","survey-text","174","1590599","0.0-173.0-0.0","A34YDGVZKRJ0LZ","","","","{""Q0"":""too loose and the drawn lines just look like scratches.""}","","","","","","","","","","","","","","","","","","","","","","",""
"3990.5","","image-slider-response","175","1594598","0.0-174.0","A34YDGVZKRJ0LZ","","","","","-30","","","","","","","","","","","","","","","","","","","","","",""
"null","","image-button-response","176","1599605","0.0-175.0","A34YDGVZKRJ0LZ","img_art/27.jpg","null","","","","","","","","","","","","","","","","","","","","","","","","",""
"13116","","image-button-response","177","1612725","0.0-176.0","A34YDGVZKRJ0LZ","img_art/27.jpg","5","","","","","","","","","","","","","","","","","","","","","","","","",""
"3316","","image-button-response","178","1616045","0.0-177.0-0.0","A34YDGVZKRJ0LZ","img_art/27.jpg","0","","","","","","","","","","","","","","","","","","","","","","","","",""
"3583","","image-button-response","179","1619632","0.0-178.0-0.0","A34YDGVZKRJ0LZ","img_art/27.jpg","1","","","","","","","","","","","","","","","","","","","","","","","","",""
"null","","html-keyboard-response","180","1621138","0.0-179.0","A34YDGVZKRJ0LZ","<p style=""font-size: 48px;"">+</p>","","","","","null","allTrialResponses","1500","1","19","img_art/27.jpg","-30","too loose and the drawn lines just look like scratches.","Jamie,Kaitlyn,Brittany,Maria,Rebecca,Hannah","Don't like the mix of green with the warmer colors,-15,320,20","The variation of orange is nice,9,80,20","The colors are put together in an interesting way.,-9,40,20","I generally enjoy the style, but I'm finding the green lines grating,-9,120,20","don't understand, the green induces confusion,1,100,20","Reminds me of something I'd see in a gold frame from the Eighties.,-9,240,20","Hannah","Reminds me of something I'd see in a gold frame from the Eighties.,-9,240,20","Jamie","Don't like the mix of green with the warmer colors,-15,320,20","Kaitlyn","The variation of orange is nice,9,80,20","2"
"40104","","survey-text","181","1661248","0.0-180.0-0.0","A34YDGVZKRJ0LZ","","","","{""Q0"":""the muted background makes me feel like the artist changed their mind about their original intention""}","","","","","","","","","","","","","","","","","","","","","","",""
"4153.0999999940395","","image-slider-response","182","1665404","0.0-181.0","A34YDGVZKRJ0LZ","","","","","4","","","","","","","","","","","","","","","","","","","","","",""
"3816","","image-button-response","183","1670412","0.0-182.0","A34YDGVZKRJ0LZ","img_art/14.jpg","1","","","","","","","","","","","","","","","","","","","","","","","","",""
"748","","image-button-response","184","1671163","0.0-183.0","A34YDGVZKRJ0LZ","img_art/14.jpg","1","","","","","","","","","","","","","","","","","","","","","","","","",""
"2685","","image-button-response","185","1673852","0.0-184.0-0.0","A34YDGVZKRJ0LZ","img_art/14.jpg","2","","","","","","","","","","","","","","","","","","","","","","","","",""
"5735","","image-button-response","186","1679593","0.0-185.0-0.0","A34YDGVZKRJ0LZ","img_art/14.jpg","4","","","","","","","","","","","","","","","","","","","","","","","","",""
"null","","html-keyboard-response","187","1680602","0.0-186.0","A34YDGVZKRJ0LZ","<p style=""font-size: 48px;"">+</p>","","","","","null","allTrialResponses","1000","1","20","img_art/14.jpg","4","the muted background makes me feel like the artist changed their mind about their original intention","Jamie,Kaitlyn,Gabrielle,Sara,Jacqueline,Hannah","Not as cool as other tree looking paintings,-5,320,20","Focal point is interesting,5,80,20","the colors are peaceful and nature colors, soft,37,160,20","It uplifts my mood due to the color scheme,32,160,20","It kind of looks like a tree but I feel very netural.,0,300,20","This doesn't speak to me on an emotional level,-6,240,20","Kaitlyn","Focal point is interesting,5,80,20","Gabrielle","the colors are peaceful and nature colors, soft,37,160,20","Jacqueline","It kind of looks like a tree but I feel very netural.,0,300,20","2"
"3652","","survey-text","188","1684269","0.0-187.0-0.0","A34YDGVZKRJ0LZ","","","","{""Q0"":""we""}","","","","","","","","","","","","","","","","","","","","","","",""
"37767","","survey-text","189","1722038","0.0-188.0-0.0","A34YDGVZKRJ0LZ","","","","{""Q0"":""smart, brainy, the muted colors are calming""}","","","","","","","","","","","","","","","","","","","","","","",""
"3603.699999988079","","image-slider-response","190","1725644","0.0-189.0","A34YDGVZKRJ0LZ","","","","","26","","","","","","","","","","","","","","","","","","","","","",""
"4931","","image-button-response","191","1730652","0.0-190.0","A34YDGVZKRJ0LZ","img_art/28.jpg","0","","","","","","","","","","","","","","","","","","","","","","","","",""
"1792","","image-button-response","192","1732448","0.0-191.0","A34YDGVZKRJ0LZ","img_art/28.jpg","0","","","","","","","","","","","","","","","","","","","","","","","","",""
"7131","","image-button-response","193","1739583","0.0-192.0-0.0","A34YDGVZKRJ0LZ","img_art/28.jpg","3","","","","","","","","","","","","","","","","","","","","","","","","",""
"5597","","image-button-response","194","1745186","0.0-193.0-0.0","A34YDGVZKRJ0LZ","img_art/28.jpg","2","","","","","","","","","","","","","","","","","","","","","","","","",""
"null","","html-keyboard-response","195","1746693","0.0-194.0","A34YDGVZKRJ0LZ","<p style=""font-size: 48px;"">+</p>","","","","","null","allTrialResponses","1500","1","21","img_art/28.jpg","26","smart, brainy, the muted colors are calming","Amy,Kaitlyn,Gabrielle,Caroline,Jacqueline,Taylor","Contemplative and a little dark. The muted colors and subject create a sense of mystery.,15,220,20","Not sure what way this picture is suppose to be oriented,-5,80,20","bland coloring but pattern interesting,2,160,20","Colors are pleasing. Made me think of two people kneeling and talking. A curious feeling.,15,100,20","I don't like the washed out colors.,-15,300,20","Doesn't give me an emotional response,0,340,20","Amy","Contemplative and a little dark. The muted colors and subject create a sense of mystery.,15,220,20","Caroline","Colors are pleasing. Made me think of two people kneeling and talking. A curious feeling.,15,100,20","Gabrielle","bland coloring but pattern interesting,2,160,20","2"
"51186","","survey-text","196","1797887","0.0-195.0-0.0","A34YDGVZKRJ0LZ","","","","{""Q0"":""the green really stands out. that's the only thing i can really say about this""}","","","","","","","","","","","","","","","","","","","","","","",""
"11030.40000000596","","image-slider-response","197","1808920","0.0-196.0","A34YDGVZKRJ0LZ","","","","","0","","","","","","","","","","","","","","","","","","","","","",""
"4542","","image-button-response","198","1813930","0.0-197.0","A34YDGVZKRJ0LZ","img_art/24.jpg","0","","","","","","","","","","","","","","","","","","","","","","","","",""
"737","","image-button-response","199","1814672","0.0-198.0","A34YDGVZKRJ0LZ","img_art/24.jpg","0","","","","","","","","","","","","","","","","","","","","","","","","",""
"11019","","image-button-response","200","1825695","0.0-199.0-0.0","A34YDGVZKRJ0LZ","img_art/24.jpg","1","","","","","","","","","","","","","","","","","","","","","","","","",""
"3231","","image-button-response","201","1828931","0.0-200.0-0.0","A34YDGVZKRJ0LZ","img_art/24.jpg","2","","","","","","","","","","","","","","","","","","","","","","","","",""
"null","","html-keyboard-response","202","1830438","0.0-201.0","A34YDGVZKRJ0LZ","<p style=""font-size: 48px;"">+</p>","","","","","null","allTrialResponses","1500","1","22","img_art/24.jpg","0","the green really stands out. that's the only thing i can really say about this","Amy,Katelyn,Gabrielle,Caroline,Ashley,Rachel","The contorted angles of the flowing water upset the harmony,-20,220,20","Love the colors and contrast. Feels peaceful.,33,100,20","flowing water part is good, some of the rest is ok but dark,14,160,20","Waterfalls and spring and gives me a sense of renewal,34,100,20","NOt quite Bob Ross, but still good.,30,320,20","Looks like a beautiful stream rolling through terrain of rocks and flowers.,43,80,20","Amy","The contorted angles of the flowing water upset the harmony,-20,220,20","Katelyn","Love the colors and contrast. Feels peaceful.,33,100,20","Gabrielle","flowing water part is good, some of the rest is ok but dark,14,160,20","2"
"23466","","survey-text","203","1853916","0.0-202.0-0.0","A34YDGVZKRJ0LZ","","","","{""Q0"":""sunny and bright with a dark side ""}","","","","","","","","","","","","","","","","","","","","","","",""
"4091.2999999821186","","image-slider-response","204","1858020","0.0-203.0","A34YDGVZKRJ0LZ","","","","","47","","","","","","","","","","","","","","","","","","","","","",""
"null","","image-button-response","205","1863027","0.0-204.0","A34YDGVZKRJ0LZ","img_art/6.jpg","null","","","","","","","","","","","","","","","","","","","","","","","","",""
"9651","","image-button-response","206","1872682","0.0-205.0","A34YDGVZKRJ0LZ","img_art/6.jpg","5","","","","","","","","","","","","","","","","","","","","","","","","",""
"9815","","image-button-response","207","1882500","0.0-206.0-0.0","A34YDGVZKRJ0LZ","img_art/6.jpg","3","","","","","","","","","","","","","","","","","","","","","","","","",""
"17993","","image-button-response","208","1900499","0.0-207.0-0.0","A34YDGVZKRJ0LZ","img_art/6.jpg","2","","","","","","","","","","","","","","","","","","","","","","","","",""
"null","","html-keyboard-response","209","1901002","0.0-208.0","A34YDGVZKRJ0LZ","<p style=""font-size: 48px;"">+</p>","","","","","null","allTrialResponses","500","1","23","img_art/6.jpg","47","sunny and bright with a dark side ","Amy,Katelyn,Gabrielle,Miranda,Katie,Alyssa","Lack of context makes this painting 1-d for me. The headless bird is mysterious and indecipherable.,-10,220,20","Nothing grabs at me here,-11,100,20","simplistic but reminds me of a crow in a field,-10,160,20","It's slightly unnerving to look at, it looks a little creepy/eerie,-16,320,20","I like the warmth of the orange. But, I feel like it's a partial view. I'm frustrated I can't see the entirety.,-20,160,20","It makes me stop and think about what the artist is trying to say.It creates a feeling of solitude and tranqulity,30,160,20","Alyssa","It makes me stop and think about what the artist is trying to say.It creates a feeling of solitude and tranqulity,30,160,20","Miranda","It's slightly unnerving to look at, it looks a little creepy/eerie,-16,320,20","Gabrielle","simplistic but reminds me of a crow in a field,-10,160,20","2"
"54610","","survey-text","210","1955624","0.0-209.0-0.0","A34YDGVZKRJ0LZ","","","","{""Q0"":""smoky colors feels like a scene from a beach looking at cliff and the ocean""}","","","","","","","","","","","","","","","","","","","","","","",""
"3561","","image-slider-response","211","1959188","0.0-210.0","A34YDGVZKRJ0LZ","","","","","20","","","","","","","","","","","","","","","","","","","","","",""
"4919","","image-button-response","212","1964197","0.0-211.0","A34YDGVZKRJ0LZ","img_art/21.jpg","3","","","","","","","","","","","","","","","","","","","","","","","","",""
"623","","image-button-response","213","1964823","0.0-212.0","A34YDGVZKRJ0LZ","img_art/21.jpg","3","","","","","","","","","","","","","","","","","","","","","","","","",""
"5522","","image-button-response","214","1970347","0.0-213.0-0.0","A34YDGVZKRJ0LZ","img_art/21.jpg","5","","","","","","","","","","","","","","","","","","","","","","","","",""
"2521","","image-button-response","215","1972874","0.0-214.0-0.0","A34YDGVZKRJ0LZ","img_art/21.jpg","0","","","","","","","","","","","","","","","","","","","","","","","","",""
"null","","html-keyboard-response","216","1973879","0.0-215.0","A34YDGVZKRJ0LZ","<p style=""font-size: 48px;"">+</p>","","","","","null","allTrialResponses","1000","1","24","img_art/21.jpg","20","smoky colors feels like a scene from a beach looking at cliff and the ocean","Michaela,Allison,Gabrielle,Miranda,Kaitlin,Alyssa","I love how vague it is but how you can imagine a story anyway, like clouds,45,260,20","I like color mix here,15,140,20","setting sun sky? nice colors and blending,14,160,20","This looks very interesting because something is happening but I can't tell what.,28,320,20","waterpaint is attractive,13,60,20","I like the colors that were used and the stark contrast between the two sides,25,160,20","Miranda","This looks very interesting because something is happening but I can't tell what.,28,320,20","Alyssa","I like the colors that were used and the stark contrast between the two sides,25,160,20","Michaela","I love how vague it is but how you can imagine a story anyway, like clouds,45,260,20","2"
"53068","","survey-text","217","2026957","0.0-216.0-0.0","A34YDGVZKRJ0LZ","","","","{""Q0"":""interesting perspective nice use of color ""}","","","","","","","","","","","","","","","","","","","","","","",""
"2661.2000000178814","","image-slider-response","218","2029621","0.0-217.0","A34YDGVZKRJ0LZ","","","","","24","","","","","","","","","","","","","","","","","","","","","",""
"null","","image-button-response","219","2034629","0.0-218.0","A34YDGVZKRJ0LZ","img_art/18.jpg","null","","","","","","","","","","","","","","","","","","","","","","","","",""
"2444","","image-button-response","220","2037076","0.0-219.0","A34YDGVZKRJ0LZ","img_art/18.jpg","3","","","","","","","","","","","","","","","","","","","","","","","","",""
"3409","","image-button-response","221","2040489","0.0-220.0-0.0","A34YDGVZKRJ0LZ","img_art/18.jpg","5","","","","","","","","","","","","","","","","","","","","","","","","",""
"3189","","image-button-response","222","2043683","0.0-221.0-0.0","A34YDGVZKRJ0LZ","img_art/18.jpg","2","","","","","","","","","","","","","","","","","","","","","","","","",""
"null","","html-keyboard-response","223","2044187","0.0-222.0","A34YDGVZKRJ0LZ","<p style=""font-size: 48px;"">+</p>","","","","","null","allTrialResponses","500","1","25","img_art/18.jpg","24","interesting perspective nice use of color ","Michaela,Isabella,Dominique,Miranda,Bailey,Alyssa","Reminds me of the four horsemen of the apocalypse,29,260,20","Feels like a story of ancient war of the gods,26,280,20","Very conversational and can see many different looks and feels from this .,34,400,20","This one raises some questions, there could be some sort of fight or battle going on.,11,320,20","Looks like a jumbled mess. I prefer a clearer picture,-18,360,20","There are alot of elements to this painting and a good mix of colors,32,160,20","Miranda","This one raises some questions, there could be some sort of fight or battle going on.,11,320,20","Alyssa","There are alot of elements to this painting and a good mix of colors,32,160,20","Dominique","Very conversational and can see many different looks and feels from this .,34,400,20","2"
"4519","","survey-text","224","2048722","0.0-223.0-0.0","A34YDGVZKRJ0LZ","","","","{""Q0"":""table""}","","","","","","","","","","","","","","","","","","","","","","",""
"26680","","survey-text","225","2075404","0.0-224.0-0.0","A34YDGVZKRJ0LZ","","","","{""Q0"":""simplistic and real, a view of everyday life""}","","","","","","","","","","","","","","","","","","","","","","",""
"12015.90000000596","","image-slider-response","226","2087422","0.0-225.0","A34YDGVZKRJ0LZ","","","","","28","","","","","","","","","","","","","","","","","","","","","",""
"4409","","image-button-response","227","2092426","0.0-226.0","A34YDGVZKRJ0LZ","img_art/26.jpg","1","","","","","","","","","","","","","","","","","","","","","","","","",""
"1291","","image-button-response","228","2093720","0.0-227.0","A34YDGVZKRJ0LZ","img_art/26.jpg","2","","","","","","","","","","","","","","","","","","","","","","","","",""
"986","","image-button-response","229","2094710","0.0-228.0-0.0","A34YDGVZKRJ0LZ","img_art/26.jpg","1","","","","","","","","","","","","","","","","","","","","","","","","",""
"5458","","image-button-response","230","2100175","0.0-229.0-0.0","A34YDGVZKRJ0LZ","img_art/26.jpg","4","","","","","","","","","","","","","","","","","","","","","","","","",""
"null","","html-keyboard-response","231","2101678","0.0-230.0","A34YDGVZKRJ0LZ","<p style=""font-size: 48px;"">+</p>","","","","","null","allTrialResponses","1500","1","26","img_art/26.jpg","28","simplistic and real, a view of everyday life","Leslie,Amanda,Dominique,Miranda,Elizabeth,Alyssa","It's a cute city scene. I like the trees.,10,380,20","Pleasant to look at,28,180,20","Small town and home feel on A nice day.,28,400,20","This seems pretty and sweet, it's something I would like to actually see.,31,320,20","Like the soft blend of colors,26,20,20","Its pretty.And a nice use of water colors.,25,160,20","Dominique","Small town and home feel on A nice day.,28,400,20","Amanda","Pleasant to look at,28,180,20","Elizabeth","Like the soft blend of colors,26,20,20","2"
"25308","","survey-text","232","2126997","0.0-231.0-0.0","A34YDGVZKRJ0LZ","","","","{""Q0"":""Looks like it got run over""}","","","","","","","","","","","","","","","","","","","","","","",""
"5311.5","","image-slider-response","233","2132311","0.0-232.0","A34YDGVZKRJ0LZ","","","","","-10","","","","","","","","","","","","","","","","","","","","","",""
"null","","image-button-response","234","2137315","0.0-233.0","A34YDGVZKRJ0LZ","img_art/10.jpg","null","","","","","","","","","","","","","","","","","","","","","","","","",""
"1400","","image-button-response","235","2138719","0.0-234.0","A34YDGVZKRJ0LZ","img_art/10.jpg","4","","","","","","","","","","","","","","","","","","","","","","","","",""
"6624","","image-button-response","236","2145348","0.0-235.0-0.0","A34YDGVZKRJ0LZ","img_art/10.jpg","0","","","","","","","","","","","","","","","","","","","","","","","","",""
"1340","","image-button-response","237","2146692","0.0-236.0-0.0","A34YDGVZKRJ0LZ","img_art/10.jpg","3","","","","","","","","","","","","","","","","","","","","","","","","",""
"null","","html-keyboard-response","238","2147696","0.0-237.0","A34YDGVZKRJ0LZ","<p style=""font-size: 48px;"">+</p>","","","","","null","allTrialResponses","1000","1","27","img_art/10.jpg","-10","Looks like it got run over","Jenna,Amanda,Dominique,Courtney,Elizabeth,Destiny","this piece is okay. I wish it was more colorful, but it is certainly intriguing.,23,360,20","Reminds me of a beautiful ship wreck,36,180,20","A very conversational piece could be of many different ideas,38,400,20","Thats a horses head,10,280,20","Has an air of mystery around it,39,20,20","The more I look the more I like. Reminds me of a rollercoaster and a war scene. A lot going on which is unnerving, like a rollercoaster but still fun,22,360,20","Elizabeth","Has an air of mystery around it,39,20,20","Jenna","this piece is okay. I wish it was more colorful, but it is certainly intriguing.,23,360,20","Courtney","Thats a horses head,10,280,20","2"
"28649","","survey-text","239","2176357","0.0-238.0-0.0","A34YDGVZKRJ0LZ","","","","{""Q0"":""stands out and very interesting""}","","","","","","","","","","","","","","","","","","","","","","",""
"2910.699999988079","","image-slider-response","240","2179276","0.0-239.0","A34YDGVZKRJ0LZ","","","","","30","","","","","","","","","","","","","","","","","","","","","",""
"2186","","image-button-response","241","2184283","0.0-240.0","A34YDGVZKRJ0LZ","img_art/25.jpg","4","","","","","","","","","","","","","","","","","","","","","","","","",""
"736","","image-button-response","242","2185024","0.0-241.0","A34YDGVZKRJ0LZ","img_art/25.jpg","4","","","","","","","","","","","","","","","","","","","","","","","","",""
"2036","","image-button-response","243","2187065","0.0-242.0-0.0","A34YDGVZKRJ0LZ","img_art/25.jpg","1","","","","","","","","","","","","","","","","","","","","","","","","",""
"1981","","image-button-response","244","2189050","0.0-243.0-0.0","A34YDGVZKRJ0LZ","img_art/25.jpg","2","","","","","","","","","","","","","","","","","","","","","","","","",""
"null","","html-keyboard-response","245","2190055","0.0-244.0","A34YDGVZKRJ0LZ","<p style=""font-size: 48px;"">+</p>","","","","","null","allTrialResponses","1000","1","28","img_art/25.jpg","30","stands out and very interesting","Jenna,Katherine,Olivia,Courtney,Elizabeth,Sophia","beautiful in a primitive way,10,360,20","That's pretty awesome. I love the green and black combo, reminds me of one of those cartoon creepy movies,47,120,20","reminds me of burning man,18,40,20","That on i find a bit creapy.,-19,280,20","Love the color hues and the texture it creates,50,20,20","This one just has a dark feeling to me.,-50,280,20","Elizabeth","Love the color hues and the texture it creates,50,20,20","Katherine","That's pretty awesome. I love the green and black combo, reminds me of one of those cartoon creepy movies,47,120,20","Olivia","reminds me of burning man,18,40,20","2"
"15838","","survey-text","246","2205908","0.0-245.0-0.0","A34YDGVZKRJ0LZ","","","","{""Q0"":""Reminds me of New Orleans Jazz Fest""}","","","","","","","","","","","","","","","","","","","","","","",""
"3604.800000011921","","image-slider-response","247","2209516","0.0-246.0","A34YDGVZKRJ0LZ","","","","","49","","","","","","","","","","","","","","","","","","","","","",""
"1576","","image-button-response","248","2214525","0.0-247.0","A34YDGVZKRJ0LZ","img_art/19.jpg","0","","","","","","","","","","","","","","","","","","","","","","","","",""
"768","","image-button-response","249","2215298","0.0-248.0","A34YDGVZKRJ0LZ","img_art/19.jpg","1","","","","","","","","","","","","","","","","","","","","","","","","",""
"2855","","image-button-response","250","2218156","0.0-249.0-0.0","A34YDGVZKRJ0LZ","img_art/19.jpg","4","","","","","","","","","","","","","","","","","","","","","","","","",""
"1889","","image-button-response","251","2220052","0.0-250.0-0.0","A34YDGVZKRJ0LZ","img_art/19.jpg","0","","","","","","","","","","","","","","","","","","","","","","","","",""
"null","","html-keyboard-response","252","2221055","0.0-251.0","A34YDGVZKRJ0LZ","<p style=""font-size: 48px;"">+</p>","","","","","null","allTrialResponses","1000","1","29","img_art/19.jpg","49","Reminds me of New Orleans Jazz Fest","Erica,Katherine,Olivia,Claire,Elizabeth,Jennifer","very lively and colourful,21,80,20","I dig the not being able to tell what anything is but knowing everything is supposed to be something,46,120,20","city life energy,8,40,20","way too much going on,-33,260,20","Like the painting strokes,39,20,20","Very, very ugly and sloppy,-31,380,20","Katherine","I dig the not being able to tell what anything is but knowing everything is supposed to be something,46,120,20","Elizabeth","Like the painting strokes,39,20,20","Erica","very lively and colourful,21,80,20","2"
"28674","","survey-text","253","2249740","0.0-252.0-0.0","A34YDGVZKRJ0LZ","","","","{""Q0"":""Lots of abstract  things happening here, I like the perspective""}","","","","","","","","","","","","","","","","","","","","","","",""
"3096.4000000059605","","image-slider-response","254","2252840","0.0-253.0","A34YDGVZKRJ0LZ","","","","","28","","","","","","","","","","","","","","","","","","","","","",""
"2612","","image-button-response","255","2257844","0.0-254.0","A34YDGVZKRJ0LZ","img_art/8.jpg","0","","","","","","","","","","","","","","","","","","","","","","","","",""
"667","","image-button-response","256","2258516","0.0-255.0","A34YDGVZKRJ0LZ","img_art/8.jpg","0","","","","","","","","","","","","","","","","","","","","","","","","",""
"1001","","image-button-response","257","2259521","0.0-256.0-0.0","A34YDGVZKRJ0LZ","img_art/8.jpg","1","","","","","","","","","","","","","","","","","","","","","","","","",""
"2410","","image-button-response","258","2261935","0.0-257.0-0.0","A34YDGVZKRJ0LZ","img_art/8.jpg","4","","","","","","","","","","","","","","","","","","","","","","","","",""
"null","","html-keyboard-response","259","2262442","0.0-258.0","A34YDGVZKRJ0LZ","<p style=""font-size: 48px;"">+</p>","","","","","null","allTrialResponses","500","1","30","img_art/8.jpg","28","Lots of abstract  things happening here, I like the perspective","Erica,Katherine,Paige,Alexandria,Elizabeth,Lindsey","Very busy, I want to look at it and investigate,23,80,20","This is really cool, I love the fragments of faces,38,120,20","Nervous like being up high,10,60,20","It is very colorful with a deeper meaning,25,80,20","Very unique and different,31,20,20","Pleasant colors, lots of interest. Not sure what's going on but I like it.,20,400,20","Erica","Very busy, I want to look at it and investigate,23,80,20","Katherine","This is really cool, I love the fragments of faces,38,120,20","Elizabeth","Very unique and different,31,20,20","2"
"2269","","image-button-response_instructions","260","2264721","0.0-259.0","A34YDGVZKRJ0LZ","","0","instructions","","","","","","","","","","","","","","","","","","","","","","","",""
"1318","","image-button-response","261","2266049","0.0-260.0","A34YDGVZKRJ0LZ","","0","","","","","","","","","","","","","","","","","","","","","","","","",""
