"rt","url","trial_type","trial_index","time_elapsed","internal_node_id","participant_id","stimulus","button_pressed","Name","responses","response","key_press","variableName","fixationTime","condition","trial","photo","subjectRating","subjectResponse","agentsNames","agent_1_Response","agent_2_Response","agent_3_Response","agent_4_Response","agent_5_Response","agent_6_Response","kept_1_name","kept_1_response","kept_2_name","kept_2_response","kept_3_name","kept_3_response","errorCounter"
"5201","external_page_harvard.html","external-html","0","5325","0.0-0.0","A35S5YV2XL971J","","","","","","","","","","","","","","","","","","","","","","","","","","",""
"1938","","image-button-response","1","7266","0.0-1.0","A35S5YV2XL971J","","0","","","","","","","","","","","","","","","","","","","","","","","","",""
"1655","","image-button-response","2","8929","0.0-2.0-0.0","A35S5YV2XL971J","","1","phone","","","","","","","","","","","","","","","","","","","","","","","",""
"6839","","survey-text","3","15771","0.0-3.0-0.0","A35S5YV2XL971J","","","","{""Q0"":""A35S5YV2XL971J""}","","","","","","","","","","","","","","","","","","","","","","",""
"3055","","image-button-response_instructions","4","18829","0.0-4.0","A35S5YV2XL971J","","0","instructions","","","","","","","","","","","","","","","","","","","","","","","",""
"3305","","image-button-response_instructions","5","22138","0.0-5.0","A35S5YV2XL971J","img_art/ins/popularity/ins1.png","0","instructions","","","","","","","","","","","","","","","","","","","","","","","",""
"2533","","image-button-response_instructions","6","24674","0.0-6.0","A35S5YV2XL971J","img_art/ins/popularity/ins2.png","0","instructions","","","","","","","","","","","","","","","","","","","","","","","",""
"2568","","image-button-response_instructions","7","27245","0.0-7.0","A35S5YV2XL971J","img_art/ins/popularity/ins2Extreme.png","0","instructions","","","","","","","","","","","","","","","","","","","","","","","",""
"1869","","image-button-response_instructions","8","29117","0.0-8.0","A35S5YV2XL971J","img_art/ins/popularity/ins3KEEPpop.PNG","0","instructions","","","","","","","","","","","","","","","","","","","","","","","",""
"1574","","image-button-response_instructions","9","30693","0.0-9.0","A35S5YV2XL971J","img_art/ins/popularity/ins3ANamepop.PNG","0","instructions","","","","","","","","","","","","","","","","","","","","","","","",""
"1274","","image-button-response_instructions","10","31969","0.0-10.0","A35S5YV2XL971J","img_art/ins/popularity/ins3ARatingpop.png","0","instructions","","","","","","","","","","","","","","","","","","","","","","","",""
"959","","image-button-response_instructions","11","32929","0.0-11.0","A35S5YV2XL971J","img_art/ins/popularity/ins3ATextpop.png","0","instructions","","","","","","","","","","","","","","","","","","","","","","","",""
"873","","image-button-response_instructions","12","33804","0.0-12.0","A35S5YV2XL971J","img_art/ins/popularity/ins3ALikespop.png","0","instructions","","","","","","","","","","","","","","","","","","","","","","","",""
"1179","","image-button-response_instructions","13","34985","0.0-13.0","A35S5YV2XL971J","img_art/ins/popularity/ins3KEEPpop.PNG","0","instructions","","","","","","","","","","","","","","","","","","","","","","","",""
"1014","","image-button-response_instructions","14","36002","0.0-14.0","A35S5YV2XL971J","img_art/ins/popularity/ins3_5RED.png","0","instructions","","","","","","","","","","","","","","","","","","","","","","","",""
"808","","image-button-response_instructions","15","36812","0.0-15.0","A35S5YV2XL971J","img_art/ins/popularity/ins3KEEPpop.PNG","0","instructions","","","","","","","","","","","","","","","","","","","","","","","",""
"1160","","image-button-response_instructions","16","37975","0.0-16.0","A35S5YV2XL971J","img_art/ins/popularity/ins4KEEPpop.PNG","0","instructions","","","","","","","","","","","","","","","","","","","","","","","",""
"854","","image-button-response_instructions","17","38831","0.0-17.0","A35S5YV2XL971J","img_art/ins/popularity/ins5KEEPpop.PNG","0","instructions","","","","","","","","","","","","","","","","","","","","","","","",""
"4414","","image-button-response_instructions","18","43247","0.0-18.0","A35S5YV2XL971J","","0","instructions","","","","","","","","","","","","","","","","","","","","","","","",""
"9913","","survey-text","19","53200","0.0-19.0-0.0","A35S5YV2XL971J","","","","{""Q0"":""BUT""}","","","","","","","","","","","","","","","","","","","","","","",""
"7539","","survey-text","20","72398","0.0-19.1-0.1","A35S5YV2XL971J","","","","{""Q0"":""But""}","","","","","","","","","","","","","","","","","","","","","","",""
"14627","","survey-text","21","90885","0.0-19.2-0.2","A35S5YV2XL971J","","","","{""Q0"":""but""}","","","","","","","","","","","","","","","","","","","","","","",""
"19986","","survey-text","22","110875","0.0-20.0-0.0","A35S5YV2XL971J","","","","{""Q0"":""Guess""}","","","","","","","","","","","","","","","","","","","","","","",""
"17449","","survey-text","23","129989","0.0-20.1-0.1","A35S5YV2XL971J","","","","{""Q0"":""guess reaction""}","","","","","","","","","","","","","","","","","","","","","","",""
"3260.199999809265","","image-slider-response","24","133253","0.0-21.0","A35S5YV2XL971J","","","","","19","","","","","","","","","","","","","","","","","","","","","",""
"3993","","image-button-response","25","138260","0.0-22.0","A35S5YV2XL971J","img_art/ins/1.jpg","4","","","","","","","","","","","","","","","","","","","","","","","","",""
"696","","image-button-response","26","138959","0.0-23.0","A35S5YV2XL971J","img_art/ins/1.jpg","2","","","","","","","","","","","","","","","","","","","","","","","","",""
"635","","image-button-response","27","139598","0.0-24.0-0.0","A35S5YV2XL971J","img_art/ins/1.jpg","2","","","","","","","","","","","","","","","","","","","","","","","","",""
"2180","","image-button-response","28","145583","0.0-24.1-0.1","A35S5YV2XL971J","img_art/ins/1.jpg","4","","","","","","","","","","","","","","","","","","","","","","","","",""
"1314","","image-button-response","29","146902","0.0-25.0-0.0","A35S5YV2XL971J","img_art/ins/1.jpg","5","","","","","","","","","","","","","","","","","","","","","","","","",""
"null","","html-keyboard-response","30","147413","0.0-26.0","A35S5YV2XL971J","<p style=""font-size: 48px;"">+</p>","","","","","null","allTrialResponses","500","1","-2","img_art/ins/1.jpg","19","guess reaction","Adam,Alex,Ben,Carl,Daniel,Jack","Seems like doodles,-20,20,20","very creative work.,36,40,20","This color reminds me of poo,-46,60,20","very calming artwork,42,80,20","It looks like a murder scene.,-48,100,20","I like the sophisticated brushwork,40,120,20","Ben","This color reminds me of poo,-46,60,20","Daniel","It looks like a murder scene.,-48,100,20","Jack","I like the sophisticated brushwork,40,120,20","4"
"9780","","survey-text","31","157201","0.0-27.0-0.0","A35S5YV2XL971J","","","","{""Q0"":""Great art""}","","","","","","","","","","","","","","","","","","","","","","",""
"3897.800000190735","","image-slider-response","32","161103","0.0-28.0","A35S5YV2XL971J","","","","","36","","","","","","","","","","","","","","","","","","","","","",""
"3427","","image-button-response","33","166119","0.0-29.0","A35S5YV2XL971J","img_art/ins/2.jpg","0","","","","","","","","","","","","","","","","","","","","","","","","",""
"1437","","image-button-response","34","167561","0.0-30.0","A35S5YV2XL971J","img_art/ins/2.jpg","2","","","","","","","","","","","","","","","","","","","","","","","","",""
"1347","","image-button-response","35","168912","0.0-31.0-0.0","A35S5YV2XL971J","img_art/ins/2.jpg","5","","","","","","","","","","","","","","","","","","","","","","","","",""
"1082","","image-button-response","36","169999","0.0-32.0-0.0","A35S5YV2XL971J","img_art/ins/2.jpg","4","","","","","","","","","","","","","","","","","","","","","","","","",""
"null","","html-keyboard-response","37","171502","0.0-33.0","A35S5YV2XL971J","<p style=""font-size: 48px;"">+</p>","","","","","null","allTrialResponses","1500","1","-1","img_art/ins/2.jpg","36","Great art","Kyle,John,Ben,James,Daniel,Jack","Idk, it is just annoying,-32,180,20","love the texture of paint,48,160,20","meaningless painting,-45,60,20","looks too angry,-50,140,20","One of my pet peevs,-48,100,20","I would never be able to compose a sophisticated pallete like this,48,120,20","Ben","meaningless painting,-45,60,20","Jack","I would never be able to compose a sophisticated pallete like this,48,120,20","Daniel","One of my pet peevs,-48,100,20","4"
"25116","","survey-text","38","196626","0.0-34.0-0.0","A35S5YV2XL971J","","","","{""Q0"":""Great reaction""}","","","","","","","","","","","","","","","","","","","","","","",""
"3567.199999809265","","image-slider-response","39","200196","0.0-35.0","A35S5YV2XL971J","","","","","38","","","","","","","","","","","","","","","","","","","","","",""
"3750","","image-button-response","40","205200","0.0-36.0","A35S5YV2XL971J","img_art/ins/3.jpg","5","","","","","","","","","","","","","","","","","","","","","","","","",""
"1668","","image-button-response","41","206871","0.0-37.0","A35S5YV2XL971J","img_art/ins/3.jpg","0","","","","","","","","","","","","","","","","","","","","","","","","",""
"989","","image-button-response","42","207863","0.0-38.0-0.0","A35S5YV2XL971J","img_art/ins/3.jpg","1","","","","","","","","","","","","","","","","","","","","","","","","",""
"1211","","image-button-response","43","209078","0.0-39.0-0.0","A35S5YV2XL971J","img_art/ins/3.jpg","2","","","","","","","","","","","","","","","","","","","","","","","","",""
"null","","html-keyboard-response","44","209592","0.0-40.0","A35S5YV2XL971J","<p style=""font-size: 48px;"">+</p>","","","","","null","allTrialResponses","500","1","0","img_art/ins/3.jpg","38","Great reaction","Sam,Ron,Ben,Mike,Daniel,Jack","I can feel a rainy day from this painting,18,240,20","It looks depressing,-26,220,20","This thing gives me anxiety,-41,60,20","enjoy the different shades of blue,22,200,20","looks like a murder room,-35,100,20","I feel connected to the artist,40,120,20","Sam","I can feel a rainy day from this painting,18,240,20","Ron","It looks depressing,-26,220,20","Ben","This thing gives me anxiety,-41,60,20","4"
"1737","","image-button-response_instructions","45","211338","0.0-41.0","A35S5YV2XL971J","","0","instructions","","","","","","","","","","","","","","","","","","","","","","","",""
"4368","","survey-likert","46","215710","0.0-42.0-0.0","A35S5YV2XL971J","","","","{""Q0"":"""",""Q1"":0,""Q2"":0}","","","","","","","","","","","","","","","","","","","","","","",""
"3811","","survey-likert","47","221829","0.0-42.1-0.1","A35S5YV2XL971J","","","","{""Q0"":"""",""Q1"":0,""Q2"":1}","","","","","","","","","","","","","","","","","","","","","","",""
"6853","","survey-text","48","228691","0.0-43.0-0.0","A35S5YV2XL971J","","","","{""Q0"":""rock""}","","","","","","","","","","","","","","","","","","","","","","",""
"22133","","survey-text","49","250826","0.0-44.0-0.0","A35S5YV2XL971J","","","","{""Q0"":""Birds Art""}","","","","","","","","","","","","","","","","","","","","","","",""
"3743.800000190735","","image-slider-response","50","254573","0.0-45.0","A35S5YV2XL971J","","","","","30","","","","","","","","","","","","","","","","","","","","","",""
"3170","","image-button-response","51","259623","0.0-46.0","A35S5YV2XL971J","img_art/6.jpg","0","","","","","","","","","","","","","","","","","","","","","","","","",""
"1198","","image-button-response","52","260823","0.0-47.0","A35S5YV2XL971J","img_art/6.jpg","2","","","","","","","","","","","","","","","","","","","","","","","","",""
"766","","image-button-response","53","261593","0.0-48.0-0.0","A35S5YV2XL971J","img_art/6.jpg","1","","","","","","","","","","","","","","","","","","","","","","","","",""
"1997","","image-button-response","54","263594","0.0-49.0-0.0","A35S5YV2XL971J","img_art/6.jpg","0","","","","","","","","","","","","","","","","","","","","","","","","",""
"null","","html-keyboard-response","55","264603","0.0-50.0","A35S5YV2XL971J","<p style=""font-size: 48px;"">+</p>","","","","","null","allTrialResponses","1000","1","1","img_art/6.jpg","30","Birds Art","Charles,Jordan,Kyle,Nathan,Richard,Benjamin","It's pretty dour,-10,100,20","This picture is weird,-6,160,20","Simple and clean,11,340,20","Not a fan of anything in this,-43,200,20","simplistic but reminds me of a crow in a field,-10,340,20","Something very simplistic about it. The colors mesh well.,10,260,20","Kyle","Simple and clean,11,340,20","Jordan","This picture is weird,-6,160,20","Charles","It's pretty dour,-10,100,20","5"
"15504","","survey-text","56","280117","0.0-51.0-0.0","A35S5YV2XL971J","","","","{""Q0"":""Woman Sleep""}","","","","","","","","","","","","","","","","","","","","","","",""
"3220.9000005722046","","image-slider-response","57","283342","0.0-52.0","A35S5YV2XL971J","","","","","31","","","","","","","","","","","","","","","","","","","","","",""
"3641","","image-button-response","58","288347","0.0-53.0","A35S5YV2XL971J","img_art/9.jpg","1","","","","","","","","","","","","","","","","","","","","","","","","",""
"783","","image-button-response","59","289133","0.0-54.0","A35S5YV2XL971J","img_art/9.jpg","2","","","","","","","","","","","","","","","","","","","","","","","","",""
"610","","image-button-response","60","289746","0.0-55.0-0.0","A35S5YV2XL971J","img_art/9.jpg","1","","","","","","","","","","","","","","","","","","","","","","","","",""
"644","","image-button-response","61","290394","0.0-56.0-0.0","A35S5YV2XL971J","img_art/9.jpg","0","","","","","","","","","","","","","","","","","","","","","","","","",""
"null","","html-keyboard-response","62","291416","0.0-57.0","A35S5YV2XL971J","<p style=""font-size: 48px;"">+</p>","","","","","null","allTrialResponses","1000","1","2","img_art/9.jpg","31","Woman Sleep","Charles,Jordan,Kyle,Peter,Hunter,Corey","It's too all over the place,-37,100,20","Reminds me of a cave in a scary movie,-21,160,20","I like abstract art that looks that there is more than random brush strokes. This one looks the former,10,340,20","Looks like a monster's teeth , unsettling,-18,320,20","strong focal point, appealing use of selective line,11,240,20","keeps me interested. like the colors,17,260,20","Kyle","I like abstract art that looks that there is more than random brush strokes. This one looks the former,10,340,20","Jordan","Reminds me of a cave in a scary movie,-21,160,20","Charles","It's too all over the place,-37,100,20","5"
"14219","","survey-text","63","305645","0.0-58.0-0.0","A35S5YV2XL971J","","","","{""Q0"":""Billion colors""}","","","","","","","","","","","","","","","","","","","","","","",""
"5001.89999961853","","image-slider-response","64","310654","0.0-59.0","A35S5YV2XL971J","","","","","26","","","","","","","","","","","","","","","","","","","","","",""
"4714","","image-button-response","65","315667","0.0-60.0","A35S5YV2XL971J","img_art/23.jpg","0","","","","","","","","","","","","","","","","","","","","","","","","",""
"520","","image-button-response","66","316192","0.0-61.0","A35S5YV2XL971J","img_art/23.jpg","1","","","","","","","","","","","","","","","","","","","","","","","","",""
"838","","image-button-response","67","317033","0.0-62.0-0.0","A35S5YV2XL971J","img_art/23.jpg","0","","","","","","","","","","","","","","","","","","","","","","","","",""
"726","","image-button-response","68","317766","0.0-63.0-0.0","A35S5YV2XL971J","img_art/23.jpg","2","","","","","","","","","","","","","","","","","","","","","","","","",""
"null","","html-keyboard-response","69","318770","0.0-64.0","A35S5YV2XL971J","<p style=""font-size: 48px;"">+</p>","","","","","null","allTrialResponses","1000","1","3","img_art/23.jpg","26","Billion colors","Charles,Jordan,Kyle,Gabriel,Austin,Shane","Look at all the dancers,26,100,20","I like the contrast,29,160,20","Mostly neutral but a bit too guady with the brash colors,-6,340,20","i think this ones okay,10,160,20","Fantastic blend of color and forms,43,240,20","Love the line in the middle separating the two dark sides,50,80,20","Jordan","I like the contrast,29,160,20","Charles","Look at all the dancers,26,100,20","Kyle","Mostly neutral but a bit too guady with the brash colors,-6,340,20","5"
"20278","","survey-text","70","339054","0.0-65.0-0.0","A35S5YV2XL971J","","","","{""Q0"":""Pillar reaction""}","","","","","","","","","","","","","","","","","","","","","","",""
"3178.5","","image-slider-response","71","342236","0.0-66.0","A35S5YV2XL971J","","","","","27","","","","","","","","","","","","","","","","","","","","","",""
"4718","","image-button-response","72","347242","0.0-67.0","A35S5YV2XL971J","img_art/5.jpg","3","","","","","","","","","","","","","","","","","","","","","","","","",""
"1046","","image-button-response","73","348290","0.0-68.0","A35S5YV2XL971J","img_art/5.jpg","3","","","","","","","","","","","","","","","","","","","","","","","","",""
"399","","image-button-response","74","348692","0.0-69.0-0.0","A35S5YV2XL971J","img_art/5.jpg","4","","","","","","","","","","","","","","","","","","","","","","","","",""
"364","","image-button-response","75","349060","0.0-70.0-0.0","A35S5YV2XL971J","img_art/5.jpg","5","","","","","","","","","","","","","","","","","","","","","","","","",""
"null","","html-keyboard-response","76","349570","0.0-71.0","A35S5YV2XL971J","<p style=""font-size: 48px;"">+</p>","","","","","null","allTrialResponses","500","1","4","img_art/5.jpg","27","Pillar reaction","Charles,Jordan,Kyle,Bradley,Antonio,David","It feels positive and kind of uplifting,24,100,20","Reminds me of a broken umbrella,-9,160,20","Not sure what to say about this piece honestly. It's okay I guess.,0,340,20","Looks like a tied up trash bag.,-10,300,20","Too much angular things happening, makes me think of stabbing something which makes me uncomfortable,-50,220,20","I like the simplicity of the design, but I can't tell what the image is trying to depict.,10,340,20","Bradley","Looks like a tied up trash bag.,-10,300,20","Antonio","Too much angular things happening, makes me think of stabbing something which makes me uncomfortable,-50,220,20","David","I like the simplicity of the design, but I can't tell what the image is trying to depict.,10,340,20","5"
"4420","","survey-text","77","353997","0.0-72.0-0.0","A35S5YV2XL971J","","","","{""Q0"":""Great reaction""}","","","","","","","","","","","","","","","","","","","","","","",""
"3375.1000003814697","","image-slider-response","78","357375","0.0-73.0","A35S5YV2XL971J","","","","","34","","","","","","","","","","","","","","","","","","","","","",""
"1809","","image-button-response","79","362381","0.0-74.0","A35S5YV2XL971J","img_art/10.jpg","4","","","","","","","","","","","","","","","","","","","","","","","","",""
"756","","image-button-response","80","363139","0.0-75.0","A35S5YV2XL971J","img_art/10.jpg","4","","","","","","","","","","","","","","","","","","","","","","","","",""
"381","","image-button-response","81","363524","0.0-76.0-0.0","A35S5YV2XL971J","img_art/10.jpg","3","","","","","","","","","","","","","","","","","","","","","","","","",""
"436","","image-button-response","82","363964","0.0-77.0-0.0","A35S5YV2XL971J","img_art/10.jpg","5","","","","","","","","","","","","","","","","","","","","","","","","",""
"null","","html-keyboard-response","83","365467","0.0-78.0","A35S5YV2XL971J","<p style=""font-size: 48px;"">+</p>","","","","","null","allTrialResponses","1500","1","5","img_art/10.jpg","34","Great reaction","Ryan,Mark,Derek,Bradley,Antonio,David","Reminds me of a beautiful ship wreck,36,380,20","Kraken, and I love it.,39,80,20","Cute and has a vintage feel to it,45,360,20","This piece is very intriguing to me.,3,300,20","This painting made me think of a guitar which made me think of music which envoked happy feelings.,28,220,20","I can't really tell what this is suppose to represent, but overall I don't like the design.,-20,340,20","Antonio","This painting made me think of a guitar which made me think of music which envoked happy feelings.,28,220,20","Bradley","This piece is very intriguing to me.,3,300,20","David","I can't really tell what this is suppose to represent, but overall I don't like the design.,-20,340,20","5"
"4513","","survey-text","84","369998","0.0-79.0-0.0","A35S5YV2XL971J","","","","{""Q0"":""sky""}","","","","","","","","","","","","","","","","","","","","","","",""
"3355","","survey-text","85","373356","0.0-80.0-0.0","A35S5YV2XL971J","","","","{""Q0"":""Great reaction""}","","","","","","","","","","","","","","","","","","","","","","",""
"2989","","image-slider-response","86","376348","0.0-81.0","A35S5YV2XL971J","","","","","33","","","","","","","","","","","","","","","","","","","","","",""
"4217","","image-button-response","87","381352","0.0-82.0","A35S5YV2XL971J","img_art/27.jpg","5","","","","","","","","","","","","","","","","","","","","","","","","",""
"1701","","image-button-response","88","383058","0.0-83.0","A35S5YV2XL971J","img_art/27.jpg","3","","","","","","","","","","","","","","","","","","","","","","","","",""
"335","","image-button-response","89","383398","0.0-84.0-0.0","A35S5YV2XL971J","img_art/27.jpg","4","","","","","","","","","","","","","","","","","","","","","","","","",""
"357","","image-button-response","90","383760","0.0-85.0-0.0","A35S5YV2XL971J","img_art/27.jpg","5","","","","","","","","","","","","","","","","","","","","","","","","",""
"null","","html-keyboard-response","91","384276","0.0-86.0","A35S5YV2XL971J","<p style=""font-size: 48px;"">+</p>","","","","","null","allTrialResponses","500","1","6","img_art/27.jpg","33","Great reaction","Marcus,John,Jack,Bradley,Antonio,David","It's okay. Not really interesting to me.,-10,60,20","Looks as if a toddler painted it,-20,120,20","the green & white scribbles feel childlike. perhaps the quality of the photo, but the colors are gloomy.,-13,320,20","Yikes. I think I made this in kindergarten.,-20,300,20","Didnt actually make me feel anything, sort of bland,3,220,20","Not a fan of the green; gives off the impression that someone else drew on it.,-20,340,20","Bradley","Yikes. I think I made this in kindergarten.,-20,300,20","Antonio","Didnt actually make me feel anything, sort of bland,3,220,20","David","Not a fan of the green; gives off the impression that someone else drew on it.,-20,340,20","5"
"4002","","survey-text","92","388288","0.0-87.0-0.0","A35S5YV2XL971J","","","","{""Q0"":""Great reaction""}","","","","","","","","","","","","","","","","","","","","","","",""
"2825.1000003814697","","image-slider-response","93","391116","0.0-88.0","A35S5YV2XL971J","","","","","24","","","","","","","","","","","","","","","","","","","","","",""
"2779","","image-button-response","94","396121","0.0-89.0","A35S5YV2XL971J","img_art/3.jpg","3","","","","","","","","","","","","","","","","","","","","","","","","",""
"920","","image-button-response","95","397044","0.0-90.0","A35S5YV2XL971J","img_art/3.jpg","3","","","","","","","","","","","","","","","","","","","","","","","","",""
"505","","image-button-response","96","397553","0.0-91.0-0.0","A35S5YV2XL971J","img_art/3.jpg","4","","","","","","","","","","","","","","","","","","","","","","","","",""
"399","","image-button-response","97","397956","0.0-92.0-0.0","A35S5YV2XL971J","img_art/3.jpg","5","","","","","","","","","","","","","","","","","","","","","","","","",""
"null","","html-keyboard-response","98","398458","0.0-93.0","A35S5YV2XL971J","<p style=""font-size: 48px;"">+</p>","","","","","null","allTrialResponses","500","1","7","img_art/3.jpg","24","Great reaction","Dustin,Brett,Malik,Bradley,Antonio,David","Messy. Looks like a children's drawing being passed off as expensive art. Too much red.,-50,20,20","Confusion and mayhem,-10,360,20","Unaure what the artist  was doing, needs context,11,40,20","Marker gone wild?  Not sure what's going on here.,-21,300,20","The red makes me think of blood which makes me think of pain,-50,220,20","No clue what I'm looking. This just looks a series of scribbles in a box.,-20,340,20","Bradley","Marker gone wild?  Not sure what's going on here.,-21,300,20","Antonio","The red makes me think of blood which makes me think of pain,-50,220,20","David","No clue what I'm looking. This just looks a series of scribbles in a box.,-20,340,20","5"
"2846","","survey-text","99","401311","0.0-94.0-0.0","A35S5YV2XL971J","","","","{""Q0"":""Great reaction""}","","","","","","","","","","","","","","","","","","","","","","",""
"3075.5","","image-slider-response","100","404390","0.0-95.0","A35S5YV2XL971J","","","","","28","","","","","","","","","","","","","","","","","","","","","",""
"2643","","image-button-response","101","409395","0.0-96.0","A35S5YV2XL971J","img_art/8.jpg","4","","","","","","","","","","","","","","","","","","","","","","","","",""
"1033","","image-button-response","102","410430","0.0-97.0","A35S5YV2XL971J","img_art/8.jpg","3","","","","","","","","","","","","","","","","","","","","","","","","",""
"335","","image-button-response","103","410769","0.0-98.0-0.0","A35S5YV2XL971J","img_art/8.jpg","4","","","","","","","","","","","","","","","","","","","","","","","","",""
"326","","image-button-response","104","411099","0.0-99.0-0.0","A35S5YV2XL971J","img_art/8.jpg","5","","","","","","","","","","","","","","","","","","","","","","","","",""
"null","","html-keyboard-response","105","411603","0.0-100.0","A35S5YV2XL971J","<p style=""font-size: 48px;"">+</p>","","","","","null","allTrialResponses","500","1","8","img_art/8.jpg","28","Great reaction","Jesus,Mason,Jeremy,Bradley,Antonio,David","The different shapes are fun to look for.,30,100,20","wow. blocky, angled, neat colors. The faces are what makes it. love it.,45,100,20","Nervous like being up high,10,60,20","Interesting but it has a bit of a dark feel to it.,6,300,20","I love the colors in it and also the faces and door ways. Made me feel hopeful,35,220,20","I like how the piece is showcasing emotion in relation to something.,25,340,20","Bradley","Interesting but it has a bit of a dark feel to it.,6,300,20","Antonio","I love the colors in it and also the faces and door ways. Made me feel hopeful,35,220,20","David","I like how the piece is showcasing emotion in relation to something.,25,340,20","5"
"3179","","survey-text","106","414789","0.0-101.0-0.0","A35S5YV2XL971J","","","","{""Q0"":""Great reaction""}","","","","","","","","","","","","","","","","","","","","","","",""
"2674.1000003814697","","image-slider-response","107","417466","0.0-102.0","A35S5YV2XL971J","","","","","29","","","","","","","","","","","","","","","","","","","","","",""
"4495","","image-button-response","108","422476","0.0-103.0","A35S5YV2XL971J","img_art/11.jpg","4","","","","","","","","","","","","","","","","","","","","","","","","",""
"313","","image-button-response","109","422796","0.0-104.0","A35S5YV2XL971J","img_art/11.jpg","5","","","","","","","","","","","","","","","","","","","","","","","","",""
"1223","","image-button-response","110","424024","0.0-105.0-0.0","A35S5YV2XL971J","img_art/11.jpg","4","","","","","","","","","","","","","","","","","","","","","","","","",""
"483","","image-button-response","111","424512","0.0-106.0-0.0","A35S5YV2XL971J","img_art/11.jpg","3","","","","","","","","","","","","","","","","","","","","","","","","",""
"null","","html-keyboard-response","112","425516","0.0-107.0","A35S5YV2XL971J","<p style=""font-size: 48px;"">+</p>","","","","","null","allTrialResponses","1000","1","9","img_art/11.jpg","29","Great reaction","Tanner,Taylor,Timothy,Bradley,Antonio,David","small town, friendly. calm,35,180,20","Busy, busy oceanside city.,-10,200,20","The movement in this one is extremely pleasent,40,240,20","WOW!  I love how the ships and the seas become one in this piece.,50,300,20","Makes me think of far away places and traveling. Makes me feel like wandering,20,220,20","I like how this piece can be interpreted in different ways, such as a village on hilly terrain.,10,340,20","David","I like how this piece can be interpreted in different ways, such as a village on hilly terrain.,10,340,20","Antonio","Makes me think of far away places and traveling. Makes me feel like wandering,20,220,20","Bradley","WOW!  I love how the ships and the seas become one in this piece.,50,300,20","5"
"3915","","survey-text","113","429440","0.0-108.0-0.0","A35S5YV2XL971J","","","","{""Q0"":""Great reaction""}","","","","","","","","","","","","","","","","","","","","","","",""
"5161.299999237061","","image-slider-response","114","434605","0.0-109.0","A35S5YV2XL971J","","","","","22","","","","","","","","","","","","","","","","","","","","","",""
"3218","","image-button-response","115","439609","0.0-110.0","A35S5YV2XL971J","img_art/24.jpg","3","","","","","","","","","","","","","","","","","","","","","","","","",""
"563","","image-button-response","116","440176","0.0-111.0","A35S5YV2XL971J","img_art/24.jpg","3","","","","","","","","","","","","","","","","","","","","","","","","",""
"346","","image-button-response","117","440525","0.0-112.0-0.0","A35S5YV2XL971J","img_art/24.jpg","4","","","","","","","","","","","","","","","","","","","","","","","","",""
"489","","image-button-response","118","441019","0.0-113.0-0.0","A35S5YV2XL971J","img_art/24.jpg","5","","","","","","","","","","","","","","","","","","","","","","","","",""
"null","","html-keyboard-response","119","442524","0.0-114.0","A35S5YV2XL971J","<p style=""font-size: 48px;"">+</p>","","","","","null","allTrialResponses","1500","1","10","img_art/24.jpg","22","Great reaction","Jorge,Logan,Angel,Bradley,Antonio,David","Interested in visiting this place,18,180,20","brick wall waterfall girl you think you got it all,50,360,20","This is clear and healthy. It makes me think of unspoiled nature.,20,180,20","Hmm. Don't know what to make of this one.,1,300,20","Waterfalls and spring and gives me a sense of renewal,34,220,20","Invokes a strong sense of nature, since the piece can interpreted as a stream or an abstracted bird.,40,340,20","Bradley","Hmm. Don't know what to make of this one.,1,300,20","Antonio","Waterfalls and spring and gives me a sense of renewal,34,220,20","David","Invokes a strong sense of nature, since the piece can interpreted as a stream or an abstracted bird.,40,340,20","5"
"35591","","survey-text","120","478128","0.0-115.0-0.0","A35S5YV2XL971J","","","","{""Q0"":""our""}","","","","","","","","","","","","","","","","","","","","","","",""
"2942","","survey-text","121","481073","0.0-116.0-0.0","A35S5YV2XL971J","","","","{""Q0"":""Great reaction""}","","","","","","","","","","","","","","","","","","","","","","",""
"2731.7999992370605","","image-slider-response","122","483807","0.0-117.0","A35S5YV2XL971J","","","","","30","","","","","","","","","","","","","","","","","","","","","",""
"4952","","image-button-response","123","488814","0.0-118.0","A35S5YV2XL971J","img_art/29.jpg","5","","","","","","","","","","","","","","","","","","","","","","","","",""
"130","","image-button-response","124","488949","0.0-119.0","A35S5YV2XL971J","img_art/29.jpg","5","","","","","","","","","","","","","","","","","","","","","","","","",""
"1052","","image-button-response","125","490005","0.0-120.0-0.0","A35S5YV2XL971J","img_art/29.jpg","4","","","","","","","","","","","","","","","","","","","","","","","","",""
"311","","image-button-response","126","490321","0.0-121.0-0.0","A35S5YV2XL971J","img_art/29.jpg","3","","","","","","","","","","","","","","","","","","","","","","","","",""
"null","","html-keyboard-response","127","491831","0.0-122.0","A35S5YV2XL971J","<p style=""font-size: 48px;"">+</p>","","","","","null","allTrialResponses","1500","1","11","img_art/29.jpg","30","Great reaction","Eric,Devin,Elijah,Bradley,Antonio,David","I like that the colors are toned down even though they're everywhere.,5,100,20","Looks a bit messy,-13,380,20","Makes me feel untidy,-9,80,20","It's creative. It's just not my thing.,-32,300,20","Depressing and with that big red x on it just makes me not like it.,-33,220,20","Don't really like the red x. It gives the impression that this a discarded piece.,-10,340,20","David","Don't really like the red x. It gives the impression that this a discarded piece.,-10,340,20","Antonio","Depressing and with that big red x on it just makes me not like it.,-33,220,20","Bradley","It's creative. It's just not my thing.,-32,300,20","5"
"5006","","survey-text","128","496846","0.0-123.0-0.0","A35S5YV2XL971J","","","","{""Q0"":""Great reaction""}","","","","","","","","","","","","","","","","","","","","","","",""
"3168.4000005722046","","image-slider-response","129","500018","0.0-124.0","A35S5YV2XL971J","","","","","27","","","","","","","","","","","","","","","","","","","","","",""
"4922","","image-button-response","130","505023","0.0-125.0","A35S5YV2XL971J","img_art/17.jpg","4","","","","","","","","","","","","","","","","","","","","","","","","",""
"568","","image-button-response","131","505595","0.0-126.0","A35S5YV2XL971J","img_art/17.jpg","3","","","","","","","","","","","","","","","","","","","","","","","","",""
"378","","image-button-response","132","505976","0.0-127.0-0.0","A35S5YV2XL971J","img_art/17.jpg","4","","","","","","","","","","","","","","","","","","","","","","","","",""
"206","","image-button-response","133","506186","0.0-128.0-0.0","A35S5YV2XL971J","img_art/17.jpg","5","","","","","","","","","","","","","","","","","","","","","","","","",""
"null","","html-keyboard-response","134","507189","0.0-129.0","A35S5YV2XL971J","<p style=""font-size: 48px;"">+</p>","","","","","null","allTrialResponses","1000","1","12","img_art/17.jpg","27","Great reaction","Victor,Kevin,Caleb,Bradley,Antonio,David","cool. Sharp and blocky below, light and flowing on top. Overall pleasing to look at,32,340,20","Some new perm we got there.,12,320,20","Not even abstract to me, very clear meaning.,44,40,20","It kind of pulls you in to float away with it.,9,300,20","Beautiful colors. Made me feel soft and feminine,50,220,20","I like how the image gives an impression of gaseous tree.,15,340,20","Bradley","It kind of pulls you in to float away with it.,9,300,20","Antonio","Beautiful colors. Made me feel soft and feminine,50,220,20","David","I like how the image gives an impression of gaseous tree.,15,340,20","5"
"9160","","survey-text","135","516359","0.0-130.0-0.0","A35S5YV2XL971J","","","","{""Q0"":""feeling good""}","","","","","","","","","","","","","","","","","","","","","","",""
"3412.699999809265","","image-slider-response","136","519775","0.0-131.0","A35S5YV2XL971J","","","","","29","","","","","","","","","","","","","","","","","","","","","",""
"4993","","image-button-response","137","524780","0.0-132.0","A35S5YV2XL971J","img_art/1.jpg","3","","","","","","","","","","","","","","","","","","","","","","","","",""
"319","","image-button-response","138","525102","0.0-133.0","A35S5YV2XL971J","img_art/1.jpg","4","","","","","","","","","","","","","","","","","","","","","","","","",""
"486","","image-button-response","139","525591","0.0-134.0-0.0","A35S5YV2XL971J","img_art/1.jpg","5","","","","","","","","","","","","","","","","","","","","","","","","",""
"309","","image-button-response","140","525904","0.0-135.0-0.0","A35S5YV2XL971J","img_art/1.jpg","4","","","","","","","","","","","","","","","","","","","","","","","","",""
"349","","image-button-response","141","529303","0.0-135.1-0.1","A35S5YV2XL971J","img_art/1.jpg","3","","","","","","","","","","","","","","","","","","","","","","","","",""
"null","","html-keyboard-response","142","530807","0.0-136.0","A35S5YV2XL971J","<p style=""font-size: 48px;"">+</p>","","","","","null","allTrialResponses","1500","1","13","img_art/1.jpg","29","feeling good","Michael,William,Bryan,Bradley,Antonio,David","Just a mess though a better mess than some others.,-11,140,20","love how the colors blend,42,380,20","Again, like the colors & abstractness.,29,400,20","This is a great piece that has a lot more going on the longer you look at it. I like it!,30,300,20","Felt nothing in response to this painting,3,220,20","This image doesn't invoke much in me.,0,340,20","Antonio","Felt nothing in response to this painting,3,220,20","David","This image doesn't invoke much in me.,0,340,20","Bradley","This is a great piece that has a lot more going on the longer you look at it. I like it!,30,300,20","7"
"2094","","survey-text","143","532911","0.0-137.0-0.0","A35S5YV2XL971J","","","","{""Q0"":""feeling good""}","","","","","","","","","","","","","","","","","","","","","","",""
"2619.0999994277954","","image-slider-response","144","535533","0.0-138.0","A35S5YV2XL971J","","","","","28","","","","","","","","","","","","","","","","","","","","","",""
"3211","","image-button-response","145","540548","0.0-139.0","A35S5YV2XL971J","img_art/18.jpg","0","","","","","","","","","","","","","","","","","","","","","","","","",""
"1099","","image-button-response","146","541651","0.0-140.0","A35S5YV2XL971J","img_art/18.jpg","0","","","","","","","","","","","","","","","","","","","","","","","","",""
"323","","image-button-response","147","541977","0.0-141.0-0.0","A35S5YV2XL971J","img_art/18.jpg","1","","","","","","","","","","","","","","","","","","","","","","","","",""
"377","","image-button-response","148","542359","0.0-142.0-0.0","A35S5YV2XL971J","img_art/18.jpg","2","","","","","","","","","","","","","","","","","","","","","","","","",""
"null","","html-keyboard-response","149","543862","0.0-143.0","A35S5YV2XL971J","<p style=""font-size: 48px;"">+</p>","","","","","null","allTrialResponses","1500","1","14","img_art/18.jpg","28","feeling good","Miguel,Dalton,James,Bradley,Antonio,David","This looks amazing.,40,160,20","i like the colors in the picture and can make out my own images,42,300,20","Very eerie and it's spooky,11,380,20","This one is very dark and apocalyptic indeed!,-30,300,20","I think of the ocean and a boat tossed about on the waves. In the upper left is a figure. It is pleasant,30,220,20","I like how the image gives off an impression of bravery.,25,340,20","Miguel","This looks amazing.,40,160,20","Dalton","i like the colors in the picture and can make out my own images,42,300,20","James","Very eerie and it's spooky,11,380,20","7"
"4153","","survey-text","150","548023","0.0-144.0-0.0","A35S5YV2XL971J","","","","{""Q0"":""feeling good""}","","","","","","","","","","","","","","","","","","","","","","",""
"3094.8999996185303","","image-slider-response","151","551121","0.0-145.0","A35S5YV2XL971J","","","","","27","","","","","","","","","","","","","","","","","","","","","",""
"4756","","image-button-response","152","556125","0.0-146.0","A35S5YV2XL971J","img_art/13.jpg","1","","","","","","","","","","","","","","","","","","","","","","","","",""
"467","","image-button-response","153","556595","0.0-147.0","A35S5YV2XL971J","img_art/13.jpg","1","","","","","","","","","","","","","","","","","","","","","","","","",""
"365","","image-button-response","154","556965","0.0-148.0-0.0","A35S5YV2XL971J","img_art/13.jpg","2","","","","","","","","","","","","","","","","","","","","","","","","",""
"454","","image-button-response","155","557423","0.0-149.0-0.0","A35S5YV2XL971J","img_art/13.jpg","0","","","","","","","","","","","","","","","","","","","","","","","","",""
"null","","html-keyboard-response","156","558930","0.0-150.0","A35S5YV2XL971J","<p style=""font-size: 48px;"">+</p>","","","","","null","allTrialResponses","1500","1","15","img_art/13.jpg","27","feeling good","Miguel,Dalton,James,Cole,Scott,Aaron","Nice color abstractions.,21,160,20","rain in blue black and white,1,300,20","This is a very cool painting, something an art teacher or professor would own.,22,380,20","The blue colors are very calming. Reminds me of water,33,200,20","I like the transition to other colors,24,20,20","It reminds me of a window on a rainy day.,40,20,20","Dalton","rain in blue black and white,1,300,20","James","This is a very cool painting, something an art teacher or professor would own.,22,380,20","Miguel","Nice color abstractions.,21,160,20","7"
"4553","","survey-text","157","563499","0.0-151.0-0.0","A35S5YV2XL971J","","","","{""Q0"":""course""}","","","","","","","","","","","","","","","","","","","","","","",""
"11769","","survey-text","158","575271","0.0-152.0-0.0","A35S5YV2XL971J","","","","{""Q0"":""feeling good""}","","","","","","","","","","","","","","","","","","","","","","",""
"2745.800000190735","","image-slider-response","159","578020","0.0-153.0","A35S5YV2XL971J","","","","","31","","","","","","","","","","","","","","","","","","","","","",""
"3584","","image-button-response","160","583038","0.0-154.0","A35S5YV2XL971J","img_art/7.jpg","4","","","","","","","","","","","","","","","","","","","","","","","","",""
"618","","image-button-response","161","583659","0.0-155.0","A35S5YV2XL971J","img_art/7.jpg","3","","","","","","","","","","","","","","","","","","","","","","","","",""
"441","","image-button-response","162","584104","0.0-156.0-0.0","A35S5YV2XL971J","img_art/7.jpg","4","","","","","","","","","","","","","","","","","","","","","","","","",""
"300","","image-button-response","163","584410","0.0-157.0-0.0","A35S5YV2XL971J","img_art/7.jpg","5","","","","","","","","","","","","","","","","","","","","","","","","",""
"null","","html-keyboard-response","164","584913","0.0-158.0","A35S5YV2XL971J","<p style=""font-size: 48px;"">+</p>","","","","","null","allTrialResponses","500","1","16","img_art/7.jpg","31","feeling good","Miguel,Dalton,James,Adrian,Samuel,Shawn","Well done minimalism.,35,160,20","i dont like it. it looks like rocks,-40,300,20","Looks plain and dull, sorry.,-31,380,20","It's dirty. I don't mind the colors so much as the way they are put together in this dirty-looking pattern.,-41,60,20","looking down on earth,19,400,20","Like the tactile quality,30,100,20","Adrian","It's dirty. I don't mind the colors so much as the way they are put together in this dirty-looking pattern.,-41,60,20","Samuel","looking down on earth,19,400,20","Shawn","Like the tactile quality,30,100,20","7"
"2140","","survey-text","165","587061","0.0-159.0-0.0","A35S5YV2XL971J","","","","{""Q0"":""feeling good""}","","","","","","","","","","","","","","","","","","","","","","",""
"3110.6000003814697","","image-slider-response","166","590175","0.0-160.0","A35S5YV2XL971J","","","","","30","","","","","","","","","","","","","","","","","","","","","",""
"4583","","image-button-response","167","595180","0.0-161.0","A35S5YV2XL971J","img_art/26.jpg","5","","","","","","","","","","","","","","","","","","","","","","","","",""
"250","","image-button-response","168","595434","0.0-162.0","A35S5YV2XL971J","img_art/26.jpg","3","","","","","","","","","","","","","","","","","","","","","","","","",""
"758","","image-button-response","169","596197","0.0-163.0-0.0","A35S5YV2XL971J","img_art/26.jpg","3","","","","","","","","","","","","","","","","","","","","","","","","",""
"723","","image-button-response","170","598853","0.0-163.1-0.1","A35S5YV2XL971J","img_art/26.jpg","4","","","","","","","","","","","","","","","","","","","","","","","","",""
"593","","image-button-response","171","599452","0.0-164.0-0.0","A35S5YV2XL971J","img_art/26.jpg","5","","","","","","","","","","","","","","","","","","","","","","","","",""
"null","","html-keyboard-response","172","600959","0.0-165.0","A35S5YV2XL971J","<p style=""font-size: 48px;"">+</p>","","","","","null","allTrialResponses","1500","1","17","img_art/26.jpg","30","feeling good","Isaiah,Sean,Chase,Adrian,Samuel,Shawn","It is very relaxing to look at, almost a relief.,21,300,20","picture looks alright,1,40,20","I don't really see the point in this painting.,-16,120,20","I see a suburban neighborhood with townhouses and trees. Not a fan of the colors or style.,-16,60,20","reminds me of a hometown,7,400,20","Not great use of space and brush strokes seem indistinct/accidental,-30,100,20","Adrian","I see a suburban neighborhood with townhouses and trees. Not a fan of the colors or style.,-16,60,20","Samuel","reminds me of a hometown,7,400,20","Shawn","Not great use of space and brush strokes seem indistinct/accidental,-30,100,20","9"
"3228","","survey-text","173","604199","0.0-166.0-0.0","A35S5YV2XL971J","","","","{""Q0"":""feeling good""}","","","","","","","","","","","","","","","","","","","","","","",""
"3671.9000005722046","","image-slider-response","174","607877","0.0-167.0","A35S5YV2XL971J","","","","","37","","","","","","","","","","","","","","","","","","","","","",""
"null","","image-button-response","175","612891","0.0-168.0","A35S5YV2XL971J","img_art/21.jpg","null","","","","","","","","","","","","","","","","","","","","","","","","",""
"3807","","image-button-response","176","616701","0.0-169.0","A35S5YV2XL971J","img_art/21.jpg","4","","","","","","","","","","","","","","","","","","","","","","","","",""
"310","","image-button-response","177","617015","0.0-170.0-0.0","A35S5YV2XL971J","img_art/21.jpg","3","","","","","","","","","","","","","","","","","","","","","","","","",""
"430","","image-button-response","178","617449","0.0-171.0-0.0","A35S5YV2XL971J","img_art/21.jpg","5","","","","","","","","","","","","","","","","","","","","","","","","",""
"null","","html-keyboard-response","179","617952","0.0-172.0","A35S5YV2XL971J","<p style=""font-size: 48px;"">+</p>","","","","","null","allTrialResponses","500","1","18","img_art/21.jpg","37","feeling good","Alex,Christian,Devon,Adrian,Samuel,Shawn","The colors are very nice. I like the dots because they remind me of pearls,5,100,20","stormy with gold lining,0,140,20","waterpaint is attractive,13,400,20","I like this piece more the more I look at. Still wouldn't want it in my home, though.,8,60,20","feels like a wave coming into light,9,400,20","Lovely colors and emotive effects. Turner-esque in a not-so derivative way.,44,100,20","Samuel","feels like a wave coming into light,9,400,20","Adrian","I like this piece more the more I look at. Still wouldn't want it in my home, though.,8,60,20","Shawn","Lovely colors and emotive effects. Turner-esque in a not-so derivative way.,44,100,20","9"
"1985","","survey-text","180","619944","0.0-173.0-0.0","A35S5YV2XL971J","","","","{""Q0"":""feeling good""}","","","","","","","","","","","","","","","","","","","","","","",""
"4772.5","","image-slider-response","181","624719","0.0-174.0","A35S5YV2XL971J","","","","","39","","","","","","","","","","","","","","","","","","","","","",""
"null","","image-button-response","182","629724","0.0-175.0","A35S5YV2XL971J","img_art/15.jpg","null","","","","","","","","","","","","","","","","","","","","","","","","",""
"141","","image-button-response","183","629868","0.0-176.0","A35S5YV2XL971J","img_art/15.jpg","3","","","","","","","","","","","","","","","","","","","","","","","","",""
"271","","image-button-response","184","630143","0.0-177.0-0.0","A35S5YV2XL971J","img_art/15.jpg","4","","","","","","","","","","","","","","","","","","","","","","","","",""
"416","","image-button-response","185","630565","0.0-178.0-0.0","A35S5YV2XL971J","img_art/15.jpg","5","","","","","","","","","","","","","","","","","","","","","","","","",""
"null","","html-keyboard-response","186","631677","0.0-179.0","A35S5YV2XL971J","<p style=""font-size: 48px;"">+</p>","","","","","null","allTrialResponses","1000","1","19","img_art/15.jpg","39","feeling good","Edward,Joseph,Jesse,Adrian,Samuel,Shawn","Reminds me of lilacs,26,60,20","Bushes, good! Life, good!,12,220,20","Doesnt trigger much of a reaction overall,-2,80,20","Not a fan. This piece would only go with very specific decor in a modern home.,-35,60,20","Black reminds me of darkness,-18,400,20","Like the composition and lines,26,100,20","Adrian","Not a fan. This piece would only go with very specific decor in a modern home.,-35,60,20","Samuel","Black reminds me of darkness,-18,400,20","Shawn","Like the composition and lines,26,100,20","9"
"27459","","survey-text","187","659148","0.0-180.0-0.0","A35S5YV2XL971J","","","","{""Q0"":""A35S5YV2XL971J""}","","","","","","","","","","","","","","","","","","","","","","",""
"3632.699999809265","","image-slider-response","188","662784","0.0-181.0","A35S5YV2XL971J","","","","","25","","","","","","","","","","","","","","","","","","","","","",""
"4699","","image-button-response","189","667797","0.0-182.0","A35S5YV2XL971J","img_art/19.jpg","5","","","","","","","","","","","","","","","","","","","","","","","","",""
"671","","image-button-response","190","668472","0.0-183.0","A35S5YV2XL971J","img_art/19.jpg","3","","","","","","","","","","","","","","","","","","","","","","","","",""
"284","","image-button-response","191","668760","0.0-184.0-0.0","A35S5YV2XL971J","img_art/19.jpg","4","","","","","","","","","","","","","","","","","","","","","","","","",""
"273","","image-button-response","192","669039","0.0-185.0-0.0","A35S5YV2XL971J","img_art/19.jpg","5","","","","","","","","","","","","","","","","","","","","","","","","",""
"null","","html-keyboard-response","193","670043","0.0-186.0","A35S5YV2XL971J","<p style=""font-size: 48px;"">+</p>","","","","","null","allTrialResponses","1000","1","20","img_art/19.jpg","25","A35S5YV2XL971J","Brandon,Seth,Isaac,Adrian,Samuel,Shawn","Not a fan of the blobbiness,-22,320,20","I wasn't sure if I liked it or hated it. It oddly reminds me of a clothing store.,11,60,20","It is too busy.,-34,280,20","Pleasant colors with just enough detail to be recognizable. I can see a scene in it that tells a story.,7,60,20","city life energy,8,400,20","The use of space isn't my favorite.,-20,100,20","Adrian","Pleasant colors with just enough detail to be recognizable. I can see a scene in it that tells a story.,7,60,20","Samuel","city life energy,8,400,20","Shawn","The use of space isn't my favorite.,-20,100,20","9"
"4615","","survey-text","194","674678","0.0-187.0-0.0","A35S5YV2XL971J","","","","{""Q0"":""we""}","","","","","","","","","","","","","","","","","","","","","","",""
"6805","","survey-text","195","681486","0.0-188.0-0.0","A35S5YV2XL971J","","","","{""Q0"":""feeling good""}","","","","","","","","","","","","","","","","","","","","","","",""
"2849","","image-slider-response","196","684338","0.0-189.0","A35S5YV2XL971J","","","","","36","","","","","","","","","","","","","","","","","","","","","",""
"4582","","image-button-response","197","689356","0.0-190.0","A35S5YV2XL971J","img_art/25.jpg","3","","","","","","","","","","","","","","","","","","","","","","","","",""
"1727","","image-button-response","198","691087","0.0-191.0","A35S5YV2XL971J","img_art/25.jpg","4","","","","","","","","","","","","","","","","","","","","","","","","",""
"535","","image-button-response","199","691626","0.0-192.0-0.0","A35S5YV2XL971J","img_art/25.jpg","5","","","","","","","","","","","","","","","","","","","","","","","","",""
"568","","image-button-response","200","692199","0.0-193.0-0.0","A35S5YV2XL971J","img_art/25.jpg","3","","","","","","","","","","","","","","","","","","","","","","","","",""
"null","","html-keyboard-response","201","692702","0.0-194.0","A35S5YV2XL971J","<p style=""font-size: 48px;"">+</p>","","","","","null","allTrialResponses","500","1","21","img_art/25.jpg","36","feeling good","Grant,Luke,Joshua,Adrian,Samuel,Shawn","I feel like I'm looking at something larger than myself.,30,200,20","the contrasting colors are very interesting,24,20,20","Looks like a voodoo figure in a New Orleans cemetery at night.,-5,240,20","This piece makes me think of oppression and fighting it. Makes me feel calm, sad and strong.,11,60,20","reminds me of burning man,18,400,20","Cheesy and unprofessional,-30,100,20","Samuel","reminds me of burning man,18,400,20","Shawn","Cheesy and unprofessional,-30,100,20","Adrian","This piece makes me think of oppression and fighting it. Makes me feel calm, sad and strong.,11,60,20","9"
"10533","","survey-text","202","703248","0.0-195.0-0.0","A35S5YV2XL971J","","","","{""Q0"":""feeling good""}","","","","","","","","","","","","","","","","","","","","","","",""
"6825.89999961853","","image-slider-response","203","710077","0.0-196.0","A35S5YV2XL971J","","","","","28","","","","","","","","","","","","","","","","","","","","","",""
"null","","image-button-response","204","715089","0.0-197.0","A35S5YV2XL971J","img_art/4.jpg","null","","","","","","","","","","","","","","","","","","","","","","","","",""
"3151","","image-button-response","205","718243","0.0-198.0","A35S5YV2XL971J","img_art/4.jpg","3","","","","","","","","","","","","","","","","","","","","","","","","",""
"392","","image-button-response","206","718639","0.0-199.0-0.0","A35S5YV2XL971J","img_art/4.jpg","4","","","","","","","","","","","","","","","","","","","","","","","","",""
"626","","image-button-response","207","719269","0.0-200.0-0.0","A35S5YV2XL971J","img_art/4.jpg","5","","","","","","","","","","","","","","","","","","","","","","","","",""
"null","","html-keyboard-response","208","720272","0.0-201.0","A35S5YV2XL971J","<p style=""font-size: 48px;"">+</p>","","","","","null","allTrialResponses","1000","1","22","img_art/4.jpg","28","feeling good","Jake,Thomas,Cody,Adrian,Samuel,Shawn","This is ugly in color and in terms of the shape on it.,-32,360,20","This image doesn't invoke anything in me,-9,220,20","Interesting but maybe a little creepy,0,180,20","Looks like feces smeared on the canvas. I hate it.,-50,60,20","The muted tones,-11,400,20","Great movement but don't love the yellowy tones.,31,100,20","Adrian","Looks like feces smeared on the canvas. I hate it.,-50,60,20","Samuel","The muted tones,-11,400,20","Shawn","Great movement but don't love the yellowy tones.,31,100,20","9"
"2846","","survey-text","209","723127","0.0-202.0-0.0","A35S5YV2XL971J","","","","{""Q0"":""feeling good""}","","","","","","","","","","","","","","","","","","","","","","",""
"12152.70000076294","","image-slider-response","210","735287","0.0-203.0","A35S5YV2XL971J","","","","","28","","","","","","","","","","","","","","","","","","","","","",""
"4947","","image-button-response","211","740292","0.0-204.0","A35S5YV2XL971J","img_art/12.jpg","3","","","","","","","","","","","","","","","","","","","","","","","","",""
"1563","","image-button-response","212","741859","0.0-205.0","A35S5YV2XL971J","img_art/12.jpg","4","","","","","","","","","","","","","","","","","","","","","","","","",""
"543","","image-button-response","213","742406","0.0-206.0-0.0","A35S5YV2XL971J","img_art/12.jpg","5","","","","","","","","","","","","","","","","","","","","","","","","",""
"634","","image-button-response","214","743044","0.0-207.0-0.0","A35S5YV2XL971J","img_art/12.jpg","3","","","","","","","","","","","","","","","","","","","","","","","","",""
"null","","html-keyboard-response","215","744048","0.0-208.0","A35S5YV2XL971J","<p style=""font-size: 48px;"">+</p>","","","","","null","allTrialResponses","1000","1","23","img_art/12.jpg","28","feeling good","Jacob,Justin,Alejandro,Adrian,Samuel,Shawn","I like this concept.,11,340,20","Too blocky and not interesting enough.,-15,280,20","I like the sectioned nature of the squares and curves. Not my favorite but still a good one.,27,80,20","Ugly colors and I'm just not too much a fan of cubist abstract art.,-50,60,20","feels cluttered,-11,400,20","Nice hallway art for a hotel.,21,100,20","Samuel","feels cluttered,-11,400,20","Shawn","Nice hallway art for a hotel.,21,100,20","Adrian","Ugly colors and I'm just not too much a fan of cubist abstract art.,-50,60,20","9"
"2705","","survey-text","216","746772","0.0-209.0-0.0","A35S5YV2XL971J","","","","{""Q0"":""feeling good""}","","","","","","","","","","","","","","","","","","","","","","",""
"3038","","image-slider-response","217","749812","0.0-210.0","A35S5YV2XL971J","","","","","30","","","","","","","","","","","","","","","","","","","","","",""
"null","","image-button-response","218","754827","0.0-211.0","A35S5YV2XL971J","img_art/14.jpg","null","","","","","","","","","","","","","","","","","","","","","","","","",""
"2506","","image-button-response","219","757335","0.0-212.0","A35S5YV2XL971J","img_art/14.jpg","3","","","","","","","","","","","","","","","","","","","","","","","","",""
"486","","image-button-response","220","757825","0.0-213.0-0.0","A35S5YV2XL971J","img_art/14.jpg","4","","","","","","","","","","","","","","","","","","","","","","","","",""
"566","","image-button-response","221","758395","0.0-214.0-0.0","A35S5YV2XL971J","img_art/14.jpg","5","","","","","","","","","","","","","","","","","","","","","","","","",""
"null","","html-keyboard-response","222","759407","0.0-215.0","A35S5YV2XL971J","<p style=""font-size: 48px;"">+</p>","","","","","null","allTrialResponses","1000","1","24","img_art/14.jpg","30","feeling good","Travis,Stephen,Nathaniel,Adrian,Samuel,Shawn","I kind of like it...I like the white back ground,11,260,20","I'm a fan of the background.,13,140,20","Not quite the style I'd like, but it does have a certain air of emptiness.,12,220,20","Warm, positive, growth.,8,60,20","tree of life brings hope,7,400,20","Like the brushstrokes but not the composition,9,100,20","Adrian","Warm, positive, growth.,8,60,20","Samuel","tree of life brings hope,7,400,20","Shawn","Like the brushstrokes but not the composition,9,100,20","9"
"10790","","survey-text","223","770209","0.0-216.0-0.0","A35S5YV2XL971J","","","","{""Q0"":""feeling good""}","","","","","","","","","","","","","","","","","","","","","","",""
"13580.400000572205","","image-slider-response","224","783793","0.0-217.0","A35S5YV2XL971J","","","","","29","","","","","","","","","","","","","","","","","","","","","",""
"null","","image-button-response","225","788812","0.0-218.0","A35S5YV2XL971J","img_art/28.jpg","null","","","","","","","","","","","","","","","","","","","","","","","","",""
"1938","","image-button-response","226","790756","0.0-219.0","A35S5YV2XL971J","img_art/28.jpg","3","","","","","","","","","","","","","","","","","","","","","","","","",""
"443","","image-button-response","227","791203","0.0-220.0-0.0","A35S5YV2XL971J","img_art/28.jpg","4","","","","","","","","","","","","","","","","","","","","","","","","",""
"701","","image-button-response","228","791908","0.0-221.0-0.0","A35S5YV2XL971J","img_art/28.jpg","5","","","","","","","","","","","","","","","","","","","","","","","","",""
"null","","html-keyboard-response","229","793415","0.0-222.0","A35S5YV2XL971J","<p style=""font-size: 48px;"">+</p>","","","","","null","allTrialResponses","1500","1","25","img_art/28.jpg","29","feeling good","Jose,Carlos,Jonathan,Adrian,Samuel,Shawn","Eh it's just kinda brown and muddy and not very nice looking,-18,200,20","Colors are pleasing, shapes are vaguely unpleasant. Kidneys at a smoky bar.,5,80,20","The lack of color variance leaves it looking ugly even if I like the brush strokes,-10,140,20","Not a fan of the drab colors but it looks a little bit interesting.,-7,60,20","conversating means hope,15,400,20","Evocative but a little dreary.,20,100,20","Adrian","Not a fan of the drab colors but it looks a little bit interesting.,-7,60,20","Samuel","conversating means hope,15,400,20","Shawn","Evocative but a little dreary.,20,100,20","9"
"7534","","survey-text","230","800966","0.0-223.0-0.0","A35S5YV2XL971J","","","","{""Q0"":""table""}","","","","","","","","","","","","","","","","","","","","","","",""
"11190","","survey-text","231","812160","0.0-224.0-0.0","A35S5YV2XL971J","","","","{""Q0"":""feeling good""}","","","","","","","","","","","","","","","","","","","","","","",""
"3598.300000190735","","image-slider-response","232","815762","0.0-225.0","A35S5YV2XL971J","","","","","21","","","","","","","","","","","","","","","","","","","","","",""
"3813","","image-button-response","233","820767","0.0-226.0","A35S5YV2XL971J","img_art/2.jpg","3","","","","","","","","","","","","","","","","","","","","","","","","",""
"1018","","image-button-response","234","821790","0.0-227.0","A35S5YV2XL971J","img_art/2.jpg","3","","","","","","","","","","","","","","","","","","","","","","","","",""
"722","","image-button-response","235","822517","0.0-228.0-0.0","A35S5YV2XL971J","img_art/2.jpg","4","","","","","","","","","","","","","","","","","","","","","","","","",""
"593","","image-button-response","236","823115","0.0-229.0-0.0","A35S5YV2XL971J","img_art/2.jpg","5","","","","","","","","","","","","","","","","","","","","","","","","",""
"null","","html-keyboard-response","237","824634","0.0-230.0","A35S5YV2XL971J","<p style=""font-size: 48px;"">+</p>","","","","","null","allTrialResponses","1500","1","26","img_art/2.jpg","21","feeling good","Colton,Gregory,Matthew,Adrian,Samuel,Shawn","too blocky and don't like color combination,-32,220,20","Awful color coordination and design,-35,220,20","I think I can make out a face in there.,25,120,20","Not a fan of the colors or the style.,-31,60,20","i liked the bright colors,13,400,20","The color choices and lines seem a bit sloppy?,-10,100,20","Adrian","Not a fan of the colors or the style.,-31,60,20","Samuel","i liked the bright colors,13,400,20","Shawn","The color choices and lines seem a bit sloppy?,-10,100,20","9"
"4597","","survey-text","238","829253","0.0-231.0-0.0","A35S5YV2XL971J","","","","{""Q0"":""feeling good""}","","","","","","","","","","","","","","","","","","","","","","",""
"5354.599999427795","","image-slider-response","239","834611","0.0-232.0","A35S5YV2XL971J","","","","","30","","","","","","","","","","","","","","","","","","","","","",""
"1996","","image-button-response","240","839615","0.0-233.0","A35S5YV2XL971J","img_art/22.jpg","3","","","","","","","","","","","","","","","","","","","","","","","","",""
"259","","image-button-response","241","839878","0.0-234.0","A35S5YV2XL971J","img_art/22.jpg","3","","","","","","","","","","","","","","","","","","","","","","","","",""
"6787","","image-button-response","242","846669","0.0-235.0-0.0","A35S5YV2XL971J","img_art/22.jpg","4","","","","","","","","","","","","","","","","","","","","","","","","",""
"420","","image-button-response","243","847095","0.0-236.0-0.0","A35S5YV2XL971J","img_art/22.jpg","5","","","","","","","","","","","","","","","","","","","","","","","","",""
"null","","html-keyboard-response","244","848105","0.0-237.0","A35S5YV2XL971J","<p style=""font-size: 48px;"">+</p>","","","","","null","allTrialResponses","1000","1","27","img_art/22.jpg","30","feeling good","Brian,Dylan,Jared,Adrian,Samuel,Shawn","this is too generic,-27,380,20","The colors in this picture are nice.,32,40,20","colorful. but not much happening,1,400,20","Too much contrasting colors makes me feel anxious. I don't like it.,-20,60,20","ball of light in 90s,8,400,20","Still like the colors but not the most interesting composition,17,100,20","Adrian","Too much contrasting colors makes me feel anxious. I don't like it.,-20,60,20","Samuel","ball of light in 90s,8,400,20","Shawn","Still like the colors but not the most interesting composition,17,100,20","9"
"5313","","survey-text","245","853432","0.0-238.0-0.0","A35S5YV2XL971J","","","","{""Q0"":""feeling good""}","","","","","","","","","","","","","","","","","","","","","","",""
"2773.5","","image-slider-response","246","856209","0.0-239.0","A35S5YV2XL971J","","","","","34","","","","","","","","","","","","","","","","","","","","","",""
"null","","image-button-response","247","861222","0.0-240.0","A35S5YV2XL971J","img_art/30.jpg","null","","","","","","","","","","","","","","","","","","","","","","","","",""
"637","","image-button-response","248","861862","0.0-241.0","A35S5YV2XL971J","img_art/30.jpg","3","","","","","","","","","","","","","","","","","","","","","","","","",""
"773","","image-button-response","249","862639","0.0-242.0-0.0","A35S5YV2XL971J","img_art/30.jpg","4","","","","","","","","","","","","","","","","","","","","","","","","",""
"963","","image-button-response","250","863607","0.0-243.0-0.0","A35S5YV2XL971J","img_art/30.jpg","5","","","","","","","","","","","","","","","","","","","","","","","","",""
"null","","html-keyboard-response","251","864622","0.0-244.0","A35S5YV2XL971J","<p style=""font-size: 48px;"">+</p>","","","","","null","allTrialResponses","1000","1","28","img_art/30.jpg","34","feeling good","Robert,Juan,Evan,Adrian,Samuel,Shawn","My kindergarten class could do this,-50,360,20","I like the red against the blue, but otherwise, it's not really my taste,4,260,20","I really like the broad and colorful strokes,21,140,20","Interesting. Not sure what I'm seeing but it makes me want to figure it out.,5,60,20","perceiving greatness,20,400,20","Muddy, sloppy, unprofessional,-44,100,20","Adrian","Interesting. Not sure what I'm seeing but it makes me want to figure it out.,5,60,20","Samuel","perceiving greatness,20,400,20","Shawn","Muddy, sloppy, unprofessional,-44,100,20","9"
"4990","","survey-text","252","869630","0.0-245.0-0.0","A35S5YV2XL971J","","","","{""Q0"":""feeling good""}","","","","","","","","","","","","","","","","","","","","","","",""
"4130.900000572205","","image-slider-response","253","873766","0.0-246.0","A35S5YV2XL971J","","","","","31","","","","","","","","","","","","","","","","","","","","","",""
"null","","image-button-response","254","878771","0.0-247.0","A35S5YV2XL971J","img_art/16.jpg","null","","","","","","","","","","","","","","","","","","","","","","","","",""
"952","","image-button-response","255","879727","0.0-248.0","A35S5YV2XL971J","img_art/16.jpg","3","","","","","","","","","","","","","","","","","","","","","","","","",""
"597","","image-button-response","256","880328","0.0-249.0-0.0","A35S5YV2XL971J","img_art/16.jpg","4","","","","","","","","","","","","","","","","","","","","","","","","",""
"428","","image-button-response","257","880762","0.0-250.0-0.0","A35S5YV2XL971J","img_art/16.jpg","5","","","","","","","","","","","","","","","","","","","","","","","","",""
"null","","html-keyboard-response","258","881266","0.0-251.0","A35S5YV2XL971J","<p style=""font-size: 48px;"">+</p>","","","","","null","allTrialResponses","500","1","29","img_art/16.jpg","31","feeling good","Mitchell,Vincent,Brendan,Adrian,Samuel,Shawn","A teddybear, gun, crying person does not give a happy reaction. Death, still, no life.,-50,180,20","Toys toys toys. Happy playful free spirit,30,360,20","cool teddy bear,50,340,20","It's depressing. Probably achieved its goal. But I wouldn't want it hanging in my home.,-31,60,20","childhood horror,3,400,20","Fun but a little cheesy,15,100,20","Adrian","It's depressing. Probably achieved its goal. But I wouldn't want it hanging in my home.,-31,60,20","Samuel","childhood horror,3,400,20","Shawn","Fun but a little cheesy,15,100,20","9"
"2739","","survey-text","259","884016","0.0-252.0-0.0","A35S5YV2XL971J","","","","{""Q0"":""feeling good""}","","","","","","","","","","","","","","","","","","","","","","",""
"4533.60000038147","","image-slider-response","260","888554","0.0-253.0","A35S5YV2XL971J","","","","","33","","","","","","","","","","","","","","","","","","","","","",""
"null","","image-button-response","261","893568","0.0-254.0","A35S5YV2XL971J","img_art/20.jpg","null","","","","","","","","","","","","","","","","","","","","","","","","",""
"1026","","image-button-response","262","894599","0.0-255.0","A35S5YV2XL971J","img_art/20.jpg","3","","","","","","","","","","","","","","","","","","","","","","","","",""
"397","","image-button-response","263","895000","0.0-256.0-0.0","A35S5YV2XL971J","img_art/20.jpg","4","","","","","","","","","","","","","","","","","","","","","","","","",""
"406","","image-button-response","264","895411","0.0-257.0-0.0","A35S5YV2XL971J","img_art/20.jpg","5","","","","","","","","","","","","","","","","","","","","","","","","",""
"null","","html-keyboard-response","265","895918","0.0-258.0","A35S5YV2XL971J","<p style=""font-size: 48px;"">+</p>","","","","","null","allTrialResponses","500","1","30","img_art/20.jpg","33","feeling good","Anthony,Trevor,Christopher,Adrian,Samuel,Shawn","Neutral, this piece doesn't strike me as particularly bad or good,0,200,20","it looks like a piccasso knock off,-23,280,20","i ind of like this, it's saying something but not my style,6,160,20","Not sure what it is. The colors are pleasant; makes me want to figure it out. An animal skull in the desert?,10,60,20","crash after traffic causing grief,-11,400,20","Mood setting if a little dreary,20,100,20","Adrian","Not sure what it is. The colors are pleasant; makes me want to figure it out. An animal skull in the desert?,10,60,20","Samuel","crash after traffic causing grief,-11,400,20","Shawn","Mood setting if a little dreary,20,100,20","9"
"2666","","image-button-response_instructions","266","898599","0.0-259.0","A35S5YV2XL971J","","0","instructions","","","","","","","","","","","","","","","","","","","","","","","",""
"1402","","image-button-response","267","900013","0.0-260.0","A35S5YV2XL971J","","0","","","","","","","","","","","","","","","","","","","","","","","","",""
