"rt","url","trial_type","trial_index","time_elapsed","internal_node_id","participant_id","stimulus","button_pressed","Name","responses","response","key_press","variableName","fixationTime","condition","trial","photo","subjectRating","subjectResponse","agentsNames","agent_1_Response","agent_2_Response","agent_3_Response","agent_4_Response","agent_5_Response","agent_6_Response","kept_1_name","kept_1_response","kept_2_name","kept_2_response","kept_3_name","kept_3_response","errorCounter"
"33994","external_page_harvard.html","external-html","0","34101","0.0-0.0","A35UAZ5IKU14XW","","","","","","","","","","","","","","","","","","","","","","","","","","",""
"1989","","image-button-response","1","36092","0.0-1.0","A35UAZ5IKU14XW","","1","","","","","","","","","","","","","","","","","","","","","","","","",""
"2939","","image-button-response","2","39035","0.0-2.0-0.0","A35UAZ5IKU14XW","","1","phone","","","","","","","","","","","","","","","","","","","","","","","",""
"8325","","survey-text","3","47362","0.0-3.0-0.0","A35UAZ5IKU14XW","","","","{""Q0"":""A35UAZ5IKU14XW""}","","","","","","","","","","","","","","","","","","","","","","",""
"5640","","image-button-response_instructions","4","53003","0.0-4.0","A35UAZ5IKU14XW","","0","instructions","","","","","","","","","","","","","","","","","","","","","","","",""
"23551","","image-button-response_instructions","5","76556","0.0-5.0","A35UAZ5IKU14XW","img_art/ins/popularity/ins1.png","0","instructions","","","","","","","","","","","","","","","","","","","","","","","",""
"14790","","image-button-response_instructions","6","91348","0.0-6.0","A35UAZ5IKU14XW","img_art/ins/popularity/ins2.png","0","instructions","","","","","","","","","","","","","","","","","","","","","","","",""
"6088","","image-button-response_instructions","7","97437","0.0-7.0","A35UAZ5IKU14XW","img_art/ins/popularity/ins2Extreme.png","0","instructions","","","","","","","","","","","","","","","","","","","","","","","",""
"23411","","image-button-response_instructions","8","120850","0.0-8.0","A35UAZ5IKU14XW","img_art/ins/popularity/ins3KEEPpop.PNG","0","instructions","","","","","","","","","","","","","","","","","","","","","","","",""
"6574","","image-button-response_instructions","9","127426","0.0-9.0","A35UAZ5IKU14XW","img_art/ins/popularity/ins3ANamepop.PNG","0","instructions","","","","","","","","","","","","","","","","","","","","","","","",""
"4440","","image-button-response_instructions","10","131868","0.0-10.0","A35UAZ5IKU14XW","img_art/ins/popularity/ins3ARatingpop.png","0","instructions","","","","","","","","","","","","","","","","","","","","","","","",""
"5737","","image-button-response_instructions","11","137606","0.0-11.0","A35UAZ5IKU14XW","img_art/ins/popularity/ins3ATextpop.png","0","instructions","","","","","","","","","","","","","","","","","","","","","","","",""
"8285","","image-button-response_instructions","12","145892","0.0-12.0","A35UAZ5IKU14XW","img_art/ins/popularity/ins3ALikespop.png","0","instructions","","","","","","","","","","","","","","","","","","","","","","","",""
"17474","","image-button-response_instructions","13","163368","0.0-13.0","A35UAZ5IKU14XW","img_art/ins/popularity/ins3KEEPpop.PNG","0","instructions","","","","","","","","","","","","","","","","","","","","","","","",""
"19274","","image-button-response_instructions","14","182642","0.0-14.0","A35UAZ5IKU14XW","img_art/ins/popularity/ins3_5RED.png","0","instructions","","","","","","","","","","","","","","","","","","","","","","","",""
"5930","","image-button-response_instructions","15","188574","0.0-15.0","A35UAZ5IKU14XW","img_art/ins/popularity/ins3KEEPpop.PNG","0","instructions","","","","","","","","","","","","","","","","","","","","","","","",""
"11505","","image-button-response_instructions","16","200080","0.0-16.0","A35UAZ5IKU14XW","img_art/ins/popularity/ins4KEEPpop.PNG","0","instructions","","","","","","","","","","","","","","","","","","","","","","","",""
"9221","","image-button-response_instructions","17","209302","0.0-17.0","A35UAZ5IKU14XW","img_art/ins/popularity/ins5KEEPpop.PNG","0","instructions","","","","","","","","","","","","","","","","","","","","","","","",""
"4157","","image-button-response_instructions","18","213460","0.0-18.0","A35UAZ5IKU14XW","","0","instructions","","","","","","","","","","","","","","","","","","","","","","","",""
"9718","","survey-text","19","223199","0.0-19.0-0.0","A35UAZ5IKU14XW","","","","{""Q0"":""but""}","","","","","","","","","","","","","","","","","","","","","","",""
"18464","","survey-text","20","241664","0.0-20.0-0.0","A35UAZ5IKU14XW","","","","{""Q0"":""This does not appeal to me in any way.""}","","","","","","","","","","","","","","","","","","","","","","",""
"7193.300000011921","","image-slider-response","21","248860","0.0-21.0","A35UAZ5IKU14XW","","","","","-26","","","","","","","","","","","","","","","","","","","","","",""
"null","","image-button-response","22","253864","0.0-22.0","A35UAZ5IKU14XW","img_art/ins/1.jpg","null","","","","","","","","","","","","","","","","","","","","","","","","",""
"2056","","image-button-response","23","255922","0.0-23.0","A35UAZ5IKU14XW","img_art/ins/1.jpg","1","","","","","","","","","","","","","","","","","","","","","","","","",""
"5538","","image-button-response","24","261462","0.0-24.0-0.0","A35UAZ5IKU14XW","img_art/ins/1.jpg","3","","","","","","","","","","","","","","","","","","","","","","","","",""
"19854","","image-button-response","25","281318","0.0-25.0-0.0","A35UAZ5IKU14XW","img_art/ins/1.jpg","2","","","","","","","","","","","","","","","","","","","","","","","","",""
"null","","html-keyboard-response","26","282320","0.0-26.0","A35UAZ5IKU14XW","<p style=""font-size: 48px;"">+</p>","","","","","null","allTrialResponses","1000","1","-2","img_art/ins/1.jpg","-26","This does not appeal to me in any way.","Allison,Ashley,Beth,Dora,Erika,Jen","looks like a lot of things going on in the mist,20,20,20","I just don't get why these type of art would be popular,-32,40,20","This color reminds me of poo,-46,60,20","looks like what my niece in 3rd grade did this afternoon,-50,80,20","I like the sophisticated brushwork,40,100,20","It reminds me of a candy land dream I had,36,120,20","Ashley","I just don't get why these type of art would be popular,-32,40,20","Dora","looks like what my niece in 3rd grade did this afternoon,-50,80,20","Beth","This color reminds me of poo,-46,60,20","0"
"18828","","survey-text","27","301154","0.0-27.0-0.0","A35UAZ5IKU14XW","","","","{""Q0"":""It creates a feeling of aggravation in me.""}","","","","","","","","","","","","","","","","","","","","","","",""
"7422.100000023842","","image-slider-response","28","308577","0.0-28.0","A35UAZ5IKU14XW","","","","","-14","","","","","","","","","","","","","","","","","","","","","",""
"null","","image-button-response","29","313582","0.0-29.0","A35UAZ5IKU14XW","img_art/ins/2.jpg","null","","","","","","","","","","","","","","","","","","","","","","","","",""
"7228","","image-button-response","30","320812","0.0-30.0","A35UAZ5IKU14XW","img_art/ins/2.jpg","3","","","","","","","","","","","","","","","","","","","","","","","","",""
"3183","","image-button-response","31","323998","0.0-31.0-0.0","A35UAZ5IKU14XW","img_art/ins/2.jpg","4","","","","","","","","","","","","","","","","","","","","","","","","",""
"8513","","image-button-response","32","332514","0.0-32.0-0.0","A35UAZ5IKU14XW","img_art/ins/2.jpg","1","","","","","","","","","","","","","","","","","","","","","","","","",""
"null","","html-keyboard-response","33","333523","0.0-33.0","A35UAZ5IKU14XW","<p style=""font-size: 48px;"">+</p>","","","","","null","allTrialResponses","1000","1","-1","img_art/ins/2.jpg","-14","It creates a feeling of aggravation in me.","Jenna,Ashley,Beth,Dora,Kara,Katie","One of my pet peevs,-48,140,20","Idk, it is just annoying,-32,40,20","meaningless painting,-45,60,20","looks too angry,-50,80,20","I like the blocks of color arrangements,30,160,20","too much color!,-28,180,20","Dora","looks too angry,-50,80,20","Kara","I like the blocks of color arrangements,30,160,20","Ashley","Idk, it is just annoying,-32,40,20","0"
"16482","","survey-text","34","350010","0.0-34.0-0.0","A35UAZ5IKU14XW","","","","{""Q0"":""I really like the blues and movement in this.""}","","","","","","","","","","","","","","","","","","","","","","",""
"7663.9000000059605","","image-slider-response","35","357675","0.0-35.0","A35UAZ5IKU14XW","","","","","22","","","","","","","","","","","","","","","","","","","","","",""
"null","","image-button-response","36","362682","0.0-36.0","A35UAZ5IKU14XW","img_art/ins/3.jpg","null","","","","","","","","","","","","","","","","","","","","","","","","",""
"6459","","image-button-response","37","369142","0.0-37.0","A35UAZ5IKU14XW","img_art/ins/3.jpg","4","","","","","","","","","","","","","","","","","","","","","","","","",""
"2550","","image-button-response","38","371694","0.0-38.0-0.0","A35UAZ5IKU14XW","img_art/ins/3.jpg","2","","","","","","","","","","","","","","","","","","","","","","","","",""
"3466","","image-button-response","39","375162","0.0-39.0-0.0","A35UAZ5IKU14XW","img_art/ins/3.jpg","0","","","","","","","","","","","","","","","","","","","","","","","","",""
"null","","html-keyboard-response","40","375665","0.0-40.0","A35UAZ5IKU14XW","<p style=""font-size: 48px;"">+</p>","","","","","null","allTrialResponses","500","1","0","img_art/ins/3.jpg","22","I really like the blues and movement in this.","Leslie,Ashley,Mary,Dora,Kara,Rose","It's an alright work,15,200,20","It looks like a playground for bats,-36,40,20","I like the overlapping of brushes,41,220,20","My worst nightmare,-42,80,20","calming blue is very nice,36,160,20","My daily routine, it's depressing,-20,240,20","Kara","calming blue is very nice,36,160,20","Mary","I like the overlapping of brushes,41,220,20","Leslie","It's an alright work,15,200,20","0"
"129812","","image-button-response_instructions","41","505482","0.0-41.0","A35UAZ5IKU14XW","","0","instructions","","","","","","","","","","","","","","","","","","","","","","","",""
"13868","","survey-likert","42","519353","0.0-42.0-0.0","A35UAZ5IKU14XW","","","","{""Q0"":"""",""Q1"":0,""Q2"":1}","","","","","","","","","","","","","","","","","","","","","","",""
"8281","","survey-text","43","527644","0.0-43.0-0.0","A35UAZ5IKU14XW","","","","{""Q0"":""rock""}","","","","","","","","","","","","","","","","","","","","","","",""
"30205","","survey-text","44","557851","0.0-44.0-0.0","A35UAZ5IKU14XW","","","","{""Q0"":""It looks like a perfume bottle.""}","","","","","","","","","","","","","","","","","","","","","","",""
"7077.9000000059605","","image-slider-response","45","564930","0.0-45.0","A35UAZ5IKU14XW","","","","","-22","","","","","","","","","","","","","","","","","","","","","",""
"null","","image-button-response","46","569956","0.0-46.0","A35UAZ5IKU14XW","img_art/5.jpg","null","","","","","","","","","","","","","","","","","","","","","","","","",""
"15466","","image-button-response","47","585424","0.0-47.0","A35UAZ5IKU14XW","img_art/5.jpg","4","","","","","","","","","","","","","","","","","","","","","","","","",""
"3240","","image-button-response","48","588666","0.0-48.0-0.0","A35UAZ5IKU14XW","img_art/5.jpg","0","","","","","","","","","","","","","","","","","","","","","","","","",""
"11581","","image-button-response","49","600250","0.0-49.0-0.0","A35UAZ5IKU14XW","img_art/5.jpg","1","","","","","","","","","","","","","","","","","","","","","","","","",""
"null","","html-keyboard-response","50","601753","0.0-50.0","A35UAZ5IKU14XW","<p style=""font-size: 48px;"">+</p>","","","","","null","allTrialResponses","1500","1","1","img_art/5.jpg","-22","It looks like a perfume bottle.","Julia,Alyssa,Allison,Kathryn,Crystal,Cheyenne","I like this one but wish it had more context around it,18,40,20","It has a sense of vague familiarity that i like.Like a stick starting a fire at a campsite.,30,160,20","Too loud. Dislike the bright yellow.,-5,140,20","I see a sign advising me to be cautious.,-20,140,20","Confused as to what the artist is attempting to do.,-50,300,20","Very little going on.,-4,200,20","Crystal","Confused as to what the artist is attempting to do.,-50,300,20","Julia","I like this one but wish it had more context around it,18,40,20","Alyssa","It has a sense of vague familiarity that i like.Like a stick starting a fire at a campsite.,30,160,20","0"
"17837","","survey-text","51","619594","0.0-51.0-0.0","A35UAZ5IKU14XW","","","","{""Q0"":""It looks like an angry monster.""}","","","","","","","","","","","","","","","","","","","","","","",""
"8135.9000000059605","","image-slider-response","52","627731","0.0-52.0","A35UAZ5IKU14XW","","","","","-41","","","","","","","","","","","","","","","","","","","","","",""
"null","","image-button-response","53","632735","0.0-53.0","A35UAZ5IKU14XW","img_art/9.jpg","null","","","","","","","","","","","","","","","","","","","","","","","","",""
"18461","","image-button-response","54","651198","0.0-54.0","A35UAZ5IKU14XW","img_art/9.jpg","5","","","","","","","","","","","","","","","","","","","","","","","","",""
"7859","","image-button-response","55","659060","0.0-55.0-0.0","A35UAZ5IKU14XW","img_art/9.jpg","1","","","","","","","","","","","","","","","","","","","","","","","","",""
"10930","","image-button-response","56","669992","0.0-56.0-0.0","A35UAZ5IKU14XW","img_art/9.jpg","4","","","","","","","","","","","","","","","","","","","","","","","","",""
"null","","html-keyboard-response","57","671493","0.0-57.0","A35UAZ5IKU14XW","<p style=""font-size: 48px;"">+</p>","","","","","null","allTrialResponses","1500","1","2","img_art/9.jpg","-41","It looks like an angry monster.","Julia,Alyssa,Savannah,Sabrina,Crystal,Shelby","I don't like the framing of this one,-25,40,20","Unpleasant, alot of dark colors and strange lines,-26,160,20","Unfinished, weird composition.,-34,200,20","Calming and relaxing,42,120,20","Evokes triumph of a mountain over powering a drowning sea,24,300,20","A little too weird for me,-30,240,20","Shelby","A little too weird for me,-30,240,20","Alyssa","Unpleasant, alot of dark colors and strange lines,-26,160,20","Crystal","Evokes triumph of a mountain over powering a drowning sea,24,300,20","0"
"27586","","survey-text","58","699084","0.0-58.0-0.0","A35UAZ5IKU14XW","","","","{""Q0"":""It brings to mind nature and waterfalls.""}","","","","","","","","","","","","","","","","","","","","","","",""
"5044.0999999940395","","image-slider-response","59","704130","0.0-59.0","A35UAZ5IKU14XW","","","","","24","","","","","","","","","","","","","","","","","","","","","",""
"null","","image-button-response","60","709133","0.0-60.0","A35UAZ5IKU14XW","img_art/24.jpg","null","","","","","","","","","","","","","","","","","","","","","","","","",""
"7444","","image-button-response","61","716578","0.0-61.0","A35UAZ5IKU14XW","img_art/24.jpg","1","","","","","","","","","","","","","","","","","","","","","","","","",""
"11025","","image-button-response","62","727606","0.0-62.0-0.0","A35UAZ5IKU14XW","img_art/24.jpg","5","","","","","","","","","","","","","","","","","","","","","","","","",""
"4085","","image-button-response","63","731694","0.0-63.0-0.0","A35UAZ5IKU14XW","img_art/24.jpg","0","","","","","","","","","","","","","","","","","","","","","","","","",""
"null","","html-keyboard-response","64","732709","0.0-64.0","A35UAZ5IKU14XW","<p style=""font-size: 48px;"">+</p>","","","","","null","allTrialResponses","1000","1","3","img_art/24.jpg","24","It brings to mind nature and waterfalls.","Mackenzie,Alyssa,Olivia,Kayla,Crystal,Shelby","I like the vivid colors and different textures,32,20,20","Beautiful.Nice use of colors and invokes feelings of serene and peace,40,160,20","tranquility in the stream,34,40,20","It looks like a poor dead bunny in a field of flowers. I don't want the bunny to be dead.,-37,180,20","I don't like this painting because of its blottedness. It lacks conviction, direction and purpose.,-31,300,20","Earthy wonderful, love everything about it,50,240,20","Alyssa","Beautiful.Nice use of colors and invokes feelings of serene and peace,40,160,20","Shelby","Earthy wonderful, love everything about it,50,240,20","Mackenzie","I like the vivid colors and different textures,32,20,20","0"
"20262","","survey-text","65","752976","0.0-65.0-0.0","A35UAZ5IKU14XW","","","","{""Q0"":""It feels like a city scape but rather drab.""}","","","","","","","","","","","","","","","","","","","","","","",""
"7186.199999988079","","image-slider-response","66","760164","0.0-66.0","A35UAZ5IKU14XW","","","","","-2","","","","","","","","","","","","","","","","","","","","","",""
"null","","image-button-response","67","765167","0.0-67.0","A35UAZ5IKU14XW","img_art/12.jpg","null","","","","","","","","","","","","","","","","","","","","","","","","",""
"20374","","image-button-response","68","785542","0.0-68.0","A35UAZ5IKU14XW","img_art/12.jpg","2","","","","","","","","","","","","","","","","","","","","","","","","",""
"5265","","image-button-response","69","790810","0.0-69.0-0.0","A35UAZ5IKU14XW","img_art/12.jpg","1","","","","","","","","","","","","","","","","","","","","","","","","",""
"12862","","image-button-response","70","803675","0.0-70.0-0.0","A35UAZ5IKU14XW","img_art/12.jpg","3","","","","","","","","","","","","","","","","","","","","","","","","",""
"null","","html-keyboard-response","71","805177","0.0-71.0","A35UAZ5IKU14XW","<p style=""font-size: 48px;"">+</p>","","","","","null","allTrialResponses","1500","1","4","img_art/12.jpg","-2","It feels like a city scape but rather drab.","Mackenzie,Alyssa,Kimberly,Emma,Heather,Shelby","I like the color scheme.,10,20,20","Its cool,reminiscent of Andy Warhol type of style,10,160,20","Just not a fan, I can't figure out why,-17,260,20","Pretty but not a huge fan of the colors,20,60,20","beautiful also reminds me of a quilt,1,260,20","The shapes make me feel a bit uncomfortable,-10,240,20","Kimberly","Just not a fan, I can't figure out why,-17,260,20","Alyssa","Its cool,reminiscent of Andy Warhol type of style,10,160,20","Emma","Pretty but not a huge fan of the colors,20,60,20","0"
"21596","","survey-text","72","826779","0.0-72.0-0.0","A35UAZ5IKU14XW","","","","{""Q0"":""I see movement and growth.""}","","","","","","","","","","","","","","","","","","","","","","",""
"29934.100000023842","","image-slider-response","73","856714","0.0-73.0","A35UAZ5IKU14XW","","","","","-2","","","","","","","","","","","","","","","","","","","","","",""
"null","","image-button-response","74","861717","0.0-74.0","A35UAZ5IKU14XW","img_art/4.jpg","null","","","","","","","","","","","","","","","","","","","","","","","","",""
"10422","","image-button-response","75","872141","0.0-75.0","A35UAZ5IKU14XW","img_art/4.jpg","2","","","","","","","","","","","","","","","","","","","","","","","","",""
"5374","","image-button-response","76","877517","0.0-76.0-0.0","A35UAZ5IKU14XW","img_art/4.jpg","4","","","","","","","","","","","","","","","","","","","","","","","","",""
"10904","","image-button-response","77","888423","0.0-77.0-0.0","A35UAZ5IKU14XW","img_art/4.jpg","0","","","","","","","","","","","","","","","","","","","","","","","","",""
"null","","html-keyboard-response","78","889425","0.0-78.0","A35UAZ5IKU14XW","<p style=""font-size: 48px;"">+</p>","","","","","null","allTrialResponses","1000","1","5","img_art/4.jpg","-2","I see movement and growth.","Courtney,Alyssa,Kimberly,Emma,Abigail,Catherine","A leaning trophy,-9,280,20","Extremely simple and like not alot of time was put into it,-20,160,20","It's ok, theres nothing that draws me away from it I guess,0,260,20","Interesting but maybe a little creepy,0,60,20","A hand reaching for something it cannot obtain,-9,20,20","Hearts, family connected. They are standing on a narrow base and could fall to pieces at anytime.,40,160,20","Kimberly","It's ok, theres nothing that draws me away from it I guess,0,260,20","Abigail","A hand reaching for something it cannot obtain,-9,20,20","Courtney","A leaning trophy,-9,280,20","0"
"8457","","survey-text","79","897895","0.0-79.0-0.0","A35UAZ5IKU14XW","","","","{""Q0"":""sky""}","","","","","","","","","","","","","","","","","","","","","","",""
"27418","","survey-text","80","925314","0.0-80.0-0.0","A35UAZ5IKU14XW","","","","{""Q0"":""I kind of like it, but it confuses me at the same time.""}","","","","","","","","","","","","","","","","","","","","","","",""
"4338.4000000059605","","image-slider-response","81","929654","0.0-81.0","A35UAZ5IKU14XW","","","","","1","","","","","","","","","","","","","","","","","","","","","",""
"null","","image-button-response","82","934657","0.0-82.0","A35UAZ5IKU14XW","img_art/27.jpg","null","","","","","","","","","","","","","","","","","","","","","","","","",""
"11369","","image-button-response","83","946028","0.0-83.0","A35UAZ5IKU14XW","img_art/27.jpg","4","","","","","","","","","","","","","","","","","","","","","","","","",""
"4655","","image-button-response","84","950685","0.0-84.0-0.0","A35UAZ5IKU14XW","img_art/27.jpg","1","","","","","","","","","","","","","","","","","","","","","","","","",""
"11529","","image-button-response","85","962216","0.0-85.0-0.0","A35UAZ5IKU14XW","img_art/27.jpg","0","","","","","","","","","","","","","","","","","","","","","","","","",""
"null","","html-keyboard-response","86","963718","0.0-86.0","A35UAZ5IKU14XW","<p style=""font-size: 48px;"">+</p>","","","","","null","allTrialResponses","1500","1","6","img_art/27.jpg","1","I kind of like it, but it confuses me at the same time.","Courtney,Jasmine,Kimberly,Katherine,Abigail,Amber","A fall mess going on here,2,280,20","I have no strong reactions to this,-1,340,20","Nothing stands out,-23,260,20","it's like a weird version of heaven,16,120,20","Looks like a little kids drawing,20,20,20","I like the colors.,6,200,20","Abigail","Looks like a little kids drawing,20,20,20","Jasmine","I have no strong reactions to this,-1,340,20","Courtney","A fall mess going on here,2,280,20","0"
"54407","","survey-text","87","1018131","0.0-87.0-0.0","A35UAZ5IKU14XW","","","","{""Q0"":""Colorful scene of a busy city street.""}","","","","","","","","","","","","","","","","","","","","","","",""
"3672.2000000178814","","image-slider-response","88","1021804","0.0-88.0","A35UAZ5IKU14XW","","","","","4","","","","","","","","","","","","","","","","","","","","","",""
"null","","image-button-response","89","1026807","0.0-89.0","A35UAZ5IKU14XW","img_art/19.jpg","null","","","","","","","","","","","","","","","","","","","","","","","","",""
"18428","","image-button-response","90","1045237","0.0-90.0","A35UAZ5IKU14XW","img_art/19.jpg","5","","","","","","","","","","","","","","","","","","","","","","","","",""
"10000","","image-button-response","91","1055239","0.0-91.0-0.0","A35UAZ5IKU14XW","img_art/19.jpg","0","","","","","","","","","","","","","","","","","","","","","","","","",""
"11058","","image-button-response","92","1066299","0.0-92.0-0.0","A35UAZ5IKU14XW","img_art/19.jpg","3","","","","","","","","","","","","","","","","","","","","","","","","",""
"null","","html-keyboard-response","93","1067301","0.0-93.0","A35UAZ5IKU14XW","<p style=""font-size: 48px;"">+</p>","","","","","null","allTrialResponses","1000","1","7","img_art/19.jpg","4","Colorful scene of a busy city street.","Courtney,Jasmine,Morgan,Michelle,Abigail,Monica","Thats a lazy town,-8,280,20","Just stirred a negative reaction. Don't really like it perhaps because of the structure?,-8,340,20","Messy pantry full of food.,5,380,20","I like the water but again, the small lines with no detail are irritating,3,280,20","I dont like the gray shadows, ruins it,-7,20,20","The shapes make me recall a city scene but it looks dirty,-22,360,20","Monica","The shapes make me recall a city scene but it looks dirty,-22,360,20","Courtney","Thats a lazy town,-8,280,20","Michelle","I like the water but again, the small lines with no detail are irritating,3,280,20","0"
"27572","","survey-text","94","1094880","0.0-94.0-0.0","A35UAZ5IKU14XW","","","","{""Q0"":""Vibrant, but not sure I like it much.""}","","","","","","","","","","","","","","","","","","","","","","",""
"9214.199999988079","","image-slider-response","95","1104095","0.0-95.0","A35UAZ5IKU14XW","","","","","2","","","","","","","","","","","","","","","","","","","","","",""
"null","","image-button-response","96","1109100","0.0-96.0","A35UAZ5IKU14XW","img_art/22.jpg","null","","","","","","","","","","","","","","","","","","","","","","","","",""
"15583","","image-button-response","97","1124685","0.0-97.0","A35UAZ5IKU14XW","img_art/22.jpg","4","","","","","","","","","","","","","","","","","","","","","","","","",""
"4770","","image-button-response","98","1129457","0.0-98.0-0.0","A35UAZ5IKU14XW","img_art/22.jpg","2","","","","","","","","","","","","","","","","","","","","","","","","",""
"5589","","image-button-response","99","1135047","0.0-99.0-0.0","A35UAZ5IKU14XW","img_art/22.jpg","0","","","","","","","","","","","","","","","","","","","","","","","","",""
"null","","html-keyboard-response","100","1136550","0.0-100.0","A35UAZ5IKU14XW","<p style=""font-size: 48px;"">+</p>","","","","","null","allTrialResponses","1500","1","8","img_art/22.jpg","2","Vibrant, but not sure I like it much.","Courtney,Maria,Makayla,Michelle,Sydney,Monica","Looks hot where ever that is.,-8,280,20","displeasure - not a fan of the colour or the shapes,-18,120,20","Just neutral no feelings,2,80,20","Not a huge fan of the blocks, also very abstract, I have no idea what it is,8,280,20","I don't normally like bright colors, but I like them in this. Don't like the random black paint.,30,320,20","I really like the bright colors and sunset feel,31,360,20","Sydney","I don't normally like bright colors, but I like them in this. Don't like the random black paint.,30,320,20","Makayla","Just neutral no feelings,2,80,20","Courtney","Looks hot where ever that is.,-8,280,20","0"
"30227","","survey-text","101","1166783","0.0-101.0-0.0","A35UAZ5IKU14XW","","","","{""Q0"":""It's a jumble, don't like the colors.""}","","","","","","","","","","","","","","","","","","","","","","",""
"6809.5","","image-slider-response","102","1173594","0.0-102.0","A35UAZ5IKU14XW","","","","","-47","","","","","","","","","","","","","","","","","","","","","",""
"null","","image-button-response","103","1178597","0.0-103.0","A35UAZ5IKU14XW","img_art/2.jpg","null","","","","","","","","","","","","","","","","","","","","","","","","",""
"20794","","image-button-response","104","1199393","0.0-104.0","A35UAZ5IKU14XW","img_art/2.jpg","0","","","","","","","","","","","","","","","","","","","","","","","","",""
"7716","","image-button-response","105","1207111","0.0-105.0-0.0","A35UAZ5IKU14XW","img_art/2.jpg","2","","","","","","","","","","","","","","","","","","","","","","","","",""
"11254","","image-button-response","106","1218367","0.0-106.0-0.0","A35UAZ5IKU14XW","img_art/2.jpg","1","","","","","","","","","","","","","","","","","","","","","","","","",""
"null","","html-keyboard-response","107","1218868","0.0-107.0","A35UAZ5IKU14XW","<p style=""font-size: 48px;"">+</p>","","","","","null","allTrialResponses","500","1","9","img_art/2.jpg","-47","It's a jumble, don't like the colors.","Courtney,Jordan,Makayla,Haley,Sydney,Megan","That looks look a cartoon character of some kind.,11,280,20","I can't get past the fact that it looks like someone wearing a mask,-46,20,20","I don't feel indifferent,4,80,20","My first thought was that it looks like a children's art project,-30,220,20","I like the color, but I feel like I see a creepy face which I dislike.,-5,320,20","Colors and space work but the top scribbled killed it.,11,200,20","Courtney","That looks look a cartoon character of some kind.,11,280,20","Makayla","I don't feel indifferent,4,80,20","Jordan","I can't get past the fact that it looks like someone wearing a mask,-46,20,20","0"
"26713","","survey-text","108","1245589","0.0-108.0-0.0","A35UAZ5IKU14XW","","","","{""Q0"":""I imagine the sea when I see this.""}","","","","","","","","","","","","","","","","","","","","","","",""
"4408.0999999940395","","image-slider-response","109","1249998","0.0-109.0","A35UAZ5IKU14XW","","","","","5","","","","","","","","","","","","","","","","","","","","","",""
"null","","image-button-response","110","1255002","0.0-110.0","A35UAZ5IKU14XW","img_art/21.jpg","null","","","","","","","","","","","","","","","","","","","","","","","","",""
"29367","","image-button-response","111","1284371","0.0-111.0","A35UAZ5IKU14XW","img_art/21.jpg","0","","","","","","","","","","","","","","","","","","","","","","","","",""
"4654","","image-button-response","112","1289027","0.0-112.0-0.0","A35UAZ5IKU14XW","img_art/21.jpg","1","","","","","","","","","","","","","","","","","","","","","","","","",""
"3750","","image-button-response","113","1292779","0.0-113.0-0.0","A35UAZ5IKU14XW","img_art/21.jpg","0","","","","","","","","","","","","","","","","","","","","","","","","",""
"13957","","image-button-response","114","1313399","0.0-113.1-0.1","A35UAZ5IKU14XW","img_art/21.jpg","5","","","","","","","","","","","","","","","","","","","","","","","","",""
"null","","html-keyboard-response","115","1314401","0.0-114.0","A35UAZ5IKU14XW","<p style=""font-size: 48px;"">+</p>","","","","","null","allTrialResponses","1000","1","10","img_art/21.jpg","5","I imagine the sea when I see this.","Courtney,Jordan,Makayla,Alexandria,Breanna,Anna","Another ship on fire.,-10,280,20","Okay, I love the color schemes, I can't quite figure it out though,14,20,20","I like the two sides meeting, like a movie scene,15,80,20","the vast colors make me happy,15,80,20","Can't understand what it is,-27,380,20","I love the colors and the differences between the left and right sides.,22,300,20","Courtney","Another ship on fire.,-10,280,20","Jordan","Okay, I love the color schemes, I can't quite figure it out though,14,20,20","Anna","I love the colors and the differences between the left and right sides.,22,300,20","2"
"7872","","survey-text","116","1322285","0.0-115.0-0.0","A35UAZ5IKU14XW","","","","{""Q0"":""our""}","","","","","","","","","","","","","","","","","","","","","","",""
"17305","","survey-text","117","1339591","0.0-116.0-0.0","A35UAZ5IKU14XW","","","","{""Q0"":""I like all of this, growth, serenity.""}","","","","","","","","","","","","","","","","","","","","","","",""
"4595.9000000059605","","image-slider-response","118","1344189","0.0-117.0","A35UAZ5IKU14XW","","","","","32","","","","","","","","","","","","","","","","","","","","","",""
"null","","image-button-response","119","1349192","0.0-118.0","A35UAZ5IKU14XW","img_art/14.jpg","null","","","","","","","","","","","","","","","","","","","","","","","","",""
"3167","","image-button-response","120","1352361","0.0-119.0","A35UAZ5IKU14XW","img_art/14.jpg","1","","","","","","","","","","","","","","","","","","","","","","","","",""
"6332","","image-button-response","121","1358695","0.0-120.0-0.0","A35UAZ5IKU14XW","img_art/14.jpg","2","","","","","","","","","","","","","","","","","","","","","","","","",""
"6278","","image-button-response","122","1364975","0.0-121.0-0.0","A35UAZ5IKU14XW","img_art/14.jpg","3","","","","","","","","","","","","","","","","","","","","","","","","",""
"null","","html-keyboard-response","123","1365977","0.0-122.0","A35UAZ5IKU14XW","<p style=""font-size: 48px;"">+</p>","","","","","null","allTrialResponses","1000","1","11","img_art/14.jpg","32","I like all of this, growth, serenity.","Courtney,Jordan,Lauren,Taylor,Angelica,Anna","The pirates ship is sinking.,27,280,20","this one isn't bad, reminds me a tree that gives life, and people are waiting for someone new to be born,27,20,20","I like how balanced the piece is with its symmetrical design.,20,340,20","Makes me think of my plants growing,11,340,20","This is poorly done and not aesthetically appealing.,-2,280,20","It reminds me of a tree in the desert.,15,300,20","Jordan","this one isn't bad, reminds me a tree that gives life, and people are waiting for someone new to be born,27,20,20","Lauren","I like how balanced the piece is with its symmetrical design.,20,340,20","Taylor","Makes me think of my plants growing,11,340,20","2"
"19957","","survey-text","124","1385941","0.0-123.0-0.0","A35UAZ5IKU14XW","","","","{""Q0"":""A flowing tree, beautiful colors.""}","","","","","","","","","","","","","","","","","","","","","","",""
"6558.300000011921","","image-slider-response","125","1392501","0.0-124.0","A35UAZ5IKU14XW","","","","","27","","","","","","","","","","","","","","","","","","","","","",""
"null","","image-button-response","126","1397504","0.0-125.0","A35UAZ5IKU14XW","img_art/17.jpg","null","","","","","","","","","","","","","","","","","","","","","","","","",""
"9949","","image-button-response","127","1407455","0.0-126.0","A35UAZ5IKU14XW","img_art/17.jpg","3","","","","","","","","","","","","","","","","","","","","","","","","",""
"2822","","image-button-response","128","1410279","0.0-127.0-0.0","A35UAZ5IKU14XW","img_art/17.jpg","4","","","","","","","","","","","","","","","","","","","","","","","","",""
"13636","","image-button-response","129","1423918","0.0-128.0-0.0","A35UAZ5IKU14XW","img_art/17.jpg","1","","","","","","","","","","","","","","","","","","","","","","","","",""
"null","","html-keyboard-response","130","1425419","0.0-129.0","A35UAZ5IKU14XW","<p style=""font-size: 48px;"">+</p>","","","","","null","allTrialResponses","1500","1","12","img_art/17.jpg","27","A flowing tree, beautiful colors.","Miranda,Jordan,Lauren,Taylor,Kaitlyn,Laura","It seems a little dark but it is very beautiful,28,320,20","absolutely gorgeous, I feel solitude again, but the beauty is there also,50,20,20","I like how the image gives an impression of gaseous tree.,15,340,20","A very inspiring piece,41,340,20","Very beautiful,19,80,20","home - reminds me of fond memories of the Barnes Museum courtyard (looks just like it),30,320,20","Taylor","A very inspiring piece,41,340,20","Kaitlyn","Very beautiful,19,80,20","Jordan","absolutely gorgeous, I feel solitude again, but the beauty is there also,50,20,20","2"
"28134","","survey-text","131","1453560","0.0-130.0-0.0","A35UAZ5IKU14XW","","","","{""Q0"":""Kind of frightening but kind of intriguing with the face in the clouds.""}","","","","","","","","","","","","","","","","","","","","","","",""
"4949.600000023842","","image-slider-response","132","1458511","0.0-131.0","A35UAZ5IKU14XW","","","","","2","","","","","","","","","","","","","","","","","","","","","",""
"null","","image-button-response","133","1463514","0.0-132.0","A35UAZ5IKU14XW","img_art/8.jpg","null","","","","","","","","","","","","","","","","","","","","","","","","",""
"10954","","image-button-response","134","1474469","0.0-133.0","A35UAZ5IKU14XW","img_art/8.jpg","4","","","","","","","","","","","","","","","","","","","","","","","","",""
"14528","","image-button-response","135","1489000","0.0-134.0-0.0","A35UAZ5IKU14XW","img_art/8.jpg","5","","","","","","","","","","","","","","","","","","","","","","","","",""
"4340","","image-button-response","136","1493341","0.0-135.0-0.0","A35UAZ5IKU14XW","img_art/8.jpg","1","","","","","","","","","","","","","","","","","","","","","","","","",""
"null","","html-keyboard-response","137","1493844","0.0-136.0","A35UAZ5IKU14XW","<p style=""font-size: 48px;"">+</p>","","","","","null","allTrialResponses","500","1","13","img_art/8.jpg","2","Kind of frightening but kind of intriguing with the face in the clouds.","Leslie,Jordan,Kelsey,Taylor,Kaitlyn,Erin","The stylized faces remind me of German expressionism in a very good way.,40,380,20","very nice, i love what's going on here,21,20,20","i like all the different faces,19,240,20","Looks like it would be an interesting place to live,35,340,20","There are a lot of different interesting elements in the picture.,12,80,20","Lots of depth, faces, city, arch,3,120,20","Kaitlyn","There are a lot of different interesting elements in the picture.,12,80,20","Erin","Lots of depth, faces, city, arch,3,120,20","Jordan","very nice, i love what's going on here,21,20,20","2"
"27442","","survey-text","138","1521294","0.0-137.0-0.0","A35UAZ5IKU14XW","","","","{""Q0"":""A rollercoaster of a city, movement.""}","","","","","","","","","","","","","","","","","","","","","","",""
"2455.800000011921","","image-slider-response","139","1523751","0.0-138.0","A35UAZ5IKU14XW","","","","","6","","","","","","","","","","","","","","","","","","","","","",""
"null","","image-button-response","140","1528754","0.0-139.0","A35UAZ5IKU14XW","img_art/11.jpg","null","","","","","","","","","","","","","","","","","","","","","","","","",""
"4856","","image-button-response","141","1533611","0.0-140.0","A35UAZ5IKU14XW","img_art/11.jpg","1","","","","","","","","","","","","","","","","","","","","","","","","",""
"6686","","image-button-response","142","1540299","0.0-141.0-0.0","A35UAZ5IKU14XW","img_art/11.jpg","3","","","","","","","","","","","","","","","","","","","","","","","","",""
"7942","","image-button-response","143","1548243","0.0-142.0-0.0","A35UAZ5IKU14XW","img_art/11.jpg","4","","","","","","","","","","","","","","","","","","","","","","","","",""
"null","","html-keyboard-response","144","1548745","0.0-143.0","A35UAZ5IKU14XW","<p style=""font-size: 48px;"">+</p>","","","","","null","allTrialResponses","500","1","14","img_art/11.jpg","6","A rollercoaster of a city, movement.","Jamie,Jordan,Erica,Kaitlin,Kaitlyn,Erin","Looks like a cityscape,25,320,20","Oh, I love this one, it says to me that life is very busy,50,20,20","a lot of dark colours,-8,80,20","a beautiful piece of art,33,60,20","Interesting use of color,9,80,20","Frank Lloyd Wright, music,24,120,20","Jordan","Oh, I love this one, it says to me that life is very busy,50,20,20","Kaitlin","a beautiful piece of art,33,60,20","Kaitlyn","Interesting use of color,9,80,20","2"
"23808","","survey-text","145","1572562","0.0-144.0-0.0","A35UAZ5IKU14XW","","","","{""Q0"":""Random brush strokes.""}","","","","","","","","","","","","","","","","","","","","","","",""
"6245.9000000059605","","image-slider-response","146","1578809","0.0-145.0","A35UAZ5IKU14XW","","","","","-13","","","","","","","","","","","","","","","","","","","","","",""
"2958","","image-button-response","147","1583812","0.0-146.0","A35UAZ5IKU14XW","img_art/30.jpg","0","","","","","","","","","","","","","","","","","","","","","","","","",""
"20370","","image-button-response","148","1604184","0.0-147.0","A35UAZ5IKU14XW","img_art/30.jpg","4","","","","","","","","","","","","","","","","","","","","","","","","",""
"10037","","image-button-response","149","1614224","0.0-148.0-0.0","A35UAZ5IKU14XW","img_art/30.jpg","1","","","","","","","","","","","","","","","","","","","","","","","","",""
"3006","","image-button-response","150","1617232","0.0-149.0-0.0","A35UAZ5IKU14XW","img_art/30.jpg","0","","","","","","","","","","","","","","","","","","","","","","","","",""
"null","","html-keyboard-response","151","1617734","0.0-150.0","A35UAZ5IKU14XW","<p style=""font-size: 48px;"">+</p>","","","","","null","allTrialResponses","500","1","15","img_art/30.jpg","-13","Random brush strokes.","Madeline,Jordan,Caitlin,Kaitlin,Kaitlyn,Stephanie","A bit haphazard looking and lacking in vision,2,40,20","cant see the meaning behind it,-20,20,20","My kid drew this same picture at daycare!!!,5,80,20","the different roads to take in life,10,60,20","Do not like the streaks,-14,80,20","My kindergarten class could do this,-50,300,20","Kaitlyn","Do not like the streaks,-14,80,20","Jordan","cant see the meaning behind it,-20,20,20","Madeline","A bit haphazard looking and lacking in vision,2,40,20","2"
"7364","","survey-text","152","1625114","0.0-151.0-0.0","A35UAZ5IKU14XW","","","","{""Q0"":""course""}","","","","","","","","","","","","","","","","","","","","","","",""
"17877","","survey-text","153","1642993","0.0-152.0-0.0","A35UAZ5IKU14XW","","","","{""Q0"":""Tilting at windmills, Don Quixote.""}","","","","","","","","","","","","","","","","","","","","","","",""
"6214.699999988079","","image-slider-response","154","1649209","0.0-153.0","A35UAZ5IKU14XW","","","","","-1","","","","","","","","","","","","","","","","","","","","","",""
"null","","image-button-response","155","1654212","0.0-154.0","A35UAZ5IKU14XW","img_art/18.jpg","null","","","","","","","","","","","","","","","","","","","","","","","","",""
"23128","","image-button-response","156","1677342","0.0-155.0","A35UAZ5IKU14XW","img_art/18.jpg","1","","","","","","","","","","","","","","","","","","","","","","","","",""
"20008","","image-button-response","157","1697352","0.0-156.0-0.0","A35UAZ5IKU14XW","img_art/18.jpg","4","","","","","","","","","","","","","","","","","","","","","","","","",""
"7566","","image-button-response","158","1704920","0.0-157.0-0.0","A35UAZ5IKU14XW","img_art/18.jpg","3","","","","","","","","","","","","","","","","","","","","","","","","",""
"null","","html-keyboard-response","159","1705922","0.0-158.0","A35UAZ5IKU14XW","<p style=""font-size: 48px;"">+</p>","","","","","null","allTrialResponses","1000","1","16","img_art/18.jpg","-1","Tilting at windmills, Don Quixote.","Madeline,Jordan,Mary,Chloe,Kaitlyn,Bailey","Good concept but then scribbled on a bit?,15,40,20","Oh heck yes! I see two warriors riding down from valhalla, awesome painting,50,20,20","I like the expression of this piece. The colors are very outdated though.,-5,180,20","Evocative but cheesy.,-20,220,20","Umclear what is present in the picture,0,80,20","Looks like a jumbled mess. I prefer a clearer picture,-18,360,20","Jordan","Oh heck yes! I see two warriors riding down from valhalla, awesome painting,50,20,20","Kaitlyn","Umclear what is present in the picture,0,80,20","Chloe","Evocative but cheesy.,-20,220,20","2"
"20555","","survey-text","160","1726485","0.0-159.0-0.0","A35UAZ5IKU14XW","","","","{""Q0"":""I see music, colors are muted.""}","","","","","","","","","","","","","","","","","","","","","","",""
"23461.79999998212","","image-slider-response","161","1749949","0.0-160.0","A35UAZ5IKU14XW","","","","","-3","","","","","","","","","","","","","","","","","","","","","",""
"3068","","image-button-response","162","1754952","0.0-161.0","A35UAZ5IKU14XW","img_art/10.jpg","0","","","","","","","","","","","","","","","","","","","","","","","","",""
"10628","","image-button-response","163","1765582","0.0-162.0","A35UAZ5IKU14XW","img_art/10.jpg","3","","","","","","","","","","","","","","","","","","","","","","","","",""
"6906","","image-button-response","164","1772489","0.0-163.0-0.0","A35UAZ5IKU14XW","img_art/10.jpg","0","","","","","","","","","","","","","","","","","","","","","","","","",""
"5006","","image-button-response","165","1777497","0.0-164.0-0.0","A35UAZ5IKU14XW","img_art/10.jpg","2","","","","","","","","","","","","","","","","","","","","","","","","",""
"null","","html-keyboard-response","166","1778499","0.0-165.0","A35UAZ5IKU14XW","<p style=""font-size: 48px;"">+</p>","","","","","null","allTrialResponses","1000","1","17","img_art/10.jpg","-3","I see music, colors are muted.","Claire,Jordan,Angela,Chloe,Kaitlyn,Tiffany","it looks very musical,24,260,20","I dont like it, there is too much going on,-19,20,20","This makes me think of a city, specifically London.,20,260,20","Don't like the colorblock but the lines are nice,-20,220,20","Picture looks smudged,-7,80,20","I feel little to no emotion looking at this painting.,0,360,20","Chloe","Don't like the colorblock but the lines are nice,-20,220,20","Claire","it looks very musical,24,260,20","Angela","This makes me think of a city, specifically London.,20,260,20","2"
"22368","","survey-text","167","1800875","0.0-166.0-0.0","A35UAZ5IKU14XW","","","","{""Q0"":""I'm thinking archeology and things to be discovered.""}","","","","","","","","","","","","","","","","","","","","","","",""
"6278.200000017881","","image-slider-response","168","1807155","0.0-167.0","A35UAZ5IKU14XW","","","","","-5","","","","","","","","","","","","","","","","","","","","","",""
"null","","image-button-response","169","1812158","0.0-168.0","A35UAZ5IKU14XW","img_art/7.jpg","null","","","","","","","","","","","","","","","","","","","","","","","","",""
"5081","","image-button-response","170","1817241","0.0-169.0","A35UAZ5IKU14XW","img_art/7.jpg","3","","","","","","","","","","","","","","","","","","","","","","","","",""
"7284","","image-button-response","171","1824527","0.0-170.0-0.0","A35UAZ5IKU14XW","img_art/7.jpg","5","","","","","","","","","","","","","","","","","","","","","","","","",""
"2478","","image-button-response","172","1827007","0.0-171.0-0.0","A35UAZ5IKU14XW","img_art/7.jpg","0","","","","","","","","","","","","","","","","","","","","","","","","",""
"null","","html-keyboard-response","173","1827509","0.0-172.0","A35UAZ5IKU14XW","<p style=""font-size: 48px;"">+</p>","","","","","null","allTrialResponses","500","1","18","img_art/7.jpg","-5","I'm thinking archeology and things to be discovered.","Claire,Kaylee,Angela,Chloe,Michaela,Samantha","reminds me of a cave wall,-21,260,20","some rocks on a mars?,7,200,20","Looks like vomit, or chunky feces,-42,260,20","Like the tactile quality,30,220,20","It looks like maybe some seeds?,14,260,20","Makes me want to feel it,19,140,20","Chloe","Like the tactile quality,30,220,20","Samantha","Makes me want to feel it,19,140,20","Claire","reminds me of a cave wall,-21,260,20","2"
"21036","","survey-text","174","1848553","0.0-173.0-0.0","A35UAZ5IKU14XW","","","","{""Q0"":""Music comes to mind but haphazard.""}","","","","","","","","","","","","","","","","","","","","","","",""
"7282.4000000059605","","image-slider-response","175","1855837","0.0-174.0","A35UAZ5IKU14XW","","","","","-38","","","","","","","","","","","","","","","","","","","","","",""
"null","","image-button-response","176","1860840","0.0-175.0","A35UAZ5IKU14XW","img_art/29.jpg","null","","","","","","","","","","","","","","","","","","","","","","","","",""
"5216","","image-button-response","177","1866058","0.0-176.0","A35UAZ5IKU14XW","img_art/29.jpg","3","","","","","","","","","","","","","","","","","","","","","","","","",""
"7268","","image-button-response","178","1873328","0.0-177.0-0.0","A35UAZ5IKU14XW","img_art/29.jpg","4","","","","","","","","","","","","","","","","","","","","","","","","",""
"15394","","image-button-response","179","1888724","0.0-178.0-0.0","A35UAZ5IKU14XW","img_art/29.jpg","0","","","","","","","","","","","","","","","","","","","","","","","","",""
"null","","html-keyboard-response","180","1889726","0.0-179.0","A35UAZ5IKU14XW","<p style=""font-size: 48px;"">+</p>","","","","","null","allTrialResponses","1000","1","19","img_art/29.jpg","-38","Music comes to mind but haphazard.","Claire,Victoria,Jennifer,Chloe,Madison,Samantha","interesting, but I wouldn't put it on my wall,8,260,20","makes me think of destruction,-20,400,20","Very interesting composition,41,380,20","Looks muddy and sticky,-31,220,20","Well if the artist themself is crossing it out, why should I pay any mind?,-30,60,20","I love this things almost hidden in it like paint brush and other details,50,140,20","Chloe","Looks muddy and sticky,-31,220,20","Madison","Well if the artist themself is crossing it out, why should I pay any mind?,-30,60,20","Claire","interesting, but I wouldn't put it on my wall,8,260,20","2"
"26894","","survey-text","181","1916630","0.0-180.0-0.0","A35UAZ5IKU14XW","","","","{""Q0"":""A raven sitting on a wall, stark, gloomy.""}","","","","","","","","","","","","","","","","","","","","","","",""
"9590","","image-slider-response","182","1926221","0.0-181.0","A35UAZ5IKU14XW","","","","","-21","","","","","","","","","","","","","","","","","","","","","",""
"null","","image-button-response","183","1931225","0.0-182.0","A35UAZ5IKU14XW","img_art/6.jpg","null","","","","","","","","","","","","","","","","","","","","","","","","",""
"12695","","image-button-response","184","1943922","0.0-183.0","A35UAZ5IKU14XW","img_art/6.jpg","4","","","","","","","","","","","","","","","","","","","","","","","","",""
"7919","","image-button-response","185","1951842","0.0-184.0-0.0","A35UAZ5IKU14XW","img_art/6.jpg","1","","","","","","","","","","","","","","","","","","","","","","","","",""
"11967","","image-button-response","186","1963812","0.0-185.0-0.0","A35UAZ5IKU14XW","img_art/6.jpg","0","","","","","","","","","","","","","","","","","","","","","","","","",""
"null","","html-keyboard-response","187","1965314","0.0-186.0","A35UAZ5IKU14XW","<p style=""font-size: 48px;"">+</p>","","","","","null","allTrialResponses","1500","1","20","img_art/6.jpg","-21","A raven sitting on a wall, stark, gloomy.","Claire,Marissa,Destiny,Chloe,Madison,Grace","very minimalistic,22,260,20","I am intrigued but unsure whether I enjoy this or not,6,160,20","boring. don't really like birds,1,360,20","Cute and evocative,11,220,20","Is this the villain from Despicable Me?,29,60,20","Growth in the desert?  Don't care for it very much.,-26,180,20","Madison","Is this the villain from Despicable Me?,29,60,20","Marissa","I am intrigued but unsure whether I enjoy this or not,6,160,20","Claire","very minimalistic,22,260,20","2"
"4955","","survey-text","188","1970288","0.0-187.0-0.0","A35UAZ5IKU14XW","","","","{""Q0"":""we""}","","","","","","","","","","","","","","","","","","","","","","",""
"37586","","survey-text","189","2007876","0.0-188.0-0.0","A35UAZ5IKU14XW","","","","{""Q0"":""I like the composition, a little more color needed.""}","","","","","","","","","","","","","","","","","","","","","","",""
"4477.9000000059605","","image-slider-response","190","2012356","0.0-189.0","A35UAZ5IKU14XW","","","","","10","","","","","","","","","","","","","","","","","","","","","",""
"null","","image-button-response","191","2017358","0.0-190.0","A35UAZ5IKU14XW","img_art/15.jpg","null","","","","","","","","","","","","","","","","","","","","","","","","",""
"10551","","image-button-response","192","2027911","0.0-191.0","A35UAZ5IKU14XW","img_art/15.jpg","1","","","","","","","","","","","","","","","","","","","","","","","","",""
"9410","","image-button-response","193","2037323","0.0-192.0-0.0","A35UAZ5IKU14XW","img_art/15.jpg","5","","","","","","","","","","","","","","","","","","","","","","","","",""
"2039","","image-button-response","194","2039365","0.0-193.0-0.0","A35UAZ5IKU14XW","img_art/15.jpg","3","","","","","","","","","","","","","","","","","","","","","","","","",""
"null","","html-keyboard-response","195","2039866","0.0-194.0","A35UAZ5IKU14XW","<p style=""font-size: 48px;"">+</p>","","","","","null","allTrialResponses","500","1","21","img_art/15.jpg","10","I like the composition, a little more color needed.","Claire,Marissa,Caroline,Amy,Madison,Nicole","it's alright but a little cluttered,14,260,20","I am reminded of spring flowers swaying in the dark night's breeze,9,160,20","Makes me think of a bush and flowers and spring and happy warm times,25,100,20","basic colors and pleasing shapes providing a calming effect,15,220,20","I am starting to feel description fatigue. This would be pleasant enough in a doctor's office waiting room.,15,60,20","Very cool, i want it in my living room,50,20,20","Marissa","I am reminded of spring flowers swaying in the dark night's breeze,9,160,20","Nicole","Very cool, i want it in my living room,50,20,20","Amy","basic colors and pleasing shapes providing a calming effect,15,220,20","2"
"20535","","survey-text","196","2060411","0.0-195.0-0.0","A35UAZ5IKU14XW","","","","{""Q0"":""muddy, blurred, too red""}","","","","","","","","","","","","","","","","","","","","","","",""
"5562.0999999940395","","image-slider-response","197","2065975","0.0-196.0","A35UAZ5IKU14XW","","","","","-14","","","","","","","","","","","","","","","","","","","","","",""
"null","","image-button-response","198","2070978","0.0-197.0","A35UAZ5IKU14XW","img_art/1.jpg","null","","","","","","","","","","","","","","","","","","","","","","","","",""
"11600","","image-button-response","199","2082579","0.0-198.0","A35UAZ5IKU14XW","img_art/1.jpg","3","","","","","","","","","","","","","","","","","","","","","","","","",""
"3906","","image-button-response","200","2086487","0.0-199.0-0.0","A35UAZ5IKU14XW","img_art/1.jpg","4","","","","","","","","","","","","","","","","","","","","","","","","",""
"5087","","image-button-response","201","2091576","0.0-200.0-0.0","A35UAZ5IKU14XW","img_art/1.jpg","0","","","","","","","","","","","","","","","","","","","","","","","","",""
"null","","html-keyboard-response","202","2093078","0.0-201.0","A35UAZ5IKU14XW","<p style=""font-size: 48px;"">+</p>","","","","","null","allTrialResponses","1500","1","22","img_art/1.jpg","-14","muddy, blurred, too red","Rachel,Marissa,Shannon,Amy,Sarah,Nicole","While I like the colors, I find nothing interesting or thought provoking about it.,10,80,20","It is beautiful, I really enjoy the colors,32,160,20","I think that this picture has nice colors and its pleasing to the eyes.,20,220,20","Unpleasing palette. I see a figure but it seems incongrous to the highly abstract background.,-20,220,20","it's boring despite all the colors,-2,180,20","I love the colors but it's too intense sometimes,22,20,20","Amy","Unpleasing palette. I see a figure but it seems incongrous to the highly abstract background.,-20,220,20","Sarah","it's boring despite all the colors,-2,180,20","Rachel","While I like the colors, I find nothing interesting or thought provoking about it.,10,80,20","2"
"31505","","survey-text","203","2124592","0.0-202.0-0.0","A35UAZ5IKU14XW","","","","{""Q0"":""Sort of interesting (but not much) jumble.""}","","","","","","","","","","","","","","","","","","","","","","",""
"6659.5","","image-slider-response","204","2131253","0.0-203.0","A35UAZ5IKU14XW","","","","","-15","","","","","","","","","","","","","","","","","","","","","",""
"null","","image-button-response","205","2136257","0.0-204.0","A35UAZ5IKU14XW","img_art/28.jpg","null","","","","","","","","","","","","","","","","","","","","","","","","",""
"19253","","image-button-response","206","2155512","0.0-205.0","A35UAZ5IKU14XW","img_art/28.jpg","5","","","","","","","","","","","","","","","","","","","","","","","","",""
"29772","","image-button-response","207","2185286","0.0-206.0-0.0","A35UAZ5IKU14XW","img_art/28.jpg","3","","","","","","","","","","","","","","","","","","","","","","","","",""
"3089","","image-button-response","208","2188378","0.0-207.0-0.0","A35UAZ5IKU14XW","img_art/28.jpg","0","","","","","","","","","","","","","","","","","","","","","","","","",""
"null","","html-keyboard-response","209","2188879","0.0-208.0","A35UAZ5IKU14XW","<p style=""font-size: 48px;"">+</p>","","","","","null","allTrialResponses","500","1","23","img_art/28.jpg","-15","Sort of interesting (but not much) jumble.","Rachel,Danielle,Isabella,Amy,Sarah,Chelsea","Too muted and bland. I like my art to be vivid.,-11,80,20","I enjoy the color themes, they seem gloomy and mysterious, and content in their own way, which I love.,20,340,20","This is also something I would see in a serious but safe environment,14,280,20","Contemplative and a little dark. The muted colors and subject create a sense of mystery.,15,220,20","something about all the off-greys is pretty interesting,5,180,20","It is too messy.,-38,180,20","Chelsea","It is too messy.,-38,180,20","Amy","Contemplative and a little dark. The muted colors and subject create a sense of mystery.,15,220,20","Rachel","Too muted and bland. I like my art to be vivid.,-11,80,20","2"
"25826","","survey-text","210","2214716","0.0-209.0-0.0","A35UAZ5IKU14XW","","","","{""Q0"":""Stark, vivid, seems like death walking.""}","","","","","","","","","","","","","","","","","","","","","","",""
"6033.9000000059605","","image-slider-response","211","2220751","0.0-210.0","A35UAZ5IKU14XW","","","","","14","","","","","","","","","","","","","","","","","","","","","",""
"null","","image-button-response","212","2225754","0.0-211.0","A35UAZ5IKU14XW","img_art/25.jpg","null","","","","","","","","","","","","","","","","","","","","","","","","",""
"9266","","image-button-response","213","2235022","0.0-212.0","A35UAZ5IKU14XW","img_art/25.jpg","2","","","","","","","","","","","","","","","","","","","","","","","","",""
"11230","","image-button-response","214","2246254","0.0-213.0-0.0","A35UAZ5IKU14XW","img_art/25.jpg","4","","","","","","","","","","","","","","","","","","","","","","","","",""
"9526","","image-button-response","215","2255781","0.0-214.0-0.0","A35UAZ5IKU14XW","img_art/25.jpg","5","","","","","","","","","","","","","","","","","","","","","","","","",""
"null","","html-keyboard-response","216","2256283","0.0-215.0","A35UAZ5IKU14XW","<p style=""font-size: 48px;"">+</p>","","","","","null","allTrialResponses","500","1","24","img_art/25.jpg","14","Stark, vivid, seems like death walking.","Rachel,Melissa,Lindsey,Amy,Gabrielle,Chelsea","I like the green color, but the combination of green and a person with a long neck reminds me of aliens,-27,80,20","do not like that color of green,-11,240,20","This piece makes me think of oppression and fighting it. Makes me feel calm, sad and strong.,11,400,20","The limited palette make this figure mysterious and interpret-able.,20,220,20","interesting pattern and color choice, kind of unusual,2,160,20","The color and image are unsettling.,-29,180,20","Lindsey","This piece makes me think of oppression and fighting it. Makes me feel calm, sad and strong.,11,400,20","Gabrielle","interesting pattern and color choice, kind of unusual,2,160,20","Chelsea","The color and image are unsettling.,-29,180,20","2"
"19111","","survey-text","217","2275404","0.0-216.0-0.0","A35UAZ5IKU14XW","","","","{""Q0"":""Water flowing.  I like the colors.""}","","","","","","","","","","","","","","","","","","","","","","",""
"4188.0999999940395","","image-slider-response","218","2279594","0.0-217.0","A35UAZ5IKU14XW","","","","","9","","","","","","","","","","","","","","","","","","","","","",""
"null","","image-button-response","219","2284597","0.0-218.0","A35UAZ5IKU14XW","img_art/13.jpg","null","","","","","","","","","","","","","","","","","","","","","","","","",""
"3589","","image-button-response","220","2288188","0.0-219.0","A35UAZ5IKU14XW","img_art/13.jpg","1","","","","","","","","","","","","","","","","","","","","","","","","",""
"9958","","image-button-response","221","2298148","0.0-220.0-0.0","A35UAZ5IKU14XW","img_art/13.jpg","3","","","","","","","","","","","","","","","","","","","","","","","","",""
"5744","","image-button-response","222","2303894","0.0-221.0-0.0","A35UAZ5IKU14XW","img_art/13.jpg","4","","","","","","","","","","","","","","","","","","","","","","","","",""
"null","","html-keyboard-response","223","2305396","0.0-222.0","A35UAZ5IKU14XW","<p style=""font-size: 48px;"">+</p>","","","","","null","allTrialResponses","1500","1","25","img_art/13.jpg","9","Water flowing.  I like the colors.","Kristen,Mariah,Lindsey,Elizabeth,Gabrielle,Chelsea","happy, serenity,30,280,20","Rain on a cold window.,22,140,20","I find this oddly pleasant, but I object to this style. It's just a background with splatters. How is that art?,-5,400,20","Love the splash of colors,50,20,20","kind of like the pattern and colors but don't love it,13,160,20","The colors are okay but I don't like the shapes here.,-18,180,20","Mariah","Rain on a cold window.,22,140,20","Elizabeth","Love the splash of colors,50,20,20","Gabrielle","kind of like the pattern and colors but don't love it,13,160,20","2"
"5261","","survey-text","224","2310676","0.0-223.0-0.0","A35UAZ5IKU14XW","","","","{""Q0"":""table""}","","","","","","","","","","","","","","","","","","","","","","",""
"28564","","survey-text","225","2339242","0.0-224.0-0.0","A35UAZ5IKU14XW","","","","{""Q0"":""City square sort of.  I like it.""}","","","","","","","","","","","","","","","","","","","","","","",""
"4544.5999999940395","","image-slider-response","226","2343788","0.0-225.0","A35UAZ5IKU14XW","","","","","6","","","","","","","","","","","","","","","","","","","","","",""
"null","","image-button-response","227","2348791","0.0-226.0","A35UAZ5IKU14XW","img_art/26.jpg","null","","","","","","","","","","","","","","","","","","","","","","","","",""
"11023","","image-button-response","228","2359816","0.0-227.0","A35UAZ5IKU14XW","img_art/26.jpg","3","","","","","","","","","","","","","","","","","","","","","","","","",""
"3772","","image-button-response","229","2363590","0.0-228.0-0.0","A35UAZ5IKU14XW","img_art/26.jpg","4","","","","","","","","","","","","","","","","","","","","","","","","",""
"6050","","image-button-response","230","2369642","0.0-229.0-0.0","A35UAZ5IKU14XW","img_art/26.jpg","2","","","","","","","","","","","","","","","","","","","","","","","","",""
"null","","html-keyboard-response","231","2370144","0.0-230.0","A35UAZ5IKU14XW","<p style=""font-size: 48px;"">+</p>","","","","","null","allTrialResponses","500","1","26","img_art/26.jpg","6","City square sort of.  I like it.","Vanessa,Mariah,Amanda,Elizabeth,Gabrielle,Andrea","Something I'd see in a thrift store. It looks like not much effort was used to paint this.,9,380,20","Pleasant but bland.,10,140,20","Pleasant to look at,28,180,20","Like the soft blend of colors,26,20,20","subtle use of colors, city street view?,8,160,20","I get the feeling of a small old world street.,24,240,20","Elizabeth","Like the soft blend of colors,26,20,20","Gabrielle","subtle use of colors, city street view?,8,160,20","Amanda","Pleasant to look at,28,180,20","2"
"16015","","survey-text","232","2386170","0.0-231.0-0.0","A35UAZ5IKU14XW","","","","{""Q0"":""Dark, foreboding, interesting.""}","","","","","","","","","","","","","","","","","","","","","","",""
"4706.200000017881","","image-slider-response","233","2390878","0.0-232.0","A35UAZ5IKU14XW","","","","","4","","","","","","","","","","","","","","","","","","","","","",""
"null","","image-button-response","234","2395889","0.0-233.0","A35UAZ5IKU14XW","img_art/20.jpg","null","","","","","","","","","","","","","","","","","","","","","","","","",""
"11324","","image-button-response","235","2407215","0.0-234.0","A35UAZ5IKU14XW","img_art/20.jpg","3","","","","","","","","","","","","","","","","","","","","","","","","",""
"3020","","image-button-response","236","2410236","0.0-235.0-0.0","A35UAZ5IKU14XW","img_art/20.jpg","5","","","","","","","","","","","","","","","","","","","","","","","","",""
"21232","","image-button-response","237","2431470","0.0-236.0-0.0","A35UAZ5IKU14XW","img_art/20.jpg","1","","","","","","","","","","","","","","","","","","","","","","","","",""
"null","","html-keyboard-response","238","2431972","0.0-237.0","A35UAZ5IKU14XW","<p style=""font-size: 48px;"">+</p>","","","","","null","allTrialResponses","500","1","27","img_art/20.jpg","4","Dark, foreboding, interesting.","Leah,Diana,Amanda,Elizabeth,Gabrielle,Sierra","A sad past town, pollution, guess I like happier scenes,-30,360,20","I'm not sure why this reminds me of surrealism. It might be the colors used.,16,380,20","Too negative looks like a car and plane crash,-50,180,20","This painting would make a great display art,50,20,20","The white blob on the left seems out of place,-34,160,20","i like the rounded edges,18,260,20","Elizabeth","This painting would make a great display art,50,20,20","Sierra","i like the rounded edges,18,260,20","Diana","I'm not sure why this reminds me of surrealism. It might be the colors used.,16,380,20","2"
"27906","","survey-text","239","2459890","0.0-238.0-0.0","A35UAZ5IKU14XW","","","","{""Q0"":""Red scribbles, sense of confusion.""}","","","","","","","","","","","","","","","","","","","","","","",""
"7032.200000017881","","image-slider-response","240","2466924","0.0-239.0","A35UAZ5IKU14XW","","","","","-10","","","","","","","","","","","","","","","","","","","","","",""
"null","","image-button-response","241","2471927","0.0-240.0","A35UAZ5IKU14XW","img_art/3.jpg","null","","","","","","","","","","","","","","","","","","","","","","","","",""
"11289","","image-button-response","242","2483218","0.0-241.0","A35UAZ5IKU14XW","img_art/3.jpg","3","","","","","","","","","","","","","","","","","","","","","","","","",""
"5516","","image-button-response","243","2488736","0.0-242.0-0.0","A35UAZ5IKU14XW","img_art/3.jpg","5","","","","","","","","","","","","","","","","","","","","","","","","",""
"2557","","image-button-response","244","2491294","0.0-243.0-0.0","A35UAZ5IKU14XW","img_art/3.jpg","2","","","","","","","","","","","","","","","","","","","","","","","","",""
"null","","html-keyboard-response","245","2492796","0.0-244.0","A35UAZ5IKU14XW","<p style=""font-size: 48px;"">+</p>","","","","","null","allTrialResponses","1500","1","28","img_art/3.jpg","-10","Red scribbles, sense of confusion.","Rebecca,Diana,Jessica,Elizabeth,Gabriela,Sierra","sorry do not understand,-26,100,20","I didn't feel the color choice when I first looked. I did however like the placement of the gray.,-28,380,20","Don't get the scribbles.,-13,400,20","It doesn't invoke any excitement,-21,20,20","It looks like a child drawing,-29,140,20","scattered and angry,-26,260,20","Elizabeth","It doesn't invoke any excitement,-21,20,20","Sierra","scattered and angry,-26,260,20","Jessica","Don't get the scribbles.,-13,400,20","2"
"19186","","survey-text","246","2511996","0.0-245.0-0.0","A35UAZ5IKU14XW","","","","{""Q0"":""Kind of exciting but weird.""}","","","","","","","","","","","","","","","","","","","","","","",""
"7972.0999999940395","","image-slider-response","247","2519970","0.0-246.0","A35UAZ5IKU14XW","","","","","-15","","","","","","","","","","","","","","","","","","","","","",""
"null","","image-button-response","248","2524973","0.0-247.0","A35UAZ5IKU14XW","img_art/23.jpg","null","","","","","","","","","","","","","","","","","","","","","","","","",""
"10975","","image-button-response","249","2535950","0.0-248.0","A35UAZ5IKU14XW","img_art/23.jpg","5","","","","","","","","","","","","","","","","","","","","","","","","",""
"4721","","image-button-response","250","2540674","0.0-249.0-0.0","A35UAZ5IKU14XW","img_art/23.jpg","0","","","","","","","","","","","","","","","","","","","","","","","","",""
"7006","","image-button-response","251","2547682","0.0-250.0-0.0","A35UAZ5IKU14XW","img_art/23.jpg","1","","","","","","","","","","","","","","","","","","","","","","","","",""
"null","","html-keyboard-response","252","2549184","0.0-251.0","A35UAZ5IKU14XW","<p style=""font-size: 48px;"">+</p>","","","","","null","allTrialResponses","1500","1","29","img_art/23.jpg","-15","Kind of exciting but weird.","Brooke,Jacqueline,Jessica,Elizabeth,Mikayla,Sierra","looks like those paper chain things.,0,60,20","It's kind of neat with the white slash marks.,13,300,20","This is very cool!,24,400,20","Fantastic blend of color and forms,43,20,20","So beautiful with the white accents.,50,300,20","it makes me aggitated,-21,260,20","Sierra","it makes me aggitated,-21,260,20","Brooke","looks like those paper chain things.,0,60,20","Jacqueline","It's kind of neat with the white slash marks.,13,300,20","2"
"27410","","survey-text","253","2576606","0.0-252.0-0.0","A35UAZ5IKU14XW","","","","{""Q0"":""Interesting, but I don't really get it.""}","","","","","","","","","","","","","","","","","","","","","","",""
"7516.4000000059605","","image-slider-response","254","2584124","0.0-253.0","A35UAZ5IKU14XW","","","","","-14","","","","","","","","","","","","","","","","","","","","","",""
"null","","image-button-response","255","2589127","0.0-254.0","A35UAZ5IKU14XW","img_art/16.jpg","null","","","","","","","","","","","","","","","","","","","","","","","","",""
"5051","","image-button-response","256","2594180","0.0-255.0","A35UAZ5IKU14XW","img_art/16.jpg","1","","","","","","","","","","","","","","","","","","","","","","","","",""
"8504","","image-button-response","257","2602686","0.0-256.0-0.0","A35UAZ5IKU14XW","img_art/16.jpg","3","","","","","","","","","","","","","","","","","","","","","","","","",""
"2651","","image-button-response","258","2605340","0.0-257.0-0.0","A35UAZ5IKU14XW","img_art/16.jpg","5","","","","","","","","","","","","","","","","","","","","","","","","",""
"null","","html-keyboard-response","259","2606343","0.0-258.0","A35UAZ5IKU14XW","<p style=""font-size: 48px;"">+</p>","","","","","null","allTrialResponses","1000","1","30","img_art/16.jpg","-14","Interesting, but I don't really get it.","Brooke,Jacqueline,Katelyn,Alexis,Kylie,Sierra","Don't like teddy bears in art. I could draw that house.,-20,60,20","Seems very twisted and dark.,-35,300,20","I dont feel any real response,5,100,20","Don't like this technique. Too serial killer.,-50,100,20","Mixed feelings. Warm and comfy yet somewhat violent. A stark contrast,0,300,20","it looks psychotic,-31,260,20","Jacqueline","Seems very twisted and dark.,-35,300,20","Alexis","Don't like this technique. Too serial killer.,-50,100,20","Sierra","it looks psychotic,-31,260,20","2"
"6071","","image-button-response_instructions","260","2612426","0.0-259.0","A35UAZ5IKU14XW","","0","instructions","","","","","","","","","","","","","","","","","","","","","","","",""
"1655","","image-button-response","261","2614092","0.0-260.0","A35UAZ5IKU14XW","","0","","","","","","","","","","","","","","","","","","","","","","","","",""
