"rt","url","trial_type","trial_index","time_elapsed","internal_node_id","participant_id","stimulus","button_pressed","Name","responses","response","key_press","variableName","fixationTime","condition","trial","photo","subjectRating","subjectResponse","agentsNames","agent_1_Response","agent_2_Response","agent_3_Response","agent_4_Response","agent_5_Response","agent_6_Response","kept_1_name","kept_1_response","kept_2_name","kept_2_response","kept_3_name","kept_3_response","errorCounter"
"8486","external_page_harvard.html","external-html","0","8648","0.0-0.0","A36A780ODXBDEH","","","","","","","","","","","","","","","","","","","","","","","","","","",""
"3557","","image-button-response","1","12208","0.0-1.0","A36A780ODXBDEH","","0","","","","","","","","","","","","","","","","","","","","","","","","",""
"1571","","image-button-response","2","13783","0.0-2.0-0.0","A36A780ODXBDEH","","1","phone","","","","","","","","","","","","","","","","","","","","","","","",""
"5022","","survey-text","3","18807","0.0-3.0-0.0","A36A780ODXBDEH","","","","{""Q0"":""A36A780ODXBDEH""}","","","","","","","","","","","","","","","","","","","","","","",""
"11847","","image-button-response_instructions","4","30655","0.0-4.0","A36A780ODXBDEH","","0","instructions","","","","","","","","","","","","","","","","","","","","","","","",""
"5032","","image-button-response_instructions","5","35687","0.0-5.0","A36A780ODXBDEH","img_art/ins/popularity/ins1.png","0","instructions","","","","","","","","","","","","","","","","","","","","","","","",""
"2519","","image-button-response_instructions","6","38207","0.0-6.0","A36A780ODXBDEH","img_art/ins/popularity/ins2.png","0","instructions","","","","","","","","","","","","","","","","","","","","","","","",""
"2840","","image-button-response_instructions","7","41047","0.0-7.0","A36A780ODXBDEH","img_art/ins/popularity/ins2Extreme.png","0","instructions","","","","","","","","","","","","","","","","","","","","","","","",""
"8903","","image-button-response_instructions","8","49951","0.0-8.0","A36A780ODXBDEH","img_art/ins/popularity/ins3KEEPpop.PNG","0","instructions","","","","","","","","","","","","","","","","","","","","","","","",""
"5359","","image-button-response_instructions","9","55311","0.0-9.0","A36A780ODXBDEH","img_art/ins/popularity/ins3ANamepop.PNG","0","instructions","","","","","","","","","","","","","","","","","","","","","","","",""
"8295","","image-button-response_instructions","10","63607","0.0-10.0","A36A780ODXBDEH","img_art/ins/popularity/ins3ARatingpop.png","0","instructions","","","","","","","","","","","","","","","","","","","","","","","",""
"4424","","image-button-response_instructions","11","68033","0.0-11.0","A36A780ODXBDEH","img_art/ins/popularity/ins3ATextpop.png","0","instructions","","","","","","","","","","","","","","","","","","","","","","","",""
"4782","","image-button-response_instructions","12","72816","0.0-12.0","A36A780ODXBDEH","img_art/ins/popularity/ins3ALikespop.png","0","instructions","","","","","","","","","","","","","","","","","","","","","","","",""
"6479","","image-button-response_instructions","13","79296","0.0-13.0","A36A780ODXBDEH","img_art/ins/popularity/ins3KEEPpop.PNG","0","instructions","","","","","","","","","","","","","","","","","","","","","","","",""
"13008","","image-button-response_instructions","14","92304","0.0-14.0","A36A780ODXBDEH","img_art/ins/popularity/ins3_5RED.png","0","instructions","","","","","","","","","","","","","","","","","","","","","","","",""
"5254","","image-button-response_instructions","15","97559","0.0-15.0","A36A780ODXBDEH","img_art/ins/popularity/ins3KEEPpop.PNG","0","instructions","","","","","","","","","","","","","","","","","","","","","","","",""
"8736","","image-button-response_instructions","16","106296","0.0-16.0","A36A780ODXBDEH","img_art/ins/popularity/ins4KEEPpop.PNG","0","instructions","","","","","","","","","","","","","","","","","","","","","","","",""
"5783","","image-button-response_instructions","17","112079","0.0-17.0","A36A780ODXBDEH","img_art/ins/popularity/ins5KEEPpop.PNG","0","instructions","","","","","","","","","","","","","","","","","","","","","","","",""
"1560","","image-button-response_instructions","18","113640","0.0-18.0","A36A780ODXBDEH","","0","instructions","","","","","","","","","","","","","","","","","","","","","","","",""
"3780","","survey-text","19","117440","0.0-19.0-0.0","A36A780ODXBDEH","","","","{""Q0"":""but""}","","","","","","","","","","","","","","","","","","","","","","",""
"27160","","survey-text","20","144600","0.0-20.0-0.0","A36A780ODXBDEH","","","","{""Q0"":""The blue swishes give an interesting sense of movement.""}","","","","","","","","","","","","","","","","","","","","","","",""
"11278","","image-slider-response","21","155880","0.0-21.0","A36A780ODXBDEH","","","","","16","","","","","","","","","","","","","","","","","","","","","",""
"null","","image-button-response","22","160884","0.0-22.0","A36A780ODXBDEH","img_art/ins/1.jpg","null","","","","","","","","","","","","","","","","","","","","","","","","",""
"13697","","image-button-response","23","174584","0.0-23.0","A36A780ODXBDEH","img_art/ins/1.jpg","5","","","","","","","","","","","","","","","","","","","","","","","","",""
"3853","","image-button-response","24","178440","0.0-24.0-0.0","A36A780ODXBDEH","img_art/ins/1.jpg","4","","","","","","","","","","","","","","","","","","","","","","","","",""
"6590","","image-button-response","25","185032","0.0-25.0-0.0","A36A780ODXBDEH","img_art/ins/1.jpg","3","","","","","","","","","","","","","","","","","","","","","","","","",""
"null","","html-keyboard-response","26","186034","0.0-26.0","A36A780ODXBDEH","<p style=""font-size: 48px;"">+</p>","","","","","null","allTrialResponses","1000","1","-2","img_art/ins/1.jpg","16","The blue swishes give an interesting sense of movement.","Adam,Alex,Ben,Carl,Daniel,Jack","Seems like doodles,-20,20,20","very creative work.,36,40,20","This color reminds me of poo,-46,60,20","very calming artwork,42,80,20","It looks like a murder scene.,-48,100,20","I like the sophisticated brushwork,40,120,20","Jack","I like the sophisticated brushwork,40,120,20","Daniel","It looks like a murder scene.,-48,100,20","Carl","very calming artwork,42,80,20","0"
"23751","","survey-text","27","209799","0.0-27.0-0.0","A36A780ODXBDEH","","","","{""Q0"":""I'm glad the image was able to capture the canvas texture, it adds a lot!""}","","","","","","","","","","","","","","","","","","","","","","",""
"3783","","image-slider-response","28","213584","0.0-28.0","A36A780ODXBDEH","","","","","32","","","","","","","","","","","","","","","","","","","","","",""
"null","","image-button-response","29","218587","0.0-29.0","A36A780ODXBDEH","img_art/ins/2.jpg","null","","","","","","","","","","","","","","","","","","","","","","","","",""
"7434","","image-button-response","30","226024","0.0-30.0","A36A780ODXBDEH","img_art/ins/2.jpg","1","","","","","","","","","","","","","","","","","","","","","","","","",""
"7661","","image-button-response","31","233687","0.0-31.0-0.0","A36A780ODXBDEH","img_art/ins/2.jpg","0","","","","","","","","","","","","","","","","","","","","","","","","",""
"3391","","image-button-response","32","237080","0.0-32.0-0.0","A36A780ODXBDEH","img_art/ins/2.jpg","0","","","","","","","","","","","","","","","","","","","","","","","","",""
"4583","","image-button-response","33","244808","0.0-32.1-0.1","A36A780ODXBDEH","img_art/ins/2.jpg","3","","","","","","","","","","","","","","","","","","","","","","","","",""
"null","","html-keyboard-response","34","245311","0.0-33.0","A36A780ODXBDEH","<p style=""font-size: 48px;"">+</p>","","","","","null","allTrialResponses","500","1","-1","img_art/ins/2.jpg","32","I'm glad the image was able to capture the canvas texture, it adds a lot!","James,John,Kyle,Carl,Daniel,Jack","looks too angry,-50,140,20","love the texture of paint,48,160,20","Idk, it is just annoying,-32,180,20","I can feel the artist's passion in it,45,80,20","One of my pet peevs,-48,100,20","I would never be able to compose a sophisticated pallete like this,48,120,20","John","love the texture of paint,48,160,20","James","looks too angry,-50,140,20","Carl","I can feel the artist's passion in it,45,80,20","2"
"13226","","survey-text","35","258551","0.0-34.0-0.0","A36A780ODXBDEH","","","","{""Q0"":""reminds me of that 80's design""}","","","","","","","","","","","","","","","","","","","","","","",""
"4527.600000008941","","image-slider-response","36","263080","0.0-35.0","A36A780ODXBDEH","","","","","42","","","","","","","","","","","","","","","","","","","","","",""
"null","","image-button-response","37","268083","0.0-36.0","A36A780ODXBDEH","img_art/ins/3.jpg","null","","","","","","","","","","","","","","","","","","","","","","","","",""
"1849","","image-button-response","38","269936","0.0-37.0","A36A780ODXBDEH","img_art/ins/3.jpg","1","","","","","","","","","","","","","","","","","","","","","","","","",""
"6182","","image-button-response","39","276120","0.0-38.0-0.0","A36A780ODXBDEH","img_art/ins/3.jpg","5","","","","","","","","","","","","","","","","","","","","","","","","",""
"1214","","image-button-response","40","277336","0.0-39.0-0.0","A36A780ODXBDEH","img_art/ins/3.jpg","2","","","","","","","","","","","","","","","","","","","","","","","","",""
"null","","html-keyboard-response","41","278337","0.0-40.0","A36A780ODXBDEH","<p style=""font-size: 48px;"">+</p>","","","","","null","allTrialResponses","1000","1","0","img_art/ins/3.jpg","42","reminds me of that 80's design","James,John,Mike,Carl,Ron,Sam","My worst nightmare,-42,140,20","I like the overlapping of brushes,41,160,20","enjoy the different shades of blue,22,200,20","It's an alright work,15,80,20","It looks depressing,-26,220,20","I can feel a rainy day from this painting,18,240,20","John","I like the overlapping of brushes,41,160,20","Sam","I can feel a rainy day from this painting,18,240,20","Mike","enjoy the different shades of blue,22,200,20","2"
"25193","","image-button-response_instructions","42","303544","0.0-41.0","A36A780ODXBDEH","","0","instructions","","","","","","","","","","","","","","","","","","","","","","","",""
"7694","","survey-likert","43","311240","0.0-42.0-0.0","A36A780ODXBDEH","","","","{""Q0"":"""",""Q1"":0,""Q2"":1}","","","","","","","","","","","","","","","","","","","","","","",""
"3423","","survey-text","44","314671","0.0-43.0-0.0","A36A780ODXBDEH","","","","{""Q0"":""rock""}","","","","","","","","","","","","","","","","","","","","","","",""
"48368","","survey-text","45","363040","0.0-44.0-0.0","A36A780ODXBDEH","","","","{""Q0"":""It's like someone blew up sheet music on the page!""}","","","","","","","","","","","","","","","","","","","","","","",""
"2310.2000000029802","","image-slider-response","46","365352","0.0-45.0","A36A780ODXBDEH","","","","","48","","","","","","","","","","","","","","","","","","","","","",""
"null","","image-button-response","47","370371","0.0-46.0","A36A780ODXBDEH","img_art/10.jpg","null","","","","","","","","","","","","","","","","","","","","","","","","",""
"5458","","image-button-response","48","375832","0.0-47.0","A36A780ODXBDEH","img_art/10.jpg","2","","","","","","","","","","","","","","","","","","","","","","","","",""
"1679","","image-button-response","49","377513","0.0-48.0-0.0","A36A780ODXBDEH","img_art/10.jpg","4","","","","","","","","","","","","","","","","","","","","","","","","",""
"1212","","image-button-response","50","378728","0.0-49.0-0.0","A36A780ODXBDEH","img_art/10.jpg","3","","","","","","","","","","","","","","","","","","","","","","","","",""
"null","","html-keyboard-response","51","379230","0.0-50.0","A36A780ODXBDEH","<p style=""font-size: 48px;"">+</p>","","","","","null","allTrialResponses","500","1","1","img_art/10.jpg","48","It's like someone blew up sheet music on the page!","Caleb,William,Justin,Cody,Devin,Paul","This is a scribble of a mad man. Appears low effort.,-33,40,20","absolutely beautiful piece of art,49,380,20","The design is dynamic and interesting.,14,280,20","Feels musical .....,40,180,20","Looks a bit as though someone ran over it?,-13,380,20","It doesn't look pleasing to the eye, it kind of looks like an animal but a dirty one,-38,300,20","Justin","The design is dynamic and interesting.,14,280,20","Devin","Looks a bit as though someone ran over it?,-13,380,20","Cody","Feels musical .....,40,180,20","2"
"21554","","survey-text","52","400791","0.0-51.0-0.0","A36A780ODXBDEH","","","","{""Q0"":""I can see the effort, just doesn't speak to me.""}","","","","","","","","","","","","","","","","","","","","","","",""
"3575.0999999940395","","image-slider-response","53","404368","0.0-52.0","A36A780ODXBDEH","","","","","5","","","","","","","","","","","","","","","","","","","","","",""
"null","","image-button-response","54","409370","0.0-53.0","A36A780ODXBDEH","img_art/22.jpg","null","","","","","","","","","","","","","","","","","","","","","","","","",""
"23044","","image-button-response","55","432416","0.0-54.0","A36A780ODXBDEH","img_art/22.jpg","2","","","","","","","","","","","","","","","","","","","","","","","","",""
"8102","","image-button-response","56","440520","0.0-55.0-0.0","A36A780ODXBDEH","img_art/22.jpg","5","","","","","","","","","","","","","","","","","","","","","","","","",""
"3230","","image-button-response","57","443753","0.0-56.0-0.0","A36A780ODXBDEH","img_art/22.jpg","4","","","","","","","","","","","","","","","","","","","","","","","","",""
"null","","html-keyboard-response","58","444756","0.0-57.0","A36A780ODXBDEH","<p style=""font-size: 48px;"">+</p>","","","","","null","allTrialResponses","1000","1","2","img_art/22.jpg","5","I can see the effort, just doesn't speak to me.","Tyler,Patrick,Justin,Cody,Devin,Kenneth","Like the colors, and the even blur. The more I look, the more a story forms. A very narrative image.,18,320,20","Looks like a warm sunset to me i like it,42,280,20","It reminds me of sunsets and dusks.,22,280,20","Love the use of color,50,180,20","I really like the colors here,3,380,20","I really enjoy the blended colors.,20,300,20","Justin","It reminds me of sunsets and dusks.,22,280,20","Kenneth","I really enjoy the blended colors.,20,300,20","Devin","I really like the colors here,3,380,20","2"
"35639","","survey-text","59","480400","0.0-58.0-0.0","A36A780ODXBDEH","","","","{""Q0"":""the splatters of pink/white in the corner are intriguing.""}","","","","","","","","","","","","","","","","","","","","","","",""
"3469.5","","image-slider-response","60","483871","0.0-59.0","A36A780ODXBDEH","","","","","15","","","","","","","","","","","","","","","","","","","","","",""
"null","","image-button-response","61","488876","0.0-60.0","A36A780ODXBDEH","img_art/21.jpg","null","","","","","","","","","","","","","","","","","","","","","","","","",""
"9795","","image-button-response","62","498672","0.0-61.0","A36A780ODXBDEH","img_art/21.jpg","0","","","","","","","","","","","","","","","","","","","","","","","","",""
"1926","","image-button-response","63","500600","0.0-62.0-0.0","A36A780ODXBDEH","img_art/21.jpg","3","","","","","","","","","","","","","","","","","","","","","","","","",""
"3325","","image-button-response","64","503928","0.0-63.0-0.0","A36A780ODXBDEH","img_art/21.jpg","5","","","","","","","","","","","","","","","","","","","","","","","","",""
"null","","html-keyboard-response","65","505430","0.0-64.0","A36A780ODXBDEH","<p style=""font-size: 48px;"">+</p>","","","","","null","allTrialResponses","1500","1","3","img_art/21.jpg","15","the splatters of pink/white in the corner are intriguing.","Grant,Ian,Justin,Travis,Devin,Kenneth","The colors make me think of a perilous scene at sea, and are pretty interesting.,15,200,20","This looks very interesting because something is happening but I can't tell what.,28,260,20","Alright. I like the colors.,5,280,20","I liked it...it looked like a storm raging.,12,260,20","Evokes a strong colorful sense,8,380,20","It actually reminded me of a place I've been to. So I had a positive reaction to it.,22,300,20","Grant","The colors make me think of a perilous scene at sea, and are pretty interesting.,15,200,20","Travis","I liked it...it looked like a storm raging.,12,260,20","Kenneth","It actually reminded me of a place I've been to. So I had a positive reaction to it.,22,300,20","2"
"41613","","survey-text","66","547057","0.0-65.0-0.0","A36A780ODXBDEH","","","","{""Q0"":""Oddly beautiful style. more complex than meets the eye.""}","","","","","","","","","","","","","","","","","","","","","","",""
"2934.5","","image-slider-response","67","549993","0.0-66.0","A36A780ODXBDEH","","","","","40","","","","","","","","","","","","","","","","","","","","","",""
"null","","image-button-response","68","555459","0.0-67.0","A36A780ODXBDEH","img_art/19.jpg","null","","","","","","","","","","","","","","","","","","","","","","","","",""
"18803","","image-button-response","69","574272","0.0-68.0","A36A780ODXBDEH","img_art/19.jpg","1","","","","","","","","","","","","","","","","","","","","","","","","",""
"615","","image-button-response","70","574889","0.0-69.0-0.0","A36A780ODXBDEH","img_art/19.jpg","0","","","","","","","","","","","","","","","","","","","","","","","","",""
"13246","","image-button-response","71","588136","0.0-70.0-0.0","A36A780ODXBDEH","img_art/19.jpg","2","","","","","","","","","","","","","","","","","","","","","","","","",""
"null","","html-keyboard-response","72","589639","0.0-71.0","A36A780ODXBDEH","<p style=""font-size: 48px;"">+</p>","","","","","null","allTrialResponses","1500","1","4","img_art/19.jpg","40","Oddly beautiful style. more complex than meets the eye.","Grant,Eric,Daniel,Travis,Alexis,Kenneth","It's a cute city scene, but nothing special.,10,200,20","I like the color and the mix of sketches along with paint.,30,100,20","Simple, scratchy lack of negative space.,-10,320,20","Nuetral...can't think of anything to say,4,260,20","it looks messy and non-unique.,-9,140,20","TOo much brown.,-24,300,20","Eric","I like the color and the mix of sketches along with paint.,30,100,20","Grant","It's a cute city scene, but nothing special.,10,200,20","Daniel","Simple, scratchy lack of negative space.,-10,320,20","2"
"34551","","survey-text","73","624210","0.0-72.0-0.0","A36A780ODXBDEH","","","","{""Q0"":""Bold, calming. Eerie. The foreground leaves a lot of room for thought.""}","","","","","","","","","","","","","","","","","","","","","","",""
"2676.7000000029802","","image-slider-response","74","626888","0.0-73.0","A36A780ODXBDEH","","","","","20","","","","","","","","","","","","","","","","","","","","","",""
"null","","image-button-response","75","631891","0.0-74.0","A36A780ODXBDEH","img_art/6.jpg","null","","","","","","","","","","","","","","","","","","","","","","","","",""
"1924","","image-button-response","76","633817","0.0-75.0","A36A780ODXBDEH","img_art/6.jpg","0","","","","","","","","","","","","","","","","","","","","","","","","",""
"2846","","image-button-response","77","636665","0.0-76.0-0.0","A36A780ODXBDEH","img_art/6.jpg","3","","","","","","","","","","","","","","","","","","","","","","","","",""
"1230","","image-button-response","78","637897","0.0-77.0-0.0","A36A780ODXBDEH","img_art/6.jpg","2","","","","","","","","","","","","","","","","","","","","","","","","",""
"null","","html-keyboard-response","79","639458","0.0-78.0","A36A780ODXBDEH","<p style=""font-size: 48px;"">+</p>","","","","","null","allTrialResponses","1500","1","5","img_art/6.jpg","20","Bold, calming. Eerie. The foreground leaves a lot of room for thought.","Grant,Eric,Daniel,Joshua,Devon,Luke","The limited colors make me feel lonely.,36,200,20","This piece reminds me of the lorax.,5,100,20","Odd desert, nice sand color with headless bird,11,320,20","Looks like a bird. It's fine.,7,240,20","This one also confuses me a bit.,-19,400,20","i like it but it is very neutral,9,20,20","Grant","The limited colors make me feel lonely.,36,200,20","Joshua","Looks like a bird. It's fine.,7,240,20","Daniel","Odd desert, nice sand color with headless bird,11,320,20","2"
"9219","","survey-text","80","648704","0.0-79.0-0.0","A36A780ODXBDEH","","","","{""Q0"":""sky""}","","","","","","","","","","","","","","","","","","","","","","",""
"17790","","survey-text","81","666495","0.0-80.0-0.0","A36A780ODXBDEH","","","","{""Q0"":""The use of lines is such a treat for the eyes!""}","","","","","","","","","","","","","","","","","","","","","","",""
"2895.1000000089407","","image-slider-response","82","669392","0.0-81.0","A36A780ODXBDEH","","","","","33","","","","","","","","","","","","","","","","","","","","","",""
"null","","image-button-response","83","674395","0.0-82.0","A36A780ODXBDEH","img_art/8.jpg","null","","","","","","","","","","","","","","","","","","","","","","","","",""
"3668","","image-button-response","84","678064","0.0-83.0","A36A780ODXBDEH","img_art/8.jpg","4","","","","","","","","","","","","","","","","","","","","","","","","",""
"398","","image-button-response","85","678464","0.0-84.0-0.0","A36A780ODXBDEH","img_art/8.jpg","5","","","","","","","","","","","","","","","","","","","","","","","","",""
"3246","","image-button-response","86","681711","0.0-85.0-0.0","A36A780ODXBDEH","img_art/8.jpg","0","","","","","","","","","","","","","","","","","","","","","","","","",""
"null","","html-keyboard-response","87","682214","0.0-86.0","A36A780ODXBDEH","<p style=""font-size: 48px;"">+</p>","","","","","null","allTrialResponses","500","1","6","img_art/8.jpg","33","The use of lines is such a treat for the eyes!","Grant,Adam,Daniel,Joshua,Christian,Thomas","The stylized faces remind me of German expressionism in a very good way.,40,200,20","Eclectic city with good mix of colors.,10,40,20","Cortez's influence with fair color choices,10,320,20","I don't understand it. Makes no sense to me.,5,240,20","gives off inception vibes <3,50,140,20","Gorgeous! I love the colors and the details.,50,220,20","Christian","gives off inception vibes <3,50,140,20","Thomas","Gorgeous! I love the colors and the details.,50,220,20","Grant","The stylized faces remind me of German expressionism in a very good way.,40,200,20","2"
"23187","","survey-text","88","705423","0.0-87.0-0.0","A36A780ODXBDEH","","","","{""Q0"":""Took me a second to see it. Kinda scary!""}","","","","","","","","","","","","","","","","","","","","","","",""
"4575.20000000298","","image-slider-response","89","710000","0.0-88.0","A36A780ODXBDEH","","","","","15","","","","","","","","","","","","","","","","","","","","","",""
"null","","image-button-response","90","715003","0.0-89.0","A36A780ODXBDEH","img_art/20.jpg","null","","","","","","","","","","","","","","","","","","","","","","","","",""
"2425","","image-button-response","91","717432","0.0-90.0","A36A780ODXBDEH","img_art/20.jpg","1","","","","","","","","","","","","","","","","","","","","","","","","",""
"4054","","image-button-response","92","721489","0.0-91.0-0.0","A36A780ODXBDEH","img_art/20.jpg","5","","","","","","","","","","","","","","","","","","","","","","","","",""
"1716","","image-button-response","93","723208","0.0-92.0-0.0","A36A780ODXBDEH","img_art/20.jpg","3","","","","","","","","","","","","","","","","","","","","","","","","",""
"null","","html-keyboard-response","94","724710","0.0-93.0","A36A780ODXBDEH","<p style=""font-size: 48px;"">+</p>","","","","","null","allTrialResponses","1500","1","7","img_art/20.jpg","15","Took me a second to see it. Kinda scary!","Grant,Mark,Noah,Evan,Christian,Thomas","This elicits no reaction in me.,0,200,20","Reminds me of persistance of time (a favorite of mine).,30,80,20","just feels generic,-18,260,20","I feel intrigued and impressed,34,140,20","reminds me of georgia o'keeffe's skull,22,140,20","I really enjoy the contrast of colors (blue/red/orange),30,220,20","Mark","Reminds me of persistance of time (a favorite of mine).,30,80,20","Thomas","I really enjoy the contrast of colors (blue/red/orange),30,220,20","Evan","I feel intrigued and impressed,34,140,20","2"
"23547","","survey-text","95","748280","0.0-94.0-0.0","A36A780ODXBDEH","","","","{""Q0"":""lacks depth, or perspective. Still colorful though.""}","","","","","","","","","","","","","","","","","","","","","","",""
"2582.5","","image-slider-response","96","750864","0.0-95.0","A36A780ODXBDEH","","","","","2","","","","","","","","","","","","","","","","","","","","","",""
"null","","image-button-response","97","755868","0.0-96.0","A36A780ODXBDEH","img_art/24.jpg","null","","","","","","","","","","","","","","","","","","","","","","","","",""
"64818","","image-button-response","98","820688","0.0-97.0","A36A780ODXBDEH","img_art/24.jpg","0","","","","","","","","","","","","","","","","","","","","","","","","",""
"3781","","image-button-response","99","824473","0.0-98.0-0.0","A36A780ODXBDEH","img_art/24.jpg","5","","","","","","","","","","","","","","","","","","","","","","","","",""
"4852","","image-button-response","100","829328","0.0-99.0-0.0","A36A780ODXBDEH","img_art/24.jpg","4","","","","","","","","","","","","","","","","","","","","","","","","",""
"null","","html-keyboard-response","101","830330","0.0-100.0","A36A780ODXBDEH","<p style=""font-size: 48px;"">+</p>","","","","","null","allTrialResponses","1000","1","8","img_art/24.jpg","2","lacks depth, or perspective. Still colorful though.","Tristan,Mark,Bryan,Evan,Marcus,Thomas","The contorted angles of the flowing water upset the harmony,-20,300,20","Waterfall, and I love the coloring.,48,80,20","Abstract falls & nature.,41,400,20","It feels very serene,19,140,20","Love the colors in this work, and the sense of motion in the water,36,60,20","Beautiful colors and texture,20,220,20","Tristan","The contorted angles of the flowing water upset the harmony,-20,300,20","Thomas","Beautiful colors and texture,20,220,20","Marcus","Love the colors in this work, and the sense of motion in the water,36,60,20","2"
"28094","","survey-text","102","858432","0.0-101.0-0.0","A36A780ODXBDEH","","","","{""Q0"":""claustrophobic, and the way the blue hides is gorgeous!""}","","","","","","","","","","","","","","","","","","","","","","",""
"2775.1000000089407","","image-slider-response","103","861209","0.0-102.0","A36A780ODXBDEH","","","","","39","","","","","","","","","","","","","","","","","","","","","",""
"null","","image-button-response","104","866213","0.0-103.0","A36A780ODXBDEH","img_art/15.jpg","null","","","","","","","","","","","","","","","","","","","","","","","","",""
"3330","","image-button-response","105","869545","0.0-104.0","A36A780ODXBDEH","img_art/15.jpg","5","","","","","","","","","","","","","","","","","","","","","","","","",""
"758","","image-button-response","106","870305","0.0-105.0-0.0","A36A780ODXBDEH","img_art/15.jpg","4","","","","","","","","","","","","","","","","","","","","","","","","",""
"3502","","image-button-response","107","873808","0.0-106.0-0.0","A36A780ODXBDEH","img_art/15.jpg","0","","","","","","","","","","","","","","","","","","","","","","","","",""
"null","","html-keyboard-response","108","874810","0.0-107.0","A36A780ODXBDEH","<p style=""font-size: 48px;"">+</p>","","","","","null","allTrialResponses","1000","1","9","img_art/15.jpg","39","claustrophobic, and the way the blue hides is gorgeous!","Tristan,Antonio,Ethan,Taylor,Marcus,Thomas","basic colors and pleasing shapes providing a calming effect,15,300,20","Makes me think of a bush and flowers and spring and happy warm times,25,220,20","This piece gave me no emotion. It's ugly to me.,-38,120,20","Getting better.,10,200,20","Interesting, but don't really like it. Gloomy.,-10,60,20","Interesting, and I don't dislike it.,9,220,20","Thomas","Interesting, and I don't dislike it.,9,220,20","Marcus","Interesting, but don't really like it. Gloomy.,-10,60,20","Tristan","basic colors and pleasing shapes providing a calming effect,15,300,20","2"
"28878","","survey-text","109","903696","0.0-108.0-0.0","A36A780ODXBDEH","","","","{""Q0"":""mixed media is a bold choice!""}","","","","","","","","","","","","","","","","","","","","","","",""
"4918.899999991059","","image-slider-response","110","908617","0.0-109.0","A36A780ODXBDEH","","","","","15","","","","","","","","","","","","","","","","","","","","","",""
"null","","image-button-response","111","913620","0.0-110.0","A36A780ODXBDEH","img_art/16.jpg","null","","","","","","","","","","","","","","","","","","","","","","","","",""
"3522","","image-button-response","112","917145","0.0-111.0","A36A780ODXBDEH","img_art/16.jpg","4","","","","","","","","","","","","","","","","","","","","","","","","",""
"3077","","image-button-response","113","920225","0.0-112.0-0.0","A36A780ODXBDEH","img_art/16.jpg","1","","","","","","","","","","","","","","","","","","","","","","","","",""
"2925","","image-button-response","114","923153","0.0-113.0-0.0","A36A780ODXBDEH","img_art/16.jpg","2","","","","","","","","","","","","","","","","","","","","","","","","",""
"null","","html-keyboard-response","115","924155","0.0-114.0","A36A780ODXBDEH","<p style=""font-size: 48px;"">+</p>","","","","","null","allTrialResponses","1000","1","10","img_art/16.jpg","15","mixed media is a bold choice!","Tristan,Nathan,Christopher,Colton,Marcus,Thomas","visceral and a little disturbing.,10,300,20","I enjoy how slightly strange this is, while seeming to still have some message,20,200,20","i don't like the collage aspect,-25,160,20","the materials used are interesting,30,220,20","Hate this, especially the jarring contrast of the super realistic teddybear face.,-50,60,20","Makes me want to know more,5,220,20","Marcus","Hate this, especially the jarring contrast of the super realistic teddybear face.,-50,60,20","Nathan","I enjoy how slightly strange this is, while seeming to still have some message,20,200,20","Christopher","i don't like the collage aspect,-25,160,20","2"
"3576","","survey-text","116","927769","0.0-115.0-0.0","A36A780ODXBDEH","","","","{""Q0"":""our""}","","","","","","","","","","","","","","","","","","","","","","",""
"24903","","survey-text","117","952672","0.0-116.0-0.0","A36A780ODXBDEH","","","","{""Q0"":""kind of all over the place. The chartreuse is the only redeeming quality.""}","","","","","","","","","","","","","","","","","","","","","","",""
"3055.0999999940395","","image-slider-response","118","955729","0.0-117.0","A36A780ODXBDEH","","","","","-15","","","","","","","","","","","","","","","","","","","","","",""
"null","","image-button-response","119","960732","0.0-118.0","A36A780ODXBDEH","img_art/2.jpg","null","","","","","","","","","","","","","","","","","","","","","","","","",""
"3684","","image-button-response","120","964417","0.0-119.0","A36A780ODXBDEH","img_art/2.jpg","4","","","","","","","","","","","","","","","","","","","","","","","","",""
"1486","","image-button-response","121","965905","0.0-120.0-0.0","A36A780ODXBDEH","img_art/2.jpg","0","","","","","","","","","","","","","","","","","","","","","","","","",""
"1318","","image-button-response","122","967224","0.0-121.0-0.0","A36A780ODXBDEH","img_art/2.jpg","2","","","","","","","","","","","","","","","","","","","","","","","","",""
"null","","html-keyboard-response","123","967727","0.0-122.0","A36A780ODXBDEH","<p style=""font-size: 48px;"">+</p>","","","","","null","allTrialResponses","500","1","11","img_art/2.jpg","-15","kind of all over the place. The chartreuse is the only redeeming quality.","Victor,Nathan,Christopher,Jonathan,Marcus,Shawn","It's interesting. The chunks of black here and there are nice,13,340,20","Not a fan of this style,-30,200,20","nope. just looks like a mess,-28,160,20","It's a cool piece but honestly these color choices are the worst thing in the world,-31,140,20","Only like the blues and teals in this. The rest is unappealing.,-15,60,20","The color choices and lines seem a bit sloppy?,-10,100,20","Marcus","Only like the blues and teals in this. The rest is unappealing.,-15,60,20","Victor","It's interesting. The chunks of black here and there are nice,13,340,20","Christopher","nope. just looks like a mess,-28,160,20","2"
"34327","","survey-text","124","1002072","0.0-123.0-0.0","A36A780ODXBDEH","","","","{""Q0"":""reminds me of the county fair paint-spinning booth's pieces.""}","","","","","","","","","","","","","","","","","","","","","","",""
"7102.899999991059","","image-slider-response","125","1009177","0.0-124.0","A36A780ODXBDEH","","","","","20","","","","","","","","","","","","","","","","","","","","","",""
"4406","","image-button-response","126","1014180","0.0-125.0","A36A780ODXBDEH","img_art/30.jpg","3","","","","","","","","","","","","","","","","","","","","","","","","",""
"2865","","image-button-response","127","1017049","0.0-126.0","A36A780ODXBDEH","img_art/30.jpg","3","","","","","","","","","","","","","","","","","","","","","","","","",""
"7262","","image-button-response","128","1024313","0.0-127.0-0.0","A36A780ODXBDEH","img_art/30.jpg","1","","","","","","","","","","","","","","","","","","","","","","","","",""
"2342","","image-button-response","129","1026656","0.0-128.0-0.0","A36A780ODXBDEH","img_art/30.jpg","0","","","","","","","","","","","","","","","","","","","","","","","","",""
"null","","html-keyboard-response","130","1027158","0.0-129.0","A36A780ODXBDEH","<p style=""font-size: 48px;"">+</p>","","","","","null","allTrialResponses","500","1","12","img_art/30.jpg","20","reminds me of the county fair paint-spinning booth's pieces.","Victor,Kevin,Christopher,Jose,Marcus,Malik","I just don't see the point of this piece,-11,340,20","Some people dancing.,-7,320,20","looks simple, I can't see a lot of care going into this,-33,160,20","For some reason I like the red in this one. Maybe it's the style of lines/blurs,46,200,20","Really don't like this piece. It feels very lazy to me.,-31,60,20","I can't parse any intention or emotion,-17,40,20","Jose","For some reason I like the red in this one. Maybe it's the style of lines/blurs,46,200,20","Kevin","Some people dancing.,-7,320,20","Victor","I just don't see the point of this piece,-11,340,20","2"
"15871","","survey-text","131","1043056","0.0-130.0-0.0","A36A780ODXBDEH","","","","{""Q0"":""the light leaking through the trees, but like, backwards! ingenous!""}","","","","","","","","","","","","","","","","","","","","","","",""
"3550.7000000029802","","image-slider-response","132","1046608","0.0-131.0","A36A780ODXBDEH","","","","","40","","","","","","","","","","","","","","","","","","","","","",""
"null","","image-button-response","133","1051611","0.0-132.0","A36A780ODXBDEH","img_art/17.jpg","null","","","","","","","","","","","","","","","","","","","","","","","","",""
"5746","","image-button-response","134","1057360","0.0-133.0","A36A780ODXBDEH","img_art/17.jpg","0","","","","","","","","","","","","","","","","","","","","","","","","",""
"1190","","image-button-response","135","1058552","0.0-134.0-0.0","A36A780ODXBDEH","img_art/17.jpg","5","","","","","","","","","","","","","","","","","","","","","","","","",""
"1199","","image-button-response","136","1059752","0.0-135.0-0.0","A36A780ODXBDEH","img_art/17.jpg","2","","","","","","","","","","","","","","","","","","","","","","","","",""
"null","","html-keyboard-response","137","1060254","0.0-136.0","A36A780ODXBDEH","<p style=""font-size: 48px;"">+</p>","","","","","null","allTrialResponses","500","1","13","img_art/17.jpg","40","the light leaking through the trees, but like, backwards! ingenous!","Victor,Kevin,Dakota,Jose,Joseph,Jordan","cool. Sharp and blocky below, light and flowing on top. Overall pleasing to look at,32,340,20","Some new perm we got there.,12,320,20","home - reminds me of fond memories of the Barnes Museum courtyard (looks just like it),30,280,20","Looks like a weird blurry heaven again! I dig,32,200,20","I like the way the forest is taking over the buildings.,21,220,20","Really love the branches. The bottom made it not perfect,42,160,20","Victor","cool. Sharp and blocky below, light and flowing on top. Overall pleasing to look at,32,340,20","Jordan","Really love the branches. The bottom made it not perfect,42,160,20","Dakota","home - reminds me of fond memories of the Barnes Museum courtyard (looks just like it),30,280,20","2"
"11594","","survey-text","138","1071888","0.0-137.0-0.0","A36A780ODXBDEH","","","","{""Q0"":""Looks like a desert floor...""}","","","","","","","","","","","","","","","","","","","","","","",""
"3598.2999999970198","","image-slider-response","139","1075488","0.0-138.0","A36A780ODXBDEH","","","","","-10","","","","","","","","","","","","","","","","","","","","","",""
"3244","","image-button-response","140","1080492","0.0-139.0","A36A780ODXBDEH","img_art/7.jpg","2","","","","","","","","","","","","","","","","","","","","","","","","",""
"930","","image-button-response","141","1081425","0.0-140.0","A36A780ODXBDEH","img_art/7.jpg","2","","","","","","","","","","","","","","","","","","","","","","","","",""
"5342","","image-button-response","142","1086769","0.0-141.0-0.0","A36A780ODXBDEH","img_art/7.jpg","3","","","","","","","","","","","","","","","","","","","","","","","","",""
"1221","","image-button-response","143","1087993","0.0-142.0-0.0","A36A780ODXBDEH","img_art/7.jpg","1","","","","","","","","","","","","","","","","","","","","","","","","",""
"null","","html-keyboard-response","144","1088994","0.0-143.0","A36A780ODXBDEH","<p style=""font-size: 48px;"">+</p>","","","","","null","allTrialResponses","1000","1","14","img_art/7.jpg","-10","Looks like a desert floor...","Victor,Peter,Dakota,Trevor,Jake,Jordan","I like the texture,12,340,20","It's just like sand from the beach,2,320,20","I feel thirsty - reminds me of desert sand,11,280,20","looks like the surface of the moon,-28,280,20","This is vague and ugly.,-3,360,20","Looks like a skin disease,-31,160,20","Dakota","I feel thirsty - reminds me of desert sand,11,280,20","Trevor","looks like the surface of the moon,-28,280,20","Peter","It's just like sand from the beach,2,320,20","2"
"21735","","survey-text","145","1110737","0.0-144.0-0.0","A36A780ODXBDEH","","","","{""Q0"":""looks like a set of nostrils. The scribbly bits draw me in!""}","","","","","","","","","","","","","","","","","","","","","","",""
"1870.7000000029802","","image-slider-response","146","1112609","0.0-145.0","A36A780ODXBDEH","","","","","33","","","","","","","","","","","","","","","","","","","","","",""
"null","","image-button-response","147","1117611","0.0-146.0","A36A780ODXBDEH","img_art/9.jpg","null","","","","","","","","","","","","","","","","","","","","","","","","",""
"3364","","image-button-response","148","1120977","0.0-147.0","A36A780ODXBDEH","img_art/9.jpg","1","","","","","","","","","","","","","","","","","","","","","","","","",""
"4374","","image-button-response","149","1125353","0.0-148.0-0.0","A36A780ODXBDEH","img_art/9.jpg","3","","","","","","","","","","","","","","","","","","","","","","","","",""
"1934","","image-button-response","150","1127289","0.0-149.0-0.0","A36A780ODXBDEH","img_art/9.jpg","5","","","","","","","","","","","","","","","","","","","","","","","","",""
"null","","html-keyboard-response","151","1128290","0.0-150.0","A36A780ODXBDEH","<p style=""font-size: 48px;"">+</p>","","","","","null","allTrialResponses","1000","1","15","img_art/9.jpg","33","looks like a set of nostrils. The scribbly bits draw me in!","Dylan,Peter,Dakota,Trevor,Matthew,Shane","This picture is too busy and ugly,-20,40,20","Looks like a monster's teeth , unsettling,-18,320,20","autopsy, morgue, dead corpses - don't like the flesh tones,-43,280,20","nice colors but it looks like it's from the 80s,10,280,20","Similar to the tohers, but not as clear.,11,120,20","Angry beast mouth,-37,80,20","Peter","Looks like a monster's teeth , unsettling,-18,320,20","Trevor","nice colors but it looks like it's from the 80s,10,280,20","Shane","Angry beast mouth,-37,80,20","2"
"4079","","survey-text","152","1132392","0.0-151.0-0.0","A36A780ODXBDEH","","","","{""Q0"":""course""}","","","","","","","","","","","","","","","","","","","","","","",""
"17583","","survey-text","153","1149976","0.0-152.0-0.0","A36A780ODXBDEH","","","","{""Q0"":""Boldness done with nice movement showing in the pink and yellow.""}","","","","","","","","","","","","","","","","","","","","","","",""
"2687.0999999940395","","image-slider-response","154","1152665","0.0-153.0","A36A780ODXBDEH","","","","","27","","","","","","","","","","","","","","","","","","","","","",""
"3598","","image-button-response","155","1157669","0.0-154.0","A36A780ODXBDEH","img_art/5.jpg","5","","","","","","","","","","","","","","","","","","","","","","","","",""
"814","","image-button-response","156","1158489","0.0-155.0","A36A780ODXBDEH","img_art/5.jpg","5","","","","","","","","","","","","","","","","","","","","","","","","",""
"4005","","image-button-response","157","1162496","0.0-156.0-0.0","A36A780ODXBDEH","img_art/5.jpg","1","","","","","","","","","","","","","","","","","","","","","","","","",""
"2134","","image-button-response","158","1164632","0.0-157.0-0.0","A36A780ODXBDEH","img_art/5.jpg","0","","","","","","","","","","","","","","","","","","","","","","","","",""
"null","","html-keyboard-response","159","1165634","0.0-158.0","A36A780ODXBDEH","<p style=""font-size: 48px;"">+</p>","","","","","null","allTrialResponses","1000","1","16","img_art/5.jpg","27","Boldness done with nice movement showing in the pink and yellow.","Connor,Peter,Spencer,Trevor,Jesus,Shane","Flame, candle, wind,30,240,20","Bright and sunny,19,320,20","Boring, no flow except the pink feathery band,-42,120,20","looks like a little kids painting,-50,280,20","Overpowering colors.,-26,100,20","Seems clean and neat,11,80,20","Shane","Seems clean and neat,11,80,20","Peter","Bright and sunny,19,320,20","Connor","Flame, candle, wind,30,240,20","2"
"25701","","survey-text","160","1191360","0.0-159.0-0.0","A36A780ODXBDEH","","","","{""Q0"":""Gives me cafe/coffee shop vibes. Not bad, just not great.""}","","","","","","","","","","","","","","","","","","","","","","",""
"2414.300000011921","","image-slider-response","161","1193776","0.0-160.0","A36A780ODXBDEH","","","","","5","","","","","","","","","","","","","","","","","","","","","",""
"null","","image-button-response","162","1198780","0.0-161.0","A36A780ODXBDEH","img_art/28.jpg","null","","","","","","","","","","","","","","","","","","","","","","","","",""
"5545","","image-button-response","163","1204329","0.0-162.0","A36A780ODXBDEH","img_art/28.jpg","5","","","","","","","","","","","","","","","","","","","","","","","","",""
"6783","","image-button-response","164","1211113","0.0-163.0-0.0","A36A780ODXBDEH","img_art/28.jpg","2","","","","","","","","","","","","","","","","","","","","","","","","",""
"958","","image-button-response","165","1212074","0.0-164.0-0.0","A36A780ODXBDEH","img_art/28.jpg","3","","","","","","","","","","","","","","","","","","","","","","","","",""
"null","","html-keyboard-response","166","1213575","0.0-165.0","A36A780ODXBDEH","<p style=""font-size: 48px;"">+</p>","","","","","null","allTrialResponses","1500","1","17","img_art/28.jpg","5","Gives me cafe/coffee shop vibes. Not bad, just not great.","Connor,Peter,Bryce,Benjamin,Angel,Shane","Dislike color palette and amoeba,-9,240,20","The earthy colors smeared around looks like prison food tray,-17,320,20","It gives me weird vibes.,-25,20,20","Colors are too dull.,-30,260,20","My immediate reaction was to think of smog. It recalls choking on dirty air.,-20,180,20","This is also something I would see in a serious but safe environment,14,80,20","Shane","This is also something I would see in a serious but safe environment,14,80,20","Bryce","It gives me weird vibes.,-25,20,20","Benjamin","Colors are too dull.,-30,260,20","2"
"37162","","survey-text","167","1250745","0.0-166.0-0.0","A36A780ODXBDEH","","","","{""Q0"":""the sharp angles in detail really bring this to life.""}","","","","","","","","","","","","","","","","","","","","","","",""
"4925.79999999702","","image-slider-response","168","1255672","0.0-167.0","A36A780ODXBDEH","","","","","17","","","","","","","","","","","","","","","","","","","","","",""
"null","","image-button-response","169","1261459","0.0-168.0","A36A780ODXBDEH","img_art/14.jpg","null","","","","","","","","","","","","","","","","","","","","","","","","",""
"16637","","image-button-response","170","1278105","0.0-169.0","A36A780ODXBDEH","img_art/14.jpg","0","","","","","","","","","","","","","","","","","","","","","","","","",""
"4182","","image-button-response","171","1282289","0.0-170.0-0.0","A36A780ODXBDEH","img_art/14.jpg","3","","","","","","","","","","","","","","","","","","","","","","","","",""
"2782","","image-button-response","172","1285073","0.0-171.0-0.0","A36A780ODXBDEH","img_art/14.jpg","5","","","","","","","","","","","","","","","","","","","","","","","","",""
"null","","html-keyboard-response","173","1285575","0.0-172.0","A36A780ODXBDEH","<p style=""font-size: 48px;"">+</p>","","","","","null","allTrialResponses","500","1","18","img_art/14.jpg","17","the sharp angles in detail really bring this to life.","Jack,Sean,Bryce,Benjamin,Alexander,Shane","love the colors. despite their brightness it seems sad somehow.,41,320,20","my reaction is that the picture is wierd,-14,40,20","The red looks like blood and im not a huge fan,15,20,20","Reminds me of the outdoors.,12,260,20","Angled, colored, boxy.,10,120,20","Feels like a camp fire among friends,22,80,20","Jack","love the colors. despite their brightness it seems sad somehow.,41,320,20","Benjamin","Reminds me of the outdoors.,12,260,20","Shane","Feels like a camp fire among friends,22,80,20","2"
"35701","","survey-text","174","1321304","0.0-173.0-0.0","A36A780ODXBDEH","","","","{""Q0"":""Kind of puts me to sleep, to be honest...""}","","","","","","","","","","","","","","","","","","","","","","",""
"2550.1000000089407","","image-slider-response","175","1323856","0.0-174.0","A36A780ODXBDEH","","","","","-23","","","","","","","","","","","","","","","","","","","","","",""
"null","","image-button-response","176","1328859","0.0-175.0","A36A780ODXBDEH","img_art/1.jpg","null","","","","","","","","","","","","","","","","","","","","","","","","",""
"1715","","image-button-response","177","1330578","0.0-176.0","A36A780ODXBDEH","img_art/1.jpg","1","","","","","","","","","","","","","","","","","","","","","","","","",""
"3173","","image-button-response","178","1333753","0.0-177.0-0.0","A36A780ODXBDEH","img_art/1.jpg","4","","","","","","","","","","","","","","","","","","","","","","","","",""
"2591","","image-button-response","179","1336346","0.0-178.0-0.0","A36A780ODXBDEH","img_art/1.jpg","2","","","","","","","","","","","","","","","","","","","","","","","","",""
"null","","html-keyboard-response","180","1337347","0.0-179.0","A36A780ODXBDEH","<p style=""font-size: 48px;"">+</p>","","","","","null","allTrialResponses","1000","1","19","img_art/1.jpg","-23","Kind of puts me to sleep, to be honest...","Jack,Jesse,Zachary,Benjamin,Nathaniel,Shane","beautiful colors and brush strokes,47,320,20","Im not a fan of the bluriness,-18,80,20","While I like the colors, I find nothing interesting or thought provoking about it.,10,400,20","Really like all of the colors and how they mesh well.,27,260,20","A bit of a smokey mess, but it does have an air of mystery I like,7,220,20","Warmth of the sun,22,80,20","Jesse","Im not a fan of the bluriness,-18,80,20","Nathaniel","A bit of a smokey mess, but it does have an air of mystery I like,7,220,20","Zachary","While I like the colors, I find nothing interesting or thought provoking about it.,10,400,20","2"
"13071","","survey-text","181","1350449","0.0-180.0-0.0","A36A780ODXBDEH","","","","{""Q0"":""that vivid green is eyecandy to me. Very bold.""}","","","","","","","","","","","","","","","","","","","","","","",""
"2671","","image-slider-response","182","1353121","0.0-181.0","A36A780ODXBDEH","","","","","40","","","","","","","","","","","","","","","","","","","","","",""
"null","","image-button-response","183","1358124","0.0-182.0","A36A780ODXBDEH","img_art/25.jpg","null","","","","","","","","","","","","","","","","","","","","","","","","",""
"1722","","image-button-response","184","1359850","0.0-183.0","A36A780ODXBDEH","img_art/25.jpg","4","","","","","","","","","","","","","","","","","","","","","","","","",""
"3014","","image-button-response","185","1362866","0.0-184.0-0.0","A36A780ODXBDEH","img_art/25.jpg","5","","","","","","","","","","","","","","","","","","","","","","","","",""
"4294","","image-button-response","186","1367162","0.0-185.0-0.0","A36A780ODXBDEH","img_art/25.jpg","1","","","","","","","","","","","","","","","","","","","","","","","","",""
"null","","html-keyboard-response","187","1367663","0.0-186.0","A36A780ODXBDEH","<p style=""font-size: 48px;"">+</p>","","","","","null","allTrialResponses","500","1","20","img_art/25.jpg","40","that vivid green is eyecandy to me. Very bold.","Jacob,Jesse,Zachary,Blake,Nathaniel,Vincent","I really like how the lines form this piece.,8,340,20","Creates a bit of fear in me for some reason,-26,80,20","I like the green color, but the combination of green and a person with a long neck reminds me of aliens,-27,400,20","ugly color and very sad old lady,-45,280,20","I love the background color and it's creepy...but cool.,30,220,20","Iike this picture; it speaks to me on a personal level. But seems to scare the ones around me.,7,360,20","Nathaniel","I love the background color and it's creepy...but cool.,30,220,20","Vincent","Iike this picture; it speaks to me on a personal level. But seems to scare the ones around me.,7,360,20","Jesse","Creates a bit of fear in me for some reason,-26,80,20","2"
"2543","","survey-text","188","1370225","0.0-187.0-0.0","A36A780ODXBDEH","","","","{""Q0"":""we""}","","","","","","","","","","","","","","","","","","","","","","",""
"11445","","survey-text","189","1381673","0.0-188.0-0.0","A36A780ODXBDEH","","","","{""Q0"":""seems a little overproduced.""}","","","","","","","","","","","","","","","","","","","","","","",""
"2430.8999999910593","","image-slider-response","190","1384105","0.0-189.0","A36A780ODXBDEH","","","","","-12","","","","","","","","","","","","","","","","","","","","","",""
"null","","image-button-response","191","1389108","0.0-190.0","A36A780ODXBDEH","img_art/13.jpg","null","","","","","","","","","","","","","","","","","","","","","","","","",""
"425","","image-button-response","192","1389537","0.0-191.0","A36A780ODXBDEH","img_art/13.jpg","3","","","","","","","","","","","","","","","","","","","","","","","","",""
"2102","","image-button-response","193","1391641","0.0-192.0-0.0","A36A780ODXBDEH","img_art/13.jpg","2","","","","","","","","","","","","","","","","","","","","","","","","",""
"4063","","image-button-response","194","1395706","0.0-193.0-0.0","A36A780ODXBDEH","img_art/13.jpg","4","","","","","","","","","","","","","","","","","","","","","","","","",""
"null","","html-keyboard-response","195","1396707","0.0-194.0","A36A780ODXBDEH","<p style=""font-size: 48px;"">+</p>","","","","","null","allTrialResponses","1000","1","21","img_art/13.jpg","-12","seems a little overproduced.","Anthony,Jesse,Hunter,Cameron,Nathaniel,Vincent","I like the color scheme,41,200,20","Really like this. Its like looking out a window into a beautiful storm,39,80,20","feels sterile/manufactured,1,240,20","Like the use of color, not a fan of the splatter,29,60,20","Looks like an upclose dried set of water droplets. Boring.,-25,220,20","I love the colors reminds me of a rainy day..it's calm and relaxing,32,360,20","Cameron","Like the use of color, not a fan of the splatter,29,60,20","Hunter","feels sterile/manufactured,1,240,20","Nathaniel","Looks like an upclose dried set of water droplets. Boring.,-25,220,20","2"
"36635","","survey-text","196","1433361","0.0-195.0-0.0","A36A780ODXBDEH","","","","{""Q0"":""my gaze gets lost in the spots! Very vivid and pleasing to the eye.""}","","","","","","","","","","","","","","","","","","","","","","",""
"4310.5999999940395","","image-slider-response","197","1437673","0.0-196.0","A36A780ODXBDEH","","","","","29","","","","","","","","","","","","","","","","","","","","","",""
"null","","image-button-response","198","1442676","0.0-197.0","A36A780ODXBDEH","img_art/23.jpg","null","","","","","","","","","","","","","","","","","","","","","","","","",""
"1460","","image-button-response","199","1444137","0.0-198.0","A36A780ODXBDEH","img_art/23.jpg","0","","","","","","","","","","","","","","","","","","","","","","","","",""
"967","","image-button-response","200","1445106","0.0-199.0-0.0","A36A780ODXBDEH","img_art/23.jpg","1","","","","","","","","","","","","","","","","","","","","","","","","",""
"2670","","image-button-response","201","1447778","0.0-200.0-0.0","A36A780ODXBDEH","img_art/23.jpg","5","","","","","","","","","","","","","","","","","","","","","","","","",""
"null","","html-keyboard-response","202","1448280","0.0-201.0","A36A780ODXBDEH","<p style=""font-size: 48px;"">+</p>","","","","","null","allTrialResponses","500","1","22","img_art/23.jpg","29","my gaze gets lost in the spots! Very vivid and pleasing to the eye.","Ryan,Alejandro,Hunter,Cameron,Nathaniel,Garrett","One of my favorites, love the colors and how the white looks like humans,50,380,20","I love the funky colors accompanied by perhaps dancing silhouettes. I love the white against the chaotic surroundings.,50,80,20","do not like color splatters or sharp silhouettes, feels tacky,-34,240,20","looks like those paper chain things.,0,60,20","Not a fan of these dot pieces. They hurt my eyes.,-25,220,20","I really like the way all the colors look, I think this is a pretty picture.,40,180,20","Ryan","One of my favorites, love the colors and how the white looks like humans,50,380,20","Alejandro","I love the funky colors accompanied by perhaps dancing silhouettes. I love the white against the chaotic surroundings.,50,80,20","Garrett","I really like the way all the colors look, I think this is a pretty picture.,40,180,20","2"
"19741","","survey-text","203","1468057","0.0-202.0-0.0","A36A780ODXBDEH","","","","{""Q0"":""the melty-ness of the paint really gives it a special vibe.""}","","","","","","","","","","","","","","","","","","","","","","",""
"2886.6000000089407","","image-slider-response","204","1470945","0.0-203.0","A36A780ODXBDEH","","","","","24","","","","","","","","","","","","","","","","","","","","","",""
"null","","image-button-response","205","1475948","0.0-204.0","A36A780ODXBDEH","img_art/18.jpg","null","","","","","","","","","","","","","","","","","","","","","","","","",""
"3962","","image-button-response","206","1479913","0.0-205.0","A36A780ODXBDEH","img_art/18.jpg","1","","","","","","","","","","","","","","","","","","","","","","","","",""
"8174","","image-button-response","207","1488089","0.0-206.0-0.0","A36A780ODXBDEH","img_art/18.jpg","2","","","","","","","","","","","","","","","","","","","","","","","","",""
"1005","","image-button-response","208","1489097","0.0-207.0-0.0","A36A780ODXBDEH","img_art/18.jpg","5","","","","","","","","","","","","","","","","","","","","","","","","",""
"null","","html-keyboard-response","209","1490100","0.0-208.0","A36A780ODXBDEH","<p style=""font-size: 48px;"">+</p>","","","","","null","allTrialResponses","1000","1","23","img_art/18.jpg","24","the melty-ness of the paint really gives it a special vibe.","Ryan,Alejandro,Logan,Elijah,Bradley,Garrett","Too political, not my cup of tea,-50,380,20","I love this because abstractly depicts the apocalypse. The white horse and its rider as Death, described in religious texts and pop culture. ""He rode a pale horse and his name was death."",50,80,20","Can't tell if I love it or hate it. That response warranted more than neutral so I gave it 20 but not sure,21,360,20","Makes me feel confused,16,80,20","This one is very dark and apocalyptic indeed!,-30,300,20","I think its supposed to be a boat and the boat looks kind of interesting to me.,10,180,20","Alejandro","I love this because abstractly depicts the apocalypse. The white horse and its rider as Death, described in religious texts and pop culture. ""He rode a pale horse and his name was death."",50,80,20","Logan","Can't tell if I love it or hate it. That response warranted more than neutral so I gave it 20 but not sure,21,360,20","Garrett","I think its supposed to be a boat and the boat looks kind of interesting to me.,10,180,20","2"
"20959","","survey-text","210","1511097","0.0-209.0-0.0","A36A780ODXBDEH","","","","{""Q0"":""minimalistic, but still present. Nice!""}","","","","","","","","","","","","","","","","","","","","","","",""
"2958.7999999970198","","image-slider-response","211","1514057","0.0-210.0","A36A780ODXBDEH","","","","","11","","","","","","","","","","","","","","","","","","","","","",""
"null","","image-button-response","212","1519061","0.0-211.0","A36A780ODXBDEH","img_art/4.jpg","null","","","","","","","","","","","","","","","","","","","","","","","","",""
"2608","","image-button-response","213","1521673","0.0-212.0","A36A780ODXBDEH","img_art/4.jpg","4","","","","","","","","","","","","","","","","","","","","","","","","",""
"1117","","image-button-response","214","1522793","0.0-213.0-0.0","A36A780ODXBDEH","img_art/4.jpg","0","","","","","","","","","","","","","","","","","","","","","","","","",""
"4526","","image-button-response","215","1527322","0.0-214.0-0.0","A36A780ODXBDEH","img_art/4.jpg","3","","","","","","","","","","","","","","","","","","","","","","","","",""
"null","","html-keyboard-response","216","1528324","0.0-215.0","A36A780ODXBDEH","<p style=""font-size: 48px;"">+</p>","","","","","null","allTrialResponses","1000","1","24","img_art/4.jpg","11","minimalistic, but still present. Nice!","Derek,Alejandro,Logan,Aaron,Samuel,Garrett","A bit too plain for my tastes,-10,360,20","Looks like finger nails from the Guinness world record book.,-30,80,20","it looks like a preschooler just dragged his fingers around,-36,360,20","It doesn't make me feel anything it just looks like a kid did it.,-30,20,20","The muted tones,-11,400,20","I think that this picture is too boring in terms of color and it looks ugly.,-41,180,20","Samuel","The muted tones,-11,400,20","Derek","A bit too plain for my tastes,-10,360,20","Aaron","It doesn't make me feel anything it just looks like a kid did it.,-30,20,20","2"
"18488","","survey-text","217","1546849","0.0-216.0-0.0","A36A780ODXBDEH","","","","{""Q0"":""this really bends reality! I want to stare at this a while longer! ""}","","","","","","","","","","","","","","","","","","","","","","",""
"3814.9000000059605","","image-slider-response","218","1550665","0.0-217.0","A36A780ODXBDEH","","","","","49","","","","","","","","","","","","","","","","","","","","","",""
"null","","image-button-response","219","1555669","0.0-218.0","A36A780ODXBDEH","img_art/11.jpg","null","","","","","","","","","","","","","","","","","","","","","","","","",""
"945","","image-button-response","220","1556618","0.0-219.0","A36A780ODXBDEH","img_art/11.jpg","5","","","","","","","","","","","","","","","","","","","","","","","","",""
"1998","","image-button-response","221","1558618","0.0-220.0-0.0","A36A780ODXBDEH","img_art/11.jpg","3","","","","","","","","","","","","","","","","","","","","","","","","",""
"1670","","image-button-response","222","1560290","0.0-221.0-0.0","A36A780ODXBDEH","img_art/11.jpg","0","","","","","","","","","","","","","","","","","","","","","","","","",""
"null","","html-keyboard-response","223","1561791","0.0-222.0","A36A780ODXBDEH","<p style=""font-size: 48px;"">+</p>","","","","","null","allTrialResponses","1500","1","25","img_art/11.jpg","49","this really bends reality! I want to stare at this a while longer! ","Derek,Brian,Alex,Aaron,Samuel,Jorge","There's a lot going on in this painting but it is pleasing and neat looking,31,360,20","this looks like a beautiful rainy day in a hellish urban mountain city,14,380,20","I think this is a city but I'm not sure, very abstract,18,100,20","It makes me think of a coastal sea town.,50,20,20","business of traffic,10,400,20","Sad but hopeful,43,180,20","Jorge","Sad but hopeful,43,180,20","Aaron","It makes me think of a coastal sea town.,50,20,20","Derek","There's a lot going on in this painting but it is pleasing and neat looking,31,360,20","2"
"3265","","survey-text","224","1565113","0.0-223.0-0.0","A36A780ODXBDEH","","","","{""Q0"":""table""}","","","","","","","","","","","","","","","","","","","","","","",""
"16414","","survey-text","225","1581528","0.0-224.0-0.0","A36A780ODXBDEH","","","","{""Q0"":""A little too messy for my taste.""}","","","","","","","","","","","","","","","","","","","","","","",""
"2646.5","","image-slider-response","226","1584177","0.0-225.0","A36A780ODXBDEH","","","","","-7","","","","","","","","","","","","","","","","","","","","","",""
"2350","","image-button-response","227","1589180","0.0-226.0","A36A780ODXBDEH","img_art/27.jpg","4","","","","","","","","","","","","","","","","","","","","","","","","",""
"513","","image-button-response","228","1589697","0.0-227.0","A36A780ODXBDEH","img_art/27.jpg","4","","","","","","","","","","","","","","","","","","","","","","","","",""
"4798","","image-button-response","229","1594497","0.0-228.0-0.0","A36A780ODXBDEH","img_art/27.jpg","3","","","","","","","","","","","","","","","","","","","","","","","","",""
"6525","","image-button-response","230","1601025","0.0-229.0-0.0","A36A780ODXBDEH","img_art/27.jpg","2","","","","","","","","","","","","","","","","","","","","","","","","",""
"null","","html-keyboard-response","231","1602527","0.0-230.0","A36A780ODXBDEH","<p style=""font-size: 48px;"">+</p>","","","","","null","allTrialResponses","1500","1","26","img_art/27.jpg","-7","A little too messy for my taste.","Derek,Austin,Dalton,Aaron,Gabriel,Jorge","I love the mood of this painting,30,360,20","Like the abstractness of this picture,20,240,20","looks like a garden in between two storms.,33,300,20","It looks like when my little sister took magic markers to the wall.,-11,20,20","too messy dont like the color choices either,-17,160,20","dirty and misunderstood,-47,180,20","Gabriel","too messy dont like the color choices either,-17,160,20","Aaron","It looks like when my little sister took magic markers to the wall.,-11,20,20","Dalton","looks like a garden in between two storms.,33,300,20","2"
"17519","","survey-text","232","1620057","0.0-231.0-0.0","A36A780ODXBDEH","","","","{""Q0"":""sometimes messy watercolor speaks to me, sometimes it doesn't. Not one of those times it does.""}","","","","","","","","","","","","","","","","","","","","","","",""
"1686.800000011921","","image-slider-response","233","1621745","0.0-232.0","A36A780ODXBDEH","","","","","-28","","","","","","","","","","","","","","","","","","","","","",""
"null","","image-button-response","234","1626748","0.0-233.0","A36A780ODXBDEH","img_art/26.jpg","null","","","","","","","","","","","","","","","","","","","","","","","","",""
"1216","","image-button-response","235","1627969","0.0-234.0","A36A780ODXBDEH","img_art/26.jpg","3","","","","","","","","","","","","","","","","","","","","","","","","",""
"2935","","image-button-response","236","1630906","0.0-235.0-0.0","A36A780ODXBDEH","img_art/26.jpg","2","","","","","","","","","","","","","","","","","","","","","","","","",""
"1944","","image-button-response","237","1632851","0.0-236.0-0.0","A36A780ODXBDEH","img_art/26.jpg","0","","","","","","","","","","","","","","","","","","","","","","","","",""
"null","","html-keyboard-response","238","1633853","0.0-237.0","A36A780ODXBDEH","<p style=""font-size: 48px;"">+</p>","","","","","null","allTrialResponses","1000","1","27","img_art/26.jpg","-28","sometimes messy watercolor speaks to me, sometimes it doesn't. Not one of those times it does.","Scott,Edward,Dalton,Aaron,Gabriel,Jeremy","nothing really special, quite bland,1,20,20","Elevator art but the watercolors are good,29,60,20","neighborhood and trees. i wonder if this is water paint.,1,300,20","It looks like a watercolor I did when I was 6.,-30,20,20","this is nice!! i like the muted colors,34,160,20","somewhat happy, like being outside on a nice day,30,60,20","Aaron","It looks like a watercolor I did when I was 6.,-30,20,20","Dalton","neighborhood and trees. i wonder if this is water paint.,1,300,20","Scott","nothing really special, quite bland,1,20,20","2"
"21201","","survey-text","239","1655097","0.0-238.0-0.0","A36A780ODXBDEH","","","","{""Q0"":""Love the lines and technique used here.""}","","","","","","","","","","","","","","","","","","","","","","",""
"1518.8999999910593","","image-slider-response","240","1656617","0.0-239.0","A36A780ODXBDEH","","","","","33","","","","","","","","","","","","","","","","","","","","","",""
"4942","","image-button-response","241","1661620","0.0-240.0","A36A780ODXBDEH","img_art/12.jpg","2","","","","","","","","","","","","","","","","","","","","","","","","",""
"1026","","image-button-response","242","1662649","0.0-241.0","A36A780ODXBDEH","img_art/12.jpg","2","","","","","","","","","","","","","","","","","","","","","","","","",""
"1343","","image-button-response","243","1663994","0.0-242.0-0.0","A36A780ODXBDEH","img_art/12.jpg","5","","","","","","","","","","","","","","","","","","","","","","","","",""
"9173","","image-button-response","244","1673169","0.0-243.0-0.0","A36A780ODXBDEH","img_art/12.jpg","4","","","","","","","","","","","","","","","","","","","","","","","","",""
"null","","html-keyboard-response","245","1673671","0.0-244.0","A36A780ODXBDEH","<p style=""font-size: 48px;"">+</p>","","","","","null","allTrialResponses","500","1","28","img_art/12.jpg","33","Love the lines and technique used here.","Scott,Jared,Dalton,Aaron,David,Luis","I don't like the pattern or color choice,-41,20,20","i dont see the point.,-19,400,20","beautiful also reminds me of a quilt,1,300,20","Therapist wall art.,10,20,20","This doesn't invoke anything. Just a mosaic of random images.,0,340,20","I like the fact it shares both light and edgy,32,400,20","Dalton","beautiful also reminds me of a quilt,1,300,20","Luis","I like the fact it shares both light and edgy,32,400,20","David","This doesn't invoke anything. Just a mosaic of random images.,0,340,20","2"
"13530","","survey-text","246","1687233","0.0-245.0-0.0","A36A780ODXBDEH","","","","{""Q0"":""Frustrating, raw, a little undone.""}","","","","","","","","","","","","","","","","","","","","","","",""
"2630.8999999910593","","image-slider-response","247","1689866","0.0-246.0","A36A780ODXBDEH","","","","","-10","","","","","","","","","","","","","","","","","","","","","",""
"null","","image-button-response","248","1694869","0.0-247.0","A36A780ODXBDEH","img_art/3.jpg","null","","","","","","","","","","","","","","","","","","","","","","","","",""
"721","","image-button-response","249","1695592","0.0-248.0","A36A780ODXBDEH","img_art/3.jpg","0","","","","","","","","","","","","","","","","","","","","","","","","",""
"2127","","image-button-response","250","1697721","0.0-249.0-0.0","A36A780ODXBDEH","img_art/3.jpg","5","","","","","","","","","","","","","","","","","","","","","","","","",""
"694","","image-button-response","251","1698417","0.0-250.0-0.0","A36A780ODXBDEH","img_art/3.jpg","1","","","","","","","","","","","","","","","","","","","","","","","","",""
"null","","html-keyboard-response","252","1699919","0.0-251.0","A36A780ODXBDEH","<p style=""font-size: 48px;"">+</p>","","","","","null","allTrialResponses","1500","1","29","img_art/3.jpg","-10","Frustrating, raw, a little undone.","Charles,Andrew,Dalton,Richard,David,Luis","I like that it feels kind of simple but still chaotic,6,100,20","It doesn't make me think of art,-20,160,20","Blood splatter and one black spot.,1,300,20","7th grade art, not much effort to do this.,-39,340,20","No clue what I'm looking. This just looks a series of scribbles in a box.,-20,340,20","I dont really feel anything from this, i cant see or understand any of it,-20,400,20","Charles","I like that it feels kind of simple but still chaotic,6,100,20","Luis","I dont really feel anything from this, i cant see or understand any of it,-20,400,20","Andrew","It doesn't make me think of art,-20,160,20","2"
"66194","","survey-text","253","1766153","0.0-252.0-0.0","A36A780ODXBDEH","","","","{""Q0"":""You can tell a lot of effort was put into this.""}","","","","","","","","","","","","","","","","","","","","","","",""
"1966.9000000059605","","image-slider-response","254","1768121","0.0-253.0","A36A780ODXBDEH","","","","","18","","","","","","","","","","","","","","","","","","","","","",""
"2438","","image-button-response","255","1773124","0.0-254.0","A36A780ODXBDEH","img_art/29.jpg","4","","","","","","","","","","","","","","","","","","","","","","","","",""
"640","","image-button-response","256","1773769","0.0-255.0","A36A780ODXBDEH","img_art/29.jpg","4","","","","","","","","","","","","","","","","","","","","","","","","",""
"1927","","image-button-response","257","1775698","0.0-256.0-0.0","A36A780ODXBDEH","img_art/29.jpg","5","","","","","","","","","","","","","","","","","","","","","","","","",""
"1325","","image-button-response","258","1777025","0.0-257.0-0.0","A36A780ODXBDEH","img_art/29.jpg","0","","","","","","","","","","","","","","","","","","","","","","","","",""
"null","","html-keyboard-response","259","1777526","0.0-258.0","A36A780ODXBDEH","<p style=""font-size: 48px;"">+</p>","","","","","null","allTrialResponses","500","1","30","img_art/29.jpg","18","You can tell a lot of effort was put into this.","Charles,Andrew,Juan,Timothy,Nicholas,Luis","I like the usage of a physical object,33,100,20","It seems like there's anger in the painting.,-20,160,20","I hate the red x over everything, hate the black hate how hopeless this is.,-50,260,20","Doesnt say much for me,0,240,20","I love this things almost hidden in it like paint brush and other details,50,240,20","I love the representation of a mess,50,400,20","Nicholas","I love this things almost hidden in it like paint brush and other details,50,240,20","Luis","I love the representation of a mess,50,400,20","Charles","I like the usage of a physical object,33,100,20","2"
"2892","","image-button-response_instructions","260","1780441","0.0-259.0","A36A780ODXBDEH","","0","instructions","","","","","","","","","","","","","","","","","","","","","","","",""
"996","","image-button-response","261","1781449","0.0-260.0","A36A780ODXBDEH","","0","","","","","","","","","","","","","","","","","","","","","","","","",""
