"rt","url","trial_type","trial_index","time_elapsed","internal_node_id","participant_id","stimulus","button_pressed","Name","responses","response","key_press","variableName","fixationTime","condition","trial","photo","subjectRating","subjectResponse","agentsNames","agent_1_Response","agent_2_Response","agent_3_Response","agent_4_Response","agent_5_Response","agent_6_Response","kept_1_name","kept_1_response","kept_2_name","kept_2_response","kept_3_name","kept_3_response","errorCounter"
"1046342","external_page_harvard.html","external-html","0","1046501","0.0-0.0","A38N2MBXP7IOPS","","","","","","","","","","","","","","","","","","","","","","","","","","",""
"1758","","image-button-response","1","1048262","0.0-1.0","A38N2MBXP7IOPS","","1","","","","","","","","","","","","","","","","","","","","","","","","",""
"2055","","image-button-response","2","1050324","0.0-2.0-0.0","A38N2MBXP7IOPS","","1","phone","","","","","","","","","","","","","","","","","","","","","","","",""
"5316","","survey-text","3","1055642","0.0-3.0-0.0","A38N2MBXP7IOPS","","","","{""Q0"":""A38N2MBXP7IOPS""}","","","","","","","","","","","","","","","","","","","","","","",""
"3055","","image-button-response_instructions","4","1058700","0.0-4.0","A38N2MBXP7IOPS","","0","instructions","","","","","","","","","","","","","","","","","","","","","","","",""
"9057","","image-button-response_instructions","5","1067759","0.0-5.0","A38N2MBXP7IOPS","img_art/ins/popularity/ins1.png","0","instructions","","","","","","","","","","","","","","","","","","","","","","","",""
"3429","","image-button-response_instructions","6","1071189","0.0-6.0","A38N2MBXP7IOPS","img_art/ins/popularity/ins2.png","0","instructions","","","","","","","","","","","","","","","","","","","","","","","",""
"9008","","image-button-response_instructions","7","1080199","0.0-7.0","A38N2MBXP7IOPS","img_art/ins/popularity/ins2Extreme.png","0","instructions","","","","","","","","","","","","","","","","","","","","","","","",""
"4799","","image-button-response_instructions","8","1084998","0.0-8.0","A38N2MBXP7IOPS","img_art/ins/popularity/ins3KEEPpop.PNG","0","instructions","","","","","","","","","","","","","","","","","","","","","","","",""
"2277","","image-button-response_instructions","9","1087277","0.0-9.0","A38N2MBXP7IOPS","img_art/ins/popularity/ins3ANamepop.PNG","0","instructions","","","","","","","","","","","","","","","","","","","","","","","",""
"2279","","image-button-response_instructions","10","1089557","0.0-10.0","A38N2MBXP7IOPS","img_art/ins/popularity/ins3ARatingpop.png","0","instructions","","","","","","","","","","","","","","","","","","","","","","","",""
"2430","","image-button-response_instructions","11","1091988","0.0-11.0","A38N2MBXP7IOPS","img_art/ins/popularity/ins3ATextpop.png","0","instructions","","","","","","","","","","","","","","","","","","","","","","","",""
"1580","","image-button-response_instructions","12","1093570","0.0-12.0","A38N2MBXP7IOPS","img_art/ins/popularity/ins3ALikespop.png","0","instructions","","","","","","","","","","","","","","","","","","","","","","","",""
"1757","","image-button-response_instructions","13","1095328","0.0-13.0","A38N2MBXP7IOPS","img_art/ins/popularity/ins3KEEPpop.PNG","0","instructions","","","","","","","","","","","","","","","","","","","","","","","",""
"4525","","image-button-response_instructions","14","1099855","0.0-14.0","A38N2MBXP7IOPS","img_art/ins/popularity/ins3_5RED.png","0","instructions","","","","","","","","","","","","","","","","","","","","","","","",""
"1412","","image-button-response_instructions","15","1101269","0.0-15.0","A38N2MBXP7IOPS","img_art/ins/popularity/ins3KEEPpop.PNG","0","instructions","","","","","","","","","","","","","","","","","","","","","","","",""
"1354","","image-button-response_instructions","16","1102624","0.0-16.0","A38N2MBXP7IOPS","img_art/ins/popularity/ins4KEEPpop.PNG","0","instructions","","","","","","","","","","","","","","","","","","","","","","","",""
"1347","","image-button-response_instructions","17","1103972","0.0-17.0","A38N2MBXP7IOPS","img_art/ins/popularity/ins5KEEPpop.PNG","0","instructions","","","","","","","","","","","","","","","","","","","","","","","",""
"1379","","image-button-response_instructions","18","1105352","0.0-18.0","A38N2MBXP7IOPS","","0","instructions","","","","","","","","","","","","","","","","","","","","","","","",""
"8548","","survey-text","19","1113946","0.0-19.0-0.0","A38N2MBXP7IOPS","","","","{""Q0"":""but""}","","","","","","","","","","","","","","","","","","","","","","",""
"24950","","survey-text","20","1138899","0.0-20.0-0.0","A38N2MBXP7IOPS","","","","{""Q0"":""It reminds me of vomit at a carnival after eating too much cotton candy.""}","","","","","","","","","","","","","","","","","","","","","","",""
"4841","","image-slider-response","21","1143743","0.0-21.0","A38N2MBXP7IOPS","","","","","-50","","","","","","","","","","","","","","","","","","","","","",""
"null","","image-button-response","22","1148751","0.0-22.0","A38N2MBXP7IOPS","img_art/ins/1.jpg","null","","","","","","","","","","","","","","","","","","","","","","","","",""
"7472","","image-button-response","23","1156226","0.0-23.0","A38N2MBXP7IOPS","img_art/ins/1.jpg","3","","","","","","","","","","","","","","","","","","","","","","","","",""
"12348","","image-button-response","24","1168578","0.0-24.0-0.0","A38N2MBXP7IOPS","img_art/ins/1.jpg","5","","","","","","","","","","","","","","","","","","","","","","","","",""
"1211","","image-button-response","25","1169793","0.0-25.0-0.0","A38N2MBXP7IOPS","img_art/ins/1.jpg","0","","","","","","","","","","","","","","","","","","","","","","","","",""
"null","","html-keyboard-response","26","1170798","0.0-26.0","A38N2MBXP7IOPS","<p style=""font-size: 48px;"">+</p>","","","","","null","allTrialResponses","1000","1","-2","img_art/ins/1.jpg","-50","It reminds me of vomit at a carnival after eating too much cotton candy.","Allison,Ashley,Beth,Dora,Erika,Jen","looks like a lot of things going on in the mist,20,20,20","I just don't get why these type of art would be popular,-32,40,20","This color reminds me of poo,-46,60,20","looks like what my niece in 3rd grade did this afternoon,-50,80,20","I like the sophisticated brushwork,40,100,20","It reminds me of a candy land dream I had,36,120,20","Dora","looks like what my niece in 3rd grade did this afternoon,-50,80,20","Jen","It reminds me of a candy land dream I had,36,120,20","Allison","looks like a lot of things going on in the mist,20,20,20","0"
"25208","","survey-text","27","1196010","0.0-27.0-0.0","A38N2MBXP7IOPS","","","","{""Q0"":""It reminds me of what the color scheme in Hell probably is.""}","","","","","","","","","","","","","","","","","","","","","","",""
"3957.5999999996275","","image-slider-response","28","1199970","0.0-28.0","A38N2MBXP7IOPS","","","","","-31","","","","","","","","","","","","","","","","","","","","","",""
"null","","image-button-response","29","1204977","0.0-29.0","A38N2MBXP7IOPS","img_art/ins/2.jpg","null","","","","","","","","","","","","","","","","","","","","","","","","",""
"2760","","image-button-response","30","1207741","0.0-30.0","A38N2MBXP7IOPS","img_art/ins/2.jpg","3","","","","","","","","","","","","","","","","","","","","","","","","",""
"2392","","image-button-response","31","1210135","0.0-31.0-0.0","A38N2MBXP7IOPS","img_art/ins/2.jpg","5","","","","","","","","","","","","","","","","","","","","","","","","",""
"3318","","image-button-response","32","1213456","0.0-32.0-0.0","A38N2MBXP7IOPS","img_art/ins/2.jpg","2","","","","","","","","","","","","","","","","","","","","","","","","",""
"null","","html-keyboard-response","33","1214961","0.0-33.0","A38N2MBXP7IOPS","<p style=""font-size: 48px;"">+</p>","","","","","null","allTrialResponses","1500","1","-1","img_art/ins/2.jpg","-31","It reminds me of what the color scheme in Hell probably is.","Allison,Jenna,Katie,Dora,Kara,Jen","I don't have strong feelings about this,10,20,20","One of my pet peevs,-48,140,20","too much color!,-28,180,20","looks too angry,-50,80,20","I like the blocks of color arrangements,30,160,20","It reminds me of a fireplace,36,120,20","Dora","looks too angry,-50,80,20","Jen","It reminds me of a fireplace,36,120,20","Katie","too much color!,-28,180,20","0"
"31811","","survey-text","34","1246777","0.0-34.0-0.0","A38N2MBXP7IOPS","","","","{""Q0"":""It looks like something out of a polar landscape with frozen looking colors.""}","","","","","","","","","","","","","","","","","","","","","","",""
"5801.699999999255","","image-slider-response","35","1252581","0.0-35.0","A38N2MBXP7IOPS","","","","","17","","","","","","","","","","","","","","","","","","","","","",""
"1987","","image-button-response","36","1257587","0.0-36.0","A38N2MBXP7IOPS","img_art/ins/3.jpg","0","","","","","","","","","","","","","","","","","","","","","","","","",""
"1856","","image-button-response","37","1259446","0.0-37.0","A38N2MBXP7IOPS","img_art/ins/3.jpg","0","","","","","","","","","","","","","","","","","","","","","","","","",""
"5351","","image-button-response","38","1264799","0.0-38.0-0.0","A38N2MBXP7IOPS","img_art/ins/3.jpg","4","","","","","","","","","","","","","","","","","","","","","","","","",""
"6757","","image-button-response","39","1271559","0.0-39.0-0.0","A38N2MBXP7IOPS","img_art/ins/3.jpg","5","","","","","","","","","","","","","","","","","","","","","","","","",""
"null","","html-keyboard-response","40","1272063","0.0-40.0","A38N2MBXP7IOPS","<p style=""font-size: 48px;"">+</p>","","","","","null","allTrialResponses","500","1","0","img_art/ins/3.jpg","17","It looks like something out of a polar landscape with frozen looking colors.","Leslie,Rose,Katie,Dora,Mary,Jen","It's an alright work,15,200,20","My daily routine, it's depressing,-20,240,20","It looks depressing,-26,180,20","My worst nightmare,-42,80,20","I like the overlapping of brushes,41,220,20","I can feel a rainy day from this painting,18,120,20","Leslie","It's an alright work,15,200,20","Mary","I like the overlapping of brushes,41,220,20","Jen","I can feel a rainy day from this painting,18,120,20","0"
"10753","","image-button-response_instructions","41","1282822","0.0-41.0","A38N2MBXP7IOPS","","0","instructions","","","","","","","","","","","","","","","","","","","","","","","",""
"11116","","survey-likert","42","1293941","0.0-42.0-0.0","A38N2MBXP7IOPS","","","","{""Q0"":"""",""Q1"":0,""Q2"":1}","","","","","","","","","","","","","","","","","","","","","","",""
"4805","","survey-text","43","1298752","0.0-43.0-0.0","A38N2MBXP7IOPS","","","","{""Q0"":""rock""}","","","","","","","","","","","","","","","","","","","","","","",""
"15855","","survey-text","44","1314608","0.0-44.0-0.0","A38N2MBXP7IOPS","","","","{""Q0"":""It's moody and atmospheric.""}","","","","","","","","","","","","","","","","","","","","","","",""
"6286.89999999851","","image-slider-response","45","1320898","0.0-45.0","A38N2MBXP7IOPS","","","","","35","","","","","","","","","","","","","","","","","","","","","",""
"null","","image-button-response","46","1325922","0.0-46.0","A38N2MBXP7IOPS","img_art/17.jpg","null","","","","","","","","","","","","","","","","","","","","","","","","",""
"778","","image-button-response","47","1326703","0.0-47.0","A38N2MBXP7IOPS","img_art/17.jpg","2","","","","","","","","","","","","","","","","","","","","","","","","",""
"2448","","image-button-response","48","1329154","0.0-48.0-0.0","A38N2MBXP7IOPS","img_art/17.jpg","3","","","","","","","","","","","","","","","","","","","","","","","","",""
"2332","","image-button-response","49","1331490","0.0-49.0-0.0","A38N2MBXP7IOPS","img_art/17.jpg","5","","","","","","","","","","","","","","","","","","","","","","","","",""
"null","","html-keyboard-response","50","1331992","0.0-50.0","A38N2MBXP7IOPS","<p style=""font-size: 48px;"">+</p>","","","","","null","allTrialResponses","500","1","1","img_art/17.jpg","35","It's moody and atmospheric.","Paige,Erica,Brittany,Amanda,Kelsey,Nicole","very pretty. Makes me happy,45,60,20","Makes me warm and cozy just by looking at it,29,80,20","I like the colors and the design.,20,40,20","Feels supernatural and scary,-16,180,20","this ones alright,10,240,20","Feels nostalgic somehow,31,20,20","Brittany","I like the colors and the design.,20,40,20","Amanda","Feels supernatural and scary,-16,180,20","Nicole","Feels nostalgic somehow,31,20,20","0"
"19385","","survey-text","51","1351382","0.0-51.0-0.0","A38N2MBXP7IOPS","","","","{""Q0"":""It looks like the surface of the moon. ""}","","","","","","","","","","","","","","","","","","","","","","",""
"4571.9000000003725","","image-slider-response","52","1355956","0.0-52.0","A38N2MBXP7IOPS","","","","","-24","","","","","","","","","","","","","","","","","","","","","",""
"4305","","image-button-response","53","1360960","0.0-53.0","A38N2MBXP7IOPS","img_art/7.jpg","1","","","","","","","","","","","","","","","","","","","","","","","","",""
"1506","","image-button-response","54","1362469","0.0-54.0","A38N2MBXP7IOPS","img_art/7.jpg","1","","","","","","","","","","","","","","","","","","","","","","","","",""
"8941","","image-button-response","55","1371412","0.0-55.0-0.0","A38N2MBXP7IOPS","img_art/7.jpg","5","","","","","","","","","","","","","","","","","","","","","","","","",""
"3000","","image-button-response","56","1374416","0.0-56.0-0.0","A38N2MBXP7IOPS","img_art/7.jpg","2","","","","","","","","","","","","","","","","","","","","","","","","",""
"null","","html-keyboard-response","57","1375921","0.0-57.0","A38N2MBXP7IOPS","<p style=""font-size: 48px;"">+</p>","","","","","null","allTrialResponses","1500","1","2","img_art/7.jpg","-24","It looks like the surface of the moon. ","Shannon,Bailey,Brittany,Amanda,Kristen,Nicole","I don't like the repetitiveness of the colors, and I think there should be more colors.,-50,220,20","It gives off an alien-like vastness of space vibe which I like,9,360,20","It looks like a wall, not really something I'd enjoy looking at.,-12,40,20","I hate everything about this painting from the cors to it looking like a war,-50,180,20","sand, beach, tranquil,10,280,20","Looks like the surface of mars,29,20,20","Bailey","It gives off an alien-like vastness of space vibe which I like,9,360,20","Nicole","Looks like the surface of mars,29,20,20","Brittany","It looks like a wall, not really something I'd enjoy looking at.,-12,40,20","0"
"14285","","survey-text","58","1390210","0.0-58.0-0.0","A38N2MBXP7IOPS","","","","{""Q0"":""It makes me feel dreary and tired.""}","","","","","","","","","","","","","","","","","","","","","","",""
"4169.199999999255","","image-slider-response","59","1394381","0.0-59.0","A38N2MBXP7IOPS","","","","","-50","","","","","","","","","","","","","","","","","","","","","",""
"null","","image-button-response","60","1399387","0.0-60.0","A38N2MBXP7IOPS","img_art/11.jpg","null","","","","","","","","","","","","","","","","","","","","","","","","",""
"7466","","image-button-response","61","1406855","0.0-61.0","A38N2MBXP7IOPS","img_art/11.jpg","2","","","","","","","","","","","","","","","","","","","","","","","","",""
"1225","","image-button-response","62","1408083","0.0-62.0-0.0","A38N2MBXP7IOPS","img_art/11.jpg","1","","","","","","","","","","","","","","","","","","","","","","","","",""
"2943","","image-button-response","63","1411029","0.0-63.0-0.0","A38N2MBXP7IOPS","img_art/11.jpg","0","","","","","","","","","","","","","","","","","","","","","","","","",""
"null","","html-keyboard-response","64","1412535","0.0-64.0","A38N2MBXP7IOPS","<p style=""font-size: 48px;"">+</p>","","","","","null","allTrialResponses","1500","1","3","img_art/11.jpg","-50","It makes me feel dreary and tired.","Erin,Bailey,Brittany,Cheyenne,Julia,Nicole","Frank Lloyd Wright, music,24,120,20","Kind of bizzare in that I can imagine ships or something from it.,11,360,20","It reminds me of telephone wires.,1,40,20","Very good use of colors,44,200,20","this looks like a beautiful rainy day in a hellish urban mountain city,14,40,20","Those vertical strokes are to die for and I love these colors !!!,50,20,20","Brittany","It reminds me of telephone wires.,1,40,20","Bailey","Kind of bizzare in that I can imagine ships or something from it.,11,360,20","Erin","Frank Lloyd Wright, music,24,120,20","0"
"13255","","survey-text","65","1425795","0.0-65.0-0.0","A38N2MBXP7IOPS","","","","{""Q0"":""I like the blending of colors.""}","","","","","","","","","","","","","","","","","","","","","","",""
"5901.4000000003725","","image-slider-response","66","1431698","0.0-66.0","A38N2MBXP7IOPS","","","","","7","","","","","","","","","","","","","","","","","","","","","",""
"null","","image-button-response","67","1436701","0.0-67.0","A38N2MBXP7IOPS","img_art/12.jpg","null","","","","","","","","","","","","","","","","","","","","","","","","",""
"896","","image-button-response","68","1437599","0.0-68.0","A38N2MBXP7IOPS","img_art/12.jpg","3","","","","","","","","","","","","","","","","","","","","","","","","",""
"4345","","image-button-response","69","1441949","0.0-69.0-0.0","A38N2MBXP7IOPS","img_art/12.jpg","2","","","","","","","","","","","","","","","","","","","","","","","","",""
"696","","image-button-response","70","1442648","0.0-70.0-0.0","A38N2MBXP7IOPS","img_art/12.jpg","1","","","","","","","","","","","","","","","","","","","","","","","","",""
"null","","html-keyboard-response","71","1443654","0.0-71.0","A38N2MBXP7IOPS","<p style=""font-size: 48px;"">+</p>","","","","","null","allTrialResponses","1000","1","4","img_art/12.jpg","7","I like the blending of colors.","Erin,Bailey,Brittany,Madeline,Alyssa,Lauren","City scape but palette is odd,4,120,20","Too many blocks. I can't see a purpose or a focal point,-44,360,20","Too blocky and not interesting enough.,-15,40,20","Love the shapes here,12,40,20","Its cool,reminiscent of Andy Warhol type of style,10,160,20","This doesn't invoke anything. Just a mosaic of random images.,0,340,20","Madeline","Love the shapes here,12,40,20","Brittany","Too blocky and not interesting enough.,-15,40,20","Bailey","Too many blocks. I can't see a purpose or a focal point,-44,360,20","0"
"19460","","survey-text","72","1463119","0.0-72.0-0.0","A38N2MBXP7IOPS","","","","{""Q0"":""It has a good flow that makes me think of music.""}","","","","","","","","","","","","","","","","","","","","","","",""
"3814","","image-slider-response","73","1466935","0.0-73.0","A38N2MBXP7IOPS","","","","","27","","","","","","","","","","","","","","","","","","","","","",""
"4337","","image-button-response","74","1471937","0.0-74.0","A38N2MBXP7IOPS","img_art/10.jpg","4","","","","","","","","","","","","","","","","","","","","","","","","",""
"1189","","image-button-response","75","1473130","0.0-75.0","A38N2MBXP7IOPS","img_art/10.jpg","4","","","","","","","","","","","","","","","","","","","","","","","","",""
"1800","","image-button-response","76","1474932","0.0-76.0-0.0","A38N2MBXP7IOPS","img_art/10.jpg","2","","","","","","","","","","","","","","","","","","","","","","","","",""
"2396","","image-button-response","77","1477331","0.0-77.0-0.0","A38N2MBXP7IOPS","img_art/10.jpg","5","","","","","","","","","","","","","","","","","","","","","","","","",""
"null","","html-keyboard-response","78","1478336","0.0-78.0","A38N2MBXP7IOPS","<p style=""font-size: 48px;"">+</p>","","","","","null","allTrialResponses","1000","1","5","img_art/10.jpg","27","It has a good flow that makes me think of music.","Amber,Bailey,Brittany,Madeline,Kylie,Melissa","This picture just seems depressing.,-26,200,20","For black and white, this is pretty vibrant and cool. I like this.,39,360,20","The design is dynamic and interesting.,14,40,20","Looks a bit as though someone ran over it?,-13,40,20","Musical guitar whimsy,45,300,20","shapes are appealing/relationship between the beige square and the black lines,24,240,20","Kylie","Musical guitar whimsy,45,300,20","Brittany","The design is dynamic and interesting.,14,40,20","Melissa","shapes are appealing/relationship between the beige square and the black lines,24,240,20","0"
"4384","","survey-text","79","1482727","0.0-79.0-0.0","A38N2MBXP7IOPS","","","","{""Q0"":""sky""}","","","","","","","","","","","","","","","","","","","","","","",""
"16698","","survey-text","80","1499426","0.0-80.0-0.0","A38N2MBXP7IOPS","","","","{""Q0"":""The soft style and colors are calming.""}","","","","","","","","","","","","","","","","","","","","","","",""
"4181.700000001118","","image-slider-response","81","1503610","0.0-81.0","A38N2MBXP7IOPS","","","","","32","","","","","","","","","","","","","","","","","","","","","",""
"2554","","image-button-response","82","1508614","0.0-82.0","A38N2MBXP7IOPS","img_art/26.jpg","1","","","","","","","","","","","","","","","","","","","","","","","","",""
"437","","image-button-response","83","1509054","0.0-83.0","A38N2MBXP7IOPS","img_art/26.jpg","1","","","","","","","","","","","","","","","","","","","","","","","","",""
"3884","","image-button-response","84","1512941","0.0-84.0-0.0","A38N2MBXP7IOPS","img_art/26.jpg","3","","","","","","","","","","","","","","","","","","","","","","","","",""
"1891","","image-button-response","85","1514835","0.0-85.0-0.0","A38N2MBXP7IOPS","img_art/26.jpg","4","","","","","","","","","","","","","","","","","","","","","","","","",""
"null","","html-keyboard-response","86","1515841","0.0-86.0","A38N2MBXP7IOPS","<p style=""font-size: 48px;"">+</p>","","","","","null","allTrialResponses","1000","1","6","img_art/26.jpg","32","The soft style and colors are calming.","Danielle,Tiffany,Brittany,Destiny,Kylie,Melissa","It's a little too yellow-y for me, I'm not a huge fan of the color schemes or setting it portrays.,-20,340,20","It is very relaxing to look at, almost a relief.,21,360,20","It looks boring and too rough.,-9,40,20","I really love pastels and they're just being dimmed down too much here,-3,360,20","Picturesque little town,45,300,20","feels incomplete,-50,240,20","Tiffany","It is very relaxing to look at, almost a relief.,21,360,20","Destiny","I really love pastels and they're just being dimmed down too much here,-3,360,20","Kylie","Picturesque little town,45,300,20","0"
"23566","","survey-text","87","1539410","0.0-87.0-0.0","A38N2MBXP7IOPS","","","","{""Q0"":""The dark figure looks imposing, the piece is dynamic.""}","","","","","","","","","","","","","","","","","","","","","","",""
"11293.800000000745","","image-slider-response","88","1550707","0.0-88.0","A38N2MBXP7IOPS","","","","","40","","","","","","","","","","","","","","","","","","","","","",""
"null","","image-button-response","89","1555712","0.0-89.0","A38N2MBXP7IOPS","img_art/25.jpg","null","","","","","","","","","","","","","","","","","","","","","","","","",""
"16084","","image-button-response","90","1571798","0.0-90.0","A38N2MBXP7IOPS","img_art/25.jpg","2","","","","","","","","","","","","","","","","","","","","","","","","",""
"2275","","image-button-response","91","1574077","0.0-91.0-0.0","A38N2MBXP7IOPS","img_art/25.jpg","5","","","","","","","","","","","","","","","","","","","","","","","","",""
"3163","","image-button-response","92","1577242","0.0-92.0-0.0","A38N2MBXP7IOPS","img_art/25.jpg","3","","","","","","","","","","","","","","","","","","","","","","","","",""
"null","","html-keyboard-response","93","1578249","0.0-93.0","A38N2MBXP7IOPS","<p style=""font-size: 48px;"">+</p>","","","","","null","allTrialResponses","1000","1","7","img_art/25.jpg","40","The dark figure looks imposing, the piece is dynamic.","Samantha,Tiffany,Erika,Destiny,Kylie,Mikayla","It is interesting but too creapy for me,-29,140,20","I feel little to no emotion looking at this painting.,0,360,20","Very cryptic and ancient,36,100,20","creeeeeppyyyyyyy but mad cool,-26,360,20","Egyptian heiroglyphics and painting,15,300,20","I LOVE fhe scary skeleton.,28,300,20","Erika","Very cryptic and ancient,36,100,20","Mikayla","I LOVE fhe scary skeleton.,28,300,20","Destiny","creeeeeppyyyyyyy but mad cool,-26,360,20","0"
"29630","","survey-text","94","1607883","0.0-94.0-0.0","A38N2MBXP7IOPS","","","","{""Q0"":""It's surreal and striking.""}","","","","","","","","","","","","","","","","","","","","","","",""
"3709.699999999255","","image-slider-response","95","1611595","0.0-95.0","A38N2MBXP7IOPS","","","","","36","","","","","","","","","","","","","","","","","","","","","",""
"null","","image-button-response","96","1616598","0.0-96.0","A38N2MBXP7IOPS","img_art/20.jpg","null","","","","","","","","","","","","","","","","","","","","","","","","",""
"296","","image-button-response","97","1616897","0.0-97.0","A38N2MBXP7IOPS","img_art/20.jpg","2","","","","","","","","","","","","","","","","","","","","","","","","",""
"4728","","image-button-response","98","1621629","0.0-98.0-0.0","A38N2MBXP7IOPS","img_art/20.jpg","0","","","","","","","","","","","","","","","","","","","","","","","","",""
"2515","","image-button-response","99","1624147","0.0-99.0-0.0","A38N2MBXP7IOPS","img_art/20.jpg","1","","","","","","","","","","","","","","","","","","","","","","","","",""
"null","","html-keyboard-response","100","1624651","0.0-100.0","A38N2MBXP7IOPS","<p style=""font-size: 48px;"">+</p>","","","","","null","allTrialResponses","500","1","8","img_art/20.jpg","36","It's surreal and striking.","Heather,Katelyn,Erika,Destiny,Abigail,Mikayla","make me feel like its a little country maybe a tractor and a skull head of a bull,1,260,20","I do at least like the dark colors blending,6,100,20","The artist had very strong feelings, bold colors,28,100,20","truck? train? dead cow? plane?,10,360,20","A mountain vacation,46,20,20","Kinda freaks me out.,-40,300,20","Erika","The artist had very strong feelings, bold colors,28,100,20","Heather","make me feel like its a little country maybe a tractor and a skull head of a bull,1,260,20","Katelyn","I do at least like the dark colors blending,6,100,20","0"
"20212","","survey-text","101","1644866","0.0-101.0-0.0","A38N2MBXP7IOPS","","","","{""Q0"":""It's childish and somewhat creepy.""}","","","","","","","","","","","","","","","","","","","","","","",""
"4031.60000000149","","image-slider-response","102","1648900","0.0-102.0","A38N2MBXP7IOPS","","","","","-50","","","","","","","","","","","","","","","","","","","","","",""
"4348","","image-button-response","103","1653902","0.0-103.0","A38N2MBXP7IOPS","img_art/16.jpg","3","","","","","","","","","","","","","","","","","","","","","","","","",""
"1239","","image-button-response","104","1655144","0.0-104.0","A38N2MBXP7IOPS","img_art/16.jpg","3","","","","","","","","","","","","","","","","","","","","","","","","",""
"1868","","image-button-response","105","1657014","0.0-105.0-0.0","A38N2MBXP7IOPS","img_art/16.jpg","4","","","","","","","","","","","","","","","","","","","","","","","","",""
"1287","","image-button-response","106","1658304","0.0-106.0-0.0","A38N2MBXP7IOPS","img_art/16.jpg","5","","","","","","","","","","","","","","","","","","","","","","","","",""
"null","","html-keyboard-response","107","1659309","0.0-107.0","A38N2MBXP7IOPS","<p style=""font-size: 48px;"">+</p>","","","","","null","allTrialResponses","1000","1","9","img_art/16.jpg","-50","It's childish and somewhat creepy.","Heather,Katelyn,Erika,Kimberly,Natalie,Makayla","lol i dont know how i feel about this.,1,260,20","I dont feel any real response,5,100,20","Very emotional,23,100,20","Weird and creepy,-30,260,20","my reaction is that the picture is creepy,-19,400,20","It's a little unsettling,2,80,20","Kimberly","Weird and creepy,-30,260,20","Natalie","my reaction is that the picture is creepy,-19,400,20","Makayla","It's a little unsettling,2,80,20","0"
"17584","","survey-text","108","1676899","0.0-108.0-0.0","A38N2MBXP7IOPS","","","","{""Q0"":""It has a lot of movement with interesting elements.""}","","","","","","","","","","","","","","","","","","","","","","",""
"3850.10000000149","","image-slider-response","109","1680751","0.0-109.0","A38N2MBXP7IOPS","","","","","19","","","","","","","","","","","","","","","","","","","","","",""
"null","","image-button-response","110","1685754","0.0-110.0","A38N2MBXP7IOPS","img_art/19.jpg","null","","","","","","","","","","","","","","","","","","","","","","","","",""
"2878","","image-button-response","111","1688636","0.0-111.0","A38N2MBXP7IOPS","img_art/19.jpg","5","","","","","","","","","","","","","","","","","","","","","","","","",""
"5730","","image-button-response","112","1694369","0.0-112.0-0.0","A38N2MBXP7IOPS","img_art/19.jpg","1","","","","","","","","","","","","","","","","","","","","","","","","",""
"1763","","image-button-response","113","1696135","0.0-113.0-0.0","A38N2MBXP7IOPS","img_art/19.jpg","3","","","","","","","","","","","","","","","","","","","","","","","","",""
"null","","html-keyboard-response","114","1696637","0.0-114.0","A38N2MBXP7IOPS","<p style=""font-size: 48px;"">+</p>","","","","","null","allTrialResponses","500","1","10","img_art/19.jpg","19","It has a lot of movement with interesting elements.","Caroline,Shelby,Chloe,Kimberly,Natalie,Makayla","Chaotic. Too much going on in the picture,14,100,20","Something weird is going on in this painting,-20,240,20","The use of space isn't my favorite.,-20,220,20","The blue makes it look like it has depth,11,260,20","the picture gave me anxiety,-38,400,20","Looks like hustle and bustle ,,3,80,20","Makayla","Looks like hustle and bustle ,,3,80,20","Shelby","Something weird is going on in this painting,-20,240,20","Kimberly","The blue makes it look like it has depth,11,260,20","0"
"5458","","survey-text","115","1702102","0.0-115.0-0.0","A38N2MBXP7IOPS","","","","{""Q0"":""our""}","","","","","","","","","","","","","","","","","","","","","","",""
"17988","","survey-text","116","1720092","0.0-116.0-0.0","A38N2MBXP7IOPS","","","","{""Q0"":""It reminds me of Fall with the colors and style.""}","","","","","","","","","","","","","","","","","","","","","","",""
"4083.199999999255","","image-slider-response","117","1724178","0.0-117.0","A38N2MBXP7IOPS","","","","","50","","","","","","","","","","","","","","","","","","","","","",""
"null","","image-button-response","118","1729182","0.0-118.0","A38N2MBXP7IOPS","img_art/27.jpg","null","","","","","","","","","","","","","","","","","","","","","","","","",""
"230","","image-button-response","119","1729414","0.0-119.0","A38N2MBXP7IOPS","img_art/27.jpg","5","","","","","","","","","","","","","","","","","","","","","","","","",""
"2638","","image-button-response","120","1732054","0.0-120.0-0.0","A38N2MBXP7IOPS","img_art/27.jpg","1","","","","","","","","","","","","","","","","","","","","","","","","",""
"8372","","image-button-response","121","1740430","0.0-121.0-0.0","A38N2MBXP7IOPS","img_art/27.jpg","2","","","","","","","","","","","","","","","","","","","","","","","","",""
"null","","html-keyboard-response","122","1740931","0.0-122.0","A38N2MBXP7IOPS","<p style=""font-size: 48px;"">+</p>","","","","","null","allTrialResponses","500","1","11","img_art/27.jpg","50","It reminds me of Fall with the colors and style.","Michaela,Shelby,Kelly,Kimberly,Alexandra,Makayla","It looks like a kid colored a picture and an adult added to it,19,260,20","The colors in this one are wonderful,20,240,20","The green stick drawings or whatever they are ruin it for me.,-23,220,20","Nothing stands out,-23,260,20","This is ugly and looks like a child did this,-36,60,20","Calming sky , relaxing,23,80,20","Makayla","Calming sky , relaxing,23,80,20","Shelby","The colors in this one are wonderful,20,240,20","Kelly","The green stick drawings or whatever they are ruin it for me.,-23,220,20","0"
"14725","","survey-text","123","1755663","0.0-123.0-0.0","A38N2MBXP7IOPS","","","","{""Q0"":""It looks angry and rage filled.""}","","","","","","","","","","","","","","","","","","","","","","",""
"4473.60000000149","","image-slider-response","124","1760139","0.0-124.0","A38N2MBXP7IOPS","","","","","22","","","","","","","","","","","","","","","","","","","","","",""
"4759","","image-button-response","125","1765146","0.0-125.0","A38N2MBXP7IOPS","img_art/3.jpg","1","","","","","","","","","","","","","","","","","","","","","","","","",""
"1047","","image-button-response","126","1766195","0.0-126.0","A38N2MBXP7IOPS","img_art/3.jpg","1","","","","","","","","","","","","","","","","","","","","","","","","",""
"6083","","image-button-response","127","1772281","0.0-127.0-0.0","A38N2MBXP7IOPS","img_art/3.jpg","5","","","","","","","","","","","","","","","","","","","","","","","","",""
"7683","","image-button-response","128","1779967","0.0-128.0-0.0","A38N2MBXP7IOPS","img_art/3.jpg","4","","","","","","","","","","","","","","","","","","","","","","","","",""
"null","","html-keyboard-response","129","1780973","0.0-129.0","A38N2MBXP7IOPS","<p style=""font-size: 48px;"">+</p>","","","","","null","allTrialResponses","1000","1","12","img_art/3.jpg","22","It looks angry and rage filled.","Vanessa,Shelby,Kelly,Angelica,Emily,Makayla","It makes me think of just an angry scribble. There's no beauty to it for me.,-50,380,20","This makes me feel a bit disturbed,-35,240,20","Reminds me of blood.,-28,220,20","This is angry and childish looking.,-49,280,20","Looks like someone mentalyl unstable drew and is ready to go a a killing spree.,-50,40,20","Looks like blood scribbled on walls,-20,80,20","Shelby","This makes me feel a bit disturbed,-35,240,20","Makayla","Looks like blood scribbled on walls,-20,80,20","Emily","Looks like someone mentalyl unstable drew and is ready to go a a killing spree.,-50,40,20","0"
"24548","","survey-text","130","1805526","0.0-130.0-0.0","A38N2MBXP7IOPS","","","","{""Q0"":""I like the colors and the perspective.""}","","","","","","","","","","","","","","","","","","","","","","",""
"4139.5","","image-slider-response","131","1809667","0.0-131.0","A38N2MBXP7IOPS","","","","","50","","","","","","","","","","","","","","","","","","","","","",""
"1758","","image-button-response","132","1814674","0.0-132.0","A38N2MBXP7IOPS","img_art/21.jpg","0","","","","","","","","","","","","","","","","","","","","","","","","",""
"1530","","image-button-response","133","1816207","0.0-133.0","A38N2MBXP7IOPS","img_art/21.jpg","0","","","","","","","","","","","","","","","","","","","","","","","","",""
"9124","","image-button-response","134","1825334","0.0-134.0-0.0","A38N2MBXP7IOPS","img_art/21.jpg","1","","","","","","","","","","","","","","","","","","","","","","","","",""
"1216","","image-button-response","135","1826554","0.0-135.0-0.0","A38N2MBXP7IOPS","img_art/21.jpg","3","","","","","","","","","","","","","","","","","","","","","","","","",""
"null","","html-keyboard-response","136","1828060","0.0-136.0","A38N2MBXP7IOPS","<p style=""font-size: 48px;"">+</p>","","","","","null","allTrialResponses","1500","1","13","img_art/21.jpg","50","I like the colors and the perspective.","Autumn,Shelby,Alicia,Catherine,Emily,Makayla","Amazing colors.,34,340,20","Very calming and soft, makes me feel good,31,240,20","Don't know why I like it, cant describe, maybe many landscapes?,47,120,20","Nature, water, ever changing. Cold then warm. Reaction is mostly positive and some negative,30,160,20","What's the point?,-30,40,20","I like the two sides meeting, like a movie scene,15,80,20","Autumn","Amazing colors.,34,340,20","Shelby","Very calming and soft, makes me feel good,31,240,20","Catherine","Nature, water, ever changing. Cold then warm. Reaction is mostly positive and some negative,30,160,20","0"
"13425","","survey-text","137","1841489","0.0-137.0-0.0","A38N2MBXP7IOPS","","","","{""Q0"":""I like the use of bold colors.""}","","","","","","","","","","","","","","","","","","","","","","",""
"3965.0999999996275","","image-slider-response","138","1845457","0.0-138.0","A38N2MBXP7IOPS","","","","","19","","","","","","","","","","","","","","","","","","","","","",""
"null","","image-button-response","139","1850463","0.0-139.0","A38N2MBXP7IOPS","img_art/22.jpg","null","","","","","","","","","","","","","","","","","","","","","","","","",""
"842","","image-button-response","140","1851307","0.0-140.0","A38N2MBXP7IOPS","img_art/22.jpg","2","","","","","","","","","","","","","","","","","","","","","","","","",""
"6901","","image-button-response","141","1858211","0.0-141.0-0.0","A38N2MBXP7IOPS","img_art/22.jpg","4","","","","","","","","","","","","","","","","","","","","","","","","",""
"673","","image-button-response","142","1858887","0.0-142.0-0.0","A38N2MBXP7IOPS","img_art/22.jpg","3","","","","","","","","","","","","","","","","","","","","","","","","",""
"null","","html-keyboard-response","143","1859388","0.0-143.0","A38N2MBXP7IOPS","<p style=""font-size: 48px;"">+</p>","","","","","null","allTrialResponses","500","1","14","img_art/22.jpg","19","I like the use of bold colors.","Autumn,Shelby,Sophia,Catherine,Sierra,Michelle","Same az the last one?,-49,340,20","This painting has a very nostalgic feel,20,240,20","I like this one. There is a lot to see if you keep looking for it.,27,280,20","Scary monsters lurking causing confusion.,-40,160,20","colorful. but not much happening,1,260,20","Not a huge fan of the blocks, also very abstract, I have no idea what it is,8,280,20","Sophia","I like this one. There is a lot to see if you keep looking for it.,27,280,20","Sierra","colorful. but not much happening,1,260,20","Catherine","Scary monsters lurking causing confusion.,-40,160,20","0"
"16731","","survey-text","144","1876126","0.0-144.0-0.0","A38N2MBXP7IOPS","","","","{""Q0"":""This is calming and reminds me of a waterfall.""}","","","","","","","","","","","","","","","","","","","","","","",""
"3589.5","","image-slider-response","145","1879717","0.0-145.0","A38N2MBXP7IOPS","","","","","41","","","","","","","","","","","","","","","","","","","","","",""
"4446","","image-button-response","146","1884720","0.0-146.0","A38N2MBXP7IOPS","img_art/24.jpg","3","","","","","","","","","","","","","","","","","","","","","","","","",""
"2450","","image-button-response","147","1887172","0.0-147.0","A38N2MBXP7IOPS","img_art/24.jpg","3","","","","","","","","","","","","","","","","","","","","","","","","",""
"2094","","image-button-response","148","1889270","0.0-148.0-0.0","A38N2MBXP7IOPS","img_art/24.jpg","4","","","","","","","","","","","","","","","","","","","","","","","","",""
"4631","","image-button-response","149","1893904","0.0-149.0-0.0","A38N2MBXP7IOPS","img_art/24.jpg","5","","","","","","","","","","","","","","","","","","","","","","","","",""
"null","","html-keyboard-response","150","1894910","0.0-150.0","A38N2MBXP7IOPS","<p style=""font-size: 48px;"">+</p>","","","","","null","allTrialResponses","1000","1","15","img_art/24.jpg","41","This is calming and reminds me of a waterfall.","Brooke,Kayla,Sophia,Catherine,Sierra,Kaitlin","Mountain stream pineapple texture?,30,60,20","It looks like a poor dead bunny in a field of flowers. I don't want the bunny to be dead.,-37,180,20","Hmm. Don't know what to make of this one.,1,280,20","Nature, Peace, connected.,50,160,20","i like that the water seems in motion,6,260,20","Aww. I love the peace brought by this picture.,40,60,20","Catherine","Nature, Peace, connected.,50,160,20","Sierra","i like that the water seems in motion,6,260,20","Kaitlin","Aww. I love the peace brought by this picture.,40,60,20","0"
"4923","","survey-text","151","1899841","0.0-151.0-0.0","A38N2MBXP7IOPS","","","","{""Q0"":""course""}","","","","","","","","","","","","","","","","","","","","","","",""
"19145","","survey-text","152","1918989","0.0-152.0-0.0","A38N2MBXP7IOPS","","","","{""Q0"":""I don't like the colors that look like mold.""}","","","","","","","","","","","","","","","","","","","","","","",""
"3827.9000000003725","","image-slider-response","153","1922818","0.0-153.0","A38N2MBXP7IOPS","","","","","-50","","","","","","","","","","","","","","","","","","","","","",""
"2678","","image-button-response","154","1927821","0.0-154.0","A38N2MBXP7IOPS","img_art/28.jpg","0","","","","","","","","","","","","","","","","","","","","","","","","",""
"943","","image-button-response","155","1928767","0.0-155.0","A38N2MBXP7IOPS","img_art/28.jpg","0","","","","","","","","","","","","","","","","","","","","","","","","",""
"7726","","image-button-response","156","1936495","0.0-156.0-0.0","A38N2MBXP7IOPS","img_art/28.jpg","5","","","","","","","","","","","","","","","","","","","","","","","","",""
"1958","","image-button-response","157","1938457","0.0-157.0-0.0","A38N2MBXP7IOPS","img_art/28.jpg","1","","","","","","","","","","","","","","","","","","","","","","","","",""
"null","","html-keyboard-response","158","1938958","0.0-158.0","A38N2MBXP7IOPS","<p style=""font-size: 48px;"">+</p>","","","","","null","allTrialResponses","500","1","16","img_art/28.jpg","-50","I don't like the colors that look like mold.","Gabriela,Christina,Dominique,Catherine,Sierra,Kaitlin","The brown and green colors used look dull and unappealing,-30,140,20","very blah colors and it's not fun,-27,240,20","This is one of my favorites. It says to me to take time for people,37,400,20","A mom protecting her child because something scary, (perhaps imaginary) wants to take the child.,-10,160,20","i like the colors and the shapes look like people,20,260,20","i'm not too impressed with this one.,-10,60,20","Gabriela","The brown and green colors used look dull and unappealing,-30,140,20","Kaitlin","i'm not too impressed with this one.,-10,60,20","Christina","very blah colors and it's not fun,-27,240,20","0"
"15128","","survey-text","159","1954092","0.0-159.0-0.0","A38N2MBXP7IOPS","","","","{""Q0"":""It's vibrant but also looks childish.""}","","","","","","","","","","","","","","","","","","","","","","",""
"4408.300000000745","","image-slider-response","160","1958502","0.0-160.0","A38N2MBXP7IOPS","","","","","-28","","","","","","","","","","","","","","","","","","","","","",""
"4117","","image-button-response","161","1963507","0.0-161.0","A38N2MBXP7IOPS","img_art/30.jpg","1","","","","","","","","","","","","","","","","","","","","","","","","",""
"1055","","image-button-response","162","1964564","0.0-162.0","A38N2MBXP7IOPS","img_art/30.jpg","1","","","","","","","","","","","","","","","","","","","","","","","","",""
"2643","","image-button-response","163","1967210","0.0-163.0-0.0","A38N2MBXP7IOPS","img_art/30.jpg","2","","","","","","","","","","","","","","","","","","","","","","","","",""
"2158","","image-button-response","164","1969372","0.0-164.0-0.0","A38N2MBXP7IOPS","img_art/30.jpg","4","","","","","","","","","","","","","","","","","","","","","","","","",""
"null","","html-keyboard-response","165","1970876","0.0-165.0","A38N2MBXP7IOPS","<p style=""font-size: 48px;"">+</p>","","","","","null","allTrialResponses","1500","1","17","img_art/30.jpg","-28","It's vibrant but also looks childish.","Gabriela,Christina,Kaylee,Jessica,Gabrielle,Kaitlin","I like the strong lines or brush strokes. It looks modern and bold,21,140,20","it looks like some thing I could make it my garage,-18,240,20","i cant really get it,-35,200,20","Looks cool , but no meaning,1,400,20","looks very childish, like your kid did it,-33,160,20","the different roads to take in life,10,60,20","Christina","it looks like some thing I could make it my garage,-18,240,20","Kaylee","i cant really get it,-35,200,20","Gabrielle","looks very childish, like your kid did it,-33,160,20","0"
"17370","","survey-text","166","1988250","0.0-166.0-0.0","A38N2MBXP7IOPS","","","","{""Q0"":""I like the cool colors and the vibrant movement.""}","","","","","","","","","","","","","","","","","","","","","","",""
"4184.0999999996275","","image-slider-response","167","1992437","0.0-167.0","A38N2MBXP7IOPS","","","","","50","","","","","","","","","","","","","","","","","","","","","",""
"1864","","image-button-response","168","1997443","0.0-168.0","A38N2MBXP7IOPS","img_art/13.jpg","0","","","","","","","","","","","","","","","","","","","","","","","","",""
"1001","","image-button-response","169","1998447","0.0-169.0","A38N2MBXP7IOPS","img_art/13.jpg","0","","","","","","","","","","","","","","","","","","","","","","","","",""
"2120","","image-button-response","170","2000569","0.0-170.0-0.0","A38N2MBXP7IOPS","img_art/13.jpg","3","","","","","","","","","","","","","","","","","","","","","","","","",""
"9925","","image-button-response","171","2010497","0.0-171.0-0.0","A38N2MBXP7IOPS","img_art/13.jpg","4","","","","","","","","","","","","","","","","","","","","","","","","",""
"null","","html-keyboard-response","172","2011002","0.0-172.0","A38N2MBXP7IOPS","<p style=""font-size: 48px;"">+</p>","","","","","null","allTrialResponses","500","1","18","img_art/13.jpg","50","I like the cool colors and the vibrant movement.","Ashley,Christina,Kaylee,Sabrina,Gabrielle,Kathryn","AWESOME! Pollack but with more direction.,32,320,20","i like the colors but it looks like something that would hang in a hotel,18,240,20","its crazy to the point that i cant get it,-28,200,20","I love the edgy nature,50,120,20","kind of like the pattern and colors but don't love it,13,160,20","Reminds me of depression anxiety, but negativity is dampened by motion. It's trying to release itself through expression.,-10,140,20","Ashley","AWESOME! Pollack but with more direction.,32,320,20","Sabrina","I love the edgy nature,50,120,20","Gabrielle","kind of like the pattern and colors but don't love it,13,160,20","0"
"21493","","survey-text","173","2032501","0.0-173.0-0.0","A38N2MBXP7IOPS","","","","{""Q0"":""I like the color scheme which is cool yet angry.""}","","","","","","","","","","","","","","","","","","","","","","",""
"4075.9000000003725","","image-slider-response","174","2036580","0.0-174.0","A38N2MBXP7IOPS","","","","","24","","","","","","","","","","","","","","","","","","","","","",""
"null","","image-button-response","175","2041582","0.0-175.0","A38N2MBXP7IOPS","img_art/2.jpg","null","","","","","","","","","","","","","","","","","","","","","","","","",""
"2115","","image-button-response","176","2043700","0.0-176.0","A38N2MBXP7IOPS","img_art/2.jpg","5","","","","","","","","","","","","","","","","","","","","","","","","",""
"2559","","image-button-response","177","2046262","0.0-177.0-0.0","A38N2MBXP7IOPS","img_art/2.jpg","0","","","","","","","","","","","","","","","","","","","","","","","","",""
"703","","image-button-response","178","2046968","0.0-178.0-0.0","A38N2MBXP7IOPS","img_art/2.jpg","1","","","","","","","","","","","","","","","","","","","","","","","","",""
"null","","html-keyboard-response","179","2047974","0.0-179.0","A38N2MBXP7IOPS","<p style=""font-size: 48px;"">+</p>","","","","","null","allTrialResponses","1000","1","19","img_art/2.jpg","24","I like the color scheme which is cool yet angry.","Ashley,Lindsey,Diana,Sabrina,Gabrielle,Chelsea","I think I can make out a face in there.,25,320,20","Not a fan of the colors or the style.,-31,400,20","I think I see people sitting in lawn chairs in a circle watching an event. Not really sure so I rated it lower.,-35,380,20","I dont like the expression of this,-19,120,20","doctor's office art work, nice colors and not offensive,23,160,20","Not sure what is happening. I'm not a big fan of the colors but they don't bother me either.,1,180,20","Chelsea","Not sure what is happening. I'm not a big fan of the colors but they don't bother me either.,1,180,20","Ashley","I think I can make out a face in there.,25,320,20","Lindsey","Not a fan of the colors or the style.,-31,400,20","0"
"20968","","survey-text","180","2068946","0.0-180.0-0.0","A38N2MBXP7IOPS","","","","{""Q0"":""It's very foreboding and dramatic.""}","","","","","","","","","","","","","","","","","","","","","","",""
"4830","","image-slider-response","181","2073778","0.0-181.0","A38N2MBXP7IOPS","","","","","31","","","","","","","","","","","","","","","","","","","","","",""
"2607","","image-button-response","182","2078785","0.0-182.0","A38N2MBXP7IOPS","img_art/8.jpg","0","","","","","","","","","","","","","","","","","","","","","","","","",""
"1583","","image-button-response","183","2080371","0.0-183.0","A38N2MBXP7IOPS","img_art/8.jpg","0","","","","","","","","","","","","","","","","","","","","","","","","",""
"4938","","image-button-response","184","2085311","0.0-184.0-0.0","A38N2MBXP7IOPS","img_art/8.jpg","3","","","","","","","","","","","","","","","","","","","","","","","","",""
"5268","","image-button-response","185","2090583","0.0-185.0-0.0","A38N2MBXP7IOPS","img_art/8.jpg","5","","","","","","","","","","","","","","","","","","","","","","","","",""
"null","","html-keyboard-response","186","2091085","0.0-186.0","A38N2MBXP7IOPS","<p style=""font-size: 48px;"">+</p>","","","","","null","allTrialResponses","500","1","20","img_art/8.jpg","31","It's very foreboding and dramatic.","Ashley,Lindsey,Mackenzie,Megan,Angela,Chelsea","Escher? Dali? Could be their lovechild?,50,320,20","Pleasant colors, lots of interest. Not sure what's going on but I like it.,20,400,20","The different shapes are fun to look for.,30,20,20","Cortez's influence with fair color choices,10,200,20","Like the colors and the energy, but the face feels jarring to me,13,260,20","It looks like it took a lot of time to complete.,34,180,20","Ashley","Escher? Dali? Could be their lovechild?,50,320,20","Megan","Cortez's influence with fair color choices,10,200,20","Chelsea","It looks like it took a lot of time to complete.,34,180,20","0"
"4437","","survey-text","187","2095534","0.0-187.0-0.0","A38N2MBXP7IOPS","","","","{""Q0"":""we""}","","","","","","","","","","","","","","","","","","","","","","",""
"26193","","survey-text","188","2121729","0.0-188.0-0.0","A38N2MBXP7IOPS","","","","{""Q0"":""The colors look like mud. It's boring for me.""}","","","","","","","","","","","","","","","","","","","","","","",""
"4263.5","","image-slider-response","189","2125995","0.0-189.0","A38N2MBXP7IOPS","","","","","-50","","","","","","","","","","","","","","","","","","","","","",""
"null","","image-button-response","190","2131002","0.0-190.0","A38N2MBXP7IOPS","img_art/29.jpg","null","","","","","","","","","","","","","","","","","","","","","","","","",""
"4161","","image-button-response","191","2135166","0.0-191.0","A38N2MBXP7IOPS","img_art/29.jpg","4","","","","","","","","","","","","","","","","","","","","","","","","",""
"1481","","image-button-response","192","2136650","0.0-192.0-0.0","A38N2MBXP7IOPS","img_art/29.jpg","5","","","","","","","","","","","","","","","","","","","","","","","","",""
"4150","","image-button-response","193","2140803","0.0-193.0-0.0","A38N2MBXP7IOPS","img_art/29.jpg","1","","","","","","","","","","","","","","","","","","","","","","","","",""
"null","","html-keyboard-response","194","2142307","0.0-194.0","A38N2MBXP7IOPS","<p style=""font-size: 48px;"">+</p>","","","","","null","allTrialResponses","1500","1","21","img_art/29.jpg","-50","The colors look like mud. It's boring for me.","Ashley,Jennifer,Rebecca,Megan,Claire,Chelsea","It that an actual PAINTBUSH! Love it.,50,320,20","Very interesting composition,41,380,20","love the texture, i don't know, i just really like it (and the paintbrush adds a nice touch),44,100,20","Pinball meets a dark dream meets whale alien, drab,13,200,20","interesting, but I wouldn't put it on my wall,8,260,20","It is intriguing but I don't like the red X.,6,180,20","Claire","interesting, but I wouldn't put it on my wall,8,260,20","Chelsea","It is intriguing but I don't like the red X.,6,180,20","Jennifer","Very interesting composition,41,380,20","0"
"15715","","survey-text","195","2158028","0.0-195.0-0.0","A38N2MBXP7IOPS","","","","{""Q0"":""The colors look like a sunset over the water.""}","","","","","","","","","","","","","","","","","","","","","","",""
"3470.2000000011176","","image-slider-response","196","2161501","0.0-196.0","A38N2MBXP7IOPS","","","","","30","","","","","","","","","","","","","","","","","","","","","",""
"1874","","image-button-response","197","2166507","0.0-197.0","A38N2MBXP7IOPS","img_art/1.jpg","0","","","","","","","","","","","","","","","","","","","","","","","","",""
"928","","image-button-response","198","2167438","0.0-198.0","A38N2MBXP7IOPS","img_art/1.jpg","0","","","","","","","","","","","","","","","","","","","","","","","","",""
"1226","","image-button-response","199","2168667","0.0-199.0-0.0","A38N2MBXP7IOPS","img_art/1.jpg","2","","","","","","","","","","","","","","","","","","","","","","","","",""
"1629","","image-button-response","200","2170298","0.0-200.0-0.0","A38N2MBXP7IOPS","img_art/1.jpg","3","","","","","","","","","","","","","","","","","","","","","","","","",""
"null","","html-keyboard-response","201","2170800","0.0-201.0","A38N2MBXP7IOPS","<p style=""font-size: 48px;"">+</p>","","","","","null","allTrialResponses","500","1","22","img_art/1.jpg","30","The colors look like a sunset over the water.","Alexandria,Jennifer,Alexa,Victoria,Claire,Chelsea","it is very colorful and makes me happy,44,80,20","Bright and colorful without being overpowering,32,380,20","The blend of colors are gorgeous and reminds me of fall,32,40,20","love how the colors blend,42,400,20","the colors are nice,8,260,20","The colors are a little too intense.,1,180,20","Alexandria","it is very colorful and makes me happy,44,80,20","Alexa","The blend of colors are gorgeous and reminds me of fall,32,40,20","Victoria","love how the colors blend,42,400,20","0"
"19622","","survey-text","202","2190428","0.0-202.0-0.0","A38N2MBXP7IOPS","","","","{""Q0"":""It reminds me of Death in the snow.""}","","","","","","","","","","","","","","","","","","","","","","",""
"4491.5","","image-slider-response","203","2194922","0.0-203.0","A38N2MBXP7IOPS","","","","","39","","","","","","","","","","","","","","","","","","","","","",""
"3784","","image-button-response","204","2199926","0.0-204.0","A38N2MBXP7IOPS","img_art/18.jpg","1","","","","","","","","","","","","","","","","","","","","","","","","",""
"3053","","image-button-response","205","2202981","0.0-205.0","A38N2MBXP7IOPS","img_art/18.jpg","1","","","","","","","","","","","","","","","","","","","","","","","","",""
"3604","","image-button-response","206","2206588","0.0-206.0-0.0","A38N2MBXP7IOPS","img_art/18.jpg","4","","","","","","","","","","","","","","","","","","","","","","","","",""
"3313","","image-button-response","207","2209904","0.0-207.0-0.0","A38N2MBXP7IOPS","img_art/18.jpg","2","","","","","","","","","","","","","","","","","","","","","","","","",""
"null","","html-keyboard-response","208","2210407","0.0-208.0","A38N2MBXP7IOPS","<p style=""font-size: 48px;"">+</p>","","","","","null","allTrialResponses","500","1","23","img_art/18.jpg","39","It reminds me of Death in the snow.","Alexandria,Anna,Alexa,Victoria,Olivia,Sydney","the harsh lines with the smooth lines makes me think of wild animals,20,80,20","I could spend a long time looking at it and see different things in the shapes.,21,300,20","Very wild and abstract. I love it and would definitely hang this up in my home,50,40,20","Makes me think of stormy oceans,20,400,20","death rides in life,-25,40,20","I like the colors being used, but I don't like the chaos in the middle of it.,20,320,20","Anna","I could spend a long time looking at it and see different things in the shapes.,21,300,20","Olivia","death rides in life,-25,40,20","Alexa","Very wild and abstract. I love it and would definitely hang this up in my home,50,40,20","0"
"19017","","survey-text","209","2229430","0.0-209.0-0.0","A38N2MBXP7IOPS","","","","{""Q0"":""It's interesting but simple. I like the colors.""}","","","","","","","","","","","","","","","","","","","","","","",""
"3711.89999999851","","image-slider-response","210","2233144","0.0-210.0","A38N2MBXP7IOPS","","","","","14","","","","","","","","","","","","","","","","","","","","","",""
"3898","","image-button-response","211","2238148","0.0-211.0","A38N2MBXP7IOPS","img_art/5.jpg","1","","","","","","","","","","","","","","","","","","","","","","","","",""
"1215","","image-button-response","212","2239366","0.0-212.0","A38N2MBXP7IOPS","img_art/5.jpg","2","","","","","","","","","","","","","","","","","","","","","","","","",""
"918","","image-button-response","213","2240287","0.0-213.0-0.0","A38N2MBXP7IOPS","img_art/5.jpg","1","","","","","","","","","","","","","","","","","","","","","","","","",""
"4123","","image-button-response","214","2244415","0.0-214.0-0.0","A38N2MBXP7IOPS","img_art/5.jpg","3","","","","","","","","","","","","","","","","","","","","","","","","",""
"null","","html-keyboard-response","215","2244917","0.0-215.0","A38N2MBXP7IOPS","<p style=""font-size: 48px;"">+</p>","","","","","null","allTrialResponses","500","1","24","img_art/5.jpg","14","It's interesting but simple. I like the colors.","Haley,Anna,Alexa,Jamie,Olivia,Amy","I'm confused by what I am looking at,-3,220,20","It's kind of boring.,-20,300,20","It's okay. Don't hate it but don't love it either,0,40,20","Don't really see it and yellow/pink don't go well together,-35,320,20","a brush in time,-14,40,20","Nearly white background gives a lack of context. Questionable skills,-45,220,20","Alexa","It's okay. Don't hate it but don't love it either,0,40,20","Anna","It's kind of boring.,-20,300,20","Jamie","Don't really see it and yellow/pink don't go well together,-35,320,20","0"
"19446","","survey-text","216","2264370","0.0-216.0-0.0","A38N2MBXP7IOPS","","","","{""Q0"":""I can see Ophelia in the water. I like this piece.""}","","","","","","","","","","","","","","","","","","","","","","",""
"4273.199999999255","","image-slider-response","217","2268645","0.0-217.0","A38N2MBXP7IOPS","","","","","50","","","","","","","","","","","","","","","","","","","","","",""
"4658","","image-button-response","218","2273653","0.0-218.0","A38N2MBXP7IOPS","img_art/9.jpg","2","","","","","","","","","","","","","","","","","","","","","","","","",""
"3991","","image-button-response","219","2277646","0.0-219.0","A38N2MBXP7IOPS","img_art/9.jpg","2","","","","","","","","","","","","","","","","","","","","","","","","",""
"2899","","image-button-response","220","2280548","0.0-220.0-0.0","A38N2MBXP7IOPS","img_art/9.jpg","5","","","","","","","","","","","","","","","","","","","","","","","","",""
"7440","","image-button-response","221","2287992","0.0-221.0-0.0","A38N2MBXP7IOPS","img_art/9.jpg","0","","","","","","","","","","","","","","","","","","","","","","","","",""
"null","","html-keyboard-response","222","2288493","0.0-222.0","A38N2MBXP7IOPS","<p style=""font-size: 48px;"">+</p>","","","","","null","allTrialResponses","500","1","25","img_art/9.jpg","50","I can see Ophelia in the water. I like this piece.","Jordan,Anna,Alexa,Jamie,Madison,Leah","I just dont like it, no reaction from me at all,-50,20,20","It looks like a child's crayon drawing.,-10,300,20","It's wild and chaotic but also beautiful and has some kind of calming factor about it,20,40,20","Mash up of colors and designs don't really go together,-5,320,20","No cohesive form whatsoever. Hard pass.,-31,60,20","Depressing to me, like a dark dream,-11,360,20","Alexa","It's wild and chaotic but also beautiful and has some kind of calming factor about it,20,40,20","Leah","Depressing to me, like a dark dream,-11,360,20","Jordan","I just dont like it, no reaction from me at all,-50,20,20","0"
"4969","","survey-text","223","2293475","0.0-223.0-0.0","A38N2MBXP7IOPS","","","","{""Q0"":""table""}","","","","","","","","","","","","","","","","","","","","","","",""
"21414","","survey-text","224","2314891","0.0-224.0-0.0","A38N2MBXP7IOPS","","","","{""Q0"":""It's fresh. It reminds me of an orange with a stem.""}","","","","","","","","","","","","","","","","","","","","","","",""
"4027.0999999996275","","image-slider-response","225","2318921","0.0-225.0","A38N2MBXP7IOPS","","","","","44","","","","","","","","","","","","","","","","","","","","","",""
"4173","","image-button-response","226","2323929","0.0-226.0","A38N2MBXP7IOPS","img_art/6.jpg","1","","","","","","","","","","","","","","","","","","","","","","","","",""
"1634","","image-button-response","227","2325567","0.0-227.0","A38N2MBXP7IOPS","img_art/6.jpg","1","","","","","","","","","","","","","","","","","","","","","","","","",""
"3407","","image-button-response","228","2328977","0.0-228.0-0.0","A38N2MBXP7IOPS","img_art/6.jpg","4","","","","","","","","","","","","","","","","","","","","","","","","",""
"3756","","image-button-response","229","2332736","0.0-229.0-0.0","A38N2MBXP7IOPS","img_art/6.jpg","0","","","","","","","","","","","","","","","","","","","","","","","","",""
"null","","html-keyboard-response","230","2334241","0.0-230.0","A38N2MBXP7IOPS","<p style=""font-size: 48px;"">+</p>","","","","","null","allTrialResponses","1500","1","26","img_art/6.jpg","44","It's fresh. It reminds me of an orange with a stem.","Jordan,Maria,Alexa,Mary,Jasmine,Leah","This is interesting, I feel solitude, and loneliness from this.,13,20,20","intrigues me - not sure what I'm seeing, but I like combination of colour and texture,21,120,20","Too basic for me,-20,40,20","This piece has some emotion of isolation. I like it.,6,180,20","Simple and clean,11,340,20","Boring, looks like a sad tree in wind,-37,360,20","Maria","intrigues me - not sure what I'm seeing, but I like combination of colour and texture,21,120,20","Jasmine","Simple and clean,11,340,20","Jordan","This is interesting, I feel solitude, and loneliness from this.,13,20,20","0"
"28378","","survey-text","231","2362626","0.0-231.0-0.0","A38N2MBXP7IOPS","","","","{""Q0"":""I don't like the background. The white foreground is jarring in contrast.""}","","","","","","","","","","","","","","","","","","","","","","",""
"4045.5","","image-slider-response","232","2366673","0.0-232.0","A38N2MBXP7IOPS","","","","","-44","","","","","","","","","","","","","","","","","","","","","",""
"2963","","image-button-response","233","2371679","0.0-233.0","A38N2MBXP7IOPS","img_art/23.jpg","0","","","","","","","","","","","","","","","","","","","","","","","","",""
"1986","","image-button-response","234","2373668","0.0-234.0","A38N2MBXP7IOPS","img_art/23.jpg","4","","","","","","","","","","","","","","","","","","","","","","","","",""
"2804","","image-button-response","235","2376474","0.0-235.0-0.0","A38N2MBXP7IOPS","img_art/23.jpg","0","","","","","","","","","","","","","","","","","","","","","","","","",""
"1632","","image-button-response","236","2378111","0.0-236.0-0.0","A38N2MBXP7IOPS","img_art/23.jpg","5","","","","","","","","","","","","","","","","","","","","","","","","",""
"null","","html-keyboard-response","237","2378613","0.0-237.0","A38N2MBXP7IOPS","<p style=""font-size: 48px;"">+</p>","","","","","null","allTrialResponses","500","1","27","img_art/23.jpg","-44","I don't like the background. The white foreground is jarring in contrast.","Jordan,Maria,Leslie,Cassidy,Jasmine,Hailey","NO, I don't get it,-50,20,20","the pattern of colours imbues in me a sense of infinity, which I find soothing,10,120,20","It reminds me of being in a crowded place.,-10,380,20","I like the colors, the tiny dots, and the contrast between the white and background,28,140,20","Mostly neutral but a bit too guady with the brash colors,-6,340,20","cold and dark feeling,-27,200,20","Jasmine","Mostly neutral but a bit too guady with the brash colors,-6,340,20","Jordan","NO, I don't get it,-50,20,20","Hailey","cold and dark feeling,-27,200,20","0"
"21520","","survey-text","238","2400141","0.0-238.0-0.0","A38N2MBXP7IOPS","","","","{""Q0"":""I see a hangman's noose and it gives bad vibes to me.""}","","","","","","","","","","","","","","","","","","","","","","",""
"3969.199999999255","","image-slider-response","239","2404112","0.0-239.0","A38N2MBXP7IOPS","","","","","-50","","","","","","","","","","","","","","","","","","","","","",""
"3548","","image-button-response","240","2409119","0.0-240.0","A38N2MBXP7IOPS","img_art/4.jpg","0","","","","","","","","","","","","","","","","","","","","","","","","",""
"1103","","image-button-response","241","2410225","0.0-241.0","A38N2MBXP7IOPS","img_art/4.jpg","0","","","","","","","","","","","","","","","","","","","","","","","","",""
"4850","","image-button-response","242","2415077","0.0-242.0-0.0","A38N2MBXP7IOPS","img_art/4.jpg","4","","","","","","","","","","","","","","","","","","","","","","","","",""
"1033","","image-button-response","243","2416113","0.0-243.0-0.0","A38N2MBXP7IOPS","img_art/4.jpg","5","","","","","","","","","","","","","","","","","","","","","","","","",""
"null","","html-keyboard-response","244","2416620","0.0-244.0","A38N2MBXP7IOPS","<p style=""font-size: 48px;"">+</p>","","","","","null","allTrialResponses","500","1","28","img_art/4.jpg","-50","I see a hangman's noose and it gives bad vibes to me.","Jordan,Stephanie,Margaret,Alexis,Jasmine,Hailey","The colors remind me of mcdonalds,-33,20,20","It looks like a hand someone scribbled over,-30,300,20","doesn't do anything for me,-4,100,20","Really don't like this. Kindergarten art, sorry.,-50,100,20","It's quite meh to me,0,340,20","ugly puke yellow is cold and dark,-29,200,20","Jordan","The colors remind me of mcdonalds,-33,20,20","Jasmine","It's quite meh to me,0,340,20","Hailey","ugly puke yellow is cold and dark,-29,200,20","0"
"21134","","survey-text","245","2437761","0.0-245.0-0.0","A38N2MBXP7IOPS","","","","{""Q0"":""It looks like a plant growing. I like it.""}","","","","","","","","","","","","","","","","","","","","","","",""
"4000.5999999996275","","image-slider-response","246","2441764","0.0-246.0","A38N2MBXP7IOPS","","","","","35","","","","","","","","","","","","","","","","","","","","","",""
"3079","","image-button-response","247","2446770","0.0-247.0","A38N2MBXP7IOPS","img_art/14.jpg","0","","","","","","","","","","","","","","","","","","","","","","","","",""
"1356","","image-button-response","248","2448128","0.0-248.0","A38N2MBXP7IOPS","img_art/14.jpg","0","","","","","","","","","","","","","","","","","","","","","","","","",""
"2824","","image-button-response","249","2450956","0.0-249.0-0.0","A38N2MBXP7IOPS","img_art/14.jpg","4","","","","","","","","","","","","","","","","","","","","","","","","",""
"3445","","image-button-response","250","2454404","0.0-250.0-0.0","A38N2MBXP7IOPS","img_art/14.jpg","1","","","","","","","","","","","","","","","","","","","","","","","","",""
"null","","html-keyboard-response","251","2455409","0.0-251.0","A38N2MBXP7IOPS","<p style=""font-size: 48px;"">+</p>","","","","","null","allTrialResponses","1000","1","29","img_art/14.jpg","35","It looks like a plant growing. I like it.","Jordan,Rachel,Laura,Courtney,Jasmine,Hailey","this one isn't bad, reminds me a tree that gives life, and people are waiting for someone new to be born,27,20,20","Did not evoke much feeling except confusion. I am not sure what to make of this one.,-20,80,20","feels incomplete, poorly planned/executed,-34,320,20","The pirates ship is sinking.,27,280,20","The colors are nice and it reminds me of a shrub or tree,10,340,20","fuzzy and confused. ok then well,16,200,20","Jordan","this one isn't bad, reminds me a tree that gives life, and people are waiting for someone new to be born,27,20,20","Jasmine","The colors are nice and it reminds me of a shrub or tree,10,340,20","Rachel","Did not evoke much feeling except confusion. I am not sure what to make of this one.,-20,80,20","0"
"29928","","survey-text","252","2485343","0.0-252.0-0.0","A38N2MBXP7IOPS","","","","{""Q0"":""It looks like people being contained as viewed from above. It seems aggressive.""}","","","","","","","","","","","","","","","","","","","","","","",""
"5077.4000000003725","","image-slider-response","253","2490422","0.0-253.0","A38N2MBXP7IOPS","","","","","9","","","","","","","","","","","","","","","","","","","","","",""
"4787","","image-button-response","254","2495428","0.0-254.0","A38N2MBXP7IOPS","img_art/15.jpg","3","","","","","","","","","","","","","","","","","","","","","","","","",""
"1544","","image-button-response","255","2496975","0.0-255.0","A38N2MBXP7IOPS","img_art/15.jpg","3","","","","","","","","","","","","","","","","","","","","","","","","",""
"2695","","image-button-response","256","2499673","0.0-256.0-0.0","A38N2MBXP7IOPS","img_art/15.jpg","5","","","","","","","","","","","","","","","","","","","","","","","","",""
"2283","","image-button-response","257","2501959","0.0-257.0-0.0","A38N2MBXP7IOPS","img_art/15.jpg","0","","","","","","","","","","","","","","","","","","","","","","","","",""
"null","","html-keyboard-response","258","2502461","0.0-258.0","A38N2MBXP7IOPS","<p style=""font-size: 48px;"">+</p>","","","","","null","allTrialResponses","500","1","30","img_art/15.jpg","9","It looks like people being contained as viewed from above. It seems aggressive.","Jordan,Rachel,Sarah,Isabella,Jasmine,Sara","I'm just not into it,-5,20,20","Reminds me of blue birds in a tree at night. I love nature.,40,80,20","this is really pretty! i like the pops of blue in all the black,26,180,20","Too intense with the black dotting,-22,280,20","I like it as the colors complement each other well,21,340,20","I don't like the black dots,-19,160,20","Isabella","Too intense with the black dotting,-22,280,20","Sara","I don't like the black dots,-19,160,20","Jordan","I'm just not into it,-5,20,20","0"
"3945","","image-button-response_instructions","259","2506414","0.0-259.0","A38N2MBXP7IOPS","","0","instructions","","","","","","","","","","","","","","","","","","","","","","","",""
"1777","","image-button-response","260","2508198","0.0-260.0","A38N2MBXP7IOPS","","0","","","","","","","","","","","","","","","","","","","","","","","","",""
