"rt","url","trial_type","trial_index","time_elapsed","internal_node_id","participant_id","stimulus","button_pressed","Name","responses","response","key_press","variableName","fixationTime","condition","trial","photo","subjectRating","subjectResponse","agentsNames","agent_1_Response","agent_2_Response","agent_3_Response","agent_4_Response","agent_5_Response","agent_6_Response","kept_1_name","kept_1_response","kept_2_name","kept_2_response","kept_3_name","kept_3_response","errorCounter"
"102162","external_page_harvard.html","external-html","0","102268","0.0-0.0","A3B9M6H2PTCQWX","","","","","","","","","","","","","","","","","","","","","","","","","","",""
"1734","","image-button-response","1","104004","0.0-1.0","A3B9M6H2PTCQWX","","0","","","","","","","","","","","","","","","","","","","","","","","","",""
"1696","","image-button-response","2","105703","0.0-2.0-0.0","A3B9M6H2PTCQWX","","1","phone","","","","","","","","","","","","","","","","","","","","","","","",""
"10505","","survey-text","3","116210","0.0-3.0-0.0","A3B9M6H2PTCQWX","","","","{""Q0"":""A3B9M6H2PTCQWX""}","","","","","","","","","","","","","","","","","","","","","","",""
"107176","","image-button-response_instructions","4","223389","0.0-4.0","A3B9M6H2PTCQWX","","0","instructions","","","","","","","","","","","","","","","","","","","","","","","",""
"133610","","image-button-response_instructions","5","356999","0.0-5.0","A3B9M6H2PTCQWX","img_art/ins/popularity/ins1.png","0","instructions","","","","","","","","","","","","","","","","","","","","","","","",""
"3337","","image-button-response_instructions","6","360336","0.0-6.0","A3B9M6H2PTCQWX","img_art/ins/popularity/ins2.png","0","instructions","","","","","","","","","","","","","","","","","","","","","","","",""
"2628","","image-button-response_instructions","7","362965","0.0-7.0","A3B9M6H2PTCQWX","img_art/ins/popularity/ins2Extreme.png","0","instructions","","","","","","","","","","","","","","","","","","","","","","","",""
"3275","","image-button-response_instructions","8","366241","0.0-8.0","A3B9M6H2PTCQWX","img_art/ins/popularity/ins3KEEPpop.PNG","0","instructions","","","","","","","","","","","","","","","","","","","","","","","",""
"1780","","image-button-response_instructions","9","368021","0.0-9.0","A3B9M6H2PTCQWX","img_art/ins/popularity/ins3ANamepop.PNG","0","instructions","","","","","","","","","","","","","","","","","","","","","","","",""
"2049","","image-button-response_instructions","10","370070","0.0-10.0","A3B9M6H2PTCQWX","img_art/ins/popularity/ins3ARatingpop.png","0","instructions","","","","","","","","","","","","","","","","","","","","","","","",""
"2395","","image-button-response_instructions","11","372465","0.0-11.0","A3B9M6H2PTCQWX","img_art/ins/popularity/ins3ATextpop.png","0","instructions","","","","","","","","","","","","","","","","","","","","","","","",""
"3310","","image-button-response_instructions","12","375776","0.0-12.0","A3B9M6H2PTCQWX","img_art/ins/popularity/ins3ALikespop.png","0","instructions","","","","","","","","","","","","","","","","","","","","","","","",""
"10813","","image-button-response_instructions","13","386590","0.0-13.0","A3B9M6H2PTCQWX","img_art/ins/popularity/ins3KEEPpop.PNG","0","instructions","","","","","","","","","","","","","","","","","","","","","","","",""
"5232","","image-button-response_instructions","14","391822","0.0-14.0","A3B9M6H2PTCQWX","img_art/ins/popularity/ins3_5RED.png","0","instructions","","","","","","","","","","","","","","","","","","","","","","","",""
"128737","","image-button-response_instructions","15","520559","0.0-15.0","A3B9M6H2PTCQWX","img_art/ins/popularity/ins3KEEPpop.PNG","0","instructions","","","","","","","","","","","","","","","","","","","","","","","",""
"7444","","image-button-response_instructions","16","528004","0.0-16.0","A3B9M6H2PTCQWX","img_art/ins/popularity/ins4KEEPpop.PNG","0","instructions","","","","","","","","","","","","","","","","","","","","","","","",""
"1455","","image-button-response_instructions","17","529459","0.0-17.0","A3B9M6H2PTCQWX","img_art/ins/popularity/ins5KEEPpop.PNG","0","instructions","","","","","","","","","","","","","","","","","","","","","","","",""
"1232","","image-button-response_instructions","18","530692","0.0-18.0","A3B9M6H2PTCQWX","","0","instructions","","","","","","","","","","","","","","","","","","","","","","","",""
"5481","","survey-text","19","536191","0.0-19.0-0.0","A3B9M6H2PTCQWX","","","","{""Q0"":""but""}","","","","","","","","","","","","","","","","","","","","","","",""
"9440","","survey-text","20","545632","0.0-20.0-0.0","A3B9M6H2PTCQWX","","","","{""Q0"":""bland""}","","","","","","","","","","","","","","","","","","","","","","",""
"12624","","survey-text","21","562960","0.0-20.1-0.1","A3B9M6H2PTCQWX","","","","{""Q0"":""a dreary foggy road""}","","","","","","","","","","","","","","","","","","","","","","",""
"3633.0999999940395","","image-slider-response","22","566594","0.0-21.0","A3B9M6H2PTCQWX","","","","","-20","","","","","","","","","","","","","","","","","","","","","",""
"null","","image-button-response","23","571596","0.0-22.0","A3B9M6H2PTCQWX","img_art/ins/1.jpg","null","","","","","","","","","","","","","","","","","","","","","","","","",""
"1679","","image-button-response","24","573277","0.0-23.0","A3B9M6H2PTCQWX","img_art/ins/1.jpg","2","","","","","","","","","","","","","","","","","","","","","","","","",""
"3865","","image-button-response","25","577143","0.0-24.0-0.0","A3B9M6H2PTCQWX","img_art/ins/1.jpg","3","","","","","","","","","","","","","","","","","","","","","","","","",""
"1774","","image-button-response","26","578919","0.0-25.0-0.0","A3B9M6H2PTCQWX","img_art/ins/1.jpg","0","","","","","","","","","","","","","","","","","","","","","","","","",""
"null","","html-keyboard-response","27","579421","0.0-26.0","A3B9M6H2PTCQWX","<p style=""font-size: 48px;"">+</p>","","","","","null","allTrialResponses","500","1","-2","img_art/ins/1.jpg","-20","a dreary foggy road","Adam,Alex,Ben,Carl,Daniel,Jack","Seems like doodles,-20,20,20","very creative work.,36,40,20","This color reminds me of poo,-46,60,20","very calming artwork,42,80,20","It looks like a murder scene.,-48,100,20","I like the sophisticated brushwork,40,120,20","Ben","This color reminds me of poo,-46,60,20","Carl","very calming artwork,42,80,20","Adam","Seems like doodles,-20,20,20","0"
"142392","","survey-text","28","721816","0.0-27.0-0.0","A3B9M6H2PTCQWX","","","","{""Q0"":""looks like blocks""}","","","","","","","","","","","","","","","","","","","","","","",""
"3767","","image-slider-response","29","725584","0.0-28.0","A3B9M6H2PTCQWX","","","","","-14","","","","","","","","","","","","","","","","","","","","","",""
"null","","image-button-response","30","730586","0.0-29.0","A3B9M6H2PTCQWX","img_art/ins/2.jpg","null","","","","","","","","","","","","","","","","","","","","","","","","",""
"3933","","image-button-response","31","734520","0.0-30.0","A3B9M6H2PTCQWX","img_art/ins/2.jpg","2","","","","","","","","","","","","","","","","","","","","","","","","",""
"8282","","image-button-response","32","742804","0.0-31.0-0.0","A3B9M6H2PTCQWX","img_art/ins/2.jpg","0","","","","","","","","","","","","","","","","","","","","","","","","",""
"1635","","image-button-response","33","744441","0.0-32.0-0.0","A3B9M6H2PTCQWX","img_art/ins/2.jpg","0","","","","","","","","","","","","","","","","","","","","","","","","",""
"715","","image-button-response","34","748988","0.0-32.1-0.1","A3B9M6H2PTCQWX","img_art/ins/2.jpg","5","","","","","","","","","","","","","","","","","","","","","","","","",""
"null","","html-keyboard-response","35","749489","0.0-33.0","A3B9M6H2PTCQWX","<p style=""font-size: 48px;"">+</p>","","","","","null","allTrialResponses","500","1","-1","img_art/ins/2.jpg","-14","looks like blocks","Adam,James,Ben,Carl,John,Kyle","too much color,-18,20,20","looks too angry,-50,140,20","meaningless painting,-45,60,20","I can feel the artist's passion in it,45,80,20","love the texture of paint,48,160,20","Idk, it is just annoying,-32,180,20","Ben","meaningless painting,-45,60,20","Adam","too much color,-18,20,20","Kyle","Idk, it is just annoying,-32,180,20","2"
"12472","","survey-text","36","761967","0.0-34.0-0.0","A3B9M6H2PTCQWX","","","","{""Q0"":""looks cold and icy""}","","","","","","","","","","","","","","","","","","","","","","",""
"2207","","image-slider-response","37","764175","0.0-35.0","A3B9M6H2PTCQWX","","","","","12","","","","","","","","","","","","","","","","","","","","","",""
"null","","image-button-response","38","769177","0.0-36.0","A3B9M6H2PTCQWX","img_art/ins/3.jpg","null","","","","","","","","","","","","","","","","","","","","","","","","",""
"390","","image-button-response","39","769568","0.0-37.0","A3B9M6H2PTCQWX","img_art/ins/3.jpg","0","","","","","","","","","","","","","","","","","","","","","","","","",""
"6541","","image-button-response","40","776110","0.0-38.0-0.0","A3B9M6H2PTCQWX","img_art/ins/3.jpg","4","","","","","","","","","","","","","","","","","","","","","","","","",""
"1220","","image-button-response","41","777335","0.0-39.0-0.0","A3B9M6H2PTCQWX","img_art/ins/3.jpg","3","","","","","","","","","","","","","","","","","","","","","","","","",""
"null","","html-keyboard-response","42","778336","0.0-40.0","A3B9M6H2PTCQWX","<p style=""font-size: 48px;"">+</p>","","","","","null","allTrialResponses","1000","1","0","img_art/ins/3.jpg","12","looks cold and icy","Adam,Sam,Ben,Mike,Ron,Kyle","My daily routine, it's depressing,-20,20,20","I can feel a rainy day from this painting,18,240,20","This thing gives me anxiety,-41,60,20","enjoy the different shades of blue,22,200,20","It looks depressing,-26,220,20","It looks like a playground for bats,-36,180,20","Adam","My daily routine, it's depressing,-20,20,20","Ron","It looks depressing,-26,220,20","Mike","enjoy the different shades of blue,22,200,20","2"
"6957","","image-button-response_instructions","43","785298","0.0-41.0","A3B9M6H2PTCQWX","","0","instructions","","","","","","","","","","","","","","","","","","","","","","","",""
"10746","","survey-likert","44","796045","0.0-42.0-0.0","A3B9M6H2PTCQWX","","","","{""Q0"":"""",""Q1"":0,""Q2"":1}","","","","","","","","","","","","","","","","","","","","","","",""
"4355","","survey-text","45","800404","0.0-43.0-0.0","A3B9M6H2PTCQWX","","","","{""Q0"":""rock""}","","","","","","","","","","","","","","","","","","","","","","",""
"19680","","survey-text","46","820084","0.0-44.0-0.0","A3B9M6H2PTCQWX","","","","{""Q0"":""a big disaster""}","","","","","","","","","","","","","","","","","","","","","","",""
"2323.899999976158","","image-slider-response","47","822409","0.0-45.0","A3B9M6H2PTCQWX","","","","","27","","","","","","","","","","","","","","","","","","","","","",""
"3408","","image-button-response","48","827427","0.0-46.0","A3B9M6H2PTCQWX","img_art/10.jpg","1","","","","","","","","","","","","","","","","","","","","","","","","",""
"5087","","image-button-response","49","832515","0.0-47.0","A3B9M6H2PTCQWX","img_art/10.jpg","3","","","","","","","","","","","","","","","","","","","","","","","","",""
"1271","","image-button-response","50","833788","0.0-48.0-0.0","A3B9M6H2PTCQWX","img_art/10.jpg","0","","","","","","","","","","","","","","","","","","","","","","","","",""
"2063","","image-button-response","51","835853","0.0-49.0-0.0","A3B9M6H2PTCQWX","img_art/10.jpg","1","","","","","","","","","","","","","","","","","","","","","","","","",""
"null","","html-keyboard-response","52","837355","0.0-50.0","A3B9M6H2PTCQWX","<p style=""font-size: 48px;"">+</p>","","","","","null","allTrialResponses","1500","1","1","img_art/10.jpg","27","a big disaster","Samuel,Thomas,John,Nathan,Jonathan,Aaron","feeling the turmoil and ride,12,400,20","Makes me want to know more about it, and potentially the artist.,20,220,20","Bleak and uninteresting,-10,120,20","Seems very lovecraftian, which I love that style,25,200,20","Too much negative space makes it feel unfinished,-25,140,20","I like how simple but intricate it is.,30,20,20","Nathan","Seems very lovecraftian, which I love that style,25,200,20","Samuel","feeling the turmoil and ride,12,400,20","Thomas","Makes me want to know more about it, and potentially the artist.,20,220,20","2"
"296063","","survey-text","53","1133420","0.0-51.0-0.0","A3B9M6H2PTCQWX","","","","{""Q0"":""sinking""}","","","","","","","","","","","","","","","","","","","","","","",""
"2954.300000011921","","image-slider-response","54","1136376","0.0-52.0","A3B9M6H2PTCQWX","","","","","16","","","","","","","","","","","","","","","","","","","","","",""
"null","","image-button-response","55","1141378","0.0-53.0","A3B9M6H2PTCQWX","img_art/5.jpg","null","","","","","","","","","","","","","","","","","","","","","","","","",""
"3838","","image-button-response","56","1145217","0.0-54.0","A3B9M6H2PTCQWX","img_art/5.jpg","5","","","","","","","","","","","","","","","","","","","","","","","","",""
"3214","","image-button-response","57","1148433","0.0-55.0-0.0","A3B9M6H2PTCQWX","img_art/5.jpg","2","","","","","","","","","","","","","","","","","","","","","","","","",""
"6766","","image-button-response","58","1155201","0.0-56.0-0.0","A3B9M6H2PTCQWX","img_art/5.jpg","3","","","","","","","","","","","","","","","","","","","","","","","","",""
"null","","html-keyboard-response","59","1155702","0.0-57.0","A3B9M6H2PTCQWX","<p style=""font-size: 48px;"">+</p>","","","","","null","allTrialResponses","500","1","2","img_art/5.jpg","16","sinking","Samuel,Thomas,Steven,Nathan,Cody,Bryan","a brush in time,-14,400,20","I'm confused by what I am looking at,-3,220,20","I dont really get anything from this,-25,160,20","Not a fan of the themes,-30,200,20","Kind of ugly ....,-21,180,20","Looks like a yellow plastic trash bag.,-42,400,20","Bryan","Looks like a yellow plastic trash bag.,-42,400,20","Steven","I dont really get anything from this,-25,160,20","Nathan","Not a fan of the themes,-30,200,20","2"
"27318","","survey-text","60","1183028","0.0-58.0-0.0","A3B9M6H2PTCQWX","","","","{""Q0"":""don Quixote ""}","","","","","","","","","","","","","","","","","","","","","","",""
"2327.800000011921","","image-slider-response","61","1185357","0.0-59.0","A3B9M6H2PTCQWX","","","","","19","","","","","","","","","","","","","","","","","","","","","",""
"2213","","image-button-response","62","1190360","0.0-60.0","A3B9M6H2PTCQWX","img_art/18.jpg","1","","","","","","","","","","","","","","","","","","","","","","","","",""
"2229","","image-button-response","63","1192589","0.0-61.0","A3B9M6H2PTCQWX","img_art/18.jpg","0","","","","","","","","","","","","","","","","","","","","","","","","",""
"975","","image-button-response","64","1193566","0.0-62.0-0.0","A3B9M6H2PTCQWX","img_art/18.jpg","1","","","","","","","","","","","","","","","","","","","","","","","","",""
"7057","","image-button-response","65","1200623","0.0-63.0-0.0","A3B9M6H2PTCQWX","img_art/18.jpg","4","","","","","","","","","","","","","","","","","","","","","","","","",""
"null","","html-keyboard-response","66","1201624","0.0-64.0","A3B9M6H2PTCQWX","<p style=""font-size: 48px;"">+</p>","","","","","null","allTrialResponses","1000","1","3","img_art/18.jpg","19","don Quixote ","Spencer,Logan,Steven,Nathan,Jesse,Bryan","I really like it, like hells drivers,43,120,20","Can't tell if I love it or hate it. That response warranted more than neutral so I gave it 20 but not sure,21,360,20","Oh heck yes! I see two warriors riding down from valhalla, awesome painting,50,160,20","Doesn't really speak to me well but I can appreciate it,10,200,20","It reminds me of ghosts on a boat. Makes me nervous.,-27,80,20","First saw sailing ship in bad weather but then saw woman in upper left - not sure what I'm seeing.,21,400,20","Spencer","I really like it, like hells drivers,43,120,20","Logan","Can't tell if I love it or hate it. That response warranted more than neutral so I gave it 20 but not sure,21,360,20","Jesse","It reminds me of ghosts on a boat. Makes me nervous.,-27,80,20","2"
"27935","","survey-text","67","1229563","0.0-65.0-0.0","A3B9M6H2PTCQWX","","","","{""Q0"":""Ren and Stimpy""}","","","","","","","","","","","","","","","","","","","","","","",""
"3033.9000000059605","","image-slider-response","68","1232598","0.0-66.0","A3B9M6H2PTCQWX","","","","","12","","","","","","","","","","","","","","","","","","","","","",""
"null","","image-button-response","69","1237601","0.0-67.0","A3B9M6H2PTCQWX","img_art/28.jpg","null","","","","","","","","","","","","","","","","","","","","","","","","",""
"4675","","image-button-response","70","1242277","0.0-68.0","A3B9M6H2PTCQWX","img_art/28.jpg","5","","","","","","","","","","","","","","","","","","","","","","","","",""
"3342","","image-button-response","71","1245620","0.0-69.0-0.0","A3B9M6H2PTCQWX","img_art/28.jpg","3","","","","","","","","","","","","","","","","","","","","","","","","",""
"1116","","image-button-response","72","1246737","0.0-70.0-0.0","A3B9M6H2PTCQWX","img_art/28.jpg","2","","","","","","","","","","","","","","","","","","","","","","","","",""
"null","","html-keyboard-response","73","1247238","0.0-71.0","A3B9M6H2PTCQWX","<p style=""font-size: 48px;"">+</p>","","","","","null","allTrialResponses","500","1","4","img_art/28.jpg","12","Ren and Stimpy","Spencer,Logan,Richard,Edward,Jesse,Matthew","Too me it's a mish mash, true abstract,-37,120,20","I wish I knew why I liked it, maybes its the pinky tones,36,360,20","bland coloring but pattern interesting,2,340,20","Salvador Dali called and he thinks this looks pretty good,27,60,20","Just all blurs together for me. No substance.,-23,80,20","Normally don't react well to abstract art, but it looks almost like something's there.,28,120,20","Matthew","Normally don't react well to abstract art, but it looks almost like something's there.,28,120,20","Edward","Salvador Dali called and he thinks this looks pretty good,27,60,20","Richard","bland coloring but pattern interesting,2,340,20","2"
"14230","","survey-text","74","1261473","0.0-72.0-0.0","A3B9M6H2PTCQWX","","","","{""Q0"":""Scissorhands""}","","","","","","","","","","","","","","","","","","","","","","",""
"2387.100000023842","","image-slider-response","75","1263861","0.0-73.0","A3B9M6H2PTCQWX","","","","","-16","","","","","","","","","","","","","","","","","","","","","",""
"4429","","image-button-response","76","1268863","0.0-74.0","A3B9M6H2PTCQWX","img_art/4.jpg","5","","","","","","","","","","","","","","","","","","","","","","","","",""
"1900","","image-button-response","77","1270764","0.0-75.0","A3B9M6H2PTCQWX","img_art/4.jpg","5","","","","","","","","","","","","","","","","","","","","","","","","",""
"971","","image-button-response","78","1271736","0.0-76.0-0.0","A3B9M6H2PTCQWX","img_art/4.jpg","3","","","","","","","","","","","","","","","","","","","","","","","","",""
"2416","","image-button-response","79","1274154","0.0-77.0-0.0","A3B9M6H2PTCQWX","img_art/4.jpg","4","","","","","","","","","","","","","","","","","","","","","","","","",""
"null","","html-keyboard-response","80","1274655","0.0-78.0","A3B9M6H2PTCQWX","<p style=""font-size: 48px;"">+</p>","","","","","null","allTrialResponses","500","1","5","img_art/4.jpg","-16","Scissorhands","Colton,Luis,Richard,Edward,Peter,Matthew","I really don't like the colors,-26,220,20","Its just not giving the vibe i should be finding,-31,400,20","too childish, not really art in my world,-50,340,20","It reminds me of something a kid would make for their parents,13,60,20","Looks like poop on walks,-27,320,20","It looks like a hand.,25,120,20","Matthew","It looks like a hand.,25,120,20","Edward","It reminds me of something a kid would make for their parents,13,60,20","Peter","Looks like poop on walks,-27,320,20","2"
"3841","","survey-text","81","1278501","0.0-79.0-0.0","A3B9M6H2PTCQWX","","","","{""Q0"":""sky""}","","","","","","","","","","","","","","","","","","","","","","",""
"19584","","survey-text","82","1298085","0.0-80.0-0.0","A3B9M6H2PTCQWX","","","","{""Q0"":""It's a postcard from surrealism""}","","","","","","","","","","","","","","","","","","","","","","",""
"7646.300000011921","","image-slider-response","83","1305733","0.0-81.0","A3B9M6H2PTCQWX","","","","","-9","","","","","","","","","","","","","","","","","","","","","",""
"3713","","image-button-response","84","1310735","0.0-82.0","A3B9M6H2PTCQWX","img_art/9.jpg","1","","","","","","","","","","","","","","","","","","","","","","","","",""
"234","","image-button-response","85","1310971","0.0-83.0","A3B9M6H2PTCQWX","img_art/9.jpg","1","","","","","","","","","","","","","","","","","","","","","","","","",""
"4021","","image-button-response","86","1314994","0.0-84.0-0.0","A3B9M6H2PTCQWX","img_art/9.jpg","4","","","","","","","","","","","","","","","","","","","","","","","","",""
"1611","","image-button-response","87","1316607","0.0-85.0-0.0","A3B9M6H2PTCQWX","img_art/9.jpg","2","","","","","","","","","","","","","","","","","","","","","","","","",""
"null","","html-keyboard-response","88","1317608","0.0-86.0","A3B9M6H2PTCQWX","<p style=""font-size: 48px;"">+</p>","","","","","null","allTrialResponses","1000","1","6","img_art/9.jpg","-9","It's a postcard from surrealism","Shane,William,Malik,Edward,Peter,Matthew","Angry beast mouth,-37,80,20","reminds me of a story book,18,380,20","Colorful and expressive,15,40,20","The colors remind me of peacocks,24,60,20","Looks like a monster's teeth , unsettling,-18,320,20","Similar to the tohers, but not as clear.,11,120,20","William","reminds me of a story book,18,380,20","Peter","Looks like a monster's teeth , unsettling,-18,320,20","Malik","Colorful and expressive,15,40,20","2"
"20083","","survey-text","89","1337694","0.0-87.0-0.0","A3B9M6H2PTCQWX","","","","{""Q0"":""Its the city by the river""}","","","","","","","","","","","","","","","","","","","","","","",""
"2574.2000000178814","","image-slider-response","90","1340269","0.0-88.0","A3B9M6H2PTCQWX","","","","","11","","","","","","","","","","","","","","","","","","","","","",""
"3265","","image-button-response","91","1345270","0.0-89.0","A3B9M6H2PTCQWX","img_art/19.jpg","2","","","","","","","","","","","","","","","","","","","","","","","","",""
"831","","image-button-response","92","1346103","0.0-90.0","A3B9M6H2PTCQWX","img_art/19.jpg","4","","","","","","","","","","","","","","","","","","","","","","","","",""
"2563","","image-button-response","93","1348668","0.0-91.0-0.0","A3B9M6H2PTCQWX","img_art/19.jpg","2","","","","","","","","","","","","","","","","","","","","","","","","",""
"5588","","image-button-response","94","1354257","0.0-92.0-0.0","A3B9M6H2PTCQWX","img_art/19.jpg","3","","","","","","","","","","","","","","","","","","","","","","","","",""
"null","","html-keyboard-response","95","1355758","0.0-93.0","A3B9M6H2PTCQWX","<p style=""font-size: 48px;"">+</p>","","","","","null","allTrialResponses","1500","1","7","img_art/19.jpg","11","Its the city by the river","Alexis,William,Malik,Justin,Peter,Dustin","it looks messy and non-unique.,-9,140,20","to much going on,-22,380,20","Very dreamlike,26,40,20","It looks too much of a rough sketch. Don't really enjoy looking at it.,-9,280,20","Looks like hustle and bustle ,,3,320,20","Too busy, makes me anxious and frustrated. Lots of movement in the brush strokes.,-9,20,20","Peter","Looks like hustle and bustle ,,3,320,20","Malik","Very dreamlike,26,40,20","Justin","It looks too much of a rough sketch. Don't really enjoy looking at it.,-9,280,20","2"
"99134","","survey-text","96","1454895","0.0-94.0-0.0","A3B9M6H2PTCQWX","","","","{""Q0"":""looks like a cliff""}","","","","","","","","","","","","","","","","","","","","","","",""
"3398.7999999821186","","image-slider-response","97","1458295","0.0-95.0","A3B9M6H2PTCQWX","","","","","17","","","","","","","","","","","","","","","","","","","","","",""
"3164","","image-button-response","98","1463296","0.0-96.0","A3B9M6H2PTCQWX","img_art/1.jpg","0","","","","","","","","","","","","","","","","","","","","","","","","",""
"1135","","image-button-response","99","1464433","0.0-97.0","A3B9M6H2PTCQWX","img_art/1.jpg","0","","","","","","","","","","","","","","","","","","","","","","","","",""
"5496","","image-button-response","100","1469930","0.0-98.0-0.0","A3B9M6H2PTCQWX","img_art/1.jpg","1","","","","","","","","","","","","","","","","","","","","","","","","",""
"1461","","image-button-response","101","1471393","0.0-99.0-0.0","A3B9M6H2PTCQWX","img_art/1.jpg","3","","","","","","","","","","","","","","","","","","","","","","","","",""
"null","","html-keyboard-response","102","1471894","0.0-100.0","A3B9M6H2PTCQWX","<p style=""font-size: 48px;"">+</p>","","","","","null","allTrialResponses","500","1","8","img_art/1.jpg","17","looks like a cliff","Nicholas,Sean,Malik,Justin,Peter,Mitchell","Love the colors but it makes me feel like someone is looking at me through it,38,240,20","my reaction is that the picture is that Ive seen it before,-14,40,20","Vague and directionless,-14,40,20","It reminds me of a sunset I once saw.,16,280,20","Nothing whatsoever,2,320,20","confused,animal like brain fog,0,180,20","Nicholas","Love the colors but it makes me feel like someone is looking at me through it,38,240,20","Sean","my reaction is that the picture is that Ive seen it before,-14,40,20","Justin","It reminds me of a sunset I once saw.,16,280,20","2"
"11143","","survey-text","103","1483039","0.0-101.0-0.0","A3B9M6H2PTCQWX","","","","{""Q0"":""Into the Woods""}","","","","","","","","","","","","","","","","","","","","","","",""
"2873.300000011921","","image-slider-response","104","1485913","0.0-102.0","A3B9M6H2PTCQWX","","","","","18","","","","","","","","","","","","","","","","","","","","","",""
"null","","image-button-response","105","1491113","0.0-103.0","A3B9M6H2PTCQWX","img_art/15.jpg","null","","","","","","","","","","","","","","","","","","","","","","","","",""
"104433","","image-button-response","106","1595548","0.0-104.0","A3B9M6H2PTCQWX","img_art/15.jpg","2","","","","","","","","","","","","","","","","","","","","","","","","",""
"7165","","image-button-response","107","1602714","0.0-105.0-0.0","A3B9M6H2PTCQWX","img_art/15.jpg","3","","","","","","","","","","","","","","","","","","","","","","","","",""
"3469","","image-button-response","108","1606186","0.0-106.0-0.0","A3B9M6H2PTCQWX","img_art/15.jpg","5","","","","","","","","","","","","","","","","","","","","","","","","",""
"null","","html-keyboard-response","109","1607188","0.0-107.0","A3B9M6H2PTCQWX","<p style=""font-size: 48px;"">+</p>","","","","","null","allTrialResponses","1000","1","9","img_art/15.jpg","18","Into the Woods","Nicholas,Sean,Benjamin,Justin,Carlos,Shawn","Not interesting enough. Boring,-37,240,20","my response to the picture is that I dont know what I am looking at,-25,40,20","Reminds me of blueberry bushes.,7,260,20","Color scheme and design are rather boring.,-10,280,20","It is visually appealing, stark and simple but natural.,41,80,20","Like the composition and lines,26,100,20","Benjamin","Reminds me of blueberry bushes.,7,260,20","Justin","Color scheme and design are rather boring.,-10,280,20","Shawn","Like the composition and lines,26,100,20","2"
"18102","","survey-text","110","1625292","0.0-108.0-0.0","A3B9M6H2PTCQWX","","","","{""Q0"":""Like a jigsaw puzzle""}","","","","","","","","","","","","","","","","","","","","","","",""
"10982.699999988079","","image-slider-response","111","1636276","0.0-109.0","A3B9M6H2PTCQWX","","","","","-11","","","","","","","","","","","","","","","","","","","","","",""
"3288","","image-button-response","112","1641279","0.0-110.0","A3B9M6H2PTCQWX","img_art/12.jpg","1","","","","","","","","","","","","","","","","","","","","","","","","",""
"890","","image-button-response","113","1642170","0.0-111.0","A3B9M6H2PTCQWX","img_art/12.jpg","4","","","","","","","","","","","","","","","","","","","","","","","","",""
"1103","","image-button-response","114","1643274","0.0-112.0-0.0","A3B9M6H2PTCQWX","img_art/12.jpg","1","","","","","","","","","","","","","","","","","","","","","","","","",""
"5704","","image-button-response","115","1648980","0.0-113.0-0.0","A3B9M6H2PTCQWX","img_art/12.jpg","0","","","","","","","","","","","","","","","","","","","","","","","","",""
"null","","html-keyboard-response","116","1649981","0.0-114.0","A3B9M6H2PTCQWX","<p style=""font-size: 48px;"">+</p>","","","","","null","allTrialResponses","1000","1","10","img_art/12.jpg","-11","Like a jigsaw puzzle","James,Seth,Benjamin,Justin,Alejandro,Shawn","Don't like it or despise it,1,380,20","This is beautiful. It looks like 1,000 different sunrises and sunsets.,44,60,20","Like how all the colors seem to blend together.,15,260,20","Too blocky and not interesting enough.,-15,280,20","I like the sectioned nature of the squares and curves. Not my favorite but still a good one.,27,80,20","Nice hallway art for a hotel.,21,100,20","Alejandro","I like the sectioned nature of the squares and curves. Not my favorite but still a good one.,27,80,20","Seth","This is beautiful. It looks like 1,000 different sunrises and sunsets.,44,60,20","James","Don't like it or despise it,1,380,20","2"
"5067","","survey-text","117","1655053","0.0-115.0-0.0","A3B9M6H2PTCQWX","","","","{""Q0"":""our""}","","","","","","","","","","","","","","","","","","","","","","",""
"13427","","survey-text","118","1668480","0.0-116.0-0.0","A3B9M6H2PTCQWX","","","","{""Q0"":""Home on the farm""}","","","","","","","","","","","","","","","","","","","","","","",""
"2468.7999999821186","","image-slider-response","119","1670950","0.0-117.0","A3B9M6H2PTCQWX","","","","","16","","","","","","","","","","","","","","","","","","","","","",""
"null","","image-button-response","120","1675952","0.0-118.0","A3B9M6H2PTCQWX","img_art/27.jpg","null","","","","","","","","","","","","","","","","","","","","","","","","",""
"5021","","image-button-response","121","1680973","0.0-119.0","A3B9M6H2PTCQWX","img_art/27.jpg","5","","","","","","","","","","","","","","","","","","","","","","","","",""
"5358","","image-button-response","122","1686332","0.0-120.0-0.0","A3B9M6H2PTCQWX","img_art/27.jpg","2","","","","","","","","","","","","","","","","","","","","","","","","",""
"2565","","image-button-response","123","1688898","0.0-121.0-0.0","A3B9M6H2PTCQWX","img_art/27.jpg","0","","","","","","","","","","","","","","","","","","","","","","","","",""
"null","","html-keyboard-response","124","1690400","0.0-122.0","A3B9M6H2PTCQWX","<p style=""font-size: 48px;"">+</p>","","","","","null","allTrialResponses","1500","1","11","img_art/27.jpg","16","Home on the farm","James,Seth,Juan,Marcus,Alejandro,Eric","This painting is very unique,21,380,20","I don't care for the green scribbles; not sure what they are. But I adore the colors in the background.,24,60,20","Colors make me think of fall, but I don't like how the picture was done or the weird lines across the background,6,260,20","It's okay. Not really interesting to me.,-10,60,20","Muddied and directionless. Like someone dragged a brush across the paper for the sake of doing something.,-50,80,20","This piece reminds me of a summer day.,30,100,20","Eric","This piece reminds me of a summer day.,30,100,20","Juan","Colors make me think of fall, but I don't like how the picture was done or the weird lines across the background,6,260,20","James","This painting is very unique,21,380,20","2"
"29662","","survey-text","125","1720064","0.0-123.0-0.0","A3B9M6H2PTCQWX","","","","{""Q0"":""looks like mama in her purse""}","","","","","","","","","","","","","","","","","","","","","","",""
"2584.699999988079","","image-slider-response","126","1722650","0.0-124.0","A3B9M6H2PTCQWX","","","","","16","","","","","","","","","","","","","","","","","","","","","",""
"3864","","image-button-response","127","1727652","0.0-125.0","A3B9M6H2PTCQWX","img_art/2.jpg","1","","","","","","","","","","","","","","","","","","","","","","","","",""
"1294","","image-button-response","128","1728948","0.0-126.0","A3B9M6H2PTCQWX","img_art/2.jpg","3","","","","","","","","","","","","","","","","","","","","","","","","",""
"2396","","image-button-response","129","1731345","0.0-127.0-0.0","A3B9M6H2PTCQWX","img_art/2.jpg","4","","","","","","","","","","","","","","","","","","","","","","","","",""
"850","","image-button-response","130","1732196","0.0-128.0-0.0","A3B9M6H2PTCQWX","img_art/2.jpg","1","","","","","","","","","","","","","","","","","","","","","","","","",""
"null","","html-keyboard-response","131","1732698","0.0-129.0","A3B9M6H2PTCQWX","<p style=""font-size: 48px;"">+</p>","","","","","null","allTrialResponses","500","1","12","img_art/2.jpg","16","looks like mama in her purse","James,Scott,Juan,Dakota,Jose,Eric","The only parts I like is the light blue, red and black. The green color isn't very flattering.,11,380,20","looks like a child's artwork,-40,20,20","I don't like the abstract nature of this painting or the colors used.,-50,260,20","active and kinetic- simplified,14,280,20","The color combo is kind of ugly but there's something charming about it still,17,200,20","I like the color, but I feel like I see a creepy face which I dislike.,-5,100,20","Dakota","active and kinetic- simplified,14,280,20","Jose","The color combo is kind of ugly but there's something charming about it still,17,200,20","Scott","looks like a child's artwork,-40,20,20","2"
"13570","","survey-text","132","1746270","0.0-130.0-0.0","A3B9M6H2PTCQWX","","","","{""Q0"":""falling out of the sky""}","","","","","","","","","","","","","","","","","","","","","","",""
"2240.9000000059605","","image-slider-response","133","1748512","0.0-131.0","A3B9M6H2PTCQWX","","","","","22","","","","","","","","","","","","","","","","","","","","","",""
"2682","","image-button-response","134","1753514","0.0-132.0","A3B9M6H2PTCQWX","img_art/22.jpg","1","","","","","","","","","","","","","","","","","","","","","","","","",""
"3803","","image-button-response","135","1757318","0.0-133.0","A3B9M6H2PTCQWX","img_art/22.jpg","1","","","","","","","","","","","","","","","","","","","","","","","","",""
"5893","","image-button-response","136","1763213","0.0-134.0-0.0","A3B9M6H2PTCQWX","img_art/22.jpg","5","","","","","","","","","","","","","","","","","","","","","","","","",""
"3859","","image-button-response","137","1767074","0.0-135.0-0.0","A3B9M6H2PTCQWX","img_art/22.jpg","3","","","","","","","","","","","","","","","","","","","","","","","","",""
"null","","html-keyboard-response","138","1768075","0.0-136.0","A3B9M6H2PTCQWX","<p style=""font-size: 48px;"">+</p>","","","","","null","allTrialResponses","1000","1","13","img_art/22.jpg","22","falling out of the sky","Christian,Scott,Elijah,Dakota,Jose,Corey","colorful water (in front of castle?),17,140,20","really beautiful colors and contrast,30,20,20","Makes me feel a bit anxious,6,80,20","muddy and rough,14,280,20","Cool squares but what's the circle?,38,200,20","i feel like this is a a basic art piece that a school would have on the wall,-24,260,20","Scott","really beautiful colors and contrast,30,20,20","Corey","i feel like this is a a basic art piece that a school would have on the wall,-24,260,20","Dakota","muddy and rough,14,280,20","2"
"15162","","survey-text","139","1783240","0.0-137.0-0.0","A3B9M6H2PTCQWX","","","","{""Q0"":""The Arena""}","","","","","","","","","","","","","","","","","","","","","","",""
"234967.29999998212","","image-slider-response","140","2018209","0.0-138.0","A3B9M6H2PTCQWX","","","","","22","","","","","","","","","","","","","","","","","","","","","",""
"null","","image-button-response","141","2023211","0.0-139.0","A3B9M6H2PTCQWX","img_art/29.jpg","null","","","","","","","","","","","","","","","","","","","","","","","","",""
"671","","image-button-response","142","2023882","0.0-140.0","A3B9M6H2PTCQWX","img_art/29.jpg","4","","","","","","","","","","","","","","","","","","","","","","","","",""
"3320","","image-button-response","143","2027204","0.0-141.0-0.0","A3B9M6H2PTCQWX","img_art/29.jpg","2","","","","","","","","","","","","","","","","","","","","","","","","",""
"5670","","image-button-response","144","2032875","0.0-142.0-0.0","A3B9M6H2PTCQWX","img_art/29.jpg","0","","","","","","","","","","","","","","","","","","","","","","","","",""
"null","","html-keyboard-response","145","2034377","0.0-143.0","A3B9M6H2PTCQWX","<p style=""font-size: 48px;"">+</p>","","","","","null","allTrialResponses","1500","1","14","img_art/29.jpg","22","The Arena","Alexander,Scott,Vincent,Dakota,Zachary,Corey","Tested and failed a lot of ideas.,-20,120,20","feels random and not thoughtout,-37,20,20","Another great work of art and very conversational piece,33,360,20","this is not art to me - it's random collage,-45,280,20","It looks like someone did not like their art and drew an x over it.,-32,400,20","this does nothing for me. hate the colors. hate the design,-50,260,20","Zachary","It looks like someone did not like their art and drew an x over it.,-32,400,20","Vincent","Another great work of art and very conversational piece,33,360,20","Alexander","Tested and failed a lot of ideas.,-20,120,20","2"
"14915","","survey-text","146","2049300","0.0-144.0-0.0","A3B9M6H2PTCQWX","","","","{""Q0"":""The back porch""}","","","","","","","","","","","","","","","","","","","","","","",""
"2792.600000023842","","image-slider-response","147","2052094","0.0-145.0","A3B9M6H2PTCQWX","","","","","17","","","","","","","","","","","","","","","","","","","","","",""
"null","","image-button-response","148","2057096","0.0-146.0","A3B9M6H2PTCQWX","img_art/17.jpg","null","","","","","","","","","","","","","","","","","","","","","","","","",""
"477","","image-button-response","149","2057574","0.0-147.0","A3B9M6H2PTCQWX","img_art/17.jpg","1","","","","","","","","","","","","","","","","","","","","","","","","",""
"2353","","image-button-response","150","2059929","0.0-148.0-0.0","A3B9M6H2PTCQWX","img_art/17.jpg","3","","","","","","","","","","","","","","","","","","","","","","","","",""
"3469","","image-button-response","151","2063399","0.0-149.0-0.0","A3B9M6H2PTCQWX","img_art/17.jpg","5","","","","","","","","","","","","","","","","","","","","","","","","",""
"null","","html-keyboard-response","152","2063901","0.0-150.0","A3B9M6H2PTCQWX","<p style=""font-size: 48px;"">+</p>","","","","","null","allTrialResponses","500","1","15","img_art/17.jpg","17","The back porch","Alexander,Cameron,Vincent,Dalton,Zachary,Alex","Tree of knowledge in a quiet school.,17,120,20","doorways and trees are pleasant,30,60,20","Another favorite a relaxing day with nature a day to take it all In,34,360,20","Beautiful simply beautiful. i would love this,,50,300,20","Reminds me of a beautiful tree growing in a courtyard. I like the light and airy technique used.,34,400,20","I can tell there are tress and maybe some doors but I'm not a fan of the style,-2,100,20","Cameron","doorways and trees are pleasant,30,60,20","Dalton","Beautiful simply beautiful. i would love this,,50,300,20","Alex","I can tell there are tress and maybe some doors but I'm not a fan of the style,-2,100,20","2"
"5340","","survey-text","153","2069246","0.0-151.0-0.0","A3B9M6H2PTCQWX","","","","{""Q0"":""course""}","","","","","","","","","","","","","","","","","","","","","","",""
"89205","","survey-text","154","2158452","0.0-152.0-0.0","A3B9M6H2PTCQWX","","","","{""Q0"":""scribbly mess""}","","","","","","","","","","","","","","","","","","","","","","",""
"2517.4000000059605","","image-slider-response","155","2160970","0.0-153.0","A3B9M6H2PTCQWX","","","","","-34","","","","","","","","","","","","","","","","","","","","","",""
"3907","","image-button-response","156","2165972","0.0-154.0","A3B9M6H2PTCQWX","img_art/3.jpg","5","","","","","","","","","","","","","","","","","","","","","","","","",""
"2410","","image-button-response","157","2168383","0.0-155.0","A3B9M6H2PTCQWX","img_art/3.jpg","3","","","","","","","","","","","","","","","","","","","","","","","","",""
"1091","","image-button-response","158","2169476","0.0-156.0-0.0","A3B9M6H2PTCQWX","img_art/3.jpg","1","","","","","","","","","","","","","","","","","","","","","","","","",""
"1656","","image-button-response","159","2171134","0.0-157.0-0.0","A3B9M6H2PTCQWX","img_art/3.jpg","5","","","","","","","","","","","","","","","","","","","","","","","","",""
"null","","html-keyboard-response","160","2171636","0.0-158.0","A3B9M6H2PTCQWX","<p style=""font-size: 48px;"">+</p>","","","","","null","allTrialResponses","500","1","16","img_art/3.jpg","-34","scribbly mess","Ryan,Cameron,Timothy,Dalton,Jack,Alex","Looks like someone threw blood at a wall,-50,380,20","kid scribbled on the wall again,-35,60,20","This makes me feel a bit disturbed,-35,240,20","Blood splatter and one black spot.,1,300,20","unique & stylized. interesting. another one I could keep staring at.,50,320,20","Ok, just a bunch of red lines and a grey smudge. Would pass this right by in a gallery,-12,100,20","Dalton","Blood splatter and one black spot.,1,300,20","Cameron","kid scribbled on the wall again,-35,60,20","Alex","Ok, just a bunch of red lines and a grey smudge. Would pass this right by in a gallery,-12,100,20","2"
"10429","","survey-text","161","2182070","0.0-159.0-0.0","A3B9M6H2PTCQWX","","","","{""Q0"":""looks like peanut brittle""}","","","","","","","","","","","","","","","","","","","","","","",""
"5608.800000011921","","image-slider-response","162","2187679","0.0-160.0","A3B9M6H2PTCQWX","","","","","-21","","","","","","","","","","","","","","","","","","","","","",""
"2998","","image-button-response","163","2192681","0.0-161.0","A3B9M6H2PTCQWX","img_art/7.jpg","1","","","","","","","","","","","","","","","","","","","","","","","","",""
"2038","","image-button-response","164","2194721","0.0-162.0","A3B9M6H2PTCQWX","img_art/7.jpg","1","","","","","","","","","","","","","","","","","","","","","","","","",""
"527","","image-button-response","165","2195250","0.0-163.0-0.0","A3B9M6H2PTCQWX","img_art/7.jpg","2","","","","","","","","","","","","","","","","","","","","","","","","",""
"1226","","image-button-response","166","2196477","0.0-164.0-0.0","A3B9M6H2PTCQWX","img_art/7.jpg","5","","","","","","","","","","","","","","","","","","","","","","","","",""
"null","","html-keyboard-response","167","2197479","0.0-165.0","A3B9M6H2PTCQWX","<p style=""font-size: 48px;"">+</p>","","","","","null","allTrialResponses","1000","1","17","img_art/7.jpg","-21","looks like peanut brittle","Brian,Cameron,Bradley,Dalton,Ian,Alex","I would like this more if I could pretend it was the moon.,-26,380,20","tracks in dirt?,-15,60,20","Is this cookie dough?  Yum!,-10,300,20","i dont like it. it looks like rocks,-40,300,20","This looks like a literal picture of the ground so I'm really not too sure about this one.,-42,260,20","Hmm interesting, looks like mars or something terrestrial. Too abstract for me and too much brown,4,100,20","Cameron","tracks in dirt?,-15,60,20","Bradley","Is this cookie dough?  Yum!,-10,300,20","Alex","Hmm interesting, looks like mars or something terrestrial. Too abstract for me and too much brown,4,100,20","2"
"19303","","survey-text","168","2216786","0.0-166.0-0.0","A3B9M6H2PTCQWX","","","","{""Q0"":""more smudges, like test patches for colors""}","","","","","","","","","","","","","","","","","","","","","","",""
"3749.5999999940395","","image-slider-response","169","2220537","0.0-167.0","A3B9M6H2PTCQWX","","","","","-30","","","","","","","","","","","","","","","","","","","","","",""
"3436","","image-button-response","170","2225538","0.0-168.0","A3B9M6H2PTCQWX","img_art/21.jpg","0","","","","","","","","","","","","","","","","","","","","","","","","",""
"1732","","image-button-response","171","2227271","0.0-169.0","A3B9M6H2PTCQWX","img_art/21.jpg","2","","","","","","","","","","","","","","","","","","","","","","","","",""
"1720","","image-button-response","172","2228993","0.0-170.0-0.0","A3B9M6H2PTCQWX","img_art/21.jpg","4","","","","","","","","","","","","","","","","","","","","","","","","",""
"1375","","image-button-response","173","2230370","0.0-171.0-0.0","A3B9M6H2PTCQWX","img_art/21.jpg","0","","","","","","","","","","","","","","","","","","","","","","","","",""
"null","","html-keyboard-response","174","2231871","0.0-172.0","A3B9M6H2PTCQWX","<p style=""font-size: 48px;"">+</p>","","","","","null","allTrialResponses","1500","1","18","img_art/21.jpg","-30","more smudges, like test patches for colors","Lucas,Cameron,Bradley,Luke,Jason,Alex","Looks like a war. Many things happening on the painting, really enjoy it.,30,380,20","Like the colors. Don't like the white dots on the right side of the painting though.,15,60,20","Indifferent toward this one.,6,300,20","the vast colors make me happy,15,20,20","The division in the picture is pleasing but the random white dots are distracting,12,20,20","The colors are very nice. I like the dots because they remind me of pearls,5,100,20","Bradley","Indifferent toward this one.,6,300,20","Jason","The division in the picture is pleasing but the random white dots are distracting,12,20,20","Lucas","Looks like a war. Many things happening on the painting, really enjoy it.,30,380,20","2"
"11880","","survey-text","175","2243754","0.0-173.0-0.0","A3B9M6H2PTCQWX","","","","{""Q0"":""guns and bears yo""}","","","","","","","","","","","","","","","","","","","","","","",""
"4762.300000011921","","image-slider-response","176","2248517","0.0-174.0","A3B9M6H2PTCQWX","","","","","-11","","","","","","","","","","","","","","","","","","","","","",""
"3073","","image-button-response","177","2253520","0.0-175.0","A3B9M6H2PTCQWX","img_art/16.jpg","4","","","","","","","","","","","","","","","","","","","","","","","","",""
"2785","","image-button-response","178","2256307","0.0-176.0","A3B9M6H2PTCQWX","img_art/16.jpg","1","","","","","","","","","","","","","","","","","","","","","","","","",""
"4564","","image-button-response","179","2260871","0.0-177.0-0.0","A3B9M6H2PTCQWX","img_art/16.jpg","2","","","","","","","","","","","","","","","","","","","","","","","","",""
"1245","","image-button-response","180","2262117","0.0-178.0-0.0","A3B9M6H2PTCQWX","img_art/16.jpg","4","","","","","","","","","","","","","","","","","","","","","","","","",""
"null","","html-keyboard-response","181","2263619","0.0-179.0","A3B9M6H2PTCQWX","<p style=""font-size: 48px;"">+</p>","","","","","null","allTrialResponses","1500","1","19","img_art/16.jpg","-11","guns and bears yo","Lucas,Jesus,Bradley,Brandon,Jason,Bryce","It's frightening.,30,380,20","I like the mixture of images,23,100,20","This feels like there's some kind of pedofile thing going on here.,-50,300,20","Don't like this technique. Too serial killer.,-50,320,20","The bear is a weird choice,-22,20,20","The teddy bear is scary as hell.,-44,20,20","Jesus","I like the mixture of images,23,100,20","Bradley","This feels like there's some kind of pedofile thing going on here.,-50,300,20","Jason","The bear is a weird choice,-22,20,20","2"
"10045","","survey-text","182","2273668","0.0-180.0-0.0","A3B9M6H2PTCQWX","","","","{""Q0"":""roller coasters""}","","","","","","","","","","","","","","","","","","","","","","",""
"1977.3999999761581","","image-slider-response","183","2275646","0.0-181.0","A3B9M6H2PTCQWX","","","","","14","","","","","","","","","","","","","","","","","","","","","",""
"3046","","image-button-response","184","2280649","0.0-182.0","A3B9M6H2PTCQWX","img_art/11.jpg","5","","","","","","","","","","","","","","","","","","","","","","","","",""
"1176","","image-button-response","185","2281826","0.0-183.0","A3B9M6H2PTCQWX","img_art/11.jpg","2","","","","","","","","","","","","","","","","","","","","","","","","",""
"740","","image-button-response","186","2282568","0.0-184.0-0.0","A3B9M6H2PTCQWX","img_art/11.jpg","5","","","","","","","","","","","","","","","","","","","","","","","","",""
"702","","image-button-response","187","2283271","0.0-185.0-0.0","A3B9M6H2PTCQWX","img_art/11.jpg","3","","","","","","","","","","","","","","","","","","","","","","","","",""
"null","","html-keyboard-response","188","2283773","0.0-186.0","A3B9M6H2PTCQWX","<p style=""font-size: 48px;"">+</p>","","","","","null","allTrialResponses","500","1","20","img_art/11.jpg","14","roller coasters","Miguel,Jesus,Bradley,Isaac,Jason,Travis","Good but not eye catching,14,160,20","The different textures and colors make this pleasing to look at.,30,100,20","WOW!  I love how the ships and the seas become one in this piece.,50,300,20","I like the harsh black lines against a soft background.,27,280,20","Interesting use of color,9,20,20","I liked it it looked like an roller coasters at an amusment park.,16,260,20","Bradley","WOW!  I love how the ships and the seas become one in this piece.,50,300,20","Travis","I liked it it looked like an roller coasters at an amusment park.,16,260,20","Isaac","I like the harsh black lines against a soft background.,27,280,20","2"
"2558","","survey-text","189","2286337","0.0-187.0-0.0","A3B9M6H2PTCQWX","","","","{""Q0"":""we""}","","","","","","","","","","","","","","","","","","","","","","",""
"10876","","survey-text","190","2297214","0.0-188.0-0.0","A3B9M6H2PTCQWX","","","","{""Q0"":""monster party teeth""}","","","","","","","","","","","","","","","","","","","","","","",""
"3486.0999999940395","","image-slider-response","191","2300701","0.0-189.0","A3B9M6H2PTCQWX","","","","","13","","","","","","","","","","","","","","","","","","","","","",""
"3471","","image-button-response","192","2305703","0.0-190.0","A3B9M6H2PTCQWX","img_art/23.jpg","0","","","","","","","","","","","","","","","","","","","","","","","","",""
"703","","image-button-response","193","2306408","0.0-191.0","A3B9M6H2PTCQWX","img_art/23.jpg","3","","","","","","","","","","","","","","","","","","","","","","","","",""
"951","","image-button-response","194","2307359","0.0-192.0-0.0","A3B9M6H2PTCQWX","img_art/23.jpg","0","","","","","","","","","","","","","","","","","","","","","","","","",""
"1195","","image-button-response","195","2308557","0.0-193.0-0.0","A3B9M6H2PTCQWX","img_art/23.jpg","1","","","","","","","","","","","","","","","","","","","","","","","","",""
"null","","html-keyboard-response","196","2309559","0.0-194.0","A3B9M6H2PTCQWX","<p style=""font-size: 48px;"">+</p>","","","","","null","allTrialResponses","1000","1","21","img_art/23.jpg","13","monster party teeth","Kevin,Daniel,Bradley,Isaac,Kyle,Travis","Looks like fish fossils,12,320,20","Too busy with color with warrior lineup,0,320,20","I like the contrast and the bright colors in this one.,6,300,20","I like the royal colors.,38,280,20","Mostly neutral but a bit too guady with the brash colors,-6,340,20","I had a very neutral feeling to this,no feelings at all.,1,260,20","Isaac","I like the royal colors.,38,280,20","Kevin","Looks like fish fossils,12,320,20","Daniel","Too busy with color with warrior lineup,0,320,20","2"
"8914","","survey-text","197","2318478","0.0-195.0-0.0","A3B9M6H2PTCQWX","","","","{""Q0"":""The teacher is speaking""}","","","","","","","","","","","","","","","","","","","","","","",""
"1903.300000011921","","image-slider-response","198","2320383","0.0-196.0","A3B9M6H2PTCQWX","","","","","14","","","","","","","","","","","","","","","","","","","","","",""
"3848","","image-button-response","199","2325386","0.0-197.0","A3B9M6H2PTCQWX","img_art/25.jpg","2","","","","","","","","","","","","","","","","","","","","","","","","",""
"315","","image-button-response","200","2325702","0.0-198.0","A3B9M6H2PTCQWX","img_art/25.jpg","2","","","","","","","","","","","","","","","","","","","","","","","","",""
"859","","image-button-response","201","2326563","0.0-199.0-0.0","A3B9M6H2PTCQWX","img_art/25.jpg","1","","","","","","","","","","","","","","","","","","","","","","","","",""
"1952","","image-button-response","202","2328516","0.0-200.0-0.0","A3B9M6H2PTCQWX","img_art/25.jpg","4","","","","","","","","","","","","","","","","","","","","","","","","",""
"null","","html-keyboard-response","203","2330017","0.0-201.0","A3B9M6H2PTCQWX","<p style=""font-size: 48px;"">+</p>","","","","","null","allTrialResponses","1500","1","22","img_art/25.jpg","14","The teacher is speaking","Kevin,Daniel,Mark,Isaac,Jacob,Jorge","That on i find a bit creapy.,-19,320,20","Beautiful color with an interesting otherworldly figure,29,320,20","Looks like Burning Man, dont care for the colors.,-5,80,20","The color and image are unsettling.,-29,280,20","I really like how the lines form this piece.,8,340,20","Somewhat feel protected by a messenger,33,180,20","Mark","Looks like Burning Man, dont care for the colors.,-5,80,20","Daniel","Beautiful color with an interesting otherworldly figure,29,320,20","Jacob","I really like how the lines form this piece.,8,340,20","2"
"6568","","survey-text","204","2336589","0.0-202.0-0.0","A3B9M6H2PTCQWX","","","","{""Q0"":""looks like snot""}","","","","","","","","","","","","","","","","","","","","","","",""
"2103.2999999821186","","image-slider-response","205","2338693","0.0-203.0","A3B9M6H2PTCQWX","","","","","16","","","","","","","","","","","","","","","","","","","","","",""
"2950","","image-button-response","206","2343695","0.0-204.0","A3B9M6H2PTCQWX","img_art/13.jpg","2","","","","","","","","","","","","","","","","","","","","","","","","",""
"962","","image-button-response","207","2344659","0.0-205.0","A3B9M6H2PTCQWX","img_art/13.jpg","2","","","","","","","","","","","","","","","","","","","","","","","","",""
"1873","","image-button-response","208","2346532","0.0-206.0-0.0","A3B9M6H2PTCQWX","img_art/13.jpg","0","","","","","","","","","","","","","","","","","","","","","","","","",""
"1020","","image-button-response","209","2347554","0.0-207.0-0.0","A3B9M6H2PTCQWX","img_art/13.jpg","5","","","","","","","","","","","","","","","","","","","","","","","","",""
"null","","html-keyboard-response","210","2348555","0.0-208.0","A3B9M6H2PTCQWX","<p style=""font-size: 48px;"">+</p>","","","","","null","allTrialResponses","1000","1","23","img_art/13.jpg","16","looks like snot","Nathaniel,Daniel,Mark,Jordan,Jacob,Chase","Looks like an upclose dried set of water droplets. Boring.,-25,220,20","Average overly symmetrical safe,-26,320,20","Raindrops on a window. Makes me feel like traveling.,31,80,20","This is easy to look at,46,160,20","The paint splatter idea is kind of overused but I like how it brings the piece together,16,340,20","Seems a little cold but I like the neuron looking splatters.,10,120,20","Mark","Raindrops on a window. Makes me feel like traveling.,31,80,20","Nathaniel","Looks like an upclose dried set of water droplets. Boring.,-25,220,20","Chase","Seems a little cold but I like the neuron looking splatters.,10,120,20","2"
"15140","","survey-text","211","2363698","0.0-209.0-0.0","A3B9M6H2PTCQWX","","","","{""Q0"":""sponge paint smears""}","","","","","","","","","","","","","","","","","","","","","","",""
"2511.300000011921","","image-slider-response","212","2366211","0.0-210.0","A3B9M6H2PTCQWX","","","","","-41","","","","","","","","","","","","","","","","","","","","","",""
"3941","","image-button-response","213","2371213","0.0-211.0","A3B9M6H2PTCQWX","img_art/30.jpg","5","","","","","","","","","","","","","","","","","","","","","","","","",""
"1132","","image-button-response","214","2372347","0.0-212.0","A3B9M6H2PTCQWX","img_art/30.jpg","0","","","","","","","","","","","","","","","","","","","","","","","","",""
"1290","","image-button-response","215","2373639","0.0-213.0-0.0","A3B9M6H2PTCQWX","img_art/30.jpg","5","","","","","","","","","","","","","","","","","","","","","","","","",""
"949","","image-button-response","216","2374590","0.0-214.0-0.0","A3B9M6H2PTCQWX","img_art/30.jpg","4","","","","","","","","","","","","","","","","","","","","","","","","",""
"null","","html-keyboard-response","217","2375591","0.0-215.0","A3B9M6H2PTCQWX","<p style=""font-size: 48px;"">+</p>","","","","","null","allTrialResponses","1000","1","24","img_art/30.jpg","-41","sponge paint smears","Nathaniel,Tanner,Mark,Patrick,Stephen,Chase","No my favorite, but I do like the long strokes of color,11,220,20","makes me think of a tunnel filled with graffiti,19,180,20","It feels like graffiti and the dark colors do nothing for the mood.,-5,80,20","I don't like the blended colors,-20,280,20","A bit too dark for my liking,-10,140,20","Too dark and ugly with all the black smears,-20,120,20","Nathaniel","No my favorite, but I do like the long strokes of color,11,220,20","Chase","Too dark and ugly with all the black smears,-20,120,20","Stephen","A bit too dark for my liking,-10,140,20","2"
"6910","","survey-text","218","2382504","0.0-216.0-0.0","A3B9M6H2PTCQWX","","","","{""Q0"":""the plant""}","","","","","","","","","","","","","","","","","","","","","","",""
"1895.7000000178814","","image-slider-response","219","2384401","0.0-217.0","A3B9M6H2PTCQWX","","","","","18","","","","","","","","","","","","","","","","","","","","","",""
"2190","","image-button-response","220","2389403","0.0-218.0","A3B9M6H2PTCQWX","img_art/6.jpg","1","","","","","","","","","","","","","","","","","","","","","","","","",""
"904","","image-button-response","221","2390308","0.0-219.0","A3B9M6H2PTCQWX","img_art/6.jpg","1","","","","","","","","","","","","","","","","","","","","","","","","",""
"409","","image-button-response","222","2390718","0.0-220.0-0.0","A3B9M6H2PTCQWX","img_art/6.jpg","0","","","","","","","","","","","","","","","","","","","","","","","","",""
"547","","image-button-response","223","2391266","0.0-221.0-0.0","A3B9M6H2PTCQWX","img_art/6.jpg","4","","","","","","","","","","","","","","","","","","","","","","","","",""
"null","","html-keyboard-response","224","2391767","0.0-222.0","A3B9M6H2PTCQWX","<p style=""font-size: 48px;"">+</p>","","","","","null","allTrialResponses","500","1","25","img_art/6.jpg","18","the plant","Nathaniel,Austin,Victor,Gabriel,Stephen,Chase","Not my favorite, but I like the empty vibe and the imagination it invokes. A skinny girl with long legs, perhaps, looking over a cliff,9,220,20","Love the simplicity of it,41,240,20","The background on the upper half is nice. I also like the contrast of the top and bottom halves,5,340,20","its like a jalapeno,-28,160,20","Good painting but too simple to care about it for very long.,-15,140,20","It's a bit bland, but looks like a bird standing.,11,120,20","Austin","Love the simplicity of it,41,240,20","Nathaniel","Not my favorite, but I like the empty vibe and the imagination it invokes. A skinny girl with long legs, perhaps, looking over a cliff,9,220,20","Stephen","Good painting but too simple to care about it for very long.,-15,140,20","2"
"5077","","survey-text","225","2396850","0.0-223.0-0.0","A3B9M6H2PTCQWX","","","","{""Q0"":""table""}","","","","","","","","","","","","","","","","","","","","","","",""
"10087","","survey-text","226","2406938","0.0-224.0-0.0","A3B9M6H2PTCQWX","","","","{""Q0"":""looks like scribbles""}","","","","","","","","","","","","","","","","","","","","","","",""
"2109.7999999821186","","image-slider-response","227","2409049","0.0-225.0","A3B9M6H2PTCQWX","","","","","-34","","","","","","","","","","","","","","","","","","","","","",""
"2834","","image-button-response","228","2414053","0.0-226.0","A3B9M6H2PTCQWX","img_art/14.jpg","2","","","","","","","","","","","","","","","","","","","","","","","","",""
"1503","","image-button-response","229","2415556","0.0-227.0","A3B9M6H2PTCQWX","img_art/14.jpg","0","","","","","","","","","","","","","","","","","","","","","","","","",""
"1297","","image-button-response","230","2416854","0.0-228.0-0.0","A3B9M6H2PTCQWX","img_art/14.jpg","5","","","","","","","","","","","","","","","","","","","","","","","","",""
"1409","","image-button-response","231","2418264","0.0-229.0-0.0","A3B9M6H2PTCQWX","img_art/14.jpg","2","","","","","","","","","","","","","","","","","","","","","","","","",""
"null","","html-keyboard-response","232","2418766","0.0-230.0","A3B9M6H2PTCQWX","<p style=""font-size: 48px;"">+</p>","","","","","null","allTrialResponses","500","1","26","img_art/14.jpg","-34","looks like scribbles","Nathaniel,Austin,Kenneth,Jeremy,Stephen,Devin","Not quite the style I'd like, but it does have a certain air of emptiness.,12,220,20","Love the abstractness of this painting,39,240,20","Its cute, but not my favorite.,8,300,20","It didn't really do anything to excite me.,21,60,20","I'm a fan of the background.,13,140,20","It looks nice colorwise but detail is lacking,18,380,20","Nathaniel","Not quite the style I'd like, but it does have a certain air of emptiness.,12,220,20","Devin","It looks nice colorwise but detail is lacking,18,380,20","Kenneth","Its cute, but not my favorite.,8,300,20","2"
"15171","","survey-text","233","2433940","0.0-231.0-0.0","A3B9M6H2PTCQWX","","","","{""Q0"":""I see a busy side street""}","","","","","","","","","","","","","","","","","","","","","","",""
"291411.1999999881","","image-slider-response","234","2725353","0.0-232.0","A3B9M6H2PTCQWX","","","","","16","","","","","","","","","","","","","","","","","","","","","",""
"2116","","image-button-response","235","2730355","0.0-233.0","A3B9M6H2PTCQWX","img_art/26.jpg","5","","","","","","","","","","","","","","","","","","","","","","","","",""
"350","","image-button-response","236","2730708","0.0-234.0","A3B9M6H2PTCQWX","img_art/26.jpg","2","","","","","","","","","","","","","","","","","","","","","","","","",""
"859","","image-button-response","237","2731568","0.0-235.0-0.0","A3B9M6H2PTCQWX","img_art/26.jpg","5","","","","","","","","","","","","","","","","","","","","","","","","",""
"761","","image-button-response","238","2732331","0.0-236.0-0.0","A3B9M6H2PTCQWX","img_art/26.jpg","1","","","","","","","","","","","","","","","","","","","","","","","","",""
"null","","html-keyboard-response","239","2733334","0.0-237.0","A3B9M6H2PTCQWX","<p style=""font-size: 48px;"">+</p>","","","","","null","allTrialResponses","1000","1","27","img_art/26.jpg","16","I see a busy side street","Nathaniel,Devon,Kenneth,Anthony,David,Devin","Too blocky and unfocused. It's like the inside of a house, and the outside.,-24,220,20","i can feel the warmth,12,400,20","Very subdued, but wouldn't give it a 2nd notice.,4,300,20","This picture doesn't really stand out.,0,200,20","The piece doesn't really invoke anything for me.,0,340,20","I like the shapes but needs more detail i think,3,380,20","Kenneth","Very subdued, but wouldn't give it a 2nd notice.,4,300,20","Devin","I like the shapes but needs more detail i think,3,380,20","Devon","i can feel the warmth,12,400,20","2"
"9049","","survey-text","240","2742391","0.0-238.0-0.0","A3B9M6H2PTCQWX","","","","{""Q0"":""melt city""}","","","","","","","","","","","","","","","","","","","","","","",""
"1821.8999999761581","","image-slider-response","241","2744214","0.0-239.0","A3B9M6H2PTCQWX","","","","","12","","","","","","","","","","","","","","","","","","","","","",""
"826","","image-button-response","242","2749215","0.0-240.0","A3B9M6H2PTCQWX","img_art/20.jpg","5","","","","","","","","","","","","","","","","","","","","","","","","",""
"776","","image-button-response","243","2749992","0.0-241.0","A3B9M6H2PTCQWX","img_art/20.jpg","0","","","","","","","","","","","","","","","","","","","","","","","","",""
"734","","image-button-response","244","2750728","0.0-242.0-0.0","A3B9M6H2PTCQWX","img_art/20.jpg","4","","","","","","","","","","","","","","","","","","","","","","","","",""
"1072","","image-button-response","245","2751800","0.0-243.0-0.0","A3B9M6H2PTCQWX","img_art/20.jpg","1","","","","","","","","","","","","","","","","","","","","","","","","",""
"null","","html-keyboard-response","246","2752802","0.0-244.0","A3B9M6H2PTCQWX","<p style=""font-size: 48px;"">+</p>","","","","","null","allTrialResponses","1000","1","28","img_art/20.jpg","12","melt city","Garrett,Devon,Kenneth,Derek,Jared,Devin","I really like this. There are lots of objects the artist wanted to show and the colors are good.,38,180,20","i can feel the intensity in this,11,400,20","I want to like this more, but i wish it was more detailed. It's hard for me to see what it is.,5,300,20","I like the calming mood of this painting,35,360,20","i like the rounded edges,18,400,20","Looks somewhat dark and emotional,-10,380,20","Garrett","I really like this. There are lots of objects the artist wanted to show and the colors are good.,38,180,20","Jared","i like the rounded edges,18,400,20","Devon","i can feel the intensity in this,11,400,20","2"
"5131","","survey-text","247","2757936","0.0-245.0-0.0","A3B9M6H2PTCQWX","","","","{""Q0"":""waterfall""}","","","","","","","","","","","","","","","","","","","","","","",""
"1850","","image-slider-response","248","2759787","0.0-246.0","A3B9M6H2PTCQWX","","","","","15","","","","","","","","","","","","","","","","","","","","","",""
"4665","","image-button-response","249","2764789","0.0-247.0","A3B9M6H2PTCQWX","img_art/24.jpg","2","","","","","","","","","","","","","","","","","","","","","","","","",""
"1577","","image-button-response","250","2766368","0.0-248.0","A3B9M6H2PTCQWX","img_art/24.jpg","4","","","","","","","","","","","","","","","","","","","","","","","","",""
"1029","","image-button-response","251","2767397","0.0-249.0-0.0","A3B9M6H2PTCQWX","img_art/24.jpg","2","","","","","","","","","","","","","","","","","","","","","","","","",""
"1147","","image-button-response","252","2768546","0.0-250.0-0.0","A3B9M6H2PTCQWX","img_art/24.jpg","3","","","","","","","","","","","","","","","","","","","","","","","","",""
"null","","html-keyboard-response","253","2770047","0.0-251.0","A3B9M6H2PTCQWX","<p style=""font-size: 48px;"">+</p>","","","","","null","allTrialResponses","1500","1","29","img_art/24.jpg","15","waterfall","Garrett,Devon,Taylor,Isaiah,Jared,Andrew","I like the way the colors are put together, and I can imagine this picture in real life.,40,180,20","Aww. I love the peace brought by this picture.,40,400,20","I actually like this one. You can tell what it is.,25,200,20","I feel relaxed and happy, looking at the stream, but it feels hollow, like something is fake.,5,300,20","i like that the water seems in motion,6,400,20","Makes me think of a couple of hikes that I've taken,50,160,20","Jared","i like that the water seems in motion,6,400,20","Taylor","I actually like this one. You can tell what it is.,25,200,20","Isaiah","I feel relaxed and happy, looking at the stream, but it feels hollow, like something is fake.,5,300,20","2"
"8585","","survey-text","254","2778636","0.0-252.0-0.0","A3B9M6H2PTCQWX","","","","{""Q0"":""crazy gate""}","","","","","","","","","","","","","","","","","","","","","","",""
"2088.5","","image-slider-response","255","2780725","0.0-253.0","A3B9M6H2PTCQWX","","","","","6","","","","","","","","","","","","","","","","","","","","","",""
"2816","","image-button-response","256","2785727","0.0-254.0","A3B9M6H2PTCQWX","img_art/8.jpg","1","","","","","","","","","","","","","","","","","","","","","","","","",""
"802","","image-button-response","257","2786529","0.0-255.0","A3B9M6H2PTCQWX","img_art/8.jpg","1","","","","","","","","","","","","","","","","","","","","","","","","",""
"712","","image-button-response","258","2787243","0.0-256.0-0.0","A3B9M6H2PTCQWX","img_art/8.jpg","4","","","","","","","","","","","","","","","","","","","","","","","","",""
"539","","image-button-response","259","2787784","0.0-257.0-0.0","A3B9M6H2PTCQWX","img_art/8.jpg","3","","","","","","","","","","","","","","","","","","","","","","","","",""
"null","","html-keyboard-response","260","2789286","0.0-258.0","A3B9M6H2PTCQWX","<p style=""font-size: 48px;"">+</p>","","","","","null","allTrialResponses","1500","1","30","img_art/8.jpg","6","crazy gate","Angel,Brendan,Taylor,Isaiah,Jared,Noah","The angle makes it kind of disorienting but I enjoy the fantastical colors and imagery. It's like a dream.,10,180,20","beautiful buildings,32,340,20","And I'll huff and I'll puff and I'll blow your town down!!,20,200,20","It makes me feel nervous. I can't tell ifI'm looking at an apartment, or a hellscape.,-18,300,20","i love the colors, the church and the face,42,400,20","not sure what to make of this - just neutral again,-1,260,20","Brendan","beautiful buildings,32,340,20","Jared","i love the colors, the church and the face,42,400,20","Isaiah","It makes me feel nervous. I can't tell ifI'm looking at an apartment, or a hellscape.,-18,300,20","2"
"6022","","image-button-response_instructions","261","2795313","0.0-259.0","A3B9M6H2PTCQWX","","0","instructions","","","","","","","","","","","","","","","","","","","","","","","",""
"1095","","image-button-response","262","2796414","0.0-260.0","A3B9M6H2PTCQWX","","0","","","","","","","","","","","","","","","","","","","","","","","","",""
