"rt","url","trial_type","trial_index","time_elapsed","internal_node_id","participant_id","stimulus","button_pressed","Name","responses","response","key_press","variableName","fixationTime","condition","trial","photo","subjectRating","subjectResponse","agentsNames","agent_1_Response","agent_2_Response","agent_3_Response","agent_4_Response","agent_5_Response","agent_6_Response","kept_1_name","kept_1_response","kept_2_name","kept_2_response","kept_3_name","kept_3_response","errorCounter"
"12819","external_page_harvard.html","external-html","0","12919","0.0-0.0","A3BUWQ5C39GRQC","","","","","","","","","","","","","","","","","","","","","","","","","","",""
"2079","","image-button-response","1","15000","0.0-1.0","A3BUWQ5C39GRQC","","1","","","","","","","","","","","","","","","","","","","","","","","","",""
"2948","","image-button-response","2","17951","0.0-2.0-0.0","A3BUWQ5C39GRQC","","1","phone","","","","","","","","","","","","","","","","","","","","","","","",""
"3483","","survey-text","3","21435","0.0-3.0-0.0","A3BUWQ5C39GRQC","","","","{""Q0"":""A3BUWQ5C39GRQC""}","","","","","","","","","","","","","","","","","","","","","","",""
"3736","","image-button-response_instructions","4","25174","0.0-4.0","A3BUWQ5C39GRQC","","0","instructions","","","","","","","","","","","","","","","","","","","","","","","",""
"18141","","image-button-response_instructions","5","43315","0.0-5.0","A3BUWQ5C39GRQC","img_art/ins/popularity/ins1.png","0","instructions","","","","","","","","","","","","","","","","","","","","","","","",""
"3999","","image-button-response_instructions","6","47315","0.0-6.0","A3BUWQ5C39GRQC","img_art/ins/popularity/ins2.png","0","instructions","","","","","","","","","","","","","","","","","","","","","","","",""
"3253","","image-button-response_instructions","7","50570","0.0-7.0","A3BUWQ5C39GRQC","img_art/ins/popularity/ins2Extreme.png","0","instructions","","","","","","","","","","","","","","","","","","","","","","","",""
"17352","","image-button-response_instructions","8","67923","0.0-8.0","A3BUWQ5C39GRQC","img_art/ins/popularity/ins3KEEPpop.PNG","0","instructions","","","","","","","","","","","","","","","","","","","","","","","",""
"2803","","image-button-response_instructions","9","70727","0.0-9.0","A3BUWQ5C39GRQC","img_art/ins/popularity/ins3ANamepop.PNG","0","instructions","","","","","","","","","","","","","","","","","","","","","","","",""
"3379","","image-button-response_instructions","10","74107","0.0-10.0","A3BUWQ5C39GRQC","img_art/ins/popularity/ins3ARatingpop.png","0","instructions","","","","","","","","","","","","","","","","","","","","","","","",""
"5991","","image-button-response_instructions","11","80099","0.0-11.0","A3BUWQ5C39GRQC","img_art/ins/popularity/ins3ATextpop.png","0","instructions","","","","","","","","","","","","","","","","","","","","","","","",""
"3409","","image-button-response_instructions","12","83509","0.0-12.0","A3BUWQ5C39GRQC","img_art/ins/popularity/ins3ALikespop.png","0","instructions","","","","","","","","","","","","","","","","","","","","","","","",""
"7165","","image-button-response_instructions","13","90675","0.0-13.0","A3BUWQ5C39GRQC","img_art/ins/popularity/ins3KEEPpop.PNG","0","instructions","","","","","","","","","","","","","","","","","","","","","","","",""
"10843","","image-button-response_instructions","14","101519","0.0-14.0","A3BUWQ5C39GRQC","img_art/ins/popularity/ins3_5RED.png","0","instructions","","","","","","","","","","","","","","","","","","","","","","","",""
"3142","","image-button-response_instructions","15","104661","0.0-15.0","A3BUWQ5C39GRQC","img_art/ins/popularity/ins3KEEPpop.PNG","0","instructions","","","","","","","","","","","","","","","","","","","","","","","",""
"8993","","image-button-response_instructions","16","113655","0.0-16.0","A3BUWQ5C39GRQC","img_art/ins/popularity/ins4KEEPpop.PNG","0","instructions","","","","","","","","","","","","","","","","","","","","","","","",""
"4245","","image-button-response_instructions","17","117901","0.0-17.0","A3BUWQ5C39GRQC","img_art/ins/popularity/ins5KEEPpop.PNG","0","instructions","","","","","","","","","","","","","","","","","","","","","","","",""
"1377","","image-button-response_instructions","18","119279","0.0-18.0","A3BUWQ5C39GRQC","","0","instructions","","","","","","","","","","","","","","","","","","","","","","","",""
"7000","","survey-text","19","126299","0.0-19.0-0.0","A3BUWQ5C39GRQC","","","","{""Q0"":""but""}","","","","","","","","","","","","","","","","","","","","","","",""
"11018","","survey-text","20","137317","0.0-20.0-0.0","A3BUWQ5C39GRQC","","","","{""Q0"":""it looks so messy""}","","","","","","","","","","","","","","","","","","","","","","",""
"5790.399999856949","","image-slider-response","21","143109","0.0-21.0","A3BUWQ5C39GRQC","","","","","-40","","","","","","","","","","","","","","","","","","","","","",""
"null","","image-button-response","22","148113","0.0-22.0","A3BUWQ5C39GRQC","img_art/ins/1.jpg","null","","","","","","","","","","","","","","","","","","","","","","","","",""
"332","","image-button-response","23","148448","0.0-23.0","A3BUWQ5C39GRQC","img_art/ins/1.jpg","1","","","","","","","","","","","","","","","","","","","","","","","","",""
"3504","","image-button-response","24","151954","0.0-24.0-0.0","A3BUWQ5C39GRQC","img_art/ins/1.jpg","5","","","","","","","","","","","","","","","","","","","","","","","","",""
"4714","","image-button-response","25","156670","0.0-25.0-0.0","A3BUWQ5C39GRQC","img_art/ins/1.jpg","3","","","","","","","","","","","","","","","","","","","","","","","","",""
"null","","html-keyboard-response","26","157173","0.0-26.0","A3BUWQ5C39GRQC","<p style=""font-size: 48px;"">+</p>","","","","","null","allTrialResponses","500","1","-2","img_art/ins/1.jpg","-40","it looks so messy","Allison,Ashley,Beth,Dora,Erika,Jen","looks like a lot of things going on in the mist,20,20,20","I just don't get why these type of art would be popular,-32,40,20","This color reminds me of poo,-46,60,20","looks like what my niece in 3rd grade did this afternoon,-50,80,20","I like the sophisticated brushwork,40,100,20","It reminds me of a candy land dream I had,36,120,20","Ashley","I just don't get why these type of art would be popular,-32,40,20","Jen","It reminds me of a candy land dream I had,36,120,20","Dora","looks like what my niece in 3rd grade did this afternoon,-50,80,20","0"
"25243","","survey-text","27","182423","0.0-27.0-0.0","A3BUWQ5C39GRQC","","","","{""Q0"":""looks like the kind of art you would find on the bathroom wall""}","","","","","","","","","","","","","","","","","","","","","","",""
"2698.7999999523163","","image-slider-response","28","185123","0.0-28.0","A3BUWQ5C39GRQC","","","","","-50","","","","","","","","","","","","","","","","","","","","","",""
"null","","image-button-response","29","190126","0.0-29.0","A3BUWQ5C39GRQC","img_art/ins/2.jpg","null","","","","","","","","","","","","","","","","","","","","","","","","",""
"653","","image-button-response","30","190782","0.0-30.0","A3BUWQ5C39GRQC","img_art/ins/2.jpg","1","","","","","","","","","","","","","","","","","","","","","","","","",""
"2647","","image-button-response","31","193431","0.0-31.0-0.0","A3BUWQ5C39GRQC","img_art/ins/2.jpg","3","","","","","","","","","","","","","","","","","","","","","","","","",""
"2427","","image-button-response","32","195860","0.0-32.0-0.0","A3BUWQ5C39GRQC","img_art/ins/2.jpg","0","","","","","","","","","","","","","","","","","","","","","","","","",""
"null","","html-keyboard-response","33","197361","0.0-33.0","A3BUWQ5C39GRQC","<p style=""font-size: 48px;"">+</p>","","","","","null","allTrialResponses","1500","1","-1","img_art/ins/2.jpg","-50","looks like the kind of art you would find on the bathroom wall","Jenna,Ashley,Katie,Dora,Kara,Jen","One of my pet peevs,-48,140,20","Idk, it is just annoying,-32,40,20","too much color!,-28,180,20","looks too angry,-50,80,20","I like the blocks of color arrangements,30,160,20","It reminds me of a fireplace,36,120,20","Ashley","Idk, it is just annoying,-32,40,20","Dora","looks too angry,-50,80,20","Jenna","One of my pet peevs,-48,140,20","0"
"22840","","survey-text","34","220210","0.0-34.0-0.0","A3BUWQ5C39GRQC","","","","{""Q0"":""I kind of like it, love all the blue""}","","","","","","","","","","","","","","","","","","","","","","",""
"3016.7000000476837","","image-slider-response","35","223227","0.0-35.0","A3BUWQ5C39GRQC","","","","","37","","","","","","","","","","","","","","","","","","","","","",""
"null","","image-button-response","36","228230","0.0-36.0","A3BUWQ5C39GRQC","img_art/ins/3.jpg","null","","","","","","","","","","","","","","","","","","","","","","","","",""
"975","","image-button-response","37","229206","0.0-37.0","A3BUWQ5C39GRQC","img_art/ins/3.jpg","4","","","","","","","","","","","","","","","","","","","","","","","","",""
"1092","","image-button-response","38","230300","0.0-38.0-0.0","A3BUWQ5C39GRQC","img_art/ins/3.jpg","2","","","","","","","","","","","","","","","","","","","","","","","","",""
"6480","","image-button-response","39","236782","0.0-39.0-0.0","A3BUWQ5C39GRQC","img_art/ins/3.jpg","0","","","","","","","","","","","","","","","","","","","","","","","","",""
"null","","html-keyboard-response","40","238285","0.0-40.0","A3BUWQ5C39GRQC","<p style=""font-size: 48px;"">+</p>","","","","","null","allTrialResponses","1500","1","0","img_art/ins/3.jpg","37","I kind of like it, love all the blue","Jenna,Ashley,Leslie,Dora,Mary,Rose","looks like a murder room,-35,140,20","It looks like a playground for bats,-36,40,20","It's an alright work,15,200,20","My worst nightmare,-42,80,20","I like the overlapping of brushes,41,220,20","My daily routine, it's depressing,-20,240,20","Mary","I like the overlapping of brushes,41,220,20","Leslie","It's an alright work,15,200,20","Jenna","looks like a murder room,-35,140,20","0"
"7179","","image-button-response_instructions","41","245474","0.0-41.0","A3BUWQ5C39GRQC","","0","instructions","","","","","","","","","","","","","","","","","","","","","","","",""
"8618","","survey-likert","42","254094","0.0-42.0-0.0","A3BUWQ5C39GRQC","","","","{""Q0"":"""",""Q1"":0,""Q2"":1}","","","","","","","","","","","","","","","","","","","","","","",""
"5381","","survey-text","43","259481","0.0-43.0-0.0","A3BUWQ5C39GRQC","","","","{""Q0"":""rock""}","","","","","","","","","","","","","","","","","","","","","","",""
"13179","","survey-text","44","272661","0.0-44.0-0.0","A3BUWQ5C39GRQC","","","","{""Q0"":""i really like the top part""}","","","","","","","","","","","","","","","","","","","","","","",""
"5314.900000095367","","image-slider-response","45","277978","0.0-45.0","A3BUWQ5C39GRQC","","","","","23","","","","","","","","","","","","","","","","","","","","","",""
"null","","image-button-response","46","282998","0.0-46.0","A3BUWQ5C39GRQC","img_art/17.jpg","null","","","","","","","","","","","","","","","","","","","","","","","","",""
"569","","image-button-response","47","283570","0.0-47.0","A3BUWQ5C39GRQC","img_art/17.jpg","2","","","","","","","","","","","","","","","","","","","","","","","","",""
"6354","","image-button-response","48","289926","0.0-48.0-0.0","A3BUWQ5C39GRQC","img_art/17.jpg","4","","","","","","","","","","","","","","","","","","","","","","","","",""
"2418","","image-button-response","49","292346","0.0-49.0-0.0","A3BUWQ5C39GRQC","img_art/17.jpg","3","","","","","","","","","","","","","","","","","","","","","","","","",""
"null","","html-keyboard-response","50","293349","0.0-50.0","A3BUWQ5C39GRQC","<p style=""font-size: 48px;"">+</p>","","","","","null","allTrialResponses","1000","1","1","img_art/17.jpg","23","i really like the top part","Crystal,Danielle,Kelly,Monica,Kylie,Alexa","Embodies beauty and complexity and in simplicity as well,50,300,20","It's alright, nothing I particularly like but it's just fine,-10,340,20","I really like this, especially the tree.,23,220,20","The colors remind me of a sunset and give a bittersweet feeling. It looks unfinished but not terrible.,6,360,20","Looks like an explosion of pretty artwork,45,300,20","The colors are beautiful and the painting itself is magnificent,50,40,20","Kelly","I really like this, especially the tree.,23,220,20","Kylie","Looks like an explosion of pretty artwork,45,300,20","Monica","The colors remind me of a sunset and give a bittersweet feeling. It looks unfinished but not terrible.,6,360,20","0"
"20211","","survey-text","51","313567","0.0-51.0-0.0","A3BUWQ5C39GRQC","","","","{""Q0"":""i am not sure what it is but it is beautiful""}","","","","","","","","","","","","","","","","","","","","","","",""
"2476.7999999523163","","image-slider-response","52","316045","0.0-52.0","A3BUWQ5C39GRQC","","","","","50","","","","","","","","","","","","","","","","","","","","","",""
"2768","","image-button-response","53","321049","0.0-53.0","A3BUWQ5C39GRQC","img_art/13.jpg","2","","","","","","","","","","","","","","","","","","","","","","","","",""
"855","","image-button-response","54","321908","0.0-54.0","A3BUWQ5C39GRQC","img_art/13.jpg","2","","","","","","","","","","","","","","","","","","","","","","","","",""
"5236","","image-button-response","55","327146","0.0-55.0-0.0","A3BUWQ5C39GRQC","img_art/13.jpg","4","","","","","","","","","","","","","","","","","","","","","","","","",""
"11066","","image-button-response","56","338214","0.0-56.0-0.0","A3BUWQ5C39GRQC","img_art/13.jpg","0","","","","","","","","","","","","","","","","","","","","","","","","",""
"null","","html-keyboard-response","57","339715","0.0-57.0","A3BUWQ5C39GRQC","<p style=""font-size: 48px;"">+</p>","","","","","null","allTrialResponses","1500","1","2","img_art/13.jpg","50","i am not sure what it is but it is beautiful","Olivia,Destiny,Kelly,Monica,Kylie,Kimberly","eighties here we come,7,40,20","so simple and stupid this looks like what I did to my cousins wall when we repainted it for her 13th bday,0,360,20","I would hang this photo in my room.,21,220,20","It's like any other splatter paint art piece, nothing special,1,360,20","Very abstract and soothing,40,300,20","It's like a pattern on a bus seat,10,260,20","Kelly","I would hang this photo in my room.,21,220,20","Kylie","Very abstract and soothing,40,300,20","Olivia","eighties here we come,7,40,20","0"
"14312","","survey-text","58","354035","0.0-58.0-0.0","A3BUWQ5C39GRQC","","","","{""Q0"":""it is very random""}","","","","","","","","","","","","","","","","","","","","","","",""
"3702.7999999523163","","image-slider-response","59","357739","0.0-59.0","A3BUWQ5C39GRQC","","","","","-31","","","","","","","","","","","","","","","","","","","","","",""
"4317","","image-button-response","60","362742","0.0-60.0","A3BUWQ5C39GRQC","img_art/22.jpg","3","","","","","","","","","","","","","","","","","","","","","","","","",""
"1335","","image-button-response","61","364080","0.0-61.0","A3BUWQ5C39GRQC","img_art/22.jpg","3","","","","","","","","","","","","","","","","","","","","","","","","",""
"1949","","image-button-response","62","366030","0.0-62.0-0.0","A3BUWQ5C39GRQC","img_art/22.jpg","5","","","","","","","","","","","","","","","","","","","","","","","","",""
"3674","","image-button-response","63","369706","0.0-63.0-0.0","A3BUWQ5C39GRQC","img_art/22.jpg","4","","","","","","","","","","","","","","","","","","","","","","","","",""
"null","","html-keyboard-response","64","371209","0.0-64.0","A3BUWQ5C39GRQC","<p style=""font-size: 48px;"">+</p>","","","","","null","allTrialResponses","1500","1","3","img_art/22.jpg","-31","it is very random","Olivia,Haley,Kelly,Kaylee,Kylie,Mary","ball of light in 90s,8,40,20","Beautiful. I love the color contrast and gradients.,50,220,20","I really enjoy the blended colors.,20,220,20","its just ugly for me,-50,200,20","Climate change in a big city,35,300,20","I do not like the color combo. This piece is too much the same throughout.,-1,180,20","Kaylee","its just ugly for me,-50,200,20","Mary","I do not like the color combo. This piece is too much the same throughout.,-1,180,20","Kylie","Climate change in a big city,35,300,20","0"
"26615","","survey-text","65","397834","0.0-65.0-0.0","A3BUWQ5C39GRQC","","","","{""Q0"":""i like parts of it other parts are just a mess""}","","","","","","","","","","","","","","","","","","","","","","",""
"5166.5","","image-slider-response","66","403002","0.0-66.0","A3BUWQ5C39GRQC","","","","","-13","","","","","","","","","","","","","","","","","","","","","",""
"null","","image-button-response","67","408004","0.0-67.0","A3BUWQ5C39GRQC","img_art/21.jpg","null","","","","","","","","","","","","","","","","","","","","","","","","",""
"573","","image-button-response","68","408580","0.0-68.0","A3BUWQ5C39GRQC","img_art/21.jpg","0","","","","","","","","","","","","","","","","","","","","","","","","",""
"2040","","image-button-response","69","410621","0.0-69.0-0.0","A3BUWQ5C39GRQC","img_art/21.jpg","0","","","","","","","","","","","","","","","","","","","","","","","","",""
"12305","","image-button-response","70","426456","0.0-69.1-0.1","A3BUWQ5C39GRQC","img_art/21.jpg","3","","","","","","","","","","","","","","","","","","","","","","","","",""
"7234","","image-button-response","71","433692","0.0-70.0-0.0","A3BUWQ5C39GRQC","img_art/21.jpg","5","","","","","","","","","","","","","","","","","","","","","","","","",""
"null","","html-keyboard-response","72","434694","0.0-71.0","A3BUWQ5C39GRQC","<p style=""font-size: 48px;"">+</p>","","","","","null","allTrialResponses","1000","1","4","img_art/21.jpg","-13","i like parts of it other parts are just a mess","Lindsey,Kristen,Amber,Kaylee,Kylie,Mary","I like this piece more the more I look at. Still wouldn't want it in my home, though.,8,400,20","calm, ship at sea, sunset,16,280,20","sunset after the rain,49,200,20","looks like a sea during some war,27,200,20","Makes me think of a battleship targeting a beautiful mountainside,0,300,20","This is lovely. I like the mix of colors, the warn and cool slowly combining.,39,180,20","Lindsey","I like this piece more the more I look at. Still wouldn't want it in my home, though.,8,400,20","Kaylee","looks like a sea during some war,27,200,20","Mary","This is lovely. I like the mix of colors, the warn and cool slowly combining.,39,180,20","2"
"19788","","survey-text","73","454491","0.0-72.0-0.0","A3BUWQ5C39GRQC","","","","{""Q0"":""this one does look like a kid's drawing""}","","","","","","","","","","","","","","","","","","","","","","",""
"3406.7000000476837","","image-slider-response","74","457899","0.0-73.0","A3BUWQ5C39GRQC","","","","","-37","","","","","","","","","","","","","","","","","","","","","",""
"null","","image-button-response","75","462901","0.0-74.0","A3BUWQ5C39GRQC","img_art/14.jpg","null","","","","","","","","","","","","","","","","","","","","","","","","",""
"3228","","image-button-response","76","466131","0.0-75.0","A3BUWQ5C39GRQC","img_art/14.jpg","3","","","","","","","","","","","","","","","","","","","","","","","","",""
"12197","","image-button-response","77","478329","0.0-76.0-0.0","A3BUWQ5C39GRQC","img_art/14.jpg","4","","","","","","","","","","","","","","","","","","","","","","","","",""
"3220","","image-button-response","78","481551","0.0-77.0-0.0","A3BUWQ5C39GRQC","img_art/14.jpg","0","","","","","","","","","","","","","","","","","","","","","","","","",""
"null","","html-keyboard-response","79","482053","0.0-78.0","A3BUWQ5C39GRQC","<p style=""font-size: 48px;"">+</p>","","","","","null","allTrialResponses","500","1","5","img_art/14.jpg","-37","this one does look like a kid's drawing","Lindsey,Sara,Katie,Kaylee,Brooke,Mary","Warm, positive, growth.,8,400,20","It uplifts my mood due to the color scheme,32,160,20","It represents growth. I see a plant/tree growing out of the ground. I like the rainbow of color in the painting.,31,160,20","it looks like a tree on desert,23,200,20","cotton candy skies. pretty.,35,60,20","I like the layers of color in this piece. The circles and lines are interesting.,29,180,20","Kaylee","it looks like a tree on desert,23,200,20","Brooke","cotton candy skies. pretty.,35,60,20","Lindsey","Warm, positive, growth.,8,400,20","2"
"4585","","survey-text","80","486649","0.0-79.0-0.0","A3BUWQ5C39GRQC","","","","{""Q0"":""sky""}","","","","","","","","","","","","","","","","","","","","","","",""
"36831","","survey-text","81","523481","0.0-80.0-0.0","A3BUWQ5C39GRQC","","","","{""Q0"":""the green parts look like somebody wrote on top of it""}","","","","","","","","","","","","","","","","","","","","","","",""
"3249","","image-slider-response","82","526731","0.0-81.0","A3BUWQ5C39GRQC","","","","","-50","","","","","","","","","","","","","","","","","","","","","",""
"null","","image-button-response","83","531734","0.0-82.0","A3BUWQ5C39GRQC","img_art/27.jpg","null","","","","","","","","","","","","","","","","","","","","","","","","",""
"720","","image-button-response","84","532455","0.0-83.0","A3BUWQ5C39GRQC","img_art/27.jpg","0","","","","","","","","","","","","","","","","","","","","","","","","",""
"6663","","image-button-response","85","539119","0.0-84.0-0.0","A3BUWQ5C39GRQC","img_art/27.jpg","2","","","","","","","","","","","","","","","","","","","","","","","","",""
"6511","","image-button-response","86","545631","0.0-85.0-0.0","A3BUWQ5C39GRQC","img_art/27.jpg","1","","","","","","","","","","","","","","","","","","","","","","","","",""
"null","","html-keyboard-response","87","547133","0.0-86.0","A3BUWQ5C39GRQC","<p style=""font-size: 48px;"">+</p>","","","","","null","allTrialResponses","1500","1","6","img_art/27.jpg","-50","the green parts look like somebody wrote on top of it","Lindsey,Michelle,Hannah,Kaylee,Brooke,Mikayla","Looks like my niece's doodles.,-50,400,20","very abstract, I don't understand it, but I like the bright, cheerful colors,14,280,20","Reminds me of something I'd see in a gold frame from the Eighties.,-9,240,20","nice firestorm on desert,23,200,20","Like it, autumn colors, trees and foliage scene.,25,60,20","It kinda reminds me of sushi.,16,300,20","Lindsey","Looks like my niece's doodles.,-50,400,20","Hannah","Reminds me of something I'd see in a gold frame from the Eighties.,-9,240,20","Michelle","very abstract, I don't understand it, but I like the bright, cheerful colors,14,280,20","2"
"33802","","survey-text","88","580941","0.0-87.0-0.0","A3BUWQ5C39GRQC","","","","{""Q0"":""not sure what it is but i like the colors""}","","","","","","","","","","","","","","","","","","","","","","",""
"2516.5999999046326","","image-slider-response","89","583459","0.0-88.0","A3BUWQ5C39GRQC","","","","","21","","","","","","","","","","","","","","","","","","","","","",""
"null","","image-button-response","90","588462","0.0-89.0","A3BUWQ5C39GRQC","img_art/20.jpg","null","","","","","","","","","","","","","","","","","","","","","","","","",""
"321","","image-button-response","91","588785","0.0-90.0","A3BUWQ5C39GRQC","img_art/20.jpg","0","","","","","","","","","","","","","","","","","","","","","","","","",""
"6131","","image-button-response","92","594918","0.0-91.0-0.0","A3BUWQ5C39GRQC","img_art/20.jpg","5","","","","","","","","","","","","","","","","","","","","","","","","",""
"3386","","image-button-response","93","598305","0.0-92.0-0.0","A3BUWQ5C39GRQC","img_art/20.jpg","2","","","","","","","","","","","","","","","","","","","","","","","","",""
"null","","html-keyboard-response","94","599307","0.0-93.0","A3BUWQ5C39GRQC","<p style=""font-size: 48px;"">+</p>","","","","","null","allTrialResponses","1000","1","7","img_art/20.jpg","21","not sure what it is but i like the colors","Lindsey,Michelle,Hannah,Caroline,Gabriela,Laura","Not sure what it is. The colors are pleasant; makes me want to figure it out. An animal skull in the desert?,10,400,20","Reminds me of Dali for some reason, whom I don't like,-7,280,20","Reminds me of the Southwest; i.e. New Mexico or Arizona. It's interesting.,12,240,20","Makes me feel weary,21,100,20","it is a bit disturbing, like a monster or ghost floating away from a bleak building,-8,140,20","very fluid and mysterious,37,320,20","Lindsey","Not sure what it is. The colors are pleasant; makes me want to figure it out. An animal skull in the desert?,10,400,20","Laura","very fluid and mysterious,37,320,20","Hannah","Reminds me of the Southwest; i.e. New Mexico or Arizona. It's interesting.,12,240,20","2"
"27023","","survey-text","95","626335","0.0-94.0-0.0","A3BUWQ5C39GRQC","","","","{""Q0"":""wow so pretty i love the lines""}","","","","","","","","","","","","","","","","","","","","","","",""
"2890.5999999046326","","image-slider-response","96","629227","0.0-95.0","A3BUWQ5C39GRQC","","","","","39","","","","","","","","","","","","","","","","","","","","","",""
"null","","image-button-response","97","634229","0.0-96.0","A3BUWQ5C39GRQC","img_art/11.jpg","null","","","","","","","","","","","","","","","","","","","","","","","","",""
"2513","","image-button-response","98","636745","0.0-97.0","A3BUWQ5C39GRQC","img_art/11.jpg","5","","","","","","","","","","","","","","","","","","","","","","","","",""
"3422","","image-button-response","99","640169","0.0-98.0-0.0","A3BUWQ5C39GRQC","img_art/11.jpg","4","","","","","","","","","","","","","","","","","","","","","","","","",""
"2842","","image-button-response","100","643013","0.0-99.0-0.0","A3BUWQ5C39GRQC","img_art/11.jpg","2","","","","","","","","","","","","","","","","","","","","","","","","",""
"null","","html-keyboard-response","101","644014","0.0-100.0","A3BUWQ5C39GRQC","<p style=""font-size: 48px;"">+</p>","","","","","null","allTrialResponses","1000","1","8","img_art/11.jpg","39","wow so pretty i love the lines","Lindsey,Erin,Hannah,Bailey,Mackenzie,Laura","Not a fan of the colors but it looks interesting.,-31,400,20","Frank Lloyd Wright, music,24,120,20","Is interesting. Wouldn't bother me to have this hanging where I'd see it every day.,11,240,20","Kind of bizzare in that I can imagine ships or something from it.,11,360,20","The different textures and colors make this pleasing to look at.,30,20,20","i think of beatnik music and dark piano lounges,25,320,20","Laura","i think of beatnik music and dark piano lounges,25,320,20","Mackenzie","The different textures and colors make this pleasing to look at.,30,20,20","Hannah","Is interesting. Wouldn't bother me to have this hanging where I'd see it every day.,11,240,20","2"
"14478","","survey-text","102","658501","0.0-101.0-0.0","A3BUWQ5C39GRQC","","","","{""Q0"":""that just looks like scribbles""}","","","","","","","","","","","","","","","","","","","","","","",""
"2980.7000000476837","","image-slider-response","103","661483","0.0-102.0","A3BUWQ5C39GRQC","","","","","-50","","","","","","","","","","","","","","","","","","","","","",""
"4205","","image-button-response","104","666485","0.0-103.0","A3BUWQ5C39GRQC","img_art/3.jpg","1","","","","","","","","","","","","","","","","","","","","","","","","",""
"1558","","image-button-response","105","668045","0.0-104.0","A3BUWQ5C39GRQC","img_art/3.jpg","3","","","","","","","","","","","","","","","","","","","","","","","","",""
"6168","","image-button-response","106","674215","0.0-105.0-0.0","A3BUWQ5C39GRQC","img_art/3.jpg","5","","","","","","","","","","","","","","","","","","","","","","","","",""
"2766","","image-button-response","107","676983","0.0-106.0-0.0","A3BUWQ5C39GRQC","img_art/3.jpg","1","","","","","","","","","","","","","","","","","","","","","","","","",""
"null","","html-keyboard-response","108","678485","0.0-107.0","A3BUWQ5C39GRQC","<p style=""font-size: 48px;"">+</p>","","","","","null","allTrialResponses","1500","1","9","img_art/3.jpg","-50","that just looks like scribbles","Angela,Cheyenne,Hannah,Autumn,Mackenzie,Laura","Like the colors and energy of this work.,10,260,20","Don't see what the purpose is.,-31,200,20","Looks like a Basquiat but just not my cup of tea.,-29,240,20","Unfocused and rushed.,-28,340,20","I like the simplicity of it.,20,20,20","wild scribbling, freedom, expression,40,320,20","Autumn","Unfocused and rushed.,-28,340,20","Laura","wild scribbling, freedom, expression,40,320,20","Cheyenne","Don't see what the purpose is.,-31,200,20","2"
"26961","","survey-text","109","705455","0.0-108.0-0.0","A3BUWQ5C39GRQC","","","","{""Q0"":""it is just weird but i do like the background color""}","","","","","","","","","","","","","","","","","","","","","","",""
"2444.5999999046326","","image-slider-response","110","707901","0.0-109.0","A3BUWQ5C39GRQC","","","","","-26","","","","","","","","","","","","","","","","","","","","","",""
"null","","image-button-response","111","712904","0.0-110.0","A3BUWQ5C39GRQC","img_art/4.jpg","null","","","","","","","","","","","","","","","","","","","","","","","","",""
"274","","image-button-response","112","713181","0.0-111.0","A3BUWQ5C39GRQC","img_art/4.jpg","1","","","","","","","","","","","","","","","","","","","","","","","","",""
"4366","","image-button-response","113","717549","0.0-112.0-0.0","A3BUWQ5C39GRQC","img_art/4.jpg","3","","","","","","","","","","","","","","","","","","","","","","","","",""
"4356","","image-button-response","114","721907","0.0-113.0-0.0","A3BUWQ5C39GRQC","img_art/4.jpg","4","","","","","","","","","","","","","","","","","","","","","","","","",""
"null","","html-keyboard-response","115","722908","0.0-114.0","A3BUWQ5C39GRQC","<p style=""font-size: 48px;"">+</p>","","","","","null","allTrialResponses","1000","1","10","img_art/4.jpg","-26","it is just weird but i do like the background color","Jasmine,Cheyenne,Erica,Autumn,Tiffany,Laura","It's quite meh to me,0,340,20","Just doesn't look nice.,-40,200,20","Easy and relaxing,23,80,20","I don't like murky colors.,-40,340,20","The sickly looking colors make me feel very uncomfortable.,-35,360,20","spontaneous, without hesitation,22,320,20","Cheyenne","Just doesn't look nice.,-40,200,20","Autumn","I don't like murky colors.,-40,340,20","Tiffany","The sickly looking colors make me feel very uncomfortable.,-35,360,20","2"
"5751","","survey-text","116","728671","0.0-115.0-0.0","A3BUWQ5C39GRQC","","","","{""Q0"":""our""}","","","","","","","","","","","","","","","","","","","","","","",""
"16157","","survey-text","117","744829","0.0-116.0-0.0","A3BUWQ5C39GRQC","","","","{""Q0"":""it is a very busy painting""}","","","","","","","","","","","","","","","","","","","","","","",""
"2908.9000000953674","","image-slider-response","118","747739","0.0-117.0","A3BUWQ5C39GRQC","","","","","-40","","","","","","","","","","","","","","","","","","","","","",""
"3736","","image-button-response","119","752742","0.0-118.0","A3BUWQ5C39GRQC","img_art/28.jpg","0","","","","","","","","","","","","","","","","","","","","","","","","",""
"1200","","image-button-response","120","753945","0.0-119.0","A3BUWQ5C39GRQC","img_art/28.jpg","0","","","","","","","","","","","","","","","","","","","","","","","","",""
"1683","","image-button-response","121","755629","0.0-120.0-0.0","A3BUWQ5C39GRQC","img_art/28.jpg","3","","","","","","","","","","","","","","","","","","","","","","","","",""
"3102","","image-button-response","122","758733","0.0-121.0-0.0","A3BUWQ5C39GRQC","img_art/28.jpg","5","","","","","","","","","","","","","","","","","","","","","","","","",""
"null","","html-keyboard-response","123","759235","0.0-122.0","A3BUWQ5C39GRQC","<p style=""font-size: 48px;"">+</p>","","","","","null","allTrialResponses","500","1","11","img_art/28.jpg","-40","it is a very busy painting","Leah,Cheyenne,Erika,Autumn,Tiffany,Lauren","Too me it's a mish mash, true abstract,-37,360,20","Good use of shapes.,7,200,20","Invokes curiosity, I want to know it's story.,15,100,20","Looks yucky and poor.,-33,340,20","It makes me feel happy, and a little anxious.,50,360,20","I feel that the image is invoking a sense of negativity.,-15,340,20","Leah","Too me it's a mish mash, true abstract,-37,360,20","Autumn","Looks yucky and poor.,-33,340,20","Lauren","I feel that the image is invoking a sense of negativity.,-15,340,20","2"
"38951","","survey-text","124","798194","0.0-123.0-0.0","A3BUWQ5C39GRQC","","","","{""Q0"":""i like the use of colors especially the reds and blues""}","","","","","","","","","","","","","","","","","","","","","","",""
"3424.7000000476837","","image-slider-response","125","801620","0.0-124.0","A3BUWQ5C39GRQC","","","","","15","","","","","","","","","","","","","","","","","","","","","",""
"null","","image-button-response","126","806623","0.0-125.0","A3BUWQ5C39GRQC","img_art/30.jpg","null","","","","","","","","","","","","","","","","","","","","","","","","",""
"1742","","image-button-response","127","808367","0.0-126.0","A3BUWQ5C39GRQC","img_art/30.jpg","5","","","","","","","","","","","","","","","","","","","","","","","","",""
"2920","","image-button-response","128","811289","0.0-127.0-0.0","A3BUWQ5C39GRQC","img_art/30.jpg","4","","","","","","","","","","","","","","","","","","","","","","","","",""
"5730","","image-button-response","129","817021","0.0-128.0-0.0","A3BUWQ5C39GRQC","img_art/30.jpg","2","","","","","","","","","","","","","","","","","","","","","","","","",""
"null","","html-keyboard-response","130","818523","0.0-129.0","A3BUWQ5C39GRQC","<p style=""font-size: 48px;"">+</p>","","","","","null","allTrialResponses","1500","1","12","img_art/30.jpg","15","i like the use of colors especially the reds and blues","Leah,Catherine,Katelyn,Autumn,Katherine,Lauren","Interesting, almost an underworld of plant life,11,360,20","connection, Everything is connected even in contrast.,42,160,20","I do like the multi-dimensional aspect of this piece,10,100,20","Absolutely messy,-31,340,20","For some reason I like the red in this one. Maybe it's the style of lines/blurs,46,120,20","I like how the strokes invokes a sense of fluidity.,20,340,20","Lauren","I like how the strokes invokes a sense of fluidity.,20,340,20","Katherine","For some reason I like the red in this one. Maybe it's the style of lines/blurs,46,120,20","Katelyn","I do like the multi-dimensional aspect of this piece,10,100,20","2"
"18912","","survey-text","131","837446","0.0-130.0-0.0","A3BUWQ5C39GRQC","","","","{""Q0"":""the trees are the best part""}","","","","","","","","","","","","","","","","","","","","","","",""
"2334.7000000476837","","image-slider-response","132","839782","0.0-131.0","A3BUWQ5C39GRQC","","","","","9","","","","","","","","","","","","","","","","","","","","","",""
"null","","image-button-response","133","844786","0.0-132.0","A3BUWQ5C39GRQC","img_art/26.jpg","null","","","","","","","","","","","","","","","","","","","","","","","","",""
"1156","","image-button-response","134","845945","0.0-133.0","A3BUWQ5C39GRQC","img_art/26.jpg","1","","","","","","","","","","","","","","","","","","","","","","","","",""
"5655","","image-button-response","135","851601","0.0-134.0-0.0","A3BUWQ5C39GRQC","img_art/26.jpg","3","","","","","","","","","","","","","","","","","","","","","","","","",""
"3202","","image-button-response","136","854805","0.0-135.0-0.0","A3BUWQ5C39GRQC","img_art/26.jpg","4","","","","","","","","","","","","","","","","","","","","","","","","",""
"null","","html-keyboard-response","137","855307","0.0-136.0","A3BUWQ5C39GRQC","<p style=""font-size: 48px;"">+</p>","","","","","null","allTrialResponses","500","1","13","img_art/26.jpg","9","the trees are the best part","Jenna,Rebecca,Katelyn,Elizabeth,Katherine,Lauren","soft colors & brush work. very easy to look at. makes me happy.,50,360,20","love the ""lowkey"" vibrant colors that are colorful but at the same time greyscale,12,100,20","Looks bland and boring,-5,100,20","Like the soft blend of colors,26,20,20","This style of objects that are supposed to be something but then are blurry is interesting.,38,120,20","The piece doesn't really invoke anything for me.,0,340,20","Rebecca","love the ""lowkey"" vibrant colors that are colorful but at the same time greyscale,12,100,20","Elizabeth","Like the soft blend of colors,26,20,20","Katherine","This style of objects that are supposed to be something but then are blurry is interesting.,38,120,20","2"
"24318","","survey-text","138","879636","0.0-137.0-0.0","A3BUWQ5C39GRQC","","","","{""Q0"":""the more one looks at it the more there is to discover""}","","","","","","","","","","","","","","","","","","","","","","",""
"4190.800000190735","","image-slider-response","139","883828","0.0-138.0","A3BUWQ5C39GRQC","","","","","42","","","","","","","","","","","","","","","","","","","","","",""
"4297","","image-button-response","140","888831","0.0-139.0","A3BUWQ5C39GRQC","img_art/9.jpg","0","","","","","","","","","","","","","","","","","","","","","","","","",""
"746","","image-button-response","141","889579","0.0-140.0","A3BUWQ5C39GRQC","img_art/9.jpg","0","","","","","","","","","","","","","","","","","","","","","","","","",""
"7637","","image-button-response","142","897217","0.0-141.0-0.0","A3BUWQ5C39GRQC","img_art/9.jpg","4","","","","","","","","","","","","","","","","","","","","","","","","",""
"1526","","image-button-response","143","898745","0.0-142.0-0.0","A3BUWQ5C39GRQC","img_art/9.jpg","3","","","","","","","","","","","","","","","","","","","","","","","","",""
"null","","html-keyboard-response","144","899247","0.0-143.0","A3BUWQ5C39GRQC","<p style=""font-size: 48px;"">+</p>","","","","","null","allTrialResponses","500","1","14","img_art/9.jpg","42","the more one looks at it the more there is to discover","Victoria,Rebecca,Chloe,Elizabeth,Katherine,Heather","reminds me of a story book,18,400,20","love the color palette, but I'm gonna be honest, I don't really understand it,14,100,20","Cheesy. Looks unprofessional,-20,220,20","Love the uniqueness,21,20,20","Idk what is in the middle but the blurry image makes it seem like the subject is of the painters interest,22,120,20","a mother in bed surrounded by emotions,1,260,20","Victoria","reminds me of a story book,18,400,20","Katherine","Idk what is in the middle but the blurry image makes it seem like the subject is of the painters interest,22,120,20","Elizabeth","Love the uniqueness,21,20,20","2"
"35688","","survey-text","145","934945","0.0-144.0-0.0","A3BUWQ5C39GRQC","","","","{""Q0"":""so vivid that it feels like you can touch it""}","","","","","","","","","","","","","","","","","","","","","","",""
"2218.7999999523163","","image-slider-response","146","937165","0.0-145.0","A3BUWQ5C39GRQC","","","","","28","","","","","","","","","","","","","","","","","","","","","",""
"null","","image-button-response","147","942166","0.0-146.0","A3BUWQ5C39GRQC","img_art/24.jpg","null","","","","","","","","","","","","","","","","","","","","","","","","",""
"1715","","image-button-response","148","943885","0.0-147.0","A3BUWQ5C39GRQC","img_art/24.jpg","0","","","","","","","","","","","","","","","","","","","","","","","","",""
"2129","","image-button-response","149","946015","0.0-148.0-0.0","A3BUWQ5C39GRQC","img_art/24.jpg","4","","","","","","","","","","","","","","","","","","","","","","","","",""
"1930","","image-button-response","150","947947","0.0-149.0-0.0","A3BUWQ5C39GRQC","img_art/24.jpg","3","","","","","","","","","","","","","","","","","","","","","","","","",""
"null","","html-keyboard-response","151","949448","0.0-150.0","A3BUWQ5C39GRQC","<p style=""font-size: 48px;"">+</p>","","","","","null","allTrialResponses","1500","1","15","img_art/24.jpg","28","so vivid that it feels like you can touch it","Victoria,Margaret,Sydney,Elizabeth,Katherine,Alicia","very peaceful and serene,47,400,20","peaceful and serene but Im not the biggest landscape fan,4,100,20","I'm reminded of a waterfall, but I feel like it could've been better portrayed.,5,320,20","Evokes pleasant feelings,50,20,20","The combination of nature / realism with abstract colors is unique.,39,120,20","Nature, abstract, I'd hang this in my house.,37,120,20","Victoria","very peaceful and serene,47,400,20","Katherine","The combination of nature / realism with abstract colors is unique.,39,120,20","Elizabeth","Evokes pleasant feelings,50,20,20","2"
"5462","","survey-text","152","954921","0.0-151.0-0.0","A3BUWQ5C39GRQC","","","","{""Q0"":""course""}","","","","","","","","","","","","","","","","","","","","","","",""
"25501","","survey-text","153","980423","0.0-152.0-0.0","A3BUWQ5C39GRQC","","","","{""Q0"":""seems all over the place and it doesn't make sense""}","","","","","","","","","","","","","","","","","","","","","","",""
"3460.9000000953674","","image-slider-response","154","983885","0.0-153.0","A3BUWQ5C39GRQC","","","","","-40","","","","","","","","","","","","","","","","","","","","","",""
"4733","","image-button-response","155","988887","0.0-154.0","A3BUWQ5C39GRQC","img_art/16.jpg","0","","","","","","","","","","","","","","","","","","","","","","","","",""
"713","","image-button-response","156","989603","0.0-155.0","A3BUWQ5C39GRQC","img_art/16.jpg","0","","","","","","","","","","","","","","","","","","","","","","","","",""
"1603","","image-button-response","157","991207","0.0-156.0-0.0","A3BUWQ5C39GRQC","img_art/16.jpg","1","","","","","","","","","","","","","","","","","","","","","","","","",""
"11156","","image-button-response","158","1002365","0.0-157.0-0.0","A3BUWQ5C39GRQC","img_art/16.jpg","3","","","","","","","","","","","","","","","","","","","","","","","","",""
"null","","html-keyboard-response","159","1003367","0.0-158.0","A3BUWQ5C39GRQC","<p style=""font-size: 48px;"">+</p>","","","","","null","allTrialResponses","1000","1","16","img_art/16.jpg","-40","seems all over the place and it doesn't make sense","Victoria,Isabella,Julia,Elizabeth,Katherine,Ashley","liked the bear, nothing else made sense,10,400,20","This looks chaotic,-25,280,20","I love the teddy bear,50,40,20","Picture seems unique,12,20,20","Super weird. Id like to know more about it,24,120,20","A lot fo these could abstract or childrens work.,23,320,20","Victoria","liked the bear, nothing else made sense,10,400,20","Isabella","This looks chaotic,-25,280,20","Elizabeth","Picture seems unique,12,20,20","2"
"38246","","survey-text","160","1041621","0.0-159.0-0.0","A3BUWQ5C39GRQC","","","","{""Q0"":""i keep finding new things in the picture the more I look at it""}","","","","","","","","","","","","","","","","","","","","","","",""
"2286.7000000476837","","image-slider-response","161","1043909","0.0-160.0","A3BUWQ5C39GRQC","","","","","38","","","","","","","","","","","","","","","","","","","","","",""
"4268","","image-button-response","162","1048911","0.0-161.0","A3BUWQ5C39GRQC","img_art/18.jpg","0","","","","","","","","","","","","","","","","","","","","","","","","",""
"590","","image-button-response","163","1049505","0.0-162.0","A3BUWQ5C39GRQC","img_art/18.jpg","0","","","","","","","","","","","","","","","","","","","","","","","","",""
"2581","","image-button-response","164","1052087","0.0-163.0-0.0","A3BUWQ5C39GRQC","img_art/18.jpg","5","","","","","","","","","","","","","","","","","","","","","","","","",""
"4008","","image-button-response","165","1056097","0.0-164.0-0.0","A3BUWQ5C39GRQC","img_art/18.jpg","4","","","","","","","","","","","","","","","","","","","","","","","","",""
"null","","html-keyboard-response","166","1057099","0.0-165.0","A3BUWQ5C39GRQC","<p style=""font-size: 48px;"">+</p>","","","","","null","allTrialResponses","1000","1","17","img_art/18.jpg","38","i keep finding new things in the picture the more I look at it","Victoria,Isabella,Jennifer,Elizabeth,Melissa,Dominique","Makes me think of stormy oceans,20,400,20","Feels like a story of ancient war of the gods,26,280,20","I have no strong feelings about this image,1,380,20","Nice abstract art,50,20,20","creamy color, feels like organized chaos,23,240,20","Very conversational and can see many different looks and feels from this .,34,400,20","Victoria","Makes me think of stormy oceans,20,400,20","Dominique","Very conversational and can see many different looks and feels from this .,34,400,20","Melissa","creamy color, feels like organized chaos,23,240,20","2"
"19827","","survey-text","167","1076939","0.0-166.0-0.0","A3BUWQ5C39GRQC","","","","{""Q0"":""it looks like an old wall""}","","","","","","","","","","","","","","","","","","","","","","",""
"2112.7999999523163","","image-slider-response","168","1079053","0.0-167.0","A3BUWQ5C39GRQC","","","","","-50","","","","","","","","","","","","","","","","","","","","","",""
"4616","","image-button-response","169","1084056","0.0-168.0","A3BUWQ5C39GRQC","img_art/7.jpg","1","","","","","","","","","","","","","","","","","","","","","","","","",""
"586","","image-button-response","170","1084645","0.0-169.0","A3BUWQ5C39GRQC","img_art/7.jpg","1","","","","","","","","","","","","","","","","","","","","","","","","",""
"428","","image-button-response","171","1085075","0.0-170.0-0.0","A3BUWQ5C39GRQC","img_art/7.jpg","2","","","","","","","","","","","","","","","","","","","","","","","","",""
"7130","","image-button-response","172","1092207","0.0-171.0-0.0","A3BUWQ5C39GRQC","img_art/7.jpg","3","","","","","","","","","","","","","","","","","","","","","","","","",""
"null","","html-keyboard-response","173","1092709","0.0-172.0","A3BUWQ5C39GRQC","<p style=""font-size: 48px;"">+</p>","","","","","null","allTrialResponses","500","1","18","img_art/7.jpg","-50","it looks like an old wall","Victoria,Brittany,Vanessa,Grace,Melissa,Dominique","looks like a photograph,-4,400,20","It looks like a wall, not really something I'd enjoy looking at.,-12,40,20","This is borning and lifeless.,-50,380,20","Makes me itch - looks like a closeup of an ant colony or something.,-1,180,20","textures are engaging,8,240,20","One I would love to own . Calm relaxing spiritual and full of love,41,400,20","Brittany","It looks like a wall, not really something I'd enjoy looking at.,-12,40,20","Vanessa","This is borning and lifeless.,-50,380,20","Grace","Makes me itch - looks like a closeup of an ant colony or something.,-1,180,20","2"
"11245","","survey-text","174","1103959","0.0-173.0-0.0","A3BUWQ5C39GRQC","","","","{""Q0"":""simple but nice to look at""}","","","","","","","","","","","","","","","","","","","","","","",""
"2056.7999999523163","","image-slider-response","175","1106017","0.0-174.0","A3BUWQ5C39GRQC","","","","","10","","","","","","","","","","","","","","","","","","","","","",""
"null","","image-button-response","176","1111019","0.0-175.0","A3BUWQ5C39GRQC","img_art/6.jpg","null","","","","","","","","","","","","","","","","","","","","","","","","",""
"2512","","image-button-response","177","1113533","0.0-176.0","A3BUWQ5C39GRQC","img_art/6.jpg","0","","","","","","","","","","","","","","","","","","","","","","","","",""
"3816","","image-button-response","178","1117351","0.0-177.0-0.0","A3BUWQ5C39GRQC","img_art/6.jpg","5","","","","","","","","","","","","","","","","","","","","","","","","",""
"2459","","image-button-response","179","1119813","0.0-178.0-0.0","A3BUWQ5C39GRQC","img_art/6.jpg","1","","","","","","","","","","","","","","","","","","","","","","","","",""
"null","","html-keyboard-response","180","1120314","0.0-179.0","A3BUWQ5C39GRQC","<p style=""font-size: 48px;"">+</p>","","","","","null","allTrialResponses","500","1","19","img_art/6.jpg","10","simple but nice to look at","Allison,Brittany,Vanessa,Grace,Taylor,Cassidy","Simple desert scene.,5,140,20","It's alright. I imagined the peach from James and the Giant Peach.,1,40,20","I don't like the colors and the dark shape at the top makes me think of a buzzard.,-28,380,20","Growth in the desert?  Don't care for it very much.,-26,180,20","Reminds me of my friend's bird,21,340,20","The background on the upper half is nice. I also like the contrast of the top and bottom halves,5,140,20","Allison","Simple desert scene.,5,140,20","Cassidy","The background on the upper half is nice. I also like the contrast of the top and bottom halves,5,140,20","Brittany","It's alright. I imagined the peach from James and the Giant Peach.,1,40,20","2"
"28731","","survey-text","181","1149053","0.0-180.0-0.0","A3BUWQ5C39GRQC","","","","{""Q0"":""very busy painting maybe a little too busy""}","","","","","","","","","","","","","","","","","","","","","","",""
"5112.799999952316","","image-slider-response","182","1154167","0.0-181.0","A3BUWQ5C39GRQC","","","","","-39","","","","","","","","","","","","","","","","","","","","","",""
"null","","image-button-response","183","1159170","0.0-182.0","A3BUWQ5C39GRQC","img_art/19.jpg","null","","","","","","","","","","","","","","","","","","","","","","","","",""
"532","","image-button-response","184","1159705","0.0-183.0","A3BUWQ5C39GRQC","img_art/19.jpg","0","","","","","","","","","","","","","","","","","","","","","","","","",""
"3037","","image-button-response","185","1162743","0.0-184.0-0.0","A3BUWQ5C39GRQC","img_art/19.jpg","5","","","","","","","","","","","","","","","","","","","","","","","","",""
"8764","","image-button-response","186","1171509","0.0-185.0-0.0","A3BUWQ5C39GRQC","img_art/19.jpg","1","","","","","","","","","","","","","","","","","","","","","","","","",""
"null","","html-keyboard-response","187","1173011","0.0-186.0","A3BUWQ5C39GRQC","<p style=""font-size: 48px;"">+</p>","","","","","null","allTrialResponses","1500","1","20","img_art/19.jpg","-39","very busy painting maybe a little too busy","Allison,Brittany,Abigail,Miranda,Mariah,Cassidy","Messy mix of colors.,-5,140,20","It looks too much of a rough sketch. Don't really enjoy looking at it.,-9,40,20","I dont like the gray shadows, ruins it,-7,20,20","It looks cool but at the time looks like it was done by a talented 5 year old.,13,320,20","I like the watercolor and colors, do not like the deconstructed city scene feel.,0,140,20","too much going on, can't tell what it is,-14,140,20","Allison","Messy mix of colors.,-5,140,20","Cassidy","too much going on, can't tell what it is,-14,140,20","Brittany","It looks too much of a rough sketch. Don't really enjoy looking at it.,-9,40,20","2"
"7517","","survey-text","188","1180551","0.0-187.0-0.0","A3BUWQ5C39GRQC","","","","{""Q0"":""we""}","","","","","","","","","","","","","","","","","","","","","","",""
"23355","","survey-text","189","1203907","0.0-188.0-0.0","A3BUWQ5C39GRQC","","","","{""Q0"":""the contrast between the bottom and the top part is interesting""}","","","","","","","","","","","","","","","","","","","","","","",""
"2596.5","","image-slider-response","190","1206505","0.0-189.0","A3BUWQ5C39GRQC","","","","","25","","","","","","","","","","","","","","","","","","","","","",""
"null","","image-button-response","191","1211507","0.0-190.0","A3BUWQ5C39GRQC","img_art/12.jpg","null","","","","","","","","","","","","","","","","","","","","","","","","",""
"2449","","image-button-response","192","1213959","0.0-191.0","A3BUWQ5C39GRQC","img_art/12.jpg","5","","","","","","","","","","","","","","","","","","","","","","","","",""
"2844","","image-button-response","193","1216805","0.0-192.0-0.0","A3BUWQ5C39GRQC","img_art/12.jpg","4","","","","","","","","","","","","","","","","","","","","","","","","",""
"6874","","image-button-response","194","1223681","0.0-193.0-0.0","A3BUWQ5C39GRQC","img_art/12.jpg","2","","","","","","","","","","","","","","","","","","","","","","","","",""
"null","","html-keyboard-response","195","1224187","0.0-194.0","A3BUWQ5C39GRQC","<p style=""font-size: 48px;"">+</p>","","","","","null","allTrialResponses","500","1","21","img_art/12.jpg","25","the contrast between the bottom and the top part is interesting","Allison,Brittany,Claire,Michaela,Courtney,Cassidy","Minimalist colors and shapes.,-5,140,20","Too blocky and not interesting enough.,-15,40,20","i like the repetition,30,260,20","It looks like old lady upholstery,12,260,20","That is a warn quilt grama made.,11,280,20","I like the colors and pattern,21,140,20","Cassidy","I like the colors and pattern,21,140,20","Courtney","That is a warn quilt grama made.,11,280,20","Claire","i like the repetition,30,260,20","2"
"19479","","survey-text","196","1243678","0.0-195.0-0.0","A3BUWQ5C39GRQC","","","","{""Q0"":""it reminds me of a music instrument""}","","","","","","","","","","","","","","","","","","","","","","",""
"3306.7999999523163","","image-slider-response","197","1246986","0.0-196.0","A3BUWQ5C39GRQC","","","","","6","","","","","","","","","","","","","","","","","","","","","",""
"null","","image-button-response","198","1251989","0.0-197.0","A3BUWQ5C39GRQC","img_art/10.jpg","null","","","","","","","","","","","","","","","","","","","","","","","","",""
"1451","","image-button-response","199","1253443","0.0-198.0","A3BUWQ5C39GRQC","img_art/10.jpg","2","","","","","","","","","","","","","","","","","","","","","","","","",""
"6845","","image-button-response","200","1260289","0.0-199.0-0.0","A3BUWQ5C39GRQC","img_art/10.jpg","3","","","","","","","","","","","","","","","","","","","","","","","","",""
"6074","","image-button-response","201","1266365","0.0-200.0-0.0","A3BUWQ5C39GRQC","img_art/10.jpg","0","","","","","","","","","","","","","","","","","","","","","","","","",""
"null","","html-keyboard-response","202","1267866","0.0-201.0","A3BUWQ5C39GRQC","<p style=""font-size: 48px;"">+</p>","","","","","null","allTrialResponses","1500","1","22","img_art/10.jpg","6","it reminds me of a music instrument","Madeline,Sierra,Claire,Amy,Courtney,Cassidy","Looks a bit as though someone ran over it?,-13,40,20","it just doesnt appeal to me.,-10,260,20","it looks very musical,24,260,20","Highly abstract and yet the shapes and colors provide an emotional accessibility for me.,20,220,20","Thats a horses head,10,280,20","Looks like someone just smeared some paint and called it good. Do not like.,-6,140,20","Claire","it looks very musical,24,260,20","Amy","Highly abstract and yet the shapes and colors provide an emotional accessibility for me.,20,220,20","Madeline","Looks a bit as though someone ran over it?,-13,40,20","2"
"16891","","survey-text","203","1284760","0.0-202.0-0.0","A3BUWQ5C39GRQC","","","","{""Q0"":""too simple but the colors are nice""}","","","","","","","","","","","","","","","","","","","","","","",""
"2332.9000000953674","","image-slider-response","204","1287095","0.0-203.0","A3BUWQ5C39GRQC","","","","","-8","","","","","","","","","","","","","","","","","","","","","",""
"null","","image-button-response","205","1292098","0.0-204.0","A3BUWQ5C39GRQC","img_art/5.jpg","null","","","","","","","","","","","","","","","","","","","","","","","","",""
"1633","","image-button-response","206","1293734","0.0-205.0","A3BUWQ5C39GRQC","img_art/5.jpg","2","","","","","","","","","","","","","","","","","","","","","","","","",""
"3795","","image-button-response","207","1297531","0.0-206.0-0.0","A3BUWQ5C39GRQC","img_art/5.jpg","4","","","","","","","","","","","","","","","","","","","","","","","","",""
"1900","","image-button-response","208","1299433","0.0-207.0-0.0","A3BUWQ5C39GRQC","img_art/5.jpg","3","","","","","","","","","","","","","","","","","","","","","","","","",""
"null","","html-keyboard-response","209","1299935","0.0-208.0","A3BUWQ5C39GRQC","<p style=""font-size: 48px;"">+</p>","","","","","null","allTrialResponses","500","1","23","img_art/5.jpg","-8","too simple but the colors are nice","Madeline,Jamie,Claire,Amy,Megan,Emma","A bit too messy in my eyes,-4,40,20","Don't really see it and yellow/pink don't go well together,-35,320,20","I like the strokes and colors used,20,260,20","Nearly white background gives a lack of context. Questionable skills,-45,220,20","Cop out, easy money for artist for a 4 min piece,-29,200,20","Kind of ugly ....,-21,60,20","Claire","I like the strokes and colors used,20,260,20","Megan","Cop out, easy money for artist for a 4 min piece,-29,200,20","Amy","Nearly white background gives a lack of context. Questionable skills,-45,220,20","2"
"28149","","survey-text","210","1328088","0.0-209.0-0.0","A3BUWQ5C39GRQC","","","","{""Q0"":""it is amazing especially the buildings""}","","","","","","","","","","","","","","","","","","","","","","",""
"2372.7999999523163","","image-slider-response","211","1330462","0.0-210.0","A3BUWQ5C39GRQC","","","","","30","","","","","","","","","","","","","","","","","","","","","",""
"null","","image-button-response","212","1335464","0.0-211.0","A3BUWQ5C39GRQC","img_art/8.jpg","null","","","","","","","","","","","","","","","","","","","","","","","","",""
"550","","image-button-response","213","1336016","0.0-212.0","A3BUWQ5C39GRQC","img_art/8.jpg","2","","","","","","","","","","","","","","","","","","","","","","","","",""
"4689","","image-button-response","214","1340708","0.0-213.0-0.0","A3BUWQ5C39GRQC","img_art/8.jpg","3","","","","","","","","","","","","","","","","","","","","","","","","",""
"3921","","image-button-response","215","1344630","0.0-214.0-0.0","A3BUWQ5C39GRQC","img_art/8.jpg","5","","","","","","","","","","","","","","","","","","","","","","","","",""
"null","","html-keyboard-response","216","1345132","0.0-215.0","A3BUWQ5C39GRQC","<p style=""font-size: 48px;"">+</p>","","","","","null","allTrialResponses","500","1","24","img_art/8.jpg","30","it is amazing especially the buildings","Samantha,Angelica,Claire,Amy,Megan,Makayla","The face bothers me,-25,140,20","It's a poor rendition of an MC Escher inspired piece.,-25,280,20","looks like an aerial view, very pretty,32,260,20","The definition and the colors give make this painting accessible and thought provoking.,30,220,20","Cortez's influence with fair color choices,10,200,20","I see water and structures that resemble Ancient Rome,15,80,20","Claire","looks like an aerial view, very pretty,32,260,20","Amy","The definition and the colors give make this painting accessible and thought provoking.,30,220,20","Makayla","I see water and structures that resemble Ancient Rome,15,80,20","2"
"13484","","survey-text","217","1358622","0.0-216.0-0.0","A3BUWQ5C39GRQC","","","","{""Q0"":""looks like it was made a little child""}","","","","","","","","","","","","","","","","","","","","","","",""
"5458.799999952316","","image-slider-response","218","1364082","0.0-217.0","A3BUWQ5C39GRQC","","","","","-50","","","","","","","","","","","","","","","","","","","","","",""
"null","","image-button-response","219","1369085","0.0-218.0","A3BUWQ5C39GRQC","img_art/2.jpg","null","","","","","","","","","","","","","","","","","","","","","","","","",""
"2361","","image-button-response","220","1371449","0.0-219.0","A3BUWQ5C39GRQC","img_art/2.jpg","4","","","","","","","","","","","","","","","","","","","","","","","","",""
"3679","","image-button-response","221","1375128","0.0-220.0-0.0","A3BUWQ5C39GRQC","img_art/2.jpg","3","","","","","","","","","","","","","","","","","","","","","","","","",""
"8210","","image-button-response","222","1383340","0.0-221.0-0.0","A3BUWQ5C39GRQC","img_art/2.jpg","2","","","","","","","","","","","","","","","","","","","","","","","","",""
"null","","html-keyboard-response","223","1383841","0.0-222.0","A3BUWQ5C39GRQC","<p style=""font-size: 48px;"">+</p>","","","","","null","allTrialResponses","500","1","25","img_art/2.jpg","-50","looks like it was made a little child","Molly,Caitlin,Claire,Amy,Kelsey,Makayla","Colorful, curious.,20,340,20","Have now advanced from kindergarten to the first grade.,-5,80,20","too blocky and don't like color combination,-32,260,20","The color palette of this painting is for me displeasing and immature.,-30,220,20","i dont like it, no thank you,-28,240,20","I don't feel indifferent,4,80,20","Kelsey","i dont like it, no thank you,-28,240,20","Amy","The color palette of this painting is for me displeasing and immature.,-30,220,20","Claire","too blocky and don't like color combination,-32,260,20","2"
"6345","","survey-text","224","1390202","0.0-223.0-0.0","A3BUWQ5C39GRQC","","","","{""Q0"":""table""}","","","","","","","","","","","","","","","","","","","","","","",""
"48495","","survey-text","225","1438699","0.0-224.0-0.0","A3BUWQ5C39GRQC","","","","{""Q0"":""the few colors used are beautiful and go well together""}","","","","","","","","","","","","","","","","","","","","","","",""
"6444.799999952316","","image-slider-response","226","1445145","0.0-225.0","A3BUWQ5C39GRQC","","","","","50","","","","","","","","","","","","","","","","","","","","","",""
"null","","image-button-response","227","1450147","0.0-226.0","A3BUWQ5C39GRQC","img_art/25.jpg","null","","","","","","","","","","","","","","","","","","","","","","","","",""
"7736","","image-button-response","228","1457887","0.0-227.0","A3BUWQ5C39GRQC","img_art/25.jpg","2","","","","","","","","","","","","","","","","","","","","","","","","",""
"4160","","image-button-response","229","1462049","0.0-228.0-0.0","A3BUWQ5C39GRQC","img_art/25.jpg","3","","","","","","","","","","","","","","","","","","","","","","","","",""
"11684","","image-button-response","230","1473735","0.0-229.0-0.0","A3BUWQ5C39GRQC","img_art/25.jpg","5","","","","","","","","","","","","","","","","","","","","","","","","",""
"null","","html-keyboard-response","231","1474737","0.0-230.0","A3BUWQ5C39GRQC","<p style=""font-size: 48px;"">+</p>","","","","","null","allTrialResponses","1000","1","26","img_art/25.jpg","50","the few colors used are beautiful and go well together","Sarah,Kayla,Claire,Amy,Kelsey,Anna","green is really cool, and the pieces in black fit together and are interesting,20,180,20","Ghosts are NOT my thing.,-13,180,20","the colors are pretty,11,260,20","The limited palette make this figure mysterious and interpret-able.,20,220,20","quite unnerving,-15,240,20","I love the green and the texture,50,300,20","Claire","the colors are pretty,11,260,20","Amy","The limited palette make this figure mysterious and interpret-able.,20,220,20","Anna","I love the green and the texture,50,300,20","2"
"31692","","survey-text","232","1506443","0.0-231.0-0.0","A3BUWQ5C39GRQC","","","","{""Q0"":""it looks complicated and like it took a long time to complete""}","","","","","","","","","","","","","","","","","","","","","","",""
"2772.699999809265","","image-slider-response","233","1509217","0.0-232.0","A3BUWQ5C39GRQC","","","","","38","","","","","","","","","","","","","","","","","","","","","",""
"null","","image-button-response","234","1514220","0.0-233.0","A3BUWQ5C39GRQC","img_art/23.jpg","null","","","","","","","","","","","","","","","","","","","","","","","","",""
"655","","image-button-response","235","1514877","0.0-234.0","A3BUWQ5C39GRQC","img_art/23.jpg","1","","","","","","","","","","","","","","","","","","","","","","","","",""
"7452","","image-button-response","236","1522330","0.0-235.0-0.0","A3BUWQ5C39GRQC","img_art/23.jpg","2","","","","","","","","","","","","","","","","","","","","","","","","",""
"2806","","image-button-response","237","1525138","0.0-236.0-0.0","A3BUWQ5C39GRQC","img_art/23.jpg","5","","","","","","","","","","","","","","","","","","","","","","","","",""
"null","","html-keyboard-response","238","1526641","0.0-237.0","A3BUWQ5C39GRQC","<p style=""font-size: 48px;"">+</p>","","","","","null","allTrialResponses","1500","1","27","img_art/23.jpg","38","it looks complicated and like it took a long time to complete","Leslie,Meghan,Claire,Amy,Sophia,Anna","It reminds me of being in a crowded place.,-10,380,20","reminds me of an album cover,36,220,20","the pattern is pleasing to the eye,28,260,20","So exciting and full of the night.,20,220,20","I like the contrast and the bright colors in this one.,6,280,20","I love the colors and the contrast.,50,300,20","Meghan","reminds me of an album cover,36,220,20","Claire","the pattern is pleasing to the eye,28,260,20","Anna","I love the colors and the contrast.,50,300,20","2"
"16894","","survey-text","239","1543550","0.0-238.0-0.0","A3BUWQ5C39GRQC","","","","{""Q0"":""it is messy and the colors are dull""}","","","","","","","","","","","","","","","","","","","","","","",""
"3170.7999999523163","","image-slider-response","240","1546722","0.0-239.0","A3BUWQ5C39GRQC","","","","","-50","","","","","","","","","","","","","","","","","","","","","",""
"null","","image-button-response","241","1551724","0.0-240.0","A3BUWQ5C39GRQC","img_art/1.jpg","null","","","","","","","","","","","","","","","","","","","","","","","","",""
"1425","","image-button-response","242","1553153","0.0-241.0","A3BUWQ5C39GRQC","img_art/1.jpg","4","","","","","","","","","","","","","","","","","","","","","","","","",""
"1615","","image-button-response","243","1554768","0.0-242.0-0.0","A3BUWQ5C39GRQC","img_art/1.jpg","3","","","","","","","","","","","","","","","","","","","","","","","","",""
"4899","","image-button-response","244","1559668","0.0-243.0-0.0","A3BUWQ5C39GRQC","img_art/1.jpg","5","","","","","","","","","","","","","","","","","","","","","","","","",""
"null","","html-keyboard-response","245","1561169","0.0-244.0","A3BUWQ5C39GRQC","<p style=""font-size: 48px;"">+</p>","","","","","null","allTrialResponses","1500","1","28","img_art/1.jpg","-50","it is messy and the colors are dull","Shannon,Meghan,Claire,Christina,Maria,Anna","I think that this picture has nice colors and its pleasing to the eyes.,20,220,20","good colors and contrast,31,220,20","the colors are nice,8,260,20","nice colors but kinds of blah,1,240,20","the bright colours evoke the 90s, and not their best part,-10,120,20","The colors are nice but that's all it is,21,300,20","Maria","the bright colours evoke the 90s, and not their best part,-10,120,20","Christina","nice colors but kinds of blah,1,240,20","Anna","The colors are nice but that's all it is,21,300,20","2"
"23981","","survey-text","246","1585155","0.0-245.0-0.0","A3BUWQ5C39GRQC","","","","{""Q0"":""looks like somebody was out of ideas""}","","","","","","","","","","","","","","","","","","","","","","",""
"2842.7000000476837","","image-slider-response","247","1587999","0.0-246.0","A3BUWQ5C39GRQC","","","","","-50","","","","","","","","","","","","","","","","","","","","","",""
"null","","image-button-response","248","1593003","0.0-247.0","A3BUWQ5C39GRQC","img_art/29.jpg","null","","","","","","","","","","","","","","","","","","","","","","","","",""
"495","","image-button-response","249","1593501","0.0-248.0","A3BUWQ5C39GRQC","img_art/29.jpg","2","","","","","","","","","","","","","","","","","","","","","","","","",""
"7068","","image-button-response","250","1600571","0.0-249.0-0.0","A3BUWQ5C39GRQC","img_art/29.jpg","4","","","","","","","","","","","","","","","","","","","","","","","","",""
"1498","","image-button-response","251","1602071","0.0-250.0-0.0","A3BUWQ5C39GRQC","img_art/29.jpg","0","","","","","","","","","","","","","","","","","","","","","","","","",""
"null","","html-keyboard-response","252","1603572","0.0-251.0","A3BUWQ5C39GRQC","<p style=""font-size: 48px;"">+</p>","","","","","null","allTrialResponses","1500","1","29","img_art/29.jpg","-50","looks like somebody was out of ideas","Kathryn,Sabrina,Paige,Christina,Maria,Anna","This piece feels gross. Makes me think of pollution/litter strewn across a dirty street.,-20,140,20","I love the representation of a mess,50,120,20","unhappy. Looking at this all the time would depress me.,-11,60,20","It's too on trend with the gray and doesn't look like a lasting piece,-4,240,20","the mixed medium / collage annoys me,-19,120,20","I like the texture and colors and how it makes me feel. I like how it's different from other abstract art.,45,300,20","Paige","unhappy. Looking at this all the time would depress me.,-11,60,20","Maria","the mixed medium / collage annoys me,-19,120,20","Kathryn","This piece feels gross. Makes me think of pollution/litter strewn across a dirty street.,-20,140,20","2"
"40886","","survey-text","253","1644467","0.0-252.0-0.0","A3BUWQ5C39GRQC","","","","{""Q0"":""the blue parts are the most interesting parts""}","","","","","","","","","","","","","","","","","","","","","","",""
"3206.4000000953674","","image-slider-response","254","1647674","0.0-253.0","A3BUWQ5C39GRQC","","","","","-8","","","","","","","","","","","","","","","","","","","","","",""
"null","","image-button-response","255","1652677","0.0-254.0","A3BUWQ5C39GRQC","img_art/15.jpg","null","","","","","","","","","","","","","","","","","","","","","","","","",""
"4993","","image-button-response","256","1657673","0.0-255.0","A3BUWQ5C39GRQC","img_art/15.jpg","2","","","","","","","","","","","","","","","","","","","","","","","","",""
"8478","","image-button-response","257","1666153","0.0-256.0-0.0","A3BUWQ5C39GRQC","img_art/15.jpg","3","","","","","","","","","","","","","","","","","","","","","","","","",""
"1530","","image-button-response","258","1667685","0.0-257.0-0.0","A3BUWQ5C39GRQC","img_art/15.jpg","1","","","","","","","","","","","","","","","","","","","","","","","","",""
"null","","html-keyboard-response","259","1668687","0.0-258.0","A3BUWQ5C39GRQC","<p style=""font-size: 48px;"">+</p>","","","","","null","allTrialResponses","1000","1","30","img_art/15.jpg","-8","the blue parts are the most interesting parts","Kathryn,Chelsea,Paige,Breanna,Maria,Kaitlin","This is looking at a forest from above. I can see water and some pathways throughout. Nature.,20,140,20","The colors are too busy.,-39,180,20","I feel nothing when looking at this,1,60,20","Makes me feel weird,-16,380,20","i enjoy its apaprent simplicity (of colour and shape),32,120,20","This one seems a bit frightening,-19,60,20","Paige","I feel nothing when looking at this,1,60,20","Breanna","Makes me feel weird,-16,380,20","Chelsea","The colors are too busy.,-39,180,20","2"
"3680","","image-button-response_instructions","260","1672375","0.0-259.0","A3BUWQ5C39GRQC","","0","instructions","","","","","","","","","","","","","","","","","","","","","","","",""
"1200","","image-button-response","261","1673579","0.0-260.0","A3BUWQ5C39GRQC","","0","","","","","","","","","","","","","","","","","","","","","","","","",""
