"rt","url","trial_type","trial_index","time_elapsed","internal_node_id","participant_id","stimulus","button_pressed","Name","responses","response","key_press","variableName","fixationTime","condition","trial","photo","subjectRating","subjectResponse","agentsNames","agent_1_Response","agent_2_Response","agent_3_Response","agent_4_Response","agent_5_Response","agent_6_Response","kept_1_name","kept_1_response","kept_2_name","kept_2_response","kept_3_name","kept_3_response","errorCounter"
"10806","external_page_harvard.html","external-html","0","11049","0.0-0.0","A3CGQOJC28OVGN","","","","","","","","","","","","","","","","","","","","","","","","","","",""
"7029","","image-button-response","1","18082","0.0-1.0","A3CGQOJC28OVGN","","1","","","","","","","","","","","","","","","","","","","","","","","","",""
"1790","","image-button-response","2","19880","0.0-2.0-0.0","A3CGQOJC28OVGN","","1","phone","","","","","","","","","","","","","","","","","","","","","","","",""
"4433","","survey-text","3","24315","0.0-3.0-0.0","A3CGQOJC28OVGN","","","","{""Q0"":""A3CGQOJC28OVGN""}","","","","","","","","","","","","","","","","","","","","","","",""
"9373","","image-button-response_instructions","4","33691","0.0-4.0","A3CGQOJC28OVGN","","0","instructions","","","","","","","","","","","","","","","","","","","","","","","",""
"11527","","image-button-response_instructions","5","45219","0.0-5.0","A3CGQOJC28OVGN","img_art/ins/popularity/ins1.png","0","instructions","","","","","","","","","","","","","","","","","","","","","","","",""
"3059","","image-button-response_instructions","6","48280","0.0-6.0","A3CGQOJC28OVGN","img_art/ins/popularity/ins2.png","0","instructions","","","","","","","","","","","","","","","","","","","","","","","",""
"3914","","image-button-response_instructions","7","52196","0.0-7.0","A3CGQOJC28OVGN","img_art/ins/popularity/ins2Extreme.png","0","instructions","","","","","","","","","","","","","","","","","","","","","","","",""
"5528","","image-button-response_instructions","8","57726","0.0-8.0","A3CGQOJC28OVGN","img_art/ins/popularity/ins3KEEPpop.PNG","0","instructions","","","","","","","","","","","","","","","","","","","","","","","",""
"4175","","image-button-response_instructions","9","61903","0.0-9.0","A3CGQOJC28OVGN","img_art/ins/popularity/ins3ANamepop.PNG","0","instructions","","","","","","","","","","","","","","","","","","","","","","","",""
"5782","","image-button-response_instructions","10","67688","0.0-10.0","A3CGQOJC28OVGN","img_art/ins/popularity/ins3ARatingpop.png","0","instructions","","","","","","","","","","","","","","","","","","","","","","","",""
"3213","","image-button-response_instructions","11","70903","0.0-11.0","A3CGQOJC28OVGN","img_art/ins/popularity/ins3ATextpop.png","0","instructions","","","","","","","","","","","","","","","","","","","","","","","",""
"3216","","image-button-response_instructions","12","74121","0.0-12.0","A3CGQOJC28OVGN","img_art/ins/popularity/ins3ALikespop.png","0","instructions","","","","","","","","","","","","","","","","","","","","","","","",""
"10517","","image-button-response_instructions","13","84641","0.0-13.0","A3CGQOJC28OVGN","img_art/ins/popularity/ins3KEEPpop.PNG","0","instructions","","","","","","","","","","","","","","","","","","","","","","","",""
"4454","","image-button-response_instructions","14","89097","0.0-14.0","A3CGQOJC28OVGN","img_art/ins/popularity/ins3_5RED.png","0","instructions","","","","","","","","","","","","","","","","","","","","","","","",""
"3250","","image-button-response_instructions","15","92349","0.0-15.0","A3CGQOJC28OVGN","img_art/ins/popularity/ins3KEEPpop.PNG","0","instructions","","","","","","","","","","","","","","","","","","","","","","","",""
"8231","","image-button-response_instructions","16","100582","0.0-16.0","A3CGQOJC28OVGN","img_art/ins/popularity/ins4KEEPpop.PNG","0","instructions","","","","","","","","","","","","","","","","","","","","","","","",""
"3218","","image-button-response_instructions","17","103802","0.0-17.0","A3CGQOJC28OVGN","img_art/ins/popularity/ins5KEEPpop.PNG","0","instructions","","","","","","","","","","","","","","","","","","","","","","","",""
"3678","","image-button-response_instructions","18","107482","0.0-18.0","A3CGQOJC28OVGN","","0","instructions","","","","","","","","","","","","","","","","","","","","","","","",""
"5183","","survey-text","19","112692","0.0-19.0-0.0","A3CGQOJC28OVGN","","","","{""Q0"":""but""}","","","","","","","","","","","","","","","","","","","","","","",""
"33959","","survey-text","20","146654","0.0-20.0-0.0","A3CGQOJC28OVGN","","","","{""Q0"":""colorful but boring""}","","","","","","","","","","","","","","","","","","","","","","",""
"3068.399999976158","","image-slider-response","21","149726","0.0-21.0","A3CGQOJC28OVGN","","","","","-38","","","","","","","","","","","","","","","","","","","","","",""
"null","","image-button-response","22","154734","0.0-22.0","A3CGQOJC28OVGN","img_art/ins/1.jpg","null","","","","","","","","","","","","","","","","","","","","","","","","",""
"8880","","image-button-response","23","163617","0.0-23.0","A3CGQOJC28OVGN","img_art/ins/1.jpg","3","","","","","","","","","","","","","","","","","","","","","","","","",""
"4720","","image-button-response","24","168341","0.0-24.0-0.0","A3CGQOJC28OVGN","img_art/ins/1.jpg","1","","","","","","","","","","","","","","","","","","","","","","","","",""
"5116","","image-button-response","25","173462","0.0-25.0-0.0","A3CGQOJC28OVGN","img_art/ins/1.jpg","2","","","","","","","","","","","","","","","","","","","","","","","","",""
"null","","html-keyboard-response","26","174968","0.0-26.0","A3CGQOJC28OVGN","<p style=""font-size: 48px;"">+</p>","","","","","null","allTrialResponses","1500","1","-2","img_art/ins/1.jpg","-38","colorful but boring","Allison,Ashley,Beth,Dora,Erika,Jen","looks like a lot of things going on in the mist,20,20,20","I just don't get why these type of art would be popular,-32,40,20","This color reminds me of poo,-46,60,20","looks like what my niece in 3rd grade did this afternoon,-50,80,20","I like the sophisticated brushwork,40,100,20","It reminds me of a candy land dream I had,36,120,20","Dora","looks like what my niece in 3rd grade did this afternoon,-50,80,20","Ashley","I just don't get why these type of art would be popular,-32,40,20","Beth","This color reminds me of poo,-46,60,20","0"
"23283","","survey-text","27","198256","0.0-27.0-0.0","A3CGQOJC28OVGN","","","","{""Q0"":""I like mnore realtistic type artwork""}","","","","","","","","","","","","","","","","","","","","","","",""
"3437.2999999821186","","image-slider-response","28","201696","0.0-28.0","A3CGQOJC28OVGN","","","","","-20","","","","","","","","","","","","","","","","","","","","","",""
"3321","","image-button-response","29","206700","0.0-29.0","A3CGQOJC28OVGN","img_art/ins/2.jpg","2","","","","","","","","","","","","","","","","","","","","","","","","",""
"866","","image-button-response","30","207571","0.0-30.0","A3CGQOJC28OVGN","img_art/ins/2.jpg","2","","","","","","","","","","","","","","","","","","","","","","","","",""
"930","","image-button-response","31","208505","0.0-31.0-0.0","A3CGQOJC28OVGN","img_art/ins/2.jpg","1","","","","","","","","","","","","","","","","","","","","","","","","",""
"9730","","image-button-response","32","218238","0.0-32.0-0.0","A3CGQOJC28OVGN","img_art/ins/2.jpg","5","","","","","","","","","","","","","","","","","","","","","","","","",""
"null","","html-keyboard-response","33","219241","0.0-33.0","A3CGQOJC28OVGN","<p style=""font-size: 48px;"">+</p>","","","","","null","allTrialResponses","1000","1","-1","img_art/ins/2.jpg","-20","I like mnore realtistic type artwork","Jenna,Ashley,Beth,Dora,Kara,Katie","One of my pet peevs,-48,140,20","Idk, it is just annoying,-32,40,20","meaningless painting,-45,60,20","looks too angry,-50,80,20","I like the blocks of color arrangements,30,160,20","too much color!,-28,180,20","Beth","meaningless painting,-45,60,20","Ashley","Idk, it is just annoying,-32,40,20","Katie","too much color!,-28,180,20","0"
"12049","","survey-text","34","231295","0.0-34.0-0.0","A3CGQOJC28OVGN","","","","{""Q0"":""Like to colors and hues""}","","","","","","","","","","","","","","","","","","","","","","",""
"2829.600000023842","","image-slider-response","35","234127","0.0-35.0","A3CGQOJC28OVGN","","","","","10","","","","","","","","","","","","","","","","","","","","","",""
"null","","image-button-response","36","239134","0.0-36.0","A3CGQOJC28OVGN","img_art/ins/3.jpg","null","","","","","","","","","","","","","","","","","","","","","","","","",""
"3544","","image-button-response","37","242681","0.0-37.0","A3CGQOJC28OVGN","img_art/ins/3.jpg","5","","","","","","","","","","","","","","","","","","","","","","","","",""
"1241","","image-button-response","38","243925","0.0-38.0-0.0","A3CGQOJC28OVGN","img_art/ins/3.jpg","3","","","","","","","","","","","","","","","","","","","","","","","","",""
"2934","","image-button-response","39","246863","0.0-39.0-0.0","A3CGQOJC28OVGN","img_art/ins/3.jpg","1","","","","","","","","","","","","","","","","","","","","","","","","",""
"null","","html-keyboard-response","40","247865","0.0-40.0","A3CGQOJC28OVGN","<p style=""font-size: 48px;"">+</p>","","","","","null","allTrialResponses","1000","1","0","img_art/ins/3.jpg","10","Like to colors and hues","Rose,Ashley,Beth,Leslie,Mary,Katie","My daily routine, it's depressing,-20,240,20","It looks like a playground for bats,-36,40,20","This thing gives me anxiety,-41,60,20","It's an alright work,15,200,20","I like the overlapping of brushes,41,220,20","It looks depressing,-26,180,20","Katie","It looks depressing,-26,180,20","Leslie","It's an alright work,15,200,20","Ashley","It looks like a playground for bats,-36,40,20","0"
"62749","","image-button-response_instructions","41","310619","0.0-41.0","A3CGQOJC28OVGN","","0","instructions","","","","","","","","","","","","","","","","","","","","","","","",""
"7655","","survey-likert","42","318277","0.0-42.0-0.0","A3CGQOJC28OVGN","","","","{""Q0"":"""",""Q1"":0,""Q2"":1}","","","","","","","","","","","","","","","","","","","","","","",""
"3032","","survey-text","43","321316","0.0-43.0-0.0","A3CGQOJC28OVGN","","","","{""Q0"":""rock""}","","","","","","","","","","","","","","","","","","","","","","",""
"17603","","survey-text","44","338921","0.0-44.0-0.0","A3CGQOJC28OVGN","","","","{""Q0"":""pretty rendition of town""}","","","","","","","","","","","","","","","","","","","","","","",""
"3855.2999999821186","","image-slider-response","45","342779","0.0-45.0","A3CGQOJC28OVGN","","","","","29","","","","","","","","","","","","","","","","","","","","","",""
"null","","image-button-response","46","347805","0.0-46.0","A3CGQOJC28OVGN","img_art/11.jpg","null","","","","","","","","","","","","","","","","","","","","","","","","",""
"13794","","image-button-response","47","361602","0.0-47.0","A3CGQOJC28OVGN","img_art/11.jpg","2","","","","","","","","","","","","","","","","","","","","","","","","",""
"8384","","image-button-response","48","369989","0.0-48.0-0.0","A3CGQOJC28OVGN","img_art/11.jpg","0","","","","","","","","","","","","","","","","","","","","","","","","",""
"2008","","image-button-response","49","372001","0.0-49.0-0.0","A3CGQOJC28OVGN","img_art/11.jpg","0","","","","","","","","","","","","","","","","","","","","","","","","",""
"1072","","image-button-response","50","376192","0.0-49.1-0.1","A3CGQOJC28OVGN","img_art/11.jpg","3","","","","","","","","","","","","","","","","","","","","","","","","",""
"null","","html-keyboard-response","51","376695","0.0-50.0","A3CGQOJC28OVGN","<p style=""font-size: 48px;"">+</p>","","","","","null","allTrialResponses","500","1","1","img_art/11.jpg","29","pretty rendition of town","Sophia,Sydney,Mackenzie,Kaylee,Kayla,Brianna","WOW!  I love how the ships and the seas become one in this piece.,50,280,20","I don't like the gloomy color, but it reminds me of a city which I like.,35,320,20","The different textures and colors make this pleasing to look at.,30,20,20","i dont understand this painting,-1,200,20","I like that it could be train tracks, or telephone wires, etc. It's always a means of getting from a to b.,15,180,20","I like dark colors.,31,20,20","Mackenzie","The different textures and colors make this pleasing to look at.,30,20,20","Sophia","WOW!  I love how the ships and the seas become one in this piece.,50,280,20","Kaylee","i dont understand this painting,-1,200,20","2"
"17030","","survey-text","52","393731","0.0-51.0-0.0","A3CGQOJC28OVGN","","","","{""Q0"":""colored blobs, meaningless""}","","","","","","","","","","","","","","","","","","","","","","",""
"3508.899999976158","","image-slider-response","53","397242","0.0-52.0","A3CGQOJC28OVGN","","","","","-23","","","","","","","","","","","","","","","","","","","","","",""
"null","","image-button-response","54","402249","0.0-53.0","A3CGQOJC28OVGN","img_art/22.jpg","null","","","","","","","","","","","","","","","","","","","","","","","","",""
"7779","","image-button-response","55","410031","0.0-54.0","A3CGQOJC28OVGN","img_art/22.jpg","3","","","","","","","","","","","","","","","","","","","","","","","","",""
"485","","image-button-response","56","410519","0.0-55.0-0.0","A3CGQOJC28OVGN","img_art/22.jpg","4","","","","","","","","","","","","","","","","","","","","","","","","",""
"658","","image-button-response","57","411181","0.0-56.0-0.0","A3CGQOJC28OVGN","img_art/22.jpg","5","","","","","","","","","","","","","","","","","","","","","","","","",""
"null","","html-keyboard-response","58","412686","0.0-57.0","A3CGQOJC28OVGN","<p style=""font-size: 48px;"">+</p>","","","","","null","allTrialResponses","1500","1","2","img_art/22.jpg","-23","colored blobs, meaningless","Sophia,Kristen,Mackenzie,Kaylee,Alexis,Angelica","I like this one. There is a lot to see if you keep looking for it.,27,280,20","fire, danger, resentful,-17,280,20","Different shapes within the image make it interesting to look at,20,20,20","its just ugly for me,-50,200,20","Don't like this type of abstract work,-39,100,20","It's bland and ugly.,-21,280,20","Kaylee","its just ugly for me,-50,200,20","Alexis","Don't like this type of abstract work,-39,100,20","Angelica","It's bland and ugly.,-21,280,20","2"
"17046","","survey-text","59","429738","0.0-58.0-0.0","A3CGQOJC28OVGN","","","","{""Q0"":""Lines are cool and draws the eye.""}","","","","","","","","","","","","","","","","","","","","","","",""
"2114.2000000178814","","image-slider-response","60","431854","0.0-59.0","A3CGQOJC28OVGN","","","","","5","","","","","","","","","","","","","","","","","","","","","",""
"null","","image-button-response","61","436858","0.0-60.0","A3CGQOJC28OVGN","img_art/30.jpg","null","","","","","","","","","","","","","","","","","","","","","","","","",""
"1091","","image-button-response","62","437952","0.0-61.0","A3CGQOJC28OVGN","img_art/30.jpg","2","","","","","","","","","","","","","","","","","","","","","","","","",""
"3433","","image-button-response","63","441388","0.0-62.0-0.0","A3CGQOJC28OVGN","img_art/30.jpg","3","","","","","","","","","","","","","","","","","","","","","","","","",""
"5325","","image-button-response","64","446716","0.0-63.0-0.0","A3CGQOJC28OVGN","img_art/30.jpg","5","","","","","","","","","","","","","","","","","","","","","","","","",""
"null","","html-keyboard-response","65","448223","0.0-64.0","A3CGQOJC28OVGN","<p style=""font-size: 48px;"">+</p>","","","","","null","allTrialResponses","1500","1","3","img_art/30.jpg","5","Lines are cool and draws the eye.","Chelsea,Katie,Erin,Kaylee,Alexis,Angelica","It looks like it was painted in 5 minutes.,-32,180,20","Soothing color palette, but doesn't look like anything. All I see are random brush strokes.,1,160,20","Layers are interesting,22,120,20","i cant really get it,-35,200,20","Too abstract, looks like something I could paint,-50,100,20","This is just simple and ugly.,-2,280,20","Erin","Layers are interesting,22,120,20","Kaylee","i cant really get it,-35,200,20","Angelica","This is just simple and ugly.,-2,280,20","2"
"16788","","survey-text","66","465016","0.0-65.0-0.0","A3CGQOJC28OVGN","","","","{""Q0"":""what ois this supposed to be? a pretzel?""}","","","","","","","","","","","","","","","","","","","","","","",""
"2272.2999999821186","","image-slider-response","67","467291","0.0-66.0","A3CGQOJC28OVGN","","","","","-33","","","","","","","","","","","","","","","","","","","","","",""
"2223","","image-button-response","68","472296","0.0-67.0","A3CGQOJC28OVGN","img_art/4.jpg","1","","","","","","","","","","","","","","","","","","","","","","","","",""
"2096","","image-button-response","69","474397","0.0-68.0","A3CGQOJC28OVGN","img_art/4.jpg","1","","","","","","","","","","","","","","","","","","","","","","","","",""
"1497","","image-button-response","70","475898","0.0-69.0-0.0","A3CGQOJC28OVGN","img_art/4.jpg","5","","","","","","","","","","","","","","","","","","","","","","","","",""
"5068","","image-button-response","71","480969","0.0-70.0-0.0","A3CGQOJC28OVGN","img_art/4.jpg","2","","","","","","","","","","","","","","","","","","","","","","","","",""
"null","","html-keyboard-response","72","481471","0.0-71.0","A3CGQOJC28OVGN","<p style=""font-size: 48px;"">+</p>","","","","","null","allTrialResponses","500","1","4","img_art/4.jpg","-33","what ois this supposed to be? a pretzel?","Olivia,Haley,Erin,Kaylee,Autumn,Angelica","The muted tones,-11,40,20","This image doesn't invoke anything in me,-9,220,20","Seems simplistic,-8,120,20","just a scuffed hand,-15,200,20","I don't like murky colors.,-40,340,20","This is ugly in color and in terms of the shape on it.,-32,280,20","Haley","This image doesn't invoke anything in me,-9,220,20","Angelica","This is ugly in color and in terms of the shape on it.,-32,280,20","Erin","Seems simplistic,-8,120,20","2"
"15909","","survey-text","73","497386","0.0-72.0-0.0","A3CGQOJC28OVGN","","","","{""Q0"":""cute but what is the artist trying to say?""}","","","","","","","","","","","","","","","","","","","","","","",""
"2513.9000000059605","","image-slider-response","74","499902","0.0-73.0","A3CGQOJC28OVGN","","","","","-17","","","","","","","","","","","","","","","","","","","","","",""
"4027","","image-button-response","75","504912","0.0-74.0","A3CGQOJC28OVGN","img_art/16.jpg","0","","","","","","","","","","","","","","","","","","","","","","","","",""
"5777","","image-button-response","76","510691","0.0-75.0","A3CGQOJC28OVGN","img_art/16.jpg","0","","","","","","","","","","","","","","","","","","","","","","","","",""
"1362","","image-button-response","77","512056","0.0-76.0-0.0","A3CGQOJC28OVGN","img_art/16.jpg","4","","","","","","","","","","","","","","","","","","","","","","","","",""
"690","","image-button-response","78","512750","0.0-77.0-0.0","A3CGQOJC28OVGN","img_art/16.jpg","5","","","","","","","","","","","","","","","","","","","","","","","","",""
"null","","html-keyboard-response","79","513752","0.0-78.0","A3CGQOJC28OVGN","<p style=""font-size: 48px;"">+</p>","","","","","null","allTrialResponses","1000","1","5","img_art/16.jpg","-17","cute but what is the artist trying to say?","Michaela,Haley,Erin,Catherine,Makayla,Angelica","It feels lazily done,-9,260,20","Makes me want to know more,5,220,20","Not original. Bear is odd,-50,120,20","A teddybear, gun, crying person does not give a happy reaction. Death, still, no life.,-50,160,20","It's a little unsettling,2,80,20","This is creepy and puerile.,-45,280,20","Michaela","It feels lazily done,-9,260,20","Makayla","It's a little unsettling,2,80,20","Angelica","This is creepy and puerile.,-45,280,20","2"
"2562","","survey-text","80","516321","0.0-79.0-0.0","A3CGQOJC28OVGN","","","","{""Q0"":""sky""}","","","","","","","","","","","","","","","","","","","","","","",""
"27293","","survey-text","81","543616","0.0-80.0-0.0","A3CGQOJC28OVGN","","","","{""Q0"":""looks kind of like a ship, but the shapes are weird. Love the color""}","","","","","","","","","","","","","","","","","","","","","","",""
"2735.2999999821186","","image-slider-response","82","546354","0.0-81.0","A3CGQOJC28OVGN","","","","","-8","","","","","","","","","","","","","","","","","","","","","",""
"null","","image-button-response","83","551357","0.0-82.0","A3CGQOJC28OVGN","img_art/10.jpg","null","","","","","","","","","","","","","","","","","","","","","","","","",""
"2294","","image-button-response","84","553654","0.0-83.0","A3CGQOJC28OVGN","img_art/10.jpg","1","","","","","","","","","","","","","","","","","","","","","","","","",""
"3593","","image-button-response","85","557251","0.0-84.0-0.0","A3CGQOJC28OVGN","img_art/10.jpg","4","","","","","","","","","","","","","","","","","","","","","","","","",""
"4450","","image-button-response","86","561704","0.0-85.0-0.0","A3CGQOJC28OVGN","img_art/10.jpg","2","","","","","","","","","","","","","","","","","","","","","","","","",""
"null","","html-keyboard-response","87","562711","0.0-86.0","A3CGQOJC28OVGN","<p style=""font-size: 48px;"">+</p>","","","","","null","allTrialResponses","1000","1","6","img_art/10.jpg","-8","looks kind of like a ship, but the shapes are weird. Love the color","Michaela,Caitlin,Gabriela,Monica,Makayla,Angelica","It looks like it's sinking but it could also be a view from above,40,260,20","The roller coaster from hell !!!,-10,80,20","It looks like a sea monster overtaking a ship,21,140,20","It doesn't look pleasing to the eye, it kind of looks like an animal but a dirty one,-38,360,20","I don't hate but don't like it because it looks like a oil slick,2,80,20","This is odd and ugly.,-9,280,20","Caitlin","The roller coaster from hell !!!,-10,80,20","Makayla","I don't hate but don't like it because it looks like a oil slick,2,80,20","Gabriela","It looks like a sea monster overtaking a ship,21,140,20","2"
"14220","","survey-text","88","576935","0.0-87.0-0.0","A3CGQOJC28OVGN","","","","{""Q0"":""rain on a window from inside?""}","","","","","","","","","","","","","","","","","","","","","","",""
"3483.699999988079","","image-slider-response","89","580421","0.0-88.0","A3CGQOJC28OVGN","","","","","14","","","","","","","","","","","","","","","","","","","","","",""
"2263","","image-button-response","90","585426","0.0-89.0","A3CGQOJC28OVGN","img_art/13.jpg","1","","","","","","","","","","","","","","","","","","","","","","","","",""
"2073","","image-button-response","91","587502","0.0-90.0","A3CGQOJC28OVGN","img_art/13.jpg","5","","","","","","","","","","","","","","","","","","","","","","","","",""
"2503","","image-button-response","92","590007","0.0-91.0-0.0","A3CGQOJC28OVGN","img_art/13.jpg","4","","","","","","","","","","","","","","","","","","","","","","","","",""
"3857","","image-button-response","93","593867","0.0-92.0-0.0","A3CGQOJC28OVGN","img_art/13.jpg","4","","","","","","","","","","","","","","","","","","","","","","","","",""
"566","","image-button-response","94","598161","0.0-92.1-0.1","A3CGQOJC28OVGN","img_art/13.jpg","3","","","","","","","","","","","","","","","","","","","","","","","","",""
"null","","html-keyboard-response","95","598664","0.0-93.0","A3CGQOJC28OVGN","<p style=""font-size: 48px;"">+</p>","","","","","null","allTrialResponses","500","1","7","img_art/13.jpg","14","rain on a window from inside?","Shelby,Caitlin,Gabriela,Leah,Makayla,Miranda","Doesnt really provoke an emotional responce,0,240,20","Simple and in my favorite color. I actually like this one.,40,80,20","It looks too common, is a bit boring,-41,140,20","Like it a lot, reminds me of rainy day on glass,43,360,20","Reminds me of the aquarium,4,80,20","This looks like something that could be made off of windows paint, not a huge fan.,-30,320,20","Miranda","This looks like something that could be made off of windows paint, not a huge fan.,-30,320,20","Makayla","Reminds me of the aquarium,4,80,20","Leah","Like it a lot, reminds me of rainy day on glass,43,360,20","4"
"21901","","survey-text","96","620570","0.0-94.0-0.0","A3CGQOJC28OVGN","","","","{""Q0"":""oh god, I hate these kind of blocky nonsense""}","","","","","","","","","","","","","","","","","","","","","","",""
"2707.199999988079","","image-slider-response","97","623281","0.0-95.0","A3CGQOJC28OVGN","","","","","-46","","","","","","","","","","","","","","","","","","","","","",""
"4227","","image-button-response","98","628288","0.0-96.0","A3CGQOJC28OVGN","img_art/12.jpg","1","","","","","","","","","","","","","","","","","","","","","","","","",""
"1478","","image-button-response","99","629768","0.0-97.0","A3CGQOJC28OVGN","img_art/12.jpg","1","","","","","","","","","","","","","","","","","","","","","","","","",""
"4939","","image-button-response","100","634710","0.0-98.0-0.0","A3CGQOJC28OVGN","img_art/12.jpg","5","","","","","","","","","","","","","","","","","","","","","","","","",""
"4499","","image-button-response","101","639213","0.0-99.0-0.0","A3CGQOJC28OVGN","img_art/12.jpg","0","","","","","","","","","","","","","","","","","","","","","","","","",""
"null","","html-keyboard-response","102","640716","0.0-100.0","A3CGQOJC28OVGN","<p style=""font-size: 48px;"">+</p>","","","","","null","allTrialResponses","1500","1","8","img_art/12.jpg","-46","oh god, I hate these kind of blocky nonsense","Jasmine,Brittany,Jenna,Leah,Makayla,Miranda","It's just not my style,-18,340,20","Too blocky and not interesting enough.,-15,40,20","interesting, but feels like someone cut up a picture and pasted it together wrong. want to see the original,15,360,20","Looks like a puzzle I want to put together, but not hang in my den,2,360,20","Reminds me Early 2000's decor, don't favor it,-10,80,20","This is like going to a really old mcdoanlds in a tiny town and it's never been renovated so it's breaking down,-31,320,20","Brittany","Too blocky and not interesting enough.,-15,40,20","Miranda","This is like going to a really old mcdoanlds in a tiny town and it's never been renovated so it's breaking down,-31,320,20","Jasmine","It's just not my style,-18,340,20","4"
"12183","","survey-text","103","652904","0.0-101.0-0.0","A3CGQOJC28OVGN","","","","{""Q0"":""landscape in a dream, meh""}","","","","","","","","","","","","","","","","","","","","","","",""
"2761.800000011921","","image-slider-response","104","655668","0.0-102.0","A3CGQOJC28OVGN","","","","","-14","","","","","","","","","","","","","","","","","","","","","",""
"2063","","image-button-response","105","660675","0.0-103.0","A3CGQOJC28OVGN","img_art/21.jpg","0","","","","","","","","","","","","","","","","","","","","","","","","",""
"3910","","image-button-response","106","664588","0.0-104.0","A3CGQOJC28OVGN","img_art/21.jpg","0","","","","","","","","","","","","","","","","","","","","","","","","",""
"1782","","image-button-response","107","666372","0.0-105.0-0.0","A3CGQOJC28OVGN","img_art/21.jpg","0","","","","","","","","","","","","","","","","","","","","","","","","",""
"2324","","image-button-response","108","672159","0.0-105.1-0.1","A3CGQOJC28OVGN","img_art/21.jpg","4","","","","","","","","","","","","","","","","","","","","","","","","",""
"6588","","image-button-response","109","678750","0.0-106.0-0.0","A3CGQOJC28OVGN","img_art/21.jpg","1","","","","","","","","","","","","","","","","","","","","","","","","",""
"null","","html-keyboard-response","110","679753","0.0-107.0","A3CGQOJC28OVGN","<p style=""font-size: 48px;"">+</p>","","","","","null","allTrialResponses","1000","1","9","img_art/21.jpg","-14","landscape in a dream, meh","Jasmine,Brittany,Nicole,Emma,Alicia,Miranda","The blues make me feel sadder as my mood is already not the best right now,-10,340,20","Alright. I like the colors.,5,40,20","Makes me think of a natural disaster but I love how it looks. Makes you think,30,20,20","Pretty, good colors,30,60,20","Don't know why I like it, cant describe, maybe many landscapes?,47,120,20","This looks very interesting because something is happening but I can't tell what.,28,320,20","Jasmine","The blues make me feel sadder as my mood is already not the best right now,-10,340,20","Alicia","Don't know why I like it, cant describe, maybe many landscapes?,47,120,20","Brittany","Alright. I like the colors.,5,40,20","6"
"7969","","survey-text","111","687727","0.0-108.0-0.0","A3CGQOJC28OVGN","","","","{""Q0"":""blood splatter, ugly""}","","","","","","","","","","","","","","","","","","","","","","",""
"2858.100000023842","","image-slider-response","112","690588","0.0-109.0","A3CGQOJC28OVGN","","","","","-49","","","","","","","","","","","","","","","","","","","","","",""
"null","","image-button-response","113","696056","0.0-110.0","A3CGQOJC28OVGN","img_art/3.jpg","null","","","","","","","","","","","","","","","","","","","","","","","","",""
"10054","","image-button-response","114","706113","0.0-111.0","A3CGQOJC28OVGN","img_art/3.jpg","3","","","","","","","","","","","","","","","","","","","","","","","","",""
"2483","","image-button-response","115","708600","0.0-112.0-0.0","A3CGQOJC28OVGN","img_art/3.jpg","5","","","","","","","","","","","","","","","","","","","","","","","","",""
"2942","","image-button-response","116","711545","0.0-113.0-0.0","A3CGQOJC28OVGN","img_art/3.jpg","4","","","","","","","","","","","","","","","","","","","","","","","","",""
"null","","html-keyboard-response","117","712550","0.0-114.0","A3CGQOJC28OVGN","<p style=""font-size: 48px;"">+</p>","","","","","null","allTrialResponses","1000","1","10","img_art/3.jpg","-49","blood splatter, ugly","Jasmine,Brittany,Isabella,Danielle,Alicia,Diana","I don't really have a strong reaction to this one,0,340,20","I don't care for art that looks like it was just scribbled.,-19,40,20","Too much red or blood,-28,280,20","Looks like it was painted with blood, which I'm aware is an art style, but it just looks messy.,-20,340,20","scribbles in red. 2 minute piece.,-30,120,20","I didn't feel the color choice when I first looked. I did however like the placement of the gray.,-28,380,20","Danielle","Looks like it was painted with blood, which I'm aware is an art style, but it just looks messy.,-20,340,20","Diana","I didn't feel the color choice when I first looked. I did however like the placement of the gray.,-28,380,20","Alicia","scribbles in red. 2 minute piece.,-30,120,20","6"
"2870","","survey-text","118","715430","0.0-115.0-0.0","A3CGQOJC28OVGN","","","","{""Q0"":""our""}","","","","","","","","","","","","","","","","","","","","","","",""
"12990","","survey-text","119","728422","0.0-116.0-0.0","A3CGQOJC28OVGN","","","","{""Q0"":""urban street, weird color choices""}","","","","","","","","","","","","","","","","","","","","","","",""
"2983.5","","image-slider-response","120","731408","0.0-117.0","A3CGQOJC28OVGN","","","","","-25","","","","","","","","","","","","","","","","","","","","","",""
"3313","","image-button-response","121","736410","0.0-118.0","A3CGQOJC28OVGN","img_art/29.jpg","1","","","","","","","","","","","","","","","","","","","","","","","","",""
"857","","image-button-response","122","737270","0.0-119.0","A3CGQOJC28OVGN","img_art/29.jpg","1","","","","","","","","","","","","","","","","","","","","","","","","",""
"2627","","image-button-response","123","739900","0.0-120.0-0.0","A3CGQOJC28OVGN","img_art/29.jpg","5","","","","","","","","","","","","","","","","","","","","","","","","",""
"3065","","image-button-response","124","742968","0.0-121.0-0.0","A3CGQOJC28OVGN","img_art/29.jpg","3","","","","","","","","","","","","","","","","","","","","","","","","",""
"null","","html-keyboard-response","125","743972","0.0-122.0","A3CGQOJC28OVGN","<p style=""font-size: 48px;"">+</p>","","","","","null","allTrialResponses","1000","1","11","img_art/29.jpg","-25","urban street, weird color choices","Cassandra,Jacqueline,Allison,Danielle,Alicia,Diana","Neural...just a blackboard jungle.,3,120,20","This is ugly as fuck,-50,300,20","Flash is too strong. Dislike the colors,-5,140,20","Quite ugly in my opinion,-30,340,20","easy, too abstract for me, don't get it.,-25,120,20","I rated it lower because it looked like a crime scene. It didn't make me feel good.,-44,380,20","Jacqueline","This is ugly as fuck,-50,300,20","Diana","I rated it lower because it looked like a crime scene. It didn't make me feel good.,-44,380,20","Danielle","Quite ugly in my opinion,-30,340,20","6"
"10700","","survey-text","126","754677","0.0-123.0-0.0","A3CGQOJC28OVGN","","","","{""Q0"":""cool building perspective""}","","","","","","","","","","","","","","","","","","","","","","",""
"6823.5","","image-slider-response","127","761503","0.0-124.0","A3CGQOJC28OVGN","","","","","15","","","","","","","","","","","","","","","","","","","","","",""
"null","","image-button-response","128","766506","0.0-125.0","A3CGQOJC28OVGN","img_art/8.jpg","null","","","","","","","","","","","","","","","","","","","","","","","","",""
"2860","","image-button-response","129","769368","0.0-126.0","A3CGQOJC28OVGN","img_art/8.jpg","1","","","","","","","","","","","","","","","","","","","","","","","","",""
"8496","","image-button-response","130","777868","0.0-127.0-0.0","A3CGQOJC28OVGN","img_art/8.jpg","4","","","","","","","","","","","","","","","","","","","","","","","","",""
"1111","","image-button-response","131","778982","0.0-128.0-0.0","A3CGQOJC28OVGN","img_art/8.jpg","3","","","","","","","","","","","","","","","","","","","","","","","","",""
"null","","html-keyboard-response","132","779486","0.0-129.0","A3CGQOJC28OVGN","<p style=""font-size: 48px;"">+</p>","","","","","null","allTrialResponses","500","1","12","img_art/8.jpg","15","cool building perspective","Marissa,Jacqueline,Rachel,Danielle,Ashley,Diana","I can't tell if this is supposed to portray just city life or a town crumbling,-5,160,20","This is kind of neat. I really like how things are oriented and the shapes used.,18,300,20","I like all of the faces that can be found in this piece. Interesting.,35,80,20","Enjoy this, it looks like a rushing water pool, surrounded by mountains and buildings, hiding details such as faces.,30,340,20","Escher? Dali? Could be their lovechild?,50,320,20","I don't care for the piece, but I appreciate the talent that it took to create it.,22,380,20","Jacqueline","This is kind of neat. I really like how things are oriented and the shapes used.,18,300,20","Ashley","Escher? Dali? Could be their lovechild?,50,320,20","Danielle","Enjoy this, it looks like a rushing water pool, surrounded by mountains and buildings, hiding details such as faces.,30,340,20","6"
"16757","","survey-text","133","796247","0.0-130.0-0.0","A3CGQOJC28OVGN","","","","{""Q0"":""5 year old's watercolor for kindergbarten""}","","","","","","","","","","","","","","","","","","","","","","",""
"3395.5","","image-slider-response","134","799645","0.0-131.0","A3CGQOJC28OVGN","","","","","-35","","","","","","","","","","","","","","","","","","","","","",""
"null","","image-button-response","135","804650","0.0-132.0","A3CGQOJC28OVGN","img_art/9.jpg","null","","","","","","","","","","","","","","","","","","","","","","","","",""
"1193","","image-button-response","136","805845","0.0-133.0","A3CGQOJC28OVGN","img_art/9.jpg","5","","","","","","","","","","","","","","","","","","","","","","","","",""
"1095","","image-button-response","137","806944","0.0-134.0-0.0","A3CGQOJC28OVGN","img_art/9.jpg","2","","","","","","","","","","","","","","","","","","","","","","","","",""
"1144","","image-button-response","138","808091","0.0-135.0-0.0","A3CGQOJC28OVGN","img_art/9.jpg","3","","","","","","","","","","","","","","","","","","","","","","","","",""
"null","","html-keyboard-response","139","809095","0.0-136.0","A3CGQOJC28OVGN","<p style=""font-size: 48px;"">+</p>","","","","","null","allTrialResponses","1000","1","13","img_art/9.jpg","-35","5 year old's watercolor for kindergbarten","Amanda,Jacqueline,Anna,Danielle,Ashley,Jamie","Makes me feel angry, its not very clear,-50,180,20","Looks like a sloppy iguana.,-11,300,20","It looks like a child's crayon drawing.,-10,300,20","Looks like a child's drawing,-40,340,20","Similar to the tohers, but not as clear.,11,320,20","Mash up of colors and designs don't really go together,-5,320,20","Jamie","Mash up of colors and designs don't really go together,-5,320,20","Anna","It looks like a child's crayon drawing.,-10,300,20","Danielle","Looks like a child's drawing,-40,340,20","6"
"13320","","survey-text","140","822422","0.0-137.0-0.0","A3CGQOJC28OVGN","","","","{""Q0"":""Love the nature colors and the watery impression""}","","","","","","","","","","","","","","","","","","","","","","",""
"2651.5999999940395","","image-slider-response","141","825076","0.0-138.0","A3CGQOJC28OVGN","","","","","36","","","","","","","","","","","","","","","","","","","","","",""
"4829","","image-button-response","142","830081","0.0-139.0","A3CGQOJC28OVGN","img_art/24.jpg","2","","","","","","","","","","","","","","","","","","","","","","","","",""
"939","","image-button-response","143","831022","0.0-140.0","A3CGQOJC28OVGN","img_art/24.jpg","2","","","","","","","","","","","","","","","","","","","","","","","","",""
"3481","","image-button-response","144","834506","0.0-141.0-0.0","A3CGQOJC28OVGN","img_art/24.jpg","4","","","","","","","","","","","","","","","","","","","","","","","","",""
"1504","","image-button-response","145","836014","0.0-142.0-0.0","A3CGQOJC28OVGN","img_art/24.jpg","3","","","","","","","","","","","","","","","","","","","","","","","","",""
"null","","html-keyboard-response","146","836517","0.0-143.0","A3CGQOJC28OVGN","<p style=""font-size: 48px;"">+</p>","","","","","null","allTrialResponses","500","1","14","img_art/24.jpg","36","Love the nature colors and the watery impression","Victoria,Destiny,Anna,Danielle,Shannon,Jamie","very peaceful and serene,47,400,20","brick wall waterfall girl you think you got it all,50,360,20","I like how it evokes the feeling of being in a forest. The colors are pretty,31,300,20","Looks like a mystical type of forest/waterfall. Love it,40,340,20","I like the way the colors are put together, and I can imagine this picture in real life.,40,220,20","Beautiful waterfall with nice colors,40,320,20","Anna","I like how it evokes the feeling of being in a forest. The colors are pretty,31,300,20","Shannon","I like the way the colors are put together, and I can imagine this picture in real life.,40,220,20","Danielle","Looks like a mystical type of forest/waterfall. Love it,40,340,20","6"
"15082","","survey-text","147","851605","0.0-144.0-0.0","A3CGQOJC28OVGN","","","","{""Q0"":""bunch of painted black dots, lazy""}","","","","","","","","","","","","","","","","","","","","","","",""
"2211.0999999940395","","image-slider-response","148","853819","0.0-145.0","A3CGQOJC28OVGN","","","","","-37","","","","","","","","","","","","","","","","","","","","","",""
"null","","image-button-response","149","858823","0.0-146.0","A3CGQOJC28OVGN","img_art/15.jpg","null","","","","","","","","","","","","","","","","","","","","","","","","",""
"194","","image-button-response","150","859019","0.0-147.0","A3CGQOJC28OVGN","img_art/15.jpg","4","","","","","","","","","","","","","","","","","","","","","","","","",""
"1942","","image-button-response","151","860963","0.0-148.0-0.0","A3CGQOJC28OVGN","img_art/15.jpg","0","","","","","","","","","","","","","","","","","","","","","","","","",""
"2345","","image-button-response","152","863311","0.0-149.0-0.0","A3CGQOJC28OVGN","img_art/15.jpg","0","","","","","","","","","","","","","","","","","","","","","","","","",""
"808","","image-button-response","153","867389","0.0-149.1-0.1","A3CGQOJC28OVGN","img_art/15.jpg","1","","","","","","","","","","","","","","","","","","","","","","","","",""
"null","","html-keyboard-response","154","868392","0.0-150.0","A3CGQOJC28OVGN","<p style=""font-size: 48px;"">+</p>","","","","","null","allTrialResponses","1000","1","15","img_art/15.jpg","-37","bunch of painted black dots, lazy","Katherine,Alexandra,Anna,Danielle,Shannon,Alexandria","black dots too ant-like,-25,120,20","This is sort of ugly, but I do like the design.,10,60,20","I like how it's simple but beautiful.,40,300,20","This is pretty nice, reminds me of dark peacock feathers, or perhaps a bush with berries in it?,15,340,20","Not enough colors to make it interesting and doesn't look like anything is happening.,-20,220,20","it looks like trees but they are up to interpretation,16,80,20","Shannon","Not enough colors to make it interesting and doesn't look like anything is happening.,-20,220,20","Katherine","black dots too ant-like,-25,120,20","Alexandra","This is sort of ugly, but I do like the design.,10,60,20","8"
"3610","","survey-text","155","872012","0.0-151.0-0.0","A3CGQOJC28OVGN","","","","{""Q0"":""course""}","","","","","","","","","","","","","","","","","","","","","","",""
"17964","","survey-text","156","889979","0.0-152.0-0.0","A3CGQOJC28OVGN","","","","{""Q0"":""Not sure what to think. Hate the shapoes, like the colors""}","","","","","","","","","","","","","","","","","","","","","","",""
"15571.700000017881","","image-slider-response","157","905552","0.0-153.0","A3CGQOJC28OVGN","","","","","-4","","","","","","","","","","","","","","","","","","","","","",""
"null","","image-button-response","158","910556","0.0-154.0","A3CGQOJC28OVGN","img_art/14.jpg","null","","","","","","","","","","","","","","","","","","","","","","","","",""
"3750","","image-button-response","159","914309","0.0-155.0","A3CGQOJC28OVGN","img_art/14.jpg","3","","","","","","","","","","","","","","","","","","","","","","","","",""
"1520","","image-button-response","160","915833","0.0-156.0-0.0","A3CGQOJC28OVGN","img_art/14.jpg","5","","","","","","","","","","","","","","","","","","","","","","","","",""
"2474","","image-button-response","161","918310","0.0-157.0-0.0","A3CGQOJC28OVGN","img_art/14.jpg","1","","","","","","","","","","","","","","","","","","","","","","","","",""
"null","","html-keyboard-response","162","918812","0.0-158.0","A3CGQOJC28OVGN","<p style=""font-size: 48px;"">+</p>","","","","","null","allTrialResponses","500","1","16","img_art/14.jpg","-4","Not sure what to think. Hate the shapoes, like the colors","Katherine,Alexandra,Kathryn,Emily,Shannon,Madeline","I don't like the color red,30,120,20","Pretty, dainty, unique,22,60,20","This reminds me of a tree but the tree is sickly, and poorly cared for.,-10,140,20","Looks like there is some skill but also at the same time parts look unskilled.,-16,40,20","I like this picture because it looks like a tree and the colors used look cool.,20,220,20","It looks nice colorwise but detail is lacking,18,40,20","Emily","Looks like there is some skill but also at the same time parts look unskilled.,-16,40,20","Madeline","It looks nice colorwise but detail is lacking,18,40,20","Alexandra","Pretty, dainty, unique,22,60,20","8"
"15626","","survey-text","163","934445","0.0-159.0-0.0","A3CGQOJC28OVGN","","","","{""Q0"":""Bird on barren landscape, depressing""}","","","","","","","","","","","","","","","","","","","","","","",""
"3683.5999999940395","","image-slider-response","164","938131","0.0-160.0","A3CGQOJC28OVGN","","","","","-27","","","","","","","","","","","","","","","","","","","","","",""
"null","","image-button-response","165","943135","0.0-161.0","A3CGQOJC28OVGN","img_art/6.jpg","null","","","","","","","","","","","","","","","","","","","","","","","","",""
"2074","","image-button-response","166","945211","0.0-162.0","A3CGQOJC28OVGN","img_art/6.jpg","0","","","","","","","","","","","","","","","","","","","","","","","","",""
"7337","","image-button-response","167","952551","0.0-163.0-0.0","A3CGQOJC28OVGN","img_art/6.jpg","2","","","","","","","","","","","","","","","","","","","","","","","","",""
"6664","","image-button-response","168","959220","0.0-164.0-0.0","A3CGQOJC28OVGN","img_art/6.jpg","4","","","","","","","","","","","","","","","","","","","","","","","","",""
"null","","html-keyboard-response","169","960723","0.0-165.0","A3CGQOJC28OVGN","<p style=""font-size: 48px;"">+</p>","","","","","null","allTrialResponses","1500","1","17","img_art/6.jpg","-27","Bird on barren landscape, depressing","Kaitlin,Alexandra,Hannah,Emily,Taylor,Madeline","This one also confuses me a bit.,-19,60,20","this is interesting and unique,11,60,20","Looks like a bird. It's fine.,7,240,20","Looks like a kid created it.,-50,40,20","Reminds me of my friend's bird,21,340,20","Looks a bit like a pickle or something?,-16,40,20","Kaitlin","This one also confuses me a bit.,-19,60,20","Hannah","Looks like a bird. It's fine.,7,240,20","Taylor","Reminds me of my friend's bird,21,340,20","8"
"56679","","survey-text","170","1017409","0.0-166.0-0.0","A3CGQOJC28OVGN","","","","{""Q0"":""a head exploding, maybe? girl..Idk, creepy""}","","","","","","","","","","","","","","","","","","","","","","",""
"2281.5999999940395","","image-slider-response","171","1019693","0.0-167.0","A3CGQOJC28OVGN","","","","","-30","","","","","","","","","","","","","","","","","","","","","",""
"null","","image-button-response","172","1024698","0.0-168.0","A3CGQOJC28OVGN","img_art/18.jpg","null","","","","","","","","","","","","","","","","","","","","","","","","",""
"1095","","image-button-response","173","1025795","0.0-169.0","A3CGQOJC28OVGN","img_art/18.jpg","4","","","","","","","","","","","","","","","","","","","","","","","","",""
"4339","","image-button-response","174","1030137","0.0-170.0-0.0","A3CGQOJC28OVGN","img_art/18.jpg","3","","","","","","","","","","","","","","","","","","","","","","","","",""
"5294","","image-button-response","175","1035435","0.0-171.0-0.0","A3CGQOJC28OVGN","img_art/18.jpg","2","","","","","","","","","","","","","","","","","","","","","","","","",""
"null","","html-keyboard-response","176","1036940","0.0-172.0","A3CGQOJC28OVGN","<p style=""font-size: 48px;"">+</p>","","","","","null","allTrialResponses","1500","1","18","img_art/18.jpg","-30","a head exploding, maybe? girl..Idk, creepy","Kaitlin,Megan,Hannah,Kelly,Taylor,Jennifer","I really like this one - there seems to be a story behind it,32,60,20","Nice palette with complexity becoming nice at the center,34,200,20","Looks like ghost figures on a boat. It's okay.,7,240,20","It's interesting. I'm not sure how I feel about it, but i enjoy the ghostly apparitions.,10,220,20","Another ominous painting,-10,340,20","I have no strong feelings about this image,1,380,20","Taylor","Another ominous painting,-10,340,20","Kelly","It's interesting. I'm not sure how I feel about it, but i enjoy the ghostly apparitions.,10,220,20","Hannah","Looks like ghost figures on a boat. It's okay.,7,240,20","8"
"7366","","survey-text","177","1044312","0.0-173.0-0.0","A3CGQOJC28OVGN","","","","{""Q0"":""simple, dumb""}","","","","","","","","","","","","","","","","","","","","","","",""
"2094.5","","image-slider-response","178","1046409","0.0-174.0","A3CGQOJC28OVGN","","","","","-45","","","","","","","","","","","","","","","","","","","","","",""
"null","","image-button-response","179","1051412","0.0-175.0","A3CGQOJC28OVGN","img_art/5.jpg","null","","","","","","","","","","","","","","","","","","","","","","","","",""
"111","","image-button-response","180","1051526","0.0-176.0","A3CGQOJC28OVGN","img_art/5.jpg","3","","","","","","","","","","","","","","","","","","","","","","","","",""
"1557","","image-button-response","181","1053085","0.0-177.0-0.0","A3CGQOJC28OVGN","img_art/5.jpg","0","","","","","","","","","","","","","","","","","","","","","","","","",""
"2572","","image-button-response","182","1055660","0.0-178.0-0.0","A3CGQOJC28OVGN","img_art/5.jpg","2","","","","","","","","","","","","","","","","","","","","","","","","",""
"null","","html-keyboard-response","183","1056162","0.0-179.0","A3CGQOJC28OVGN","<p style=""font-size: 48px;"">+</p>","","","","","null","allTrialResponses","500","1","19","img_art/5.jpg","-45","simple, dumb","Angela,Cynthia,Hannah,Kelly,Taylor,Alyssa","I really dislike this. It's ugly and looks dirty.,-44,260,20","boring and unsure,-25,320,20","Very basic, but at least has some color to it.,-9,240,20","It looks like daffy duck's leg with a random trail of pink.,-22,220,20","Doesn't make me think anything,-1,340,20","It has a sense of vague familiarity that i like.Like a stick starting a fire at a campsite.,30,160,20","Kelly","It looks like daffy duck's leg with a random trail of pink.,-22,220,20","Angela","I really dislike this. It's ugly and looks dirty.,-44,260,20","Hannah","Very basic, but at least has some color to it.,-9,240,20","8"
"45454","","survey-text","184","1101622","0.0-180.0-0.0","A3CGQOJC28OVGN","","","","{""Q0"":""interesting colors and contrast, ""}","","","","","","","","","","","","","","","","","","","","","","",""
"2357.5999999940395","","image-slider-response","185","1103982","0.0-181.0","A3CGQOJC28OVGN","","","","","12","","","","","","","","","","","","","","","","","","","","","",""
"null","","image-button-response","186","1108986","0.0-182.0","A3CGQOJC28OVGN","img_art/23.jpg","null","","","","","","","","","","","","","","","","","","","","","","","","",""
"2224","","image-button-response","187","1111212","0.0-183.0","A3CGQOJC28OVGN","img_art/23.jpg","2","","","","","","","","","","","","","","","","","","","","","","","","",""
"6075","","image-button-response","188","1117291","0.0-184.0-0.0","A3CGQOJC28OVGN","img_art/23.jpg","4","","","","","","","","","","","","","","","","","","","","","","","","",""
"1416","","image-button-response","189","1118710","0.0-185.0-0.0","A3CGQOJC28OVGN","img_art/23.jpg","3","","","","","","","","","","","","","","","","","","","","","","","","",""
"null","","html-keyboard-response","190","1120216","0.0-186.0","A3CGQOJC28OVGN","<p style=""font-size: 48px;"">+</p>","","","","","null","allTrialResponses","1500","1","20","img_art/23.jpg","12","interesting colors and contrast, ","Angela,Elizabeth,Hannah,Kelly,Claire,Heather","Like the background colors and the energy, but the white bits ruin it for me,-7,260,20","Fantastic blend of color and forms,43,20,20","This one is interesting. Looks like people with maybe musical instruments?,11,240,20","Love this. I love the white, really pops with the colors surrounding it.,44,220,20","the pattern is pleasing to the eye,28,260,20","illegible wording with a graffiti background,1,260,20","Hannah","This one is interesting. Looks like people with maybe musical instruments?,11,240,20","Claire","the pattern is pleasing to the eye,28,260,20","Kelly","Love this. I love the white, really pops with the colors surrounding it.,44,220,20","8"
"2988","","survey-text","191","1123214","0.0-187.0-0.0","A3CGQOJC28OVGN","","","","{""Q0"":""we""}","","","","","","","","","","","","","","","","","","","","","","",""
"24633","","survey-text","192","1147849","0.0-188.0-0.0","A3CGQOJC28OVGN","","","","{""Q0"":""well done figure in the middle, but the arms just ruin it for me""}","","","","","","","","","","","","","","","","","","","","","","",""
"2356.4000000059605","","image-slider-response","193","1150207","0.0-189.0","A3CGQOJC28OVGN","","","","","-12","","","","","","","","","","","","","","","","","","","","","",""
"2962","","image-button-response","194","1155211","0.0-190.0","A3CGQOJC28OVGN","img_art/25.jpg","0","","","","","","","","","","","","","","","","","","","","","","","","",""
"634","","image-button-response","195","1155849","0.0-191.0","A3CGQOJC28OVGN","img_art/25.jpg","0","","","","","","","","","","","","","","","","","","","","","","","","",""
"6271","","image-button-response","196","1162123","0.0-192.0-0.0","A3CGQOJC28OVGN","img_art/25.jpg","4","","","","","","","","","","","","","","","","","","","","","","","","",""
"1412","","image-button-response","197","1163539","0.0-193.0-0.0","A3CGQOJC28OVGN","img_art/25.jpg","2","","","","","","","","","","","","","","","","","","","","","","","","",""
"null","","html-keyboard-response","198","1164541","0.0-194.0","A3CGQOJC28OVGN","<p style=""font-size: 48px;"">+</p>","","","","","null","allTrialResponses","1000","1","21","img_art/25.jpg","-12","well done figure in the middle, but the arms just ruin it for me","Mariah,Mikayla,Hannah,Kelly,Claire,Amy","The proportions are unpleasant.,-30,140,20","I LOVE fhe scary skeleton.,28,300,20","Looks like a voodoo figure in a New Orleans cemetery at night.,-5,240,20","I love the color. I don't know what exactly is going on but I like it.,24,220,20","the colors are pretty,11,260,20","The limited palette make this figure mysterious and interpret-able.,20,220,20","Mariah","The proportions are unpleasant.,-30,140,20","Claire","the colors are pretty,11,260,20","Hannah","Looks like a voodoo figure in a New Orleans cemetery at night.,-5,240,20","8"
"11082","","survey-text","199","1175630","0.0-195.0-0.0","A3CGQOJC28OVGN","","","","{""Q0"":""watercolor ugly""}","","","","","","","","","","","","","","","","","","","","","","",""
"2307.199999988079","","image-slider-response","200","1177940","0.0-196.0","A3CGQOJC28OVGN","","","","","-45","","","","","","","","","","","","","","","","","","","","","",""
"null","","image-button-response","201","1182944","0.0-197.0","A3CGQOJC28OVGN","img_art/1.jpg","null","","","","","","","","","","","","","","","","","","","","","","","","",""
"155","","image-button-response","202","1183101","0.0-198.0","A3CGQOJC28OVGN","img_art/1.jpg","5","","","","","","","","","","","","","","","","","","","","","","","","",""
"5548","","image-button-response","203","1188652","0.0-199.0-0.0","A3CGQOJC28OVGN","img_art/1.jpg","2","","","","","","","","","","","","","","","","","","","","","","","","",""
"1492","","image-button-response","204","1190148","0.0-200.0-0.0","A3CGQOJC28OVGN","img_art/1.jpg","0","","","","","","","","","","","","","","","","","","","","","","","","",""
"null","","html-keyboard-response","205","1191655","0.0-201.0","A3CGQOJC28OVGN","<p style=""font-size: 48px;"">+</p>","","","","","null","allTrialResponses","1500","1","22","img_art/1.jpg","-45","watercolor ugly","Mariah,Kimberly,Hannah,Grace,Claire,Margaret","Colors are pleasant, but feels incredibly generic.,9,140,20","It's like being out on a psychedelic lake,32,260,20","Reminds me of fall.,7,240,20","Again, like the colors & abstractness.,29,180,20","the colors are nice,8,260,20","basic reminds me of something a school would have on the wall,-7,100,20","Margaret","basic reminds me of something a school would have on the wall,-7,100,20","Hannah","Reminds me of fall.,7,240,20","Mariah","Colors are pleasant, but feels incredibly generic.,9,140,20","8"
"17777","","survey-text","206","1209439","0.0-202.0-0.0","A3CGQOJC28OVGN","","","","{""Q0"":""city streets, ok but I wouldnt hang opn my wall""}","","","","","","","","","","","","","","","","","","","","","","",""
"3521.800000011921","","image-slider-response","207","1212963","0.0-203.0","A3CGQOJC28OVGN","","","","","-7","","","","","","","","","","","","","","","","","","","","","",""
"3313","","image-button-response","208","1217968","0.0-204.0","A3CGQOJC28OVGN","img_art/26.jpg","0","","","","","","","","","","","","","","","","","","","","","","","","",""
"774","","image-button-response","209","1218745","0.0-205.0","A3CGQOJC28OVGN","img_art/26.jpg","0","","","","","","","","","","","","","","","","","","","","","","","","",""
"871","","image-button-response","210","1219619","0.0-206.0-0.0","A3CGQOJC28OVGN","img_art/26.jpg","2","","","","","","","","","","","","","","","","","","","","","","","","",""
"2455","","image-button-response","211","1222077","0.0-207.0-0.0","A3CGQOJC28OVGN","img_art/26.jpg","4","","","","","","","","","","","","","","","","","","","","","","","","",""
"null","","html-keyboard-response","212","1223082","0.0-208.0","A3CGQOJC28OVGN","<p style=""font-size: 48px;"">+</p>","","","","","null","allTrialResponses","1000","1","23","img_art/26.jpg","-7","city streets, ok but I wouldnt hang opn my wall","Mariah,Sarah,Hannah,Savannah,Gabrielle,Margaret","Pleasant but bland.,10,140,20","too hard to figure out if it's meant to be actual objects or impressions,-36,180,20","This is boring.,-15,240,20","Appears childish and unfinished.,-20,200,20","subtle use of colors, city street view?,8,160,20","its boring and i dont like the color palette,3,100,20","Mariah","Pleasant but bland.,10,140,20","Hannah","This is boring.,-15,240,20","Gabrielle","subtle use of colors, city street view?,8,160,20","8"
"13270","","survey-text","213","1236358","0.0-209.0-0.0","A3CGQOJC28OVGN","","","","{""Q0"":""why is it so dark? unpleasent""}","","","","","","","","","","","","","","","","","","","","","","",""
"3848.4000000059605","","image-slider-response","214","1240209","0.0-210.0","A3CGQOJC28OVGN","","","","","-25","","","","","","","","","","","","","","","","","","","","","",""
"null","","image-button-response","215","1245217","0.0-211.0","A3CGQOJC28OVGN","img_art/17.jpg","null","","","","","","","","","","","","","","","","","","","","","","","","",""
"2743","","image-button-response","216","1247962","0.0-212.0","A3CGQOJC28OVGN","img_art/17.jpg","2","","","","","","","","","","","","","","","","","","","","","","","","",""
"4837","","image-button-response","217","1252802","0.0-213.0-0.0","A3CGQOJC28OVGN","img_art/17.jpg","5","","","","","","","","","","","","","","","","","","","","","","","","",""
"3696","","image-button-response","218","1256502","0.0-214.0-0.0","A3CGQOJC28OVGN","img_art/17.jpg","0","","","","","","","","","","","","","","","","","","","","","","","","",""
"null","","html-keyboard-response","219","1257005","0.0-215.0","A3CGQOJC28OVGN","<p style=""font-size: 48px;"">+</p>","","","","","null","allTrialResponses","500","1","24","img_art/17.jpg","-25","why is it so dark? unpleasent","Mariah,Sierra,Hannah,Tiffany,Gabrielle,Courtney","It feels like nature overtaking civilization.,21,140,20","the colors, the arch and the wall,15,260,20","Looks like an abandoned building that is being overtaken by nature.,-10,240,20","The painting makes me feel relaxed, and a bit lonely, like I'm sitting at a park waiting for someone.,30,360,20","nice composition and colors, fairy land,28,160,20","Some new perm we got there.,12,280,20","Hannah","Looks like an abandoned building that is being overtaken by nature.,-10,240,20","Courtney","Some new perm we got there.,12,280,20","Mariah","It feels like nature overtaking civilization.,21,140,20","8"
"7442","","survey-text","220","1264453","0.0-216.0-0.0","A3CGQOJC28OVGN","","","","{""Q0"":""unorganized""}","","","","","","","","","","","","","","","","","","","","","","",""
"2507.9000000059605","","image-slider-response","221","1266964","0.0-217.0","A3CGQOJC28OVGN","","","","","-17","","","","","","","","","","","","","","","","","","","","","",""
"null","","image-button-response","222","1271966","0.0-218.0","A3CGQOJC28OVGN","img_art/7.jpg","null","","","","","","","","","","","","","","","","","","","","","","","","",""
"2990","","image-button-response","223","1274960","0.0-219.0","A3CGQOJC28OVGN","img_art/7.jpg","4","","","","","","","","","","","","","","","","","","","","","","","","",""
"1318","","image-button-response","224","1276280","0.0-220.0-0.0","A3CGQOJC28OVGN","img_art/7.jpg","3","","","","","","","","","","","","","","","","","","","","","","","","",""
"1486","","image-button-response","225","1277770","0.0-221.0-0.0","A3CGQOJC28OVGN","img_art/7.jpg","5","","","","","","","","","","","","","","","","","","","","","","","","",""
"null","","html-keyboard-response","226","1278272","0.0-222.0","A3CGQOJC28OVGN","<p style=""font-size: 48px;"">+</p>","","","","","null","allTrialResponses","500","1","25","img_art/7.jpg","-17","unorganized","Mariah,Bailey,Hannah,Breanna,Briana,Courtney","The dried bottom of a puddle in July.,-41,140,20","It gives off an alien-like vastness of space vibe which I like,9,360,20","Looks almost like a photograph of nature.,11,240,20","Not highly impressed,-5,380,20","Are these ancient cave paintings?,-7,400,20","That a desert floor,16,280,20","Briana","Are these ancient cave paintings?,-7,400,20","Breanna","Not highly impressed,-5,380,20","Courtney","That a desert floor,16,280,20","8"
"3529","","survey-text","227","1281813","0.0-223.0-0.0","A3CGQOJC28OVGN","","","","{""Q0"":""table""}","","","","","","","","","","","","","","","","","","","","","","",""
"15917","","survey-text","228","1297732","0.0-224.0-0.0","A3CGQOJC28OVGN","","","","{""Q0"":""These block paintings are just random and lazy""}","","","","","","","","","","","","","","","","","","","","","","",""
"2100","","image-slider-response","229","1299834","0.0-225.0","A3CGQOJC28OVGN","","","","","-32","","","","","","","","","","","","","","","","","","","","","",""
"3745","","image-button-response","230","1304837","0.0-226.0","A3CGQOJC28OVGN","img_art/2.jpg","0","","","","","","","","","","","","","","","","","","","","","","","","",""
"1352","","image-button-response","231","1306192","0.0-227.0","A3CGQOJC28OVGN","img_art/2.jpg","0","","","","","","","","","","","","","","","","","","","","","","","","",""
"759","","image-button-response","232","1306954","0.0-228.0-0.0","A3CGQOJC28OVGN","img_art/2.jpg","1","","","","","","","","","","","","","","","","","","","","","","","","",""
"4595","","image-button-response","233","1311552","0.0-229.0-0.0","A3CGQOJC28OVGN","img_art/2.jpg","3","","","","","","","","","","","","","","","","","","","","","","","","",""
"null","","html-keyboard-response","234","1312054","0.0-230.0","A3CGQOJC28OVGN","<p style=""font-size: 48px;"">+</p>","","","","","null","allTrialResponses","500","1","26","img_art/2.jpg","-32","These block paintings are just random and lazy","Vanessa,Chloe,Morgan,Breanna,Briana,Courtney","I don't like the abstract nature of this painting or the colors used.,-50,380,20","The color choices and lines seem a bit sloppy?,-10,220,20","Old, dull, messy.,-10,380,20","It's just a splash of paint on a canvas,-31,380,20","Childish smiley face,-19,400,20","That looks look a cartoon character of some kind.,11,280,20","Vanessa","I don't like the abstract nature of this painting or the colors used.,-50,380,20","Chloe","The color choices and lines seem a bit sloppy?,-10,220,20","Breanna","It's just a splash of paint on a canvas,-31,380,20","8"
"24112","","survey-text","235","1336173","0.0-231.0-0.0","A3CGQOJC28OVGN","","","","{""Q0"":""line color figures with random dream colors""}","","","","","","","","","","","","","","","","","","","","","","",""
"2242.0999999940395","","image-slider-response","236","1338417","0.0-232.0","A3CGQOJC28OVGN","","","","","8","","","","","","","","","","","","","","","","","","","","","",""
"null","","image-button-response","237","1343421","0.0-233.0","A3CGQOJC28OVGN","img_art/19.jpg","null","","","","","","","","","","","","","","","","","","","","","","","","",""
"651","","image-button-response","238","1344076","0.0-234.0","A3CGQOJC28OVGN","img_art/19.jpg","5","","","","","","","","","","","","","","","","","","","","","","","","",""
"2693","","image-button-response","239","1346771","0.0-235.0-0.0","A3CGQOJC28OVGN","img_art/19.jpg","0","","","","","","","","","","","","","","","","","","","","","","","","",""
"2424","","image-button-response","240","1349198","0.0-236.0-0.0","A3CGQOJC28OVGN","img_art/19.jpg","4","","","","","","","","","","","","","","","","","","","","","","","","",""
"null","","html-keyboard-response","241","1350701","0.0-237.0","A3CGQOJC28OVGN","<p style=""font-size: 48px;"">+</p>","","","","","null","allTrialResponses","1500","1","27","img_art/19.jpg","8","line color figures with random dream colors","Vanessa,Chloe,Amber,Breanna,Abigail,Paige","Again, this is too abstract.,-10,380,20","The use of space isn't my favorite.,-20,220,20","Reminds me of a busy village.,16,200,20","The details are amazing,36,380,20","I dont like the gray shadows, ruins it,-7,20,20","it's too busy for me. Makes me feel stressed.,1,60,20","Paige","it's too busy for me. Makes me feel stressed.,1,60,20","Vanessa","Again, this is too abstract.,-10,380,20","Abigail","I dont like the gray shadows, ruins it,-7,20,20","8"
"14808","","survey-text","242","1365516","0.0-238.0-0.0","A3CGQOJC28OVGN","","","","{""Q0"":""HATE the colors""}","","","","","","","","","","","","","","","","","","","","","","",""
"3650.199999988079","","image-slider-response","243","1369169","0.0-239.0","A3CGQOJC28OVGN","","","","","-44","","","","","","","","","","","","","","","","","","","","","",""
"null","","image-button-response","244","1374173","0.0-240.0","A3CGQOJC28OVGN","img_art/28.jpg","null","","","","","","","","","","","","","","","","","","","","","","","","",""
"1977","","image-button-response","245","1376152","0.0-241.0","A3CGQOJC28OVGN","img_art/28.jpg","0","","","","","","","","","","","","","","","","","","","","","","","","",""
"1397","","image-button-response","246","1377553","0.0-242.0-0.0","A3CGQOJC28OVGN","img_art/28.jpg","4","","","","","","","","","","","","","","","","","","","","","","","","",""
"2608","","image-button-response","247","1380164","0.0-243.0-0.0","A3CGQOJC28OVGN","img_art/28.jpg","3","","","","","","","","","","","","","","","","","","","","","","","","",""
"null","","html-keyboard-response","248","1381170","0.0-244.0","A3CGQOJC28OVGN","<p style=""font-size: 48px;"">+</p>","","","","","null","allTrialResponses","1000","1","28","img_art/28.jpg","-44","HATE the colors","Vanessa,Molly,Cheyenne,Hailey,Abigail,Paige","It's such a blah piece and way too abstract.,-50,380,20","This painting is mysterious, it makes me curious.,5,340,20","Good use of shapes.,7,200,20","an old woman in a wheelchair. sad,-35,200,20","A messy bed room,-7,20,20","I just don't like it. It makes no sense to me,1,60,20","Vanessa","It's such a blah piece and way too abstract.,-50,380,20","Abigail","A messy bed room,-7,20,20","Hailey","an old woman in a wheelchair. sad,-35,200,20","8"
"28346","","survey-text","249","1409523","0.0-245.0-0.0","A3CGQOJC28OVGN","","","","{""Q0"":""too small to appreciate, but why is there a frame inside the frame. I dont \""get\"" it""}","","","","","","","","","","","","","","","","","","","","","","",""
"3097.0999999940395","","image-slider-response","250","1412622","0.0-246.0","A3CGQOJC28OVGN","","","","","-15","","","","","","","","","","","","","","","","","","","","","",""
"null","","image-button-response","251","1417625","0.0-247.0","A3CGQOJC28OVGN","img_art/20.jpg","null","","","","","","","","","","","","","","","","","","","","","","","","",""
"266","","image-button-response","252","1417895","0.0-248.0","A3CGQOJC28OVGN","img_art/20.jpg","5","","","","","","","","","","","","","","","","","","","","","","","","",""
"8044","","image-button-response","253","1425943","0.0-249.0-0.0","A3CGQOJC28OVGN","img_art/20.jpg","1","","","","","","","","","","","","","","","","","","","","","","","","",""
"3401","","image-button-response","254","1429347","0.0-250.0-0.0","A3CGQOJC28OVGN","img_art/20.jpg","3","","","","","","","","","","","","","","","","","","","","","","","","",""
"null","","html-keyboard-response","255","1430854","0.0-251.0","A3CGQOJC28OVGN","<p style=""font-size: 48px;"">+</p>","","","","","null","allTrialResponses","1500","1","29","img_art/20.jpg","-15","too small to appreciate, but why is there a frame inside the frame. I dont ""get"" it","Vanessa,Jordan,Katelyn,Hailey,Abigail,Mary","I like the deep blues, but I don't like the way this picture makes me feel.,-13,380,20","It's okay, I see what looks like a truck laying on it's side. Meh,10,20,20","I do at least like the dark colors blending,6,100,20","reminds me of a dead animal in the west. ugly,-25,200,20","A mountain vacation,46,20,20","I can tell this artist has experience. I just don't care for the color combo.,7,180,20","Mary","I can tell this artist has experience. I just don't care for the color combo.,7,180,20","Jordan","It's okay, I see what looks like a truck laying on it's side. Meh,10,20,20","Hailey","reminds me of a dead animal in the west. ugly,-25,200,20","8"
"11949","","survey-text","256","1442810","0.0-252.0-0.0","A3CGQOJC28OVGN","","","","{""Q0"":""randomness for randomness sake""}","","","","","","","","","","","","","","","","","","","","","","",""
"3807.199999988079","","image-slider-response","257","1446619","0.0-253.0","A3CGQOJC28OVGN","","","","","-24","","","","","","","","","","","","","","","","","","","","","",""
"null","","image-button-response","258","1451622","0.0-254.0","A3CGQOJC28OVGN","img_art/27.jpg","null","","","","","","","","","","","","","","","","","","","","","","","","",""
"1750","","image-button-response","259","1453375","0.0-255.0","A3CGQOJC28OVGN","img_art/27.jpg","0","","","","","","","","","","","","","","","","","","","","","","","","",""
"2113","","image-button-response","260","1455491","0.0-256.0-0.0","A3CGQOJC28OVGN","img_art/27.jpg","2","","","","","","","","","","","","","","","","","","","","","","","","",""
"1517","","image-button-response","261","1457011","0.0-257.0-0.0","A3CGQOJC28OVGN","img_art/27.jpg","4","","","","","","","","","","","","","","","","","","","","","","","","",""
"null","","html-keyboard-response","262","1457513","0.0-258.0","A3CGQOJC28OVGN","<p style=""font-size: 48px;"">+</p>","","","","","null","allTrialResponses","500","1","30","img_art/27.jpg","-24","randomness for randomness sake","Jessica,Jordan,Rebecca,Hailey,Caroline,Mary","Don't get the point of this piece that much, but it doesn't bug me,1,400,20","two warring cities, separated by a small desert,50,20,20","don't understand, the green induces confusion,1,100,20","fruity and sweet. warm and juicy,10,200,20","Didnt actually make me feel anything, sort of bland,3,100,20","I like the layer upon layer of different mediums used here.,21,180,20","Jessica","Don't get the point of this piece that much, but it doesn't bug me,1,400,20","Rebecca","don't understand, the green induces confusion,1,100,20","Caroline","Didnt actually make me feel anything, sort of bland,3,100,20","8"
"2375","","image-button-response_instructions","263","1459896","0.0-259.0","A3CGQOJC28OVGN","","0","instructions","","","","","","","","","","","","","","","","","","","","","","","",""
"1875","","image-button-response","264","1461776","0.0-260.0","A3CGQOJC28OVGN","","0","","","","","","","","","","","","","","","","","","","","","","","","",""
