"rt","url","trial_type","trial_index","time_elapsed","internal_node_id","participant_id","stimulus","button_pressed","Name","responses","response","key_press","variableName","fixationTime","condition","trial","photo","subjectRating","subjectResponse","agentsNames","agent_1_Response","agent_2_Response","agent_3_Response","agent_4_Response","agent_5_Response","agent_6_Response","kept_1_name","kept_1_response","kept_2_name","kept_2_response","kept_3_name","kept_3_response","errorCounter"
"6593","external_page_harvard.html","external-html","0","6716","0.0-0.0","A3CMWYLWMENHLZ","","","","","","","","","","","","","","","","","","","","","","","","","","",""
"6157","","image-button-response","1","12875","0.0-1.0","A3CMWYLWMENHLZ","","0","","","","","","","","","","","","","","","","","","","","","","","","",""
"2724","","image-button-response","2","15602","0.0-2.0-0.0","A3CMWYLWMENHLZ","","1","phone","","","","","","","","","","","","","","","","","","","","","","","",""
"2671","","survey-text","3","18275","0.0-3.0-0.0","A3CMWYLWMENHLZ","","","","{""Q0"":""A3CMWYLWMENHLZ""}","","","","","","","","","","","","","","","","","","","","","","",""
"4326","","image-button-response_instructions","4","22602","0.0-4.0","A3CMWYLWMENHLZ","","0","instructions","","","","","","","","","","","","","","","","","","","","","","","",""
"14143","","image-button-response_instructions","5","36747","0.0-5.0","A3CMWYLWMENHLZ","img_art/ins/popularity/ins1.png","0","instructions","","","","","","","","","","","","","","","","","","","","","","","",""
"3358","","image-button-response_instructions","6","40107","0.0-6.0","A3CMWYLWMENHLZ","img_art/ins/popularity/ins2.png","0","instructions","","","","","","","","","","","","","","","","","","","","","","","",""
"2391","","image-button-response_instructions","7","42498","0.0-7.0","A3CMWYLWMENHLZ","img_art/ins/popularity/ins2Extreme.png","0","instructions","","","","","","","","","","","","","","","","","","","","","","","",""
"4823","","image-button-response_instructions","8","47323","0.0-8.0","A3CMWYLWMENHLZ","img_art/ins/popularity/ins3KEEPpop.PNG","0","instructions","","","","","","","","","","","","","","","","","","","","","","","",""
"2751","","image-button-response_instructions","9","50074","0.0-9.0","A3CMWYLWMENHLZ","img_art/ins/popularity/ins3ANamepop.PNG","0","instructions","","","","","","","","","","","","","","","","","","","","","","","",""
"3855","","image-button-response_instructions","10","53931","0.0-10.0","A3CMWYLWMENHLZ","img_art/ins/popularity/ins3ARatingpop.png","0","instructions","","","","","","","","","","","","","","","","","","","","","","","",""
"2847","","image-button-response_instructions","11","56778","0.0-11.0","A3CMWYLWMENHLZ","img_art/ins/popularity/ins3ATextpop.png","0","instructions","","","","","","","","","","","","","","","","","","","","","","","",""
"8056","","image-button-response_instructions","12","64835","0.0-12.0","A3CMWYLWMENHLZ","img_art/ins/popularity/ins3ALikespop.png","0","instructions","","","","","","","","","","","","","","","","","","","","","","","",""
"12143","","image-button-response_instructions","13","76980","0.0-13.0","A3CMWYLWMENHLZ","img_art/ins/popularity/ins3KEEPpop.PNG","0","instructions","","","","","","","","","","","","","","","","","","","","","","","",""
"3710","","image-button-response_instructions","14","80691","0.0-14.0","A3CMWYLWMENHLZ","img_art/ins/popularity/ins3_5RED.png","0","instructions","","","","","","","","","","","","","","","","","","","","","","","",""
"2223","","image-button-response_instructions","15","82915","0.0-15.0","A3CMWYLWMENHLZ","img_art/ins/popularity/ins3KEEPpop.PNG","0","instructions","","","","","","","","","","","","","","","","","","","","","","","",""
"2375","","image-button-response_instructions","16","85291","0.0-16.0","A3CMWYLWMENHLZ","img_art/ins/popularity/ins4KEEPpop.PNG","0","instructions","","","","","","","","","","","","","","","","","","","","","","","",""
"2135","","image-button-response_instructions","17","87427","0.0-17.0","A3CMWYLWMENHLZ","img_art/ins/popularity/ins5KEEPpop.PNG","0","instructions","","","","","","","","","","","","","","","","","","","","","","","",""
"1831","","image-button-response_instructions","18","89259","0.0-18.0","A3CMWYLWMENHLZ","","0","instructions","","","","","","","","","","","","","","","","","","","","","","","",""
"10166","","survey-text","19","99443","0.0-19.0-0.0","A3CMWYLWMENHLZ","","","","{""Q0"":""but""}","","","","","","","","","","","","","","","","","","","","","","",""
"19487","","survey-text","20","118931","0.0-20.0-0.0","A3CMWYLWMENHLZ","","","","{""Q0"":""scratchy and colorful surface, too much color""}","","","","","","","","","","","","","","","","","","","","","","",""
"3102.100000023842","","image-slider-response","21","122035","0.0-21.0","A3CMWYLWMENHLZ","","","","","-28","","","","","","","","","","","","","","","","","","","","","",""
"null","","image-button-response","22","127040","0.0-22.0","A3CMWYLWMENHLZ","img_art/ins/1.jpg","null","","","","","","","","","","","","","","","","","","","","","","","","",""
"3899","","image-button-response","23","130941","0.0-23.0","A3CMWYLWMENHLZ","img_art/ins/1.jpg","4","","","","","","","","","","","","","","","","","","","","","","","","",""
"2350","","image-button-response","24","133293","0.0-24.0-0.0","A3CMWYLWMENHLZ","img_art/ins/1.jpg","2","","","","","","","","","","","","","","","","","","","","","","","","",""
"1430","","image-button-response","25","134725","0.0-25.0-0.0","A3CMWYLWMENHLZ","img_art/ins/1.jpg","0","","","","","","","","","","","","","","","","","","","","","","","","",""
"null","","html-keyboard-response","26","135727","0.0-26.0","A3CMWYLWMENHLZ","<p style=""font-size: 48px;"">+</p>","","","","","null","allTrialResponses","1000","1","-2","img_art/ins/1.jpg","-28","scratchy and colorful surface, too much color","Adam,Alex,Ben,Carl,Daniel,Jack","Seems like doodles,-20,20,20","very creative work.,36,40,20","This color reminds me of poo,-46,60,20","very calming artwork,42,80,20","It looks like a murder scene.,-48,100,20","I like the sophisticated brushwork,40,120,20","Daniel","It looks like a murder scene.,-48,100,20","Ben","This color reminds me of poo,-46,60,20","Adam","Seems like doodles,-20,20,20","0"
"15827","","survey-text","27","151556","0.0-27.0-0.0","A3CMWYLWMENHLZ","","","","{""Q0"":""bloody bed. I love it!""}","","","","","","","","","","","","","","","","","","","","","","",""
"2462.399999976158","","image-slider-response","28","154020","0.0-28.0","A3CMWYLWMENHLZ","","","","","11","","","","","","","","","","","","","","","","","","","","","",""
"null","","image-button-response","29","159024","0.0-29.0","A3CMWYLWMENHLZ","img_art/ins/2.jpg","null","","","","","","","","","","","","","","","","","","","","","","","","",""
"2868","","image-button-response","30","161893","0.0-30.0","A3CMWYLWMENHLZ","img_art/ins/2.jpg","1","","","","","","","","","","","","","","","","","","","","","","","","",""
"1934","","image-button-response","31","163828","0.0-31.0-0.0","A3CMWYLWMENHLZ","img_art/ins/2.jpg","0","","","","","","","","","","","","","","","","","","","","","","","","",""
"791","","image-button-response","32","164621","0.0-32.0-0.0","A3CMWYLWMENHLZ","img_art/ins/2.jpg","5","","","","","","","","","","","","","","","","","","","","","","","","",""
"null","","html-keyboard-response","33","165623","0.0-33.0","A3CMWYLWMENHLZ","<p style=""font-size: 48px;"">+</p>","","","","","null","allTrialResponses","1000","1","-1","img_art/ins/2.jpg","11","bloody bed. I love it!","Adam,John,Ben,James,Daniel,Kyle","too much color,-18,20,20","love the texture of paint,48,160,20","meaningless painting,-45,60,20","looks too angry,-50,140,20","One of my pet peevs,-48,100,20","Idk, it is just annoying,-32,180,20","John","love the texture of paint,48,160,20","Adam","too much color,-18,20,20","Kyle","Idk, it is just annoying,-32,180,20","0"
"15859","","survey-text","34","181484","0.0-34.0-0.0","A3CMWYLWMENHLZ","","","","{""Q0"":""icy climate, blue everywhere""}","","","","","","","","","","","","","","","","","","","","","","",""
"4174.399999976158","","image-slider-response","35","185661","0.0-35.0","A3CMWYLWMENHLZ","","","","","12","","","","","","","","","","","","","","","","","","","","","",""
"4383","","image-button-response","36","190663","0.0-36.0","A3CMWYLWMENHLZ","img_art/ins/3.jpg","1","","","","","","","","","","","","","","","","","","","","","","","","",""
"3965","","image-button-response","37","194629","0.0-37.0","A3CMWYLWMENHLZ","img_art/ins/3.jpg","1","","","","","","","","","","","","","","","","","","","","","","","","",""
"4470","","image-button-response","38","199101","0.0-38.0-0.0","A3CMWYLWMENHLZ","img_art/ins/3.jpg","2","","","","","","","","","","","","","","","","","","","","","","","","",""
"4799","","image-button-response","39","203901","0.0-39.0-0.0","A3CMWYLWMENHLZ","img_art/ins/3.jpg","3","","","","","","","","","","","","","","","","","","","","","","","","",""
"null","","html-keyboard-response","40","205403","0.0-40.0","A3CMWYLWMENHLZ","<p style=""font-size: 48px;"">+</p>","","","","","null","allTrialResponses","1500","1","0","img_art/ins/3.jpg","12","icy climate, blue everywhere","Adam,John,Sam,Mike,Ron,Kyle","My daily routine, it's depressing,-20,20,20","I like the overlapping of brushes,41,160,20","I can feel a rainy day from this painting,18,240,20","enjoy the different shades of blue,22,200,20","It looks depressing,-26,220,20","It looks like a playground for bats,-36,180,20","John","I like the overlapping of brushes,41,160,20","Sam","I can feel a rainy day from this painting,18,240,20","Mike","enjoy the different shades of blue,22,200,20","0"
"2957","","image-button-response_instructions","41","208365","0.0-41.0","A3CMWYLWMENHLZ","","0","instructions","","","","","","","","","","","","","","","","","","","","","","","",""
"9335","","survey-likert","42","217702","0.0-42.0-0.0","A3CMWYLWMENHLZ","","","","{""Q0"":"""",""Q1"":0,""Q2"":1}","","","","","","","","","","","","","","","","","","","","","","",""
"4288","","survey-text","43","221997","0.0-43.0-0.0","A3CMWYLWMENHLZ","","","","{""Q0"":""rock""}","","","","","","","","","","","","","","","","","","","","","","",""
"17454","","survey-text","44","239453","0.0-44.0-0.0","A3CMWYLWMENHLZ","","","","{""Q0"":""sophisticated, detailed""}","","","","","","","","","","","","","","","","","","","","","","",""
"3294.300000011921","","image-slider-response","45","242749","0.0-45.0","A3CMWYLWMENHLZ","","","","","34","","","","","","","","","","","","","","","","","","","","","",""
"null","","image-button-response","46","247772","0.0-46.0","A3CMWYLWMENHLZ","img_art/18.jpg","null","","","","","","","","","","","","","","","","","","","","","","","","",""
"1809","","image-button-response","47","249582","0.0-47.0","A3CMWYLWMENHLZ","img_art/18.jpg","3","","","","","","","","","","","","","","","","","","","","","","","","",""
"783","","image-button-response","48","250367","0.0-48.0-0.0","A3CMWYLWMENHLZ","img_art/18.jpg","0","","","","","","","","","","","","","","","","","","","","","","","","",""
"1014","","image-button-response","49","251383","0.0-49.0-0.0","A3CMWYLWMENHLZ","img_art/18.jpg","2","","","","","","","","","","","","","","","","","","","","","","","","",""
"null","","html-keyboard-response","50","252385","0.0-50.0","A3CMWYLWMENHLZ","<p style=""font-size: 48px;"">+</p>","","","","","null","allTrialResponses","1000","1","1","img_art/18.jpg","34","sophisticated, detailed","Jared,Elijah,Blake,Kenneth,Antonio,Brendan","it looks like people,9,400,20","Makes me feel confused,16,80,20","i like the colors. outerspace,21,280,20","It's interesting. I'm not sure how I feel about it, but i enjoy the ghostly apparitions.,10,300,20","I think of the ocean and a boat tossed about on the waves. In the upper left is a figure. It is pleasant,30,220,20","looks like a war,22,340,20","Kenneth","It's interesting. I'm not sure how I feel about it, but i enjoy the ghostly apparitions.,10,300,20","Jared","it looks like people,9,400,20","Blake","i like the colors. outerspace,21,280,20","0"
"14403","","survey-text","51","266791","0.0-51.0-0.0","A3CMWYLWMENHLZ","","","","{""Q0"":""a white snowy day, positive""}","","","","","","","","","","","","","","","","","","","","","","",""
"3630","","image-slider-response","52","270422","0.0-52.0","A3CMWYLWMENHLZ","","","","","18","","","","","","","","","","","","","","","","","","","","","",""
"4487","","image-button-response","53","275423","0.0-53.0","A3CMWYLWMENHLZ","img_art/17.jpg","4","","","","","","","","","","","","","","","","","","","","","","","","",""
"2510","","image-button-response","54","277935","0.0-54.0","A3CMWYLWMENHLZ","img_art/17.jpg","3","","","","","","","","","","","","","","","","","","","","","","","","",""
"871","","image-button-response","55","278807","0.0-55.0-0.0","A3CMWYLWMENHLZ","img_art/17.jpg","0","","","","","","","","","","","","","","","","","","","","","","","","",""
"1182","","image-button-response","56","279991","0.0-56.0-0.0","A3CMWYLWMENHLZ","img_art/17.jpg","1","","","","","","","","","","","","","","","","","","","","","","","","",""
"null","","html-keyboard-response","57","280493","0.0-57.0","A3CMWYLWMENHLZ","<p style=""font-size: 48px;"">+</p>","","","","","null","allTrialResponses","500","1","2","img_art/17.jpg","18","a white snowy day, positive","Jared,Connor,Blake,Kenneth,Jack,Gregory","the colors, the arch and the wall,15,400,20","Windows indoor tree, weird palette,-11,240,20","soft and warm light colors are relaxing,12,280,20","I really like this, especially the tree.,23,300,20","stunning. makes me feel happy, hopeful, serene, and a little wistful.,50,320,20","Looks like some fantasy tree. Nice,30,220,20","Kenneth","I really like this, especially the tree.,23,300,20","Jared","the colors, the arch and the wall,15,400,20","Connor","Windows indoor tree, weird palette,-11,240,20","0"
"17950","","survey-text","58","298446","0.0-58.0-0.0","A3CMWYLWMENHLZ","","","","{""Q0"":""sloppy brush specks""}","","","","","","","","","","","","","","","","","","","","","","",""
"3302.7000000476837","","image-slider-response","59","301750","0.0-59.0","A3CMWYLWMENHLZ","","","","","-19","","","","","","","","","","","","","","","","","","","","","",""
"4991","","image-button-response","60","306753","0.0-60.0","A3CMWYLWMENHLZ","img_art/13.jpg","0","","","","","","","","","","","","","","","","","","","","","","","","",""
"748","","image-button-response","61","307503","0.0-61.0","A3CMWYLWMENHLZ","img_art/13.jpg","0","","","","","","","","","","","","","","","","","","","","","","","","",""
"1030","","image-button-response","62","308535","0.0-62.0-0.0","A3CMWYLWMENHLZ","img_art/13.jpg","2","","","","","","","","","","","","","","","","","","","","","","","","",""
"982","","image-button-response","63","309519","0.0-63.0-0.0","A3CMWYLWMENHLZ","img_art/13.jpg","5","","","","","","","","","","","","","","","","","","","","","","","","",""
"null","","html-keyboard-response","64","310522","0.0-64.0","A3CMWYLWMENHLZ","<p style=""font-size: 48px;"">+</p>","","","","","null","allTrialResponses","1000","1","3","img_art/13.jpg","-19","sloppy brush specks","Jared,Connor,Adam,Kenneth,Colton,Caleb","the blues are soothing but the splatters are too much,-3,400,20","Color palette is complementary,40,240,20","Generic mix of colors. Cool and messy.,10,40,20","I would hang this photo in my room.,21,300,20","love the colors and splatters,44,220,20","Lots of depth and character.,30,40,20","Jared","the blues are soothing but the splatters are too much,-3,400,20","Adam","Generic mix of colors. Cool and messy.,10,40,20","Caleb","Lots of depth and character.,30,40,20","0"
"14297","","survey-text","65","324823","0.0-65.0-0.0","A3CMWYLWMENHLZ","","","","{""Q0"":""someone hates the subject""}","","","","","","","","","","","","","","","","","","","","","","",""
"2806.399999976158","","image-slider-response","66","327631","0.0-66.0","A3CMWYLWMENHLZ","","","","","-6","","","","","","","","","","","","","","","","","","","","","",""
"null","","image-button-response","67","332634","0.0-67.0","A3CMWYLWMENHLZ","img_art/29.jpg","null","","","","","","","","","","","","","","","","","","","","","","","","",""
"3396","","image-button-response","68","336031","0.0-68.0","A3CMWYLWMENHLZ","img_art/29.jpg","1","","","","","","","","","","","","","","","","","","","","","","","","",""
"1341","","image-button-response","69","337375","0.0-69.0-0.0","A3CMWYLWMENHLZ","img_art/29.jpg","3","","","","","","","","","","","","","","","","","","","","","","","","",""
"1366","","image-button-response","70","338743","0.0-70.0-0.0","A3CMWYLWMENHLZ","img_art/29.jpg","5","","","","","","","","","","","","","","","","","","","","","","","","",""
"null","","html-keyboard-response","71","339745","0.0-71.0","A3CMWYLWMENHLZ","<p style=""font-size: 48px;"">+</p>","","","","","null","allTrialResponses","1000","1","4","img_art/29.jpg","-6","someone hates the subject","Jared,Austin,Adam,Mason,Kyle,Caleb","not digging the paintbrush,1,400,20","Has a haunting feel to it,22,240,20","Flash is too strong. Dislike the colors,-5,40,20","easy, too abstract for me, don't get it.,-25,100,20","I like the usage of blacks and greys in this,8,340,20","Looks wrong. Like a real painting was vandalized.,-50,40,20","Austin","Has a haunting feel to it,22,240,20","Mason","easy, too abstract for me, don't get it.,-25,100,20","Caleb","Looks wrong. Like a real painting was vandalized.,-50,40,20","0"
"7898","","survey-text","72","347646","0.0-72.0-0.0","A3CMWYLWMENHLZ","","","","{""Q0"":""kinder work""}","","","","","","","","","","","","","","","","","","","","","","",""
"2750.600000023842","","image-slider-response","73","350399","0.0-73.0","A3CMWYLWMENHLZ","","","","","-39","","","","","","","","","","","","","","","","","","","","","",""
"4070","","image-button-response","74","355401","0.0-74.0","A3CMWYLWMENHLZ","img_art/5.jpg","0","","","","","","","","","","","","","","","","","","","","","","","","",""
"732","","image-button-response","75","356135","0.0-75.0","A3CMWYLWMENHLZ","img_art/5.jpg","3","","","","","","","","","","","","","","","","","","","","","","","","",""
"1590","","image-button-response","76","357727","0.0-76.0-0.0","A3CMWYLWMENHLZ","img_art/5.jpg","5","","","","","","","","","","","","","","","","","","","","","","","","",""
"4839","","image-button-response","77","362567","0.0-77.0-0.0","A3CMWYLWMENHLZ","img_art/5.jpg","0","","","","","","","","","","","","","","","","","","","","","","","","",""
"null","","html-keyboard-response","78","364069","0.0-78.0","A3CMWYLWMENHLZ","<p style=""font-size: 48px;"">+</p>","","","","","null","allTrialResponses","1500","1","5","img_art/5.jpg","-39","kinder work","Bryan,Austin,Benjamin,Mason,Corey,Caleb","Looks like a yellow plastic trash bag.,-42,400,20","Perfect for art exhibition,39,240,20","Missing something,-5,260,20","pointless, ugly, not creative.,-50,100,20","simple. love the color scheme,27,260,20","Boring and appears low effort,-41,40,20","Mason","pointless, ugly, not creative.,-50,100,20","Caleb","Boring and appears low effort,-41,40,20","Bryan","Looks like a yellow plastic trash bag.,-42,400,20","0"
"5140","","survey-text","79","369216","0.0-79.0-0.0","A3CMWYLWMENHLZ","","","","{""Q0"":""sky""}","","","","","","","","","","","","","","","","","","","","","","",""
"10735","","survey-text","80","379952","0.0-80.0-0.0","A3CMWYLWMENHLZ","","","","{""Q0"":""a hopi desert scene""}","","","","","","","","","","","","","","","","","","","","","","",""
"3174.599999964237","","image-slider-response","81","383128","0.0-81.0","A3CMWYLWMENHLZ","","","","","9","","","","","","","","","","","","","","","","","","","","","",""
"4734","","image-button-response","82","388131","0.0-82.0","A3CMWYLWMENHLZ","img_art/20.jpg","2","","","","","","","","","","","","","","","","","","","","","","","","",""
"691","","image-button-response","83","388824","0.0-83.0","A3CMWYLWMENHLZ","img_art/20.jpg","5","","","","","","","","","","","","","","","","","","","","","","","","",""
"1191","","image-button-response","84","390016","0.0-84.0-0.0","A3CMWYLWMENHLZ","img_art/20.jpg","4","","","","","","","","","","","","","","","","","","","","","","","","",""
"1294","","image-button-response","85","391312","0.0-85.0-0.0","A3CMWYLWMENHLZ","img_art/20.jpg","0","","","","","","","","","","","","","","","","","","","","","","","","",""
"null","","html-keyboard-response","86","391814","0.0-86.0","A3CMWYLWMENHLZ","<p style=""font-size: 48px;"">+</p>","","","","","null","allTrialResponses","500","1","6","img_art/20.jpg","9","a hopi desert scene","Bryan,Cody,Devon,Mason,Joshua,Caleb","Reminds me of Georgia O'Keefe.,11,400,20","I like the distortion of the objects, good colors,20,180,20","i can feel the intensity in this,11,400,20","Very cool, and calming (again) Love it.,47,100,20","Reminds me of the Southwest; i.e. New Mexico or Arizona. It's interesting.,12,240,20","Lovely composition, colors, and message.,35,40,20","Caleb","Lovely composition, colors, and message.,35,40,20","Joshua","Reminds me of the Southwest; i.e. New Mexico or Arizona. It's interesting.,12,240,20","Bryan","Reminds me of Georgia O'Keefe.,11,400,20","0"
"16455","","survey-text","87","408272","0.0-87.0-0.0","A3CMWYLWMENHLZ","","","","{""Q0"":""lots of dotted balls, too complex""}","","","","","","","","","","","","","","","","","","","","","","",""
"2477.899999976158","","image-slider-response","88","410751","0.0-88.0","A3CMWYLWMENHLZ","","","","","-7","","","","","","","","","","","","","","","","","","","","","",""
"3798","","image-button-response","89","415754","0.0-89.0","A3CMWYLWMENHLZ","img_art/23.jpg","0","","","","","","","","","","","","","","","","","","","","","","","","",""
"892","","image-button-response","90","416648","0.0-90.0","A3CMWYLWMENHLZ","img_art/23.jpg","5","","","","","","","","","","","","","","","","","","","","","","","","",""
"2790","","image-button-response","91","419440","0.0-91.0-0.0","A3CMWYLWMENHLZ","img_art/23.jpg","1","","","","","","","","","","","","","","","","","","","","","","","","",""
"2406","","image-button-response","92","421848","0.0-92.0-0.0","A3CMWYLWMENHLZ","img_art/23.jpg","3","","","","","","","","","","","","","","","","","","","","","","","","",""
"null","","html-keyboard-response","93","423350","0.0-93.0","A3CMWYLWMENHLZ","<p style=""font-size: 48px;"">+</p>","","","","","null","allTrialResponses","1500","1","7","img_art/23.jpg","-7","lots of dotted balls, too complex","Bryan,Nathaniel,Daniel,Adrian,Joshua,Caleb","Looks like fireworks.,21,400,20","Not a fan of these dot pieces. They hurt my eyes.,-25,220,20","Too busy with color with warrior lineup,0,320,20","Too much contrasting colors together. I hate it.,-50,60,20","This one is interesting. Looks like people with maybe musical instruments?,11,240,20","Very colorful. Nice contrasts.,26,40,20","Caleb","Very colorful. Nice contrasts.,26,40,20","Nathaniel","Not a fan of these dot pieces. They hurt my eyes.,-25,220,20","Adrian","Too much contrasting colors together. I hate it.,-50,60,20","0"
"12424","","survey-text","94","435776","0.0-94.0-0.0","A3CMWYLWMENHLZ","","","","{""Q0"":""sandstone, desert vibes""}","","","","","","","","","","","","","","","","","","","","","","",""
"2757.900000035763","","image-slider-response","95","438536","0.0-95.0","A3CMWYLWMENHLZ","","","","","27","","","","","","","","","","","","","","","","","","","","","",""
"null","","image-button-response","96","443539","0.0-96.0","A3CMWYLWMENHLZ","img_art/7.jpg","null","","","","","","","","","","","","","","","","","","","","","","","","",""
"3508","","image-button-response","97","447048","0.0-97.0","A3CMWYLWMENHLZ","img_art/7.jpg","1","","","","","","","","","","","","","","","","","","","","","","","","",""
"2399","","image-button-response","98","449449","0.0-98.0-0.0","A3CMWYLWMENHLZ","img_art/7.jpg","4","","","","","","","","","","","","","","","","","","","","","","","","",""
"1214","","image-button-response","99","450665","0.0-99.0-0.0","A3CMWYLWMENHLZ","img_art/7.jpg","5","","","","","","","","","","","","","","","","","","","","","","","","",""
"null","","html-keyboard-response","100","451667","0.0-100.0","A3CMWYLWMENHLZ","<p style=""font-size: 48px;"">+</p>","","","","","null","allTrialResponses","1000","1","8","img_art/7.jpg","27","sandstone, desert vibes","Dylan,Nathaniel,Devin,Adrian,Noah,Caleb","I do not like the boring colors in this.,-20,40,20","It gives off an alien-like vastness of space vibe which I like,9,220,20","Not very big on the sameness here,-20,380,20","It's dirty. I don't mind the colors so much as the way they are put together in this dirty-looking pattern.,-41,60,20","elicits no real response,0,260,20","More saturated color, even more interpretations to have.,44,40,20","Nathaniel","It gives off an alien-like vastness of space vibe which I like,9,220,20","Noah","elicits no real response,0,260,20","Caleb","More saturated color, even more interpretations to have.,44,40,20","0"
"11307","","survey-text","101","462976","0.0-101.0-0.0","A3CMWYLWMENHLZ","","","","{""Q0"":""people in agreement, happy""}","","","","","","","","","","","","","","","","","","","","","","",""
"3262.600000023842","","image-slider-response","102","466241","0.0-102.0","A3CMWYLWMENHLZ","","","","","27","","","","","","","","","","","","","","","","","","","","","",""
"4349","","image-button-response","103","471243","0.0-103.0","A3CMWYLWMENHLZ","img_art/28.jpg","2","","","","","","","","","","","","","","","","","","","","","","","","",""
"820","","image-button-response","104","472065","0.0-104.0","A3CMWYLWMENHLZ","img_art/28.jpg","2","","","","","","","","","","","","","","","","","","","","","","","","",""
"2062","","image-button-response","105","474128","0.0-105.0-0.0","A3CMWYLWMENHLZ","img_art/28.jpg","1","","","","","","","","","","","","","","","","","","","","","","","","",""
"1750","","image-button-response","106","475881","0.0-106.0-0.0","A3CMWYLWMENHLZ","img_art/28.jpg","4","","","","","","","","","","","","","","","","","","","","","","","","",""
"null","","html-keyboard-response","107","477383","0.0-107.0","A3CMWYLWMENHLZ","<p style=""font-size: 48px;"">+</p>","","","","","null","allTrialResponses","1500","1","9","img_art/28.jpg","27","people in agreement, happy","Ryan,Nathaniel,Nicholas,Taylor,Noah,Caleb","Colors look too muddy for my liking,-33,380,20","Has an air of darkness to it, but no real substance besides the mouse-like thing.,-38,220,20","Interesting and weird. Perfect conversational piece,33,240,20","Bug meets bug in a dark alley.,-20,200,20","I want to like it, but I'm not really sure what to make of it,2,260,20","White and dark balance is way off- Seems dull.,-33,40,20","Nicholas","Interesting and weird. Perfect conversational piece,33,240,20","Nathaniel","Has an air of darkness to it, but no real substance besides the mouse-like thing.,-38,220,20","Noah","I want to like it, but I'm not really sure what to make of it,2,260,20","0"
"17247","","survey-text","108","494633","0.0-108.0-0.0","A3CMWYLWMENHLZ","","","","{""Q0"":""a big red ball with numbers below""}","","","","","","","","","","","","","","","","","","","","","","",""
"2894","","image-slider-response","109","497528","0.0-109.0","A3CMWYLWMENHLZ","","","","","-12","","","","","","","","","","","","","","","","","","","","","",""
"3015","","image-button-response","110","502530","0.0-110.0","A3CMWYLWMENHLZ","img_art/22.jpg","0","","","","","","","","","","","","","","","","","","","","","","","","",""
"725","","image-button-response","111","503257","0.0-111.0","A3CMWYLWMENHLZ","img_art/22.jpg","0","","","","","","","","","","","","","","","","","","","","","","","","",""
"1854","","image-button-response","112","505113","0.0-112.0-0.0","A3CMWYLWMENHLZ","img_art/22.jpg","4","","","","","","","","","","","","","","","","","","","","","","","","",""
"2446","","image-button-response","113","507561","0.0-113.0-0.0","A3CMWYLWMENHLZ","img_art/22.jpg","2","","","","","","","","","","","","","","","","","","","","","","","","",""
"null","","html-keyboard-response","114","509062","0.0-114.0","A3CMWYLWMENHLZ","<p style=""font-size: 48px;"">+</p>","","","","","null","allTrialResponses","1500","1","10","img_art/22.jpg","-12","a big red ball with numbers below","Joseph,Nathaniel,Nicholas,Victor,Noah,Alexis","I don't like that it looks like a person is there upside down.,-16,220,20","Looks like a giant blob,-45,220,20","Pretty colors but something seems sinister about it,25,240,20","I don't really know why, I just like looking at it,10,340,20","displeasure - not a fan of the colour or the shapes,-18,260,20","Neither like nor dislike it. The red, yellow and blue colors are bright but I don't know what it's meant to be.,1,140,20","Joseph","I don't like that it looks like a person is there upside down.,-16,220,20","Noah","displeasure - not a fan of the colour or the shapes,-18,260,20","Nicholas","Pretty colors but something seems sinister about it,25,240,20","0"
"4747","","survey-text","115","513817","0.0-115.0-0.0","A3CMWYLWMENHLZ","","","","{""Q0"":""our""}","","","","","","","","","","","","","","","","","","","","","","",""
"21047","","survey-text","116","534865","0.0-116.0-0.0","A3CMWYLWMENHLZ","","","","{""Q0"":""a desert shrub, good mysterious colors""}","","","","","","","","","","","","","","","","","","","","","","",""
"1998.6000000238419","","image-slider-response","117","536865","0.0-117.0","A3CMWYLWMENHLZ","","","","","20","","","","","","","","","","","","","","","","","","","","","",""
"3783","","image-button-response","118","541868","0.0-118.0","A3CMWYLWMENHLZ","img_art/14.jpg","4","","","","","","","","","","","","","","","","","","","","","","","","",""
"787","","image-button-response","119","542656","0.0-119.0","A3CMWYLWMENHLZ","img_art/14.jpg","1","","","","","","","","","","","","","","","","","","","","","","","","",""
"1847","","image-button-response","120","544505","0.0-120.0-0.0","A3CMWYLWMENHLZ","img_art/14.jpg","5","","","","","","","","","","","","","","","","","","","","","","","","",""
"2176","","image-button-response","121","546683","0.0-121.0-0.0","A3CMWYLWMENHLZ","img_art/14.jpg","3","","","","","","","","","","","","","","","","","","","","","","","","",""
"null","","html-keyboard-response","122","547685","0.0-122.0","A3CMWYLWMENHLZ","<p style=""font-size: 48px;"">+</p>","","","","","null","allTrialResponses","1000","1","11","img_art/14.jpg","20","a desert shrub, good mysterious colors","Joseph,Christian,Nicholas,Sean,Noah,David","I like that it looks like plants on a table, which reminds me of life.,4,220,20","medium recalls back to an oriental style,16,140,20","I love the feeling of the tree and people. Makes me happy,50,240,20","my reaction is that the picture is wierd,-14,40,20","I enjoy what comes across as a playful take on nature themes,26,260,20","I like how balanced the piece is with its symmetrical design.,20,340,20","Christian","medium recalls back to an oriental style,16,140,20","David","I like how balanced the piece is with its symmetrical design.,20,340,20","Sean","my reaction is that the picture is wierd,-14,40,20","0"
"15977","","survey-text","123","563666","0.0-123.0-0.0","A3CMWYLWMENHLZ","","","","{""Q0"":""crow on the rocks, contemplative""}","","","","","","","","","","","","","","","","","","","","","","",""
"3366.199999988079","","image-slider-response","124","567034","0.0-124.0","A3CMWYLWMENHLZ","","","","","7","","","","","","","","","","","","","","","","","","","","","",""
"null","","image-button-response","125","572036","0.0-125.0","A3CMWYLWMENHLZ","img_art/6.jpg","null","","","","","","","","","","","","","","","","","","","","","","","","",""
"2005","","image-button-response","126","574043","0.0-126.0","A3CMWYLWMENHLZ","img_art/6.jpg","5","","","","","","","","","","","","","","","","","","","","","","","","",""
"2975","","image-button-response","127","577018","0.0-127.0-0.0","A3CMWYLWMENHLZ","img_art/6.jpg","2","","","","","","","","","","","","","","","","","","","","","","","","",""
"1326","","image-button-response","128","578346","0.0-128.0-0.0","A3CMWYLWMENHLZ","img_art/6.jpg","0","","","","","","","","","","","","","","","","","","","","","","","","",""
"null","","html-keyboard-response","129","578848","0.0-129.0","A3CMWYLWMENHLZ","<p style=""font-size: 48px;"">+</p>","","","","","null","allTrialResponses","500","1","12","img_art/6.jpg","7","crow on the rocks, contemplative","Dalton,Christian,Alexander,Sean,Cole,David","it looks like a stick holding a wig on a cliff,21,300,20","??????? fake floating leaf? headless bird,-28,140,20","Desert that's too simple.,-15,120,20","reminds me a giant peach,19,40,20","Close up peach? Hate it,-16,200,20","I like the simplicity of the piece.,10,340,20","David","I like the simplicity of the piece.,10,340,20","Alexander","Desert that's too simple.,-15,120,20","Dalton","it looks like a stick holding a wig on a cliff,21,300,20","0"
"13230","","survey-text","130","592082","0.0-130.0-0.0","A3CMWYLWMENHLZ","","","","{""Q0"":""flowers in the asphault cracks""}","","","","","","","","","","","","","","","","","","","","","","",""
"3862.699999988079","","image-slider-response","131","595946","0.0-131.0","A3CMWYLWMENHLZ","","","","","5","","","","","","","","","","","","","","","","","","","","","",""
"3807","","image-button-response","132","600948","0.0-132.0","A3CMWYLWMENHLZ","img_art/15.jpg","5","","","","","","","","","","","","","","","","","","","","","","","","",""
"676","","image-button-response","133","601626","0.0-133.0","A3CMWYLWMENHLZ","img_art/15.jpg","4","","","","","","","","","","","","","","","","","","","","","","","","",""
"1839","","image-button-response","134","603466","0.0-134.0-0.0","A3CMWYLWMENHLZ","img_art/15.jpg","1","","","","","","","","","","","","","","","","","","","","","","","","",""
"1790","","image-button-response","135","605258","0.0-135.0-0.0","A3CMWYLWMENHLZ","img_art/15.jpg","0","","","","","","","","","","","","","","","","","","","","","","","","",""
"null","","html-keyboard-response","136","606761","0.0-136.0","A3CMWYLWMENHLZ","<p style=""font-size: 48px;"">+</p>","","","","","null","allTrialResponses","1500","1","13","img_art/15.jpg","5","flowers in the asphault cracks","Dalton,Tanner,Alexander,Charles,Steven,David","black leaves makes the blue birds stand out.,1,300,20","darkness, hatred, fear,-29,180,20","Leafs spread on the ground.,27,120,20","it looks like lavender,10,100,20","I'm just not into it,-5,160,20","Hard to tell what I'm looking at, but it does a gives a slight impression of a of garden.,5,340,20","Steven","I'm just not into it,-5,160,20","Tanner","darkness, hatred, fear,-29,180,20","Dalton","black leaves makes the blue birds stand out.,1,300,20","0"
"13774","","survey-text","137","620539","0.0-137.0-0.0","A3CMWYLWMENHLZ","","","","{""Q0"":""a petroglyph, ghostly""}","","","","","","","","","","","","","","","","","","","","","","",""
"3590.399999976158","","image-slider-response","138","624131","0.0-138.0","A3CMWYLWMENHLZ","","","","","22","","","","","","","","","","","","","","","","","","","","","",""
"null","","image-button-response","139","629133","0.0-139.0","A3CMWYLWMENHLZ","img_art/25.jpg","null","","","","","","","","","","","","","","","","","","","","","","","","",""
"501","","image-button-response","140","629635","0.0-140.0","A3CMWYLWMENHLZ","img_art/25.jpg","3","","","","","","","","","","","","","","","","","","","","","","","","",""
"3366","","image-button-response","141","633003","0.0-141.0-0.0","A3CMWYLWMENHLZ","img_art/25.jpg","4","","","","","","","","","","","","","","","","","","","","","","","","",""
"2118","","image-button-response","142","635123","0.0-142.0-0.0","A3CMWYLWMENHLZ","img_art/25.jpg","1","","","","","","","","","","","","","","","","","","","","","","","","",""
"null","","html-keyboard-response","143","636625","0.0-143.0","A3CMWYLWMENHLZ","<p style=""font-size: 48px;"">+</p>","","","","","null","allTrialResponses","1500","1","14","img_art/25.jpg","22","a petroglyph, ghostly","Dalton,Tanner,Tristan,Richard,Steven,Isaiah","This reminds me of royalty and servants.,32,300,20","reminds me of the grim reaper,3,180,20","The limited palette make this figure mysterious and interpret-able.,20,300,20","interesting pattern and color choice, kind of unusual,2,340,20","It's fine, belongs in a church, or somewhere else mystical,15,160,20","I feel little to no emotion looking at this painting.,0,300,20","Richard","interesting pattern and color choice, kind of unusual,2,340,20","Steven","It's fine, belongs in a church, or somewhere else mystical,15,160,20","Tanner","reminds me of the grim reaper,3,180,20","0"
"20894","","survey-text","144","657522","0.0-144.0-0.0","A3CMWYLWMENHLZ","","","","{""Q0"":""lives shattered, young kids""}","","","","","","","","","","","","","","","","","","","","","","",""
"3574.699999988079","","image-slider-response","145","661099","0.0-145.0","A3CMWYLWMENHLZ","","","","","3","","","","","","","","","","","","","","","","","","","","","",""
"null","","image-button-response","146","666100","0.0-146.0","A3CMWYLWMENHLZ","img_art/16.jpg","null","","","","","","","","","","","","","","","","","","","","","","","","",""
"941","","image-button-response","147","667043","0.0-147.0","A3CMWYLWMENHLZ","img_art/16.jpg","1","","","","","","","","","","","","","","","","","","","","","","","","",""
"2823","","image-button-response","148","669867","0.0-148.0-0.0","A3CMWYLWMENHLZ","img_art/16.jpg","0","","","","","","","","","","","","","","","","","","","","","","","","",""
"1983","","image-button-response","149","671851","0.0-149.0-0.0","A3CMWYLWMENHLZ","img_art/16.jpg","5","","","","","","","","","","","","","","","","","","","","","","","","",""
"null","","html-keyboard-response","150","673354","0.0-150.0","A3CMWYLWMENHLZ","<p style=""font-size: 48px;"">+</p>","","","","","null","allTrialResponses","1500","1","15","img_art/16.jpg","3","lives shattered, young kids","Zachary,Tanner,Spencer,Richard,Steven,Carlos","Not pleasing to the eyes. I do like that the gun is broken though.,-28,400,20","sad. desth of childhood,-5,180,20","Know it is a piece relating to children and gun violence. Sad,-30,120,20","nonsense art, not really art,-44,340,20","Not interested at all,-15,160,20","Why is that bear there? It looks like it would be gross to touch. The texture bothers me.,-20,80,20","Tanner","sad. desth of childhood,-5,180,20","Zachary","Not pleasing to the eyes. I do like that the gun is broken though.,-28,400,20","Carlos","Why is that bear there? It looks like it would be gross to touch. The texture bothers me.,-20,80,20","0"
"6370","","survey-text","151","679731","0.0-151.0-0.0","A3CMWYLWMENHLZ","","","","{""Q0"":""course""}","","","","","","","","","","","","","","","","","","","","","","",""
"10558","","survey-text","152","690291","0.0-152.0-0.0","A3CMWYLWMENHLZ","","","","{""Q0"":""symmetrical, complex""}","","","","","","","","","","","","","","","","","","","","","","",""
"2990.800000011921","","image-slider-response","153","693283","0.0-153.0","A3CMWYLWMENHLZ","","","","","24","","","","","","","","","","","","","","","","","","","","","",""
"3191","","image-button-response","154","698285","0.0-154.0","A3CMWYLWMENHLZ","img_art/12.jpg","0","","","","","","","","","","","","","","","","","","","","","","","","",""
"421","","image-button-response","155","698707","0.0-155.0","A3CMWYLWMENHLZ","img_art/12.jpg","0","","","","","","","","","","","","","","","","","","","","","","","","",""
"1047","","image-button-response","156","699755","0.0-156.0-0.0","A3CMWYLWMENHLZ","img_art/12.jpg","3","","","","","","","","","","","","","","","","","","","","","","","","",""
"2934","","image-button-response","157","702691","0.0-157.0-0.0","A3CMWYLWMENHLZ","img_art/12.jpg","5","","","","","","","","","","","","","","","","","","","","","","","","",""
"null","","html-keyboard-response","158","704194","0.0-158.0","A3CMWYLWMENHLZ","<p style=""font-size: 48px;"">+</p>","","","","","null","allTrialResponses","1500","1","16","img_art/12.jpg","24","symmetrical, complex","Zachary,Tanner,Tyler,James,Scott,Carlos","I like how it's split into tiny squares, but otherwise, not very intriguing.,-18,400,20","stressful, upsetting,-10,180,20","Different enough to be memorable. The gradient of hues is appealing and appeasing.,32,320,20","Don't like it or despise it,1,380,20","I don't like the pattern or color choice,-41,20,20","It is very bland and the colors are not cohesive.,-20,80,20","Zachary","I like how it's split into tiny squares, but otherwise, not very intriguing.,-18,400,20","James","Don't like it or despise it,1,380,20","Carlos","It is very bland and the colors are not cohesive.,-20,80,20","0"
"21405","","survey-text","159","725603","0.0-159.0-0.0","A3CMWYLWMENHLZ","","","","{""Q0"":""good blending of the mask and foreground""}","","","","","","","","","","","","","","","","","","","","","","",""
"2878","","image-slider-response","160","728484","0.0-160.0","A3CMWYLWMENHLZ","","","","","27","","","","","","","","","","","","","","","","","","","","","",""
"null","","image-button-response","161","733487","0.0-161.0","A3CMWYLWMENHLZ","img_art/8.jpg","null","","","","","","","","","","","","","","","","","","","","","","","","",""
"420","","image-button-response","162","733908","0.0-162.0","A3CMWYLWMENHLZ","img_art/8.jpg","0","","","","","","","","","","","","","","","","","","","","","","","","",""
"3414","","image-button-response","163","737324","0.0-163.0-0.0","A3CMWYLWMENHLZ","img_art/8.jpg","5","","","","","","","","","","","","","","","","","","","","","","","","",""
"1878","","image-button-response","164","739204","0.0-164.0-0.0","A3CMWYLWMENHLZ","img_art/8.jpg","2","","","","","","","","","","","","","","","","","","","","","","","","",""
"null","","html-keyboard-response","165","740705","0.0-165.0","A3CMWYLWMENHLZ","<p style=""font-size: 48px;"">+</p>","","","","","null","allTrialResponses","1500","1","17","img_art/8.jpg","27","good blending of the mask and foreground","Zachary,Juan,Stephen,James,Evan,Carlos","I like all of the faces that can be found in this piece. Interesting.,35,400,20","I don't like the negative emotion this picture makes me feel. It's also too abstract.,-30,260,20","Has nice depth to it.,12,140,20","It's very odd and I don't really like it,-30,380,20","I can't tell if this is supposed to portray just city life or a town crumbling,-5,140,20","Clean and stark. The colors are pleasant.,15,80,20","Zachary","I like all of the faces that can be found in this piece. Interesting.,35,400,20","Carlos","Clean and stark. The colors are pleasant.,15,80,20","Stephen","Has nice depth to it.,12,140,20","0"
"13198","","survey-text","166","753908","0.0-166.0-0.0","A3CMWYLWMENHLZ","","","","{""Q0"":""mystery i the evening""}","","","","","","","","","","","","","","","","","","","","","","",""
"2445.7000000476837","","image-slider-response","167","756356","0.0-167.0","A3CMWYLWMENHLZ","","","","","29","","","","","","","","","","","","","","","","","","","","","",""
"null","","image-button-response","168","761358","0.0-168.0","A3CMWYLWMENHLZ","img_art/21.jpg","null","","","","","","","","","","","","","","","","","","","","","","","","",""
"956","","image-button-response","169","762316","0.0-169.0","A3CMWYLWMENHLZ","img_art/21.jpg","4","","","","","","","","","","","","","","","","","","","","","","","","",""
"3294","","image-button-response","170","765612","0.0-170.0-0.0","A3CMWYLWMENHLZ","img_art/21.jpg","1","","","","","","","","","","","","","","","","","","","","","","","","",""
"1734","","image-button-response","171","767348","0.0-171.0-0.0","A3CMWYLWMENHLZ","img_art/21.jpg","0","","","","","","","","","","","","","","","","","","","","","","","","",""
"null","","html-keyboard-response","172","767849","0.0-172.0","A3CMWYLWMENHLZ","<p style=""font-size: 48px;"">+</p>","","","","","null","allTrialResponses","500","1","18","img_art/21.jpg","29","mystery i the evening","Zachary,Jake,Stephen,Jesse,Thomas,Carlos","Looks like a body of water during a sunset. I like this piece.,21,400,20","It looks epic and is nice to look at in terms of colors/style.,23,360,20","Don't see anything special about it,-21,140,20","I dont like how nothing is defined and the colors dont work for me,-5,80,20","Again, I love the use of color,50,220,20","Motion, the light marks in the lower right corner are very appealing.,15,80,20","Thomas","Again, I love the use of color,50,220,20","Jake","It looks epic and is nice to look at in terms of colors/style.,23,360,20","Zachary","Looks like a body of water during a sunset. I like this piece.,21,400,20","0"
"11654","","survey-text","173","779508","0.0-173.0-0.0","A3CMWYLWMENHLZ","","","","{""Q0"":""dont go chasing waterfalls""}","","","","","","","","","","","","","","","","","","","","","","",""
"3406.5","","image-slider-response","174","782916","0.0-174.0","A3CMWYLWMENHLZ","","","","","12","","","","","","","","","","","","","","","","","","","","","",""
"4231","","image-button-response","175","787918","0.0-175.0","A3CMWYLWMENHLZ","img_art/24.jpg","4","","","","","","","","","","","","","","","","","","","","","","","","",""
"477","","image-button-response","176","788397","0.0-176.0","A3CMWYLWMENHLZ","img_art/24.jpg","4","","","","","","","","","","","","","","","","","","","","","","","","",""
"1790","","image-button-response","177","790189","0.0-177.0-0.0","A3CMWYLWMENHLZ","img_art/24.jpg","0","","","","","","","","","","","","","","","","","","","","","","","","",""
"1710","","image-button-response","178","791901","0.0-178.0-0.0","A3CMWYLWMENHLZ","img_art/24.jpg","2","","","","","","","","","","","","","","","","","","","","","","","","",""
"null","","html-keyboard-response","179","792402","0.0-179.0","A3CMWYLWMENHLZ","<p style=""font-size: 48px;"">+</p>","","","","","null","allTrialResponses","500","1","19","img_art/24.jpg","12","dont go chasing waterfalls","Zachary,Jake,Eric,Paul,Thomas,Brandon","Looks like a beautiful stream rolling through terrain of rocks and flowers.,43,400,20","This looks ugly and simple, as if done by a young person.,-2,360,20","I'm reminded of a waterfall, but I feel like it could've been better portrayed.,5,100,20","It looks alive, like I can hear the water flowing,41,300,20","Beautiful colors and texture,20,220,20","Simple. Not too abstract. Love the different flower colors.,20,320,20","Thomas","Beautiful colors and texture,20,220,20","Zachary","Looks like a beautiful stream rolling through terrain of rocks and flowers.,43,400,20","Eric","I'm reminded of a waterfall, but I feel like it could've been better portrayed.,5,100,20","0"
"14111","","survey-text","180","806516","0.0-180.0-0.0","A3CMWYLWMENHLZ","","","","{""Q0"":""looks like ancient writing""}","","","","","","","","","","","","","","","","","","","","","","",""
"3143.300000011921","","image-slider-response","181","809661","0.0-181.0","A3CMWYLWMENHLZ","","","","","5","","","","","","","","","","","","","","","","","","","","","",""
"null","","image-button-response","182","814662","0.0-182.0","A3CMWYLWMENHLZ","img_art/27.jpg","null","","","","","","","","","","","","","","","","","","","","","","","","",""
"702","","image-button-response","183","815366","0.0-183.0","A3CMWYLWMENHLZ","img_art/27.jpg","4","","","","","","","","","","","","","","","","","","","","","","","","",""
"1990","","image-button-response","184","817357","0.0-184.0-0.0","A3CMWYLWMENHLZ","img_art/27.jpg","3","","","","","","","","","","","","","","","","","","","","","","","","",""
"2406","","image-button-response","185","819765","0.0-185.0-0.0","A3CMWYLWMENHLZ","img_art/27.jpg","2","","","","","","","","","","","","","","","","","","","","","","","","",""
"null","","html-keyboard-response","186","820267","0.0-186.0","A3CMWYLWMENHLZ","<p style=""font-size: 48px;"">+</p>","","","","","null","allTrialResponses","500","1","20","img_art/27.jpg","5","looks like ancient writing","Zachary,Grant,Eric,Dakota,Thomas,Matthew","Color story is boring in nature, and I feel nothing but boredom from this piece.,-20,400,20","This feels like I'm looking at a child's scribbles.,-27,200,20","This piece reminds me of a summer day.,30,100,20","feels like a bar scene, tucked away in the corner of a small town,-40,280,20","First thought is again, that this looks like a child's art assignment,-20,220,20","Lots of activity, layers, imagination at work here.,29,120,20","Thomas","First thought is again, that this looks like a child's art assignment,-20,220,20","Dakota","feels like a bar scene, tucked away in the corner of a small town,-40,280,20","Eric","This piece reminds me of a summer day.,30,100,20","0"
"3761","","survey-text","187","824036","0.0-187.0-0.0","A3CMWYLWMENHLZ","","","","{""Q0"":""we""}","","","","","","","","","","","","","","","","","","","","","","",""
"8846","","survey-text","188","832885","0.0-188.0-0.0","A3CMWYLWMENHLZ","","","","{""Q0"":""a dead plant""}","","","","","","","","","","","","","","","","","","","","","","",""
"3766.599999964237","","image-slider-response","189","836652","0.0-189.0","A3CMWYLWMENHLZ","","","","","-26","","","","","","","","","","","","","","","","","","","","","",""
"2535","","image-button-response","190","841655","0.0-190.0","A3CMWYLWMENHLZ","img_art/4.jpg","4","","","","","","","","","","","","","","","","","","","","","","","","",""
"1068","","image-button-response","191","842724","0.0-191.0","A3CMWYLWMENHLZ","img_art/4.jpg","0","","","","","","","","","","","","","","","","","","","","","","","","",""
"3792","","image-button-response","192","846517","0.0-192.0-0.0","A3CMWYLWMENHLZ","img_art/4.jpg","1","","","","","","","","","","","","","","","","","","","","","","","","",""
"2367","","image-button-response","193","848886","0.0-193.0-0.0","A3CMWYLWMENHLZ","img_art/4.jpg","4","","","","","","","","","","","","","","","","","","","","","","","","",""
"null","","html-keyboard-response","194","850388","0.0-194.0","A3CMWYLWMENHLZ","<p style=""font-size: 48px;"">+</p>","","","","","null","allTrialResponses","1500","1","21","img_art/4.jpg","-26","a dead plant","Alejandro,Brian,Eric,Dakota,Thomas,Isaac","Looks like finger nails from the Guinness world record book.,-30,80,20","it reminds me of McDonalds, and not in a good way.,-34,380,20","This piece catches my eye, but it's strange to me.,10,100,20","spontaneous, without hesitation,22,280,20","This image doesn't invoke anything in me,-9,220,20","The colors remind me of McDonalds.,-41,280,20","Alejandro","Looks like finger nails from the Guinness world record book.,-30,80,20","Brian","it reminds me of McDonalds, and not in a good way.,-34,380,20","Thomas","This image doesn't invoke anything in me,-9,220,20","0"
"12005","","survey-text","195","862398","0.0-195.0-0.0","A3CMWYLWMENHLZ","","","","{""Q0"":""i don't see anything""}","","","","","","","","","","","","","","","","","","","","","","",""
"3214.100000023842","","image-slider-response","196","865613","0.0-196.0","A3CMWYLWMENHLZ","","","","","-47","","","","","","","","","","","","","","","","","","","","","",""
"3383","","image-button-response","197","870615","0.0-197.0","A3CMWYLWMENHLZ","img_art/1.jpg","3","","","","","","","","","","","","","","","","","","","","","","","","",""
"485","","image-button-response","198","871102","0.0-198.0","A3CMWYLWMENHLZ","img_art/1.jpg","1","","","","","","","","","","","","","","","","","","","","","","","","",""
"1182","","image-button-response","199","872286","0.0-199.0-0.0","A3CMWYLWMENHLZ","img_art/1.jpg","3","","","","","","","","","","","","","","","","","","","","","","","","",""
"1246","","image-button-response","200","873534","0.0-200.0-0.0","A3CMWYLWMENHLZ","img_art/1.jpg","5","","","","","","","","","","","","","","","","","","","","","","","","",""
"null","","html-keyboard-response","201","875036","0.0-201.0","A3CMWYLWMENHLZ","<p style=""font-size: 48px;"">+</p>","","","","","null","allTrialResponses","1500","1","22","img_art/1.jpg","-47","i don't see anything","Alejandro,Brian,John,Malik,Thomas,Logan","Interesting color scheme but to bled to me,11,80,20","I don't feel like much is happening in this painting,-25,380,20","Its okay,not great.,1,120,20","Vague and directionless,-14,40,20","Pleasant, but a tad too monochromatic in some areas for my taste,7,220,20","looks like an earlier painting. I wish I gave it -20 but oh well,21,360,20","Brian","I don't feel like much is happening in this painting,-25,380,20","Malik","Vague and directionless,-14,40,20","Logan","looks like an earlier painting. I wish I gave it -20 but oh well,21,360,20","0"
"15989","","survey-text","202","891029","0.0-202.0-0.0","A3CMWYLWMENHLZ","","","","{""Q0"":""a mad green face. A hangover.""}","","","","","","","","","","","","","","","","","","","","","","",""
"2414.400000035763","","image-slider-response","203","893445","0.0-203.0","A3CMWYLWMENHLZ","","","","","20","","","","","","","","","","","","","","","","","","","","","",""
"null","","image-button-response","204","898447","0.0-204.0","A3CMWYLWMENHLZ","img_art/9.jpg","null","","","","","","","","","","","","","","","","","","","","","","","","",""
"1861","","image-button-response","205","900309","0.0-205.0","A3CMWYLWMENHLZ","img_art/9.jpg","0","","","","","","","","","","","","","","","","","","","","","","","","",""
"2335","","image-button-response","206","902645","0.0-206.0-0.0","A3CMWYLWMENHLZ","img_art/9.jpg","4","","","","","","","","","","","","","","","","","","","","","","","","",""
"1327","","image-button-response","207","903974","0.0-207.0-0.0","A3CMWYLWMENHLZ","img_art/9.jpg","5","","","","","","","","","","","","","","","","","","","","","","","","",""
"null","","html-keyboard-response","208","905475","0.0-208.0","A3CMWYLWMENHLZ","<p style=""font-size: 48px;"">+</p>","","","","","null","allTrialResponses","1500","1","23","img_art/9.jpg","20","a mad green face. A hangover.","Luke,Brian,Robert,Malik,Jason,Logan","it makes me feel excited and draws my eye around,24,20,20","I don't like the framing of this one,-25,380,20","Someone sleeping in a cave. Dont like the scribble look.,-30,360,20","Colorful and expressive,15,40,20","Focal point is interesting,2,20,20","is that sleeping beauty,33,360,20","Luke","it makes me feel excited and draws my eye around,24,20,20","Jason","Focal point is interesting,2,20,20","Logan","is that sleeping beauty,33,360,20","0"
"15270","","survey-text","209","920750","0.0-209.0-0.0","A3CMWYLWMENHLZ","","","","{""Q0"":""waterslides or chutes and ladders""}","","","","","","","","","","","","","","","","","","","","","","",""
"2527","","image-slider-response","210","923278","0.0-210.0","A3CMWYLWMENHLZ","","","","","-8","","","","","","","","","","","","","","","","","","","","","",""
"4334","","image-button-response","211","928280","0.0-211.0","A3CMWYLWMENHLZ","img_art/30.jpg","0","","","","","","","","","","","","","","","","","","","","","","","","",""
"1164","","image-button-response","212","929446","0.0-212.0","A3CMWYLWMENHLZ","img_art/30.jpg","3","","","","","","","","","","","","","","","","","","","","","","","","",""
"910","","image-button-response","213","930358","0.0-213.0-0.0","A3CMWYLWMENHLZ","img_art/30.jpg","0","","","","","","","","","","","","","","","","","","","","","","","","",""
"1255","","image-button-response","214","931614","0.0-214.0-0.0","A3CMWYLWMENHLZ","img_art/30.jpg","2","","","","","","","","","","","","","","","","","","","","","","","","",""
"null","","html-keyboard-response","215","932116","0.0-215.0","A3CMWYLWMENHLZ","<p style=""font-size: 48px;"">+</p>","","","","","null","allTrialResponses","500","1","24","img_art/30.jpg","-8","waterslides or chutes and ladders","Luke,Nathan,Jesus,Mitchell,Jason,Logan","the lines and colors look purposeful,18,20,20","It's okay. It should either have stuck to the grey-blue, or added more red. Seems unorganized (maybe that's the point?),-9,200,20","I like the forefront design.,10,100,20","connection, Everything is connected even in contrast.,42,180,20","Do not like the streaks,-14,20,20","literally stupid I made this with as seen on tv products when I was 7,-42,360,20","Mitchell","connection, Everything is connected even in contrast.,42,180,20","Luke","the lines and colors look purposeful,18,20,20","Jesus","I like the forefront design.,10,100,20","0"
"13678","","survey-text","216","945798","0.0-216.0-0.0","A3CMWYLWMENHLZ","","","","{""Q0"":""very abstract town""}","","","","","","","","","","","","","","","","","","","","","","",""
"3334.5","","image-slider-response","217","949134","0.0-217.0","A3CMWYLWMENHLZ","","","","","31","","","","","","","","","","","","","","","","","","","","","",""
"null","","image-button-response","218","954135","0.0-218.0","A3CMWYLWMENHLZ","img_art/11.jpg","null","","","","","","","","","","","","","","","","","","","","","","","","",""
"861","","image-button-response","219","954998","0.0-219.0","A3CMWYLWMENHLZ","img_art/11.jpg","1","","","","","","","","","","","","","","","","","","","","","","","","",""
"2294","","image-button-response","220","957294","0.0-220.0-0.0","A3CMWYLWMENHLZ","img_art/11.jpg","4","","","","","","","","","","","","","","","","","","","","","","","","",""
"1190","","image-button-response","221","958486","0.0-221.0-0.0","A3CMWYLWMENHLZ","img_art/11.jpg","5","","","","","","","","","","","","","","","","","","","","","","","","",""
"null","","html-keyboard-response","222","959488","0.0-222.0","A3CMWYLWMENHLZ","<p style=""font-size: 48px;"">+</p>","","","","","null","allTrialResponses","1000","1","25","img_art/11.jpg","31","very abstract town","Luke,Jacob,Jesus,Mitchell,Edward,Timothy","it reminds me of music,43,20,20","This looks cool, and definitely comes to life in a way,36,340,20","The different textures and colors make this pleasing to look at.,30,100,20","Busy city life. transportation, anxiety.,10,180,20","Reminds me of a city and how chaotic it can be,22,60,20","The movement in this one is extremely pleasent,40,240,20","Jacob","This looks cool, and definitely comes to life in a way,36,340,20","Edward","Reminds me of a city and how chaotic it can be,22,60,20","Timothy","The movement in this one is extremely pleasent,40,240,20","0"
"5501","","survey-text","223","964998","0.0-223.0-0.0","A3CMWYLWMENHLZ","","","","{""Q0"":""table""}","","","","","","","","","","","","","","","","","","","","","","",""
"10720","","survey-text","224","975718","0.0-224.0-0.0","A3CMWYLWMENHLZ","","","","{""Q0"":""a bloody war scene""}","","","","","","","","","","","","","","","","","","","","","","",""
"3758.699999988079","","image-slider-response","225","979479","0.0-225.0","A3CMWYLWMENHLZ","","","","","4","","","","","","","","","","","","","","","","","","","","","",""
"4007","","image-button-response","226","984481","0.0-226.0","A3CMWYLWMENHLZ","img_art/3.jpg","1","","","","","","","","","","","","","","","","","","","","","","","","",""
"420","","image-button-response","227","984903","0.0-227.0","A3CMWYLWMENHLZ","img_art/3.jpg","4","","","","","","","","","","","","","","","","","","","","","","","","",""
"1990","","image-button-response","228","986895","0.0-228.0-0.0","A3CMWYLWMENHLZ","img_art/3.jpg","1","","","","","","","","","","","","","","","","","","","","","","","","",""
"862","","image-button-response","229","987759","0.0-229.0-0.0","A3CMWYLWMENHLZ","img_art/3.jpg","2","","","","","","","","","","","","","","","","","","","","","","","","",""
"null","","html-keyboard-response","230","988261","0.0-230.0","A3CMWYLWMENHLZ","<p style=""font-size: 48px;"">+</p>","","","","","null","allTrialResponses","500","1","26","img_art/3.jpg","4","a bloody war scene","Brett,Jacob,Ian,Bryce,Edward,Timothy","Confusion and mayhem,-10,360,20","Don't get the scribbles.,-13,340,20","It just makes me think of blood splattered everywhere.,-31,260,20","Scary. Looks like blood.,-45,20,20","It looks like someone took a red sharpie and just scribbled angrily,-20,60,20","This makes me feel a bit disturbed,-35,240,20","Edward","It looks like someone took a red sharpie and just scribbled angrily,-20,60,20","Jacob","Don't get the scribbles.,-13,340,20","Ian","It just makes me think of blood splattered everywhere.,-31,260,20","0"
"16237","","survey-text","231","1004502","0.0-231.0-0.0","A3CMWYLWMENHLZ","","","","{""Q0"":""gumby?""}","","","","","","","","","","","","","","","","","","","","","","",""
"3703","","image-slider-response","232","1008206","0.0-232.0","A3CMWYLWMENHLZ","","","","","-17","","","","","","","","","","","","","","","","","","","","","",""
"null","","image-button-response","233","1013209","0.0-233.0","A3CMWYLWMENHLZ","img_art/2.jpg","null","","","","","","","","","","","","","","","","","","","","","","","","",""
"1317","","image-button-response","234","1014526","0.0-234.0","A3CMWYLWMENHLZ","img_art/2.jpg","3","","","","","","","","","","","","","","","","","","","","","","","","",""
"1487","","image-button-response","235","1016015","0.0-235.0-0.0","A3CMWYLWMENHLZ","img_art/2.jpg","1","","","","","","","","","","","","","","","","","","","","","","","","",""
"1566","","image-button-response","236","1017583","0.0-236.0-0.0","A3CMWYLWMENHLZ","img_art/2.jpg","2","","","","","","","","","","","","","","","","","","","","","","","","",""
"null","","html-keyboard-response","237","1019085","0.0-237.0","A3CMWYLWMENHLZ","<p style=""font-size: 48px;"">+</p>","","","","","null","allTrialResponses","1500","1","27","img_art/2.jpg","-17","gumby?","Aaron,Jacob,Ian,Jeremy,Edward,Hunter","The colors are pretty but I don't really like the shapes in it.,-20,20,20","I don't get the meaning of this piece either.,-13,340,20","I don't really like this but at the same time it's cute. It looks like a little monster kid.,-9,260,20","Unhappy. I do not like it,-5,60,20","My immediate reaction was it looked like a class but then I saw a smile in the middle,11,60,20","appealing colors,4,240,20","Jeremy","Unhappy. I do not like it,-5,60,20","Jacob","I don't get the meaning of this piece either.,-13,340,20","Ian","I don't really like this but at the same time it's cute. It looks like a little monster kid.,-9,260,20","0"
"14006","","survey-text","238","1033095","0.0-238.0-0.0","A3CMWYLWMENHLZ","","","","{""Q0"":""a nice city scene. Peaceful""}","","","","","","","","","","","","","","","","","","","","","","",""
"2702.399999976158","","image-slider-response","239","1035799","0.0-239.0","A3CMWYLWMENHLZ","","","","","13","","","","","","","","","","","","","","","","","","","","","",""
"4494","","image-button-response","240","1040801","0.0-240.0","A3CMWYLWMENHLZ","img_art/26.jpg","0","","","","","","","","","","","","","","","","","","","","","","","","",""
"741","","image-button-response","241","1041543","0.0-241.0","A3CMWYLWMENHLZ","img_art/26.jpg","0","","","","","","","","","","","","","","","","","","","","","","","","",""
"1735","","image-button-response","242","1043279","0.0-242.0-0.0","A3CMWYLWMENHLZ","img_art/26.jpg","3","","","","","","","","","","","","","","","","","","","","","","","","",""
"1934","","image-button-response","243","1045215","0.0-243.0-0.0","A3CMWYLWMENHLZ","img_art/26.jpg","4","","","","","","","","","","","","","","","","","","","","","","","","",""
"null","","html-keyboard-response","244","1046717","0.0-244.0","A3CMWYLWMENHLZ","<p style=""font-size: 48px;"">+</p>","","","","","null","allTrialResponses","1500","1","28","img_art/26.jpg","13","a nice city scene. Peaceful","Angel,Jacob,Ian,Jeremy,Travis,Cameron","This piece feels pretty chill like it's just a normal day in the city.,10,180,20","It doesn't look so vibrant, I'm not sure what feelings they were trying to capture,-41,340,20","This seems pretty and sweet, it's something I would like to actually see.,31,260,20","somewhat happy, like being outside on a nice day,30,60,20","Neutral...nothing to say.,3,260,20","street scene is okay?,15,60,20","Angel","This piece feels pretty chill like it's just a normal day in the city.,10,180,20","Jeremy","somewhat happy, like being outside on a nice day,30,60,20","Travis","Neutral...nothing to say.,3,260,20","0"
"13669","","survey-text","245","1060391","0.0-245.0-0.0","A3CMWYLWMENHLZ","","","","{""Q0"":""an old charcoal village""}","","","","","","","","","","","","","","","","","","","","","","",""
"2926.2999999523163","","image-slider-response","246","1063319","0.0-246.0","A3CMWYLWMENHLZ","","","","","14","","","","","","","","","","","","","","","","","","","","","",""
"null","","image-button-response","247","1068321","0.0-247.0","A3CMWYLWMENHLZ","img_art/10.jpg","null","","","","","","","","","","","","","","","","","","","","","","","","",""
"341","","image-button-response","248","1068663","0.0-248.0","A3CMWYLWMENHLZ","img_art/10.jpg","5","","","","","","","","","","","","","","","","","","","","","","","","",""
"3230","","image-button-response","249","1071895","0.0-249.0-0.0","A3CMWYLWMENHLZ","img_art/10.jpg","2","","","","","","","","","","","","","","","","","","","","","","","","",""
"2174","","image-button-response","250","1074071","0.0-250.0-0.0","A3CMWYLWMENHLZ","img_art/10.jpg","0","","","","","","","","","","","","","","","","","","","","","","","","",""
"null","","html-keyboard-response","251","1074573","0.0-251.0","A3CMWYLWMENHLZ","<p style=""font-size: 48px;"">+</p>","","","","","null","allTrialResponses","500","1","29","img_art/10.jpg","14","an old charcoal village","Angel,Jeffrey,Alex,Jeremy,Travis,Jose","This piece makes me think of music. The music is dark; I like dark music so it edges toward good.,10,180,20","Relaxing; a lot of going on but colours make it easy to look at,20,40,20","This could be a guitar, or it could be a completely random shape.,-3,100,20","kind of happy. it is intriguing,23,60,20","I liked it...it looked somewhat like a guitar.,32,260,20","This is pretty rad. The outline looks like a music staff,15,200,20","Jose","This is pretty rad. The outline looks like a music staff,15,200,20","Alex","This could be a guitar, or it could be a completely random shape.,-3,100,20","Angel","This piece makes me think of music. The music is dark; I like dark music so it edges toward good.,10,180,20","0"
"12454","","survey-text","252","1087031","0.0-252.0-0.0","A3CMWYLWMENHLZ","","","","{""Q0"":""a childish art project""}","","","","","","","","","","","","","","","","","","","","","","",""
"3158","","image-slider-response","253","1090191","0.0-253.0","A3CMWYLWMENHLZ","","","","","-44","","","","","","","","","","","","","","","","","","","","","",""
"4910","","image-button-response","254","1095193","0.0-254.0","A3CMWYLWMENHLZ","img_art/19.jpg","0","","","","","","","","","","","","","","","","","","","","","","","","",""
"1181","","image-button-response","255","1096376","0.0-255.0","A3CMWYLWMENHLZ","img_art/19.jpg","0","","","","","","","","","","","","","","","","","","","","","","","","",""
"3806","","image-button-response","256","1100184","0.0-256.0-0.0","A3CMWYLWMENHLZ","img_art/19.jpg","3","","","","","","","","","","","","","","","","","","","","","","","","",""
"934","","image-button-response","257","1101120","0.0-257.0-0.0","A3CMWYLWMENHLZ","img_art/19.jpg","5","","","","","","","","","","","","","","","","","","","","","","","","",""
"null","","html-keyboard-response","258","1102122","0.0-258.0","A3CMWYLWMENHLZ","<p style=""font-size: 48px;"">+</p>","","","","","null","allTrialResponses","1000","1","30","img_art/19.jpg","-44","a childish art project","Angel,Jorge,Alex,Jonathan,Jordan,Jose","This one feels pretty neutral. Like a window into someone's life, one person in a bustling metropolis.,0,180,20","confused and emotional,-4,180,20","I like the water but again, the small lines with no detail are irritating,3,100,20","Feels like something I would hang in my dining room,42,140,20","I dont like the gray shadows, ruins it,-7,160,20","I dig the not being able to tell what anything is but knowing everything is supposed to be something,46,200,20","Angel","This one feels pretty neutral. Like a window into someone's life, one person in a bustling metropolis.,0,180,20","Jonathan","Feels like something I would hang in my dining room,42,140,20","Jose","I dig the not being able to tell what anything is but knowing everything is supposed to be something,46,200,20","0"
"3672","","image-button-response_instructions","259","1105800","0.0-259.0","A3CMWYLWMENHLZ","","0","instructions","","","","","","","","","","","","","","","","","","","","","","","",""
"1244","","image-button-response","260","1107048","0.0-260.0","A3CMWYLWMENHLZ","","0","","","","","","","","","","","","","","","","","","","","","","","","",""
