"rt","url","trial_type","trial_index","time_elapsed","internal_node_id","participant_id","stimulus","button_pressed","Name","responses","response","key_press","variableName","fixationTime","condition","trial","photo","subjectRating","subjectResponse","agentsNames","agent_1_Response","agent_2_Response","agent_3_Response","agent_4_Response","agent_5_Response","agent_6_Response","kept_1_name","kept_1_response","kept_2_name","kept_2_response","kept_3_name","kept_3_response","errorCounter"
"7790","external_page_harvard.html","external-html","0","8325","0.0-0.0","A3DCWSOQTN5VDL","","","","","","","","","","","","","","","","","","","","","","","","","","",""
"6716","","image-button-response","1","15048","0.0-1.0","A3DCWSOQTN5VDL","","0","","","","","","","","","","","","","","","","","","","","","","","","",""
"1841","","image-button-response","2","16905","0.0-2.0-0.0","A3DCWSOQTN5VDL","","1","phone","","","","","","","","","","","","","","","","","","","","","","","",""
"3369","","survey-text","3","20292","0.0-3.0-0.0","A3DCWSOQTN5VDL","","","","{""Q0"":""A3DCWSOQTN5VDL""}","","","","","","","","","","","","","","","","","","","","","","",""
"3536","","image-button-response_instructions","4","23833","0.0-4.0","A3DCWSOQTN5VDL","","0","instructions","","","","","","","","","","","","","","","","","","","","","","","",""
"15992","","image-button-response_instructions","5","39828","0.0-5.0","A3DCWSOQTN5VDL","img_art/ins/popularity/ins1.png","0","instructions","","","","","","","","","","","","","","","","","","","","","","","",""
"6629","","image-button-response_instructions","6","46475","0.0-6.0","A3DCWSOQTN5VDL","img_art/ins/popularity/ins2.png","0","instructions","","","","","","","","","","","","","","","","","","","","","","","",""
"1575","","image-button-response_instructions","7","48055","0.0-7.0","A3DCWSOQTN5VDL","img_art/ins/popularity/ins2Extreme.png","0","instructions","","","","","","","","","","","","","","","","","","","","","","","",""
"8427","","image-button-response_instructions","8","56488","0.0-8.0","A3DCWSOQTN5VDL","img_art/ins/popularity/ins3KEEPpop.PNG","0","instructions","","","","","","","","","","","","","","","","","","","","","","","",""
"2310","","image-button-response_instructions","9","58802","0.0-9.0","A3DCWSOQTN5VDL","img_art/ins/popularity/ins3ANamepop.PNG","0","instructions","","","","","","","","","","","","","","","","","","","","","","","",""
"1652","","image-button-response_instructions","10","60455","0.0-10.0","A3DCWSOQTN5VDL","img_art/ins/popularity/ins3ARatingpop.png","0","instructions","","","","","","","","","","","","","","","","","","","","","","","",""
"1666","","image-button-response_instructions","11","62124","0.0-11.0","A3DCWSOQTN5VDL","img_art/ins/popularity/ins3ATextpop.png","0","instructions","","","","","","","","","","","","","","","","","","","","","","","",""
"1767","","image-button-response_instructions","12","63893","0.0-12.0","A3DCWSOQTN5VDL","img_art/ins/popularity/ins3ALikespop.png","0","instructions","","","","","","","","","","","","","","","","","","","","","","","",""
"1328","","image-button-response_instructions","13","65224","0.0-13.0","A3DCWSOQTN5VDL","img_art/ins/popularity/ins3KEEPpop.PNG","0","instructions","","","","","","","","","","","","","","","","","","","","","","","",""
"898","","image-button-response_instructions","14","66125","0.0-14.0","A3DCWSOQTN5VDL","img_art/ins/popularity/ins3_5RED.png","0","instructions","","","","","","","","","","","","","","","","","","","","","","","",""
"794","","image-button-response_instructions","15","66922","0.0-15.0","A3DCWSOQTN5VDL","img_art/ins/popularity/ins3KEEPpop.PNG","0","instructions","","","","","","","","","","","","","","","","","","","","","","","",""
"1057","","image-button-response_instructions","16","67982","0.0-16.0","A3DCWSOQTN5VDL","img_art/ins/popularity/ins4KEEPpop.PNG","0","instructions","","","","","","","","","","","","","","","","","","","","","","","",""
"1837","","image-button-response_instructions","17","69822","0.0-17.0","A3DCWSOQTN5VDL","img_art/ins/popularity/ins5KEEPpop.PNG","0","instructions","","","","","","","","","","","","","","","","","","","","","","","",""
"1776","","image-button-response_instructions","18","71611","0.0-18.0","A3DCWSOQTN5VDL","","0","instructions","","","","","","","","","","","","","","","","","","","","","","","",""
"6119","","survey-text","19","77770","0.0-19.0-0.0","A3DCWSOQTN5VDL","","","","{""Q0"":""but""}","","","","","","","","","","","","","","","","","","","","","","",""
"6956","","survey-text","20","84741","0.0-20.0-0.0","A3DCWSOQTN5VDL","","","","{""Q0"":""natural""}","","","","","","","","","","","","","","","","","","","","","","",""
"5805","","image-slider-response","21","90551","0.0-21.0","A3DCWSOQTN5VDL","","","","","15","","","","","","","","","","","","","","","","","","","","","",""
"2419","","image-button-response","22","95560","0.0-22.0","A3DCWSOQTN5VDL","img_art/ins/1.jpg","4","","","","","","","","","","","","","","","","","","","","","","","","",""
"1301","","image-button-response","23","96880","0.0-23.0","A3DCWSOQTN5VDL","img_art/ins/1.jpg","5","","","","","","","","","","","","","","","","","","","","","","","","",""
"6554","","image-button-response","24","103439","0.0-24.0-0.0","A3DCWSOQTN5VDL","img_art/ins/1.jpg","3","","","","","","","","","","","","","","","","","","","","","","","","",""
"1268","","image-button-response","25","104713","0.0-25.0-0.0","A3DCWSOQTN5VDL","img_art/ins/1.jpg","4","","","","","","","","","","","","","","","","","","","","","","","","",""
"null","","html-keyboard-response","26","105219","0.0-26.0","A3DCWSOQTN5VDL","<p style=""font-size: 48px;"">+</p>","","","","","null","allTrialResponses","500","1","-2","img_art/ins/1.jpg","15","natural","Adam,Alex,Ben,Carl,Daniel,Jack","Seems like doodles,-20,20,20","very creative work.,36,40,20","This color reminds me of poo,-46,60,20","very calming artwork,42,80,20","It looks like a murder scene.,-48,100,20","I like the sophisticated brushwork,40,120,20","Jack","I like the sophisticated brushwork,40,120,20","Carl","very calming artwork,42,80,20","Daniel","It looks like a murder scene.,-48,100,20","0"
"6608","","survey-text","27","111838","0.0-27.0-0.0","A3DCWSOQTN5VDL","","","","{""Q0"":""good""}","","","","","","","","","","","","","","","","","","","","","","",""
"5046","","survey-text","28","118998","0.0-27.1-0.1","A3DCWSOQTN5VDL","","","","{""Q0"":""very nice""}","","","","","","","","","","","","","","","","","","","","","","",""
"8283","","image-slider-response","29","127286","0.0-28.0","A3DCWSOQTN5VDL","","","","","29","","","","","","","","","","","","","","","","","","","","","",""
"2119","","image-button-response","30","132303","0.0-29.0","A3DCWSOQTN5VDL","img_art/ins/2.jpg","5","","","","","","","","","","","","","","","","","","","","","","","","",""
"1014","","image-button-response","31","133323","0.0-30.0","A3DCWSOQTN5VDL","img_art/ins/2.jpg","2","","","","","","","","","","","","","","","","","","","","","","","","",""
"1353","","image-button-response","32","134694","0.0-31.0-0.0","A3DCWSOQTN5VDL","img_art/ins/2.jpg","5","","","","","","","","","","","","","","","","","","","","","","","","",""
"2110","","image-button-response","33","136809","0.0-32.0-0.0","A3DCWSOQTN5VDL","img_art/ins/2.jpg","0","","","","","","","","","","","","","","","","","","","","","","","","",""
"null","","html-keyboard-response","34","137318","0.0-33.0","A3DCWSOQTN5VDL","<p style=""font-size: 48px;"">+</p>","","","","","null","allTrialResponses","500","1","-1","img_art/ins/2.jpg","29","very nice","James,John,Kyle,Carl,Daniel,Jack","looks too angry,-50,140,20","love the texture of paint,48,160,20","Idk, it is just annoying,-32,180,20","I can feel the artist's passion in it,45,80,20","One of my pet peevs,-48,100,20","I would never be able to compose a sophisticated pallete like this,48,120,20","Kyle","Idk, it is just annoying,-32,180,20","Jack","I would never be able to compose a sophisticated pallete like this,48,120,20","James","looks too angry,-50,140,20","0"
"7349","","survey-text","35","144682","0.0-34.0-0.0","A3DCWSOQTN5VDL","","","","{""Q0"":""best one""}","","","","","","","","","","","","","","","","","","","","","","",""
"4242","","image-slider-response","36","148930","0.0-35.0","A3DCWSOQTN5VDL","","","","","41","","","","","","","","","","","","","","","","","","","","","",""
"null","","image-button-response","37","153945","0.0-36.0","A3DCWSOQTN5VDL","img_art/ins/3.jpg","null","","","","","","","","","","","","","","","","","","","","","","","","",""
"167","","image-button-response","38","154120","0.0-37.0","A3DCWSOQTN5VDL","img_art/ins/3.jpg","1","","","","","","","","","","","","","","","","","","","","","","","","",""
"1721","","image-button-response","39","155845","0.0-38.0-0.0","A3DCWSOQTN5VDL","img_art/ins/3.jpg","3","","","","","","","","","","","","","","","","","","","","","","","","",""
"2503","","image-button-response","40","158354","0.0-39.0-0.0","A3DCWSOQTN5VDL","img_art/ins/3.jpg","2","","","","","","","","","","","","","","","","","","","","","","","","",""
"null","","html-keyboard-response","41","159873","0.0-40.0","A3DCWSOQTN5VDL","<p style=""font-size: 48px;"">+</p>","","","","","null","allTrialResponses","1500","1","0","img_art/ins/3.jpg","41","best one","James,Sam,Kyle,Mike,Ron,Jack","My worst nightmare,-42,140,20","I can feel a rainy day from this painting,18,240,20","It looks like a playground for bats,-36,180,20","enjoy the different shades of blue,22,200,20","It looks depressing,-26,220,20","I feel connected to the artist,40,120,20","Sam","I can feel a rainy day from this painting,18,240,20","Mike","enjoy the different shades of blue,22,200,20","Kyle","It looks like a playground for bats,-36,180,20","0"
"2520","","image-button-response_instructions","42","162413","0.0-41.0","A3DCWSOQTN5VDL","","0","instructions","","","","","","","","","","","","","","","","","","","","","","","",""
"8332","","survey-likert","43","170756","0.0-42.0-0.0","A3DCWSOQTN5VDL","","","","{""Q0"":"""",""Q1"":0,""Q2"":1}","","","","","","","","","","","","","","","","","","","","","","",""
"5244","","survey-text","44","176014","0.0-43.0-0.0","A3DCWSOQTN5VDL","","","","{""Q0"":""rock""}","","","","","","","","","","","","","","","","","","","","","","",""
"8104","","survey-text","45","184121","0.0-44.0-0.0","A3DCWSOQTN5VDL","","","","{""Q0"":""very nice""}","","","","","","","","","","","","","","","","","","","","","","",""
"3620","","image-slider-response","46","187758","0.0-45.0","A3DCWSOQTN5VDL","","","","","24","","","","","","","","","","","","","","","","","","","","","",""
"1926","","image-button-response","47","192798","0.0-46.0","A3DCWSOQTN5VDL","img_art/5.jpg","5","","","","","","","","","","","","","","","","","","","","","","","","",""
"998","","image-button-response","48","193802","0.0-47.0","A3DCWSOQTN5VDL","img_art/5.jpg","5","","","","","","","","","","","","","","","","","","","","","","","","",""
"2215","","image-button-response","49","196021","0.0-48.0-0.0","A3DCWSOQTN5VDL","img_art/5.jpg","4","","","","","","","","","","","","","","","","","","","","","","","","",""
"768","","image-button-response","50","196794","0.0-49.0-0.0","A3DCWSOQTN5VDL","img_art/5.jpg","0","","","","","","","","","","","","","","","","","","","","","","","","",""
"null","","html-keyboard-response","51","197799","0.0-50.0","A3DCWSOQTN5VDL","<p style=""font-size: 48px;"">+</p>","","","","","null","allTrialResponses","1000","1","1","img_art/5.jpg","24","very nice","James,Spencer,Thomas,Jeffrey,Victor,Bryan","Very bright and has colors you wouldn't think would go together,11,380,20","Boring, no flow except the pink feathery band,-42,120,20","I'm confused by what I am looking at,-3,220,20","positive colours; yellow calls attention,6,40,20","I like these colors together and the tiny splatters, but what is this?,7,340,20","Looks like a yellow plastic trash bag.,-42,400,20","Bryan","Looks like a yellow plastic trash bag.,-42,400,20","Victor","I like these colors together and the tiny splatters, but what is this?,7,340,20","James","Very bright and has colors you wouldn't think would go together,11,380,20","0"
"9713","","survey-text","52","207535","0.0-51.0-0.0","A3DCWSOQTN5VDL","","","","{""Q0"":""beautiful""}","","","","","","","","","","","","","","","","","","","","","","",""
"4362","","image-slider-response","53","211901","0.0-52.0","A3DCWSOQTN5VDL","","","","","30","","","","","","","","","","","","","","","","","","","","","",""
"null","","image-button-response","54","216914","0.0-53.0","A3DCWSOQTN5VDL","img_art/16.jpg","null","","","","","","","","","","","","","","","","","","","","","","","","",""
"1147","","image-button-response","55","218066","0.0-54.0","A3DCWSOQTN5VDL","img_art/16.jpg","5","","","","","","","","","","","","","","","","","","","","","","","","",""
"3093","","image-button-response","56","221163","0.0-55.0-0.0","A3DCWSOQTN5VDL","img_art/16.jpg","0","","","","","","","","","","","","","","","","","","","","","","","","",""
"1583","","image-button-response","57","222752","0.0-56.0-0.0","A3DCWSOQTN5VDL","img_art/16.jpg","3","","","","","","","","","","","","","","","","","","","","","","","","",""
"null","","html-keyboard-response","58","223259","0.0-57.0","A3DCWSOQTN5VDL","<p style=""font-size: 48px;"">+</p>","","","","","null","allTrialResponses","500","1","2","img_art/16.jpg","30","beautiful","James,Timothy,Dylan,Samuel,Victor,Bryan","It is interesting to say the least,0,380,20","This feels like images of a painful childhood,-50,240,20","This is weird and creepy.,-40,40,20","childhood horror,3,400,20","I don't know why, I just don't like it,-28,340,20","Something terrible happened. Either the figure on the right is the victim or another shredded toy.,-49,400,20","Bryan","Something terrible happened. Either the figure on the right is the victim or another shredded toy.,-49,400,20","James","It is interesting to say the least,0,380,20","Samuel","childhood horror,3,400,20","0"
"9004","","survey-text","59","232275","0.0-58.0-0.0","A3DCWSOQTN5VDL","","","","{""Q0"":""interested""}","","","","","","","","","","","","","","","","","","","","","","",""
"4353","","image-slider-response","60","236633","0.0-59.0","A3DCWSOQTN5VDL","","","","","23","","","","","","","","","","","","","","","","","","","","","",""
"null","","image-button-response","61","241650","0.0-60.0","A3DCWSOQTN5VDL","img_art/25.jpg","null","","","","","","","","","","","","","","","","","","","","","","","","",""
"1378","","image-button-response","62","243035","0.0-61.0","A3DCWSOQTN5VDL","img_art/25.jpg","3","","","","","","","","","","","","","","","","","","","","","","","","",""
"1225","","image-button-response","63","244267","0.0-62.0-0.0","A3DCWSOQTN5VDL","img_art/25.jpg","4","","","","","","","","","","","","","","","","","","","","","","","","",""
"2421","","image-button-response","64","246695","0.0-63.0-0.0","A3DCWSOQTN5VDL","img_art/25.jpg","5","","","","","","","","","","","","","","","","","","","","","","","","",""
"null","","html-keyboard-response","65","247208","0.0-64.0","A3DCWSOQTN5VDL","<p style=""font-size: 48px;"">+</p>","","","","","null","allTrialResponses","500","1","3","img_art/25.jpg","23","interested","James,Scott,Dakota,Samuel,Daniel,Bryan","This would definitely be hanging in my bedroom in my house,50,380,20","reminds me of a zombie,-36,20,20","I think of death,-28,280,20","reminds me of burning man,18,400,20","Beautiful color with an interesting otherworldly figure,29,320,20","Scary. Something out of a Stephen King book/movie.,-31,400,20","Samuel","reminds me of burning man,18,400,20","Daniel","Beautiful color with an interesting otherworldly figure,29,320,20","Bryan","Scary. Something out of a Stephen King book/movie.,-31,400,20","0"
"10291","","survey-text","66","257513","0.0-65.0-0.0","A3DCWSOQTN5VDL","","","","{""Q0"":""beautiful""}","","","","","","","","","","","","","","","","","","","","","","",""
"3755","","image-slider-response","67","261274","0.0-66.0","A3DCWSOQTN5VDL","","","","","-3","","","","","","","","","","","","","","","","","","","","","",""
"null","","image-button-response","68","266289","0.0-67.0","A3DCWSOQTN5VDL","img_art/21.jpg","null","","","","","","","","","","","","","","","","","","","","","","","","",""
"3934","","image-button-response","69","270244","0.0-68.0","A3DCWSOQTN5VDL","img_art/21.jpg","5","","","","","","","","","","","","","","","","","","","","","","","","",""
"796","","image-button-response","70","271046","0.0-69.0-0.0","A3DCWSOQTN5VDL","img_art/21.jpg","3","","","","","","","","","","","","","","","","","","","","","","","","",""
"21822","","image-button-response","71","292873","0.0-70.0-0.0","A3DCWSOQTN5VDL","img_art/21.jpg","4","","","","","","","","","","","","","","","","","","","","","","","","",""
"null","","html-keyboard-response","72","294384","0.0-71.0","A3DCWSOQTN5VDL","<p style=""font-size: 48px;"">+</p>","","","","","null","allTrialResponses","1500","1","4","img_art/21.jpg","-3","beautiful","Jake,Cody,Jose,Samuel,Daniel,Bryan","It looks epic and is nice to look at in terms of colors/style.,23,360,20","Pretty, good colors,30,180,20","I can't explain why this struck me as absolutely gorgeous. Like the clashing between 2 different worlds,43,200,20","feels like a wave coming into light,9,400,20","Nice asymmetry with maritime colors city meets the sea,34,320,20","Like the colors, the cloudy, airy effects. Nice.,46,400,20","Bryan","Like the colors, the cloudy, airy effects. Nice.,46,400,20","Samuel","feels like a wave coming into light,9,400,20","Daniel","Nice asymmetry with maritime colors city meets the sea,34,320,20","0"
"8729","","survey-text","73","303126","0.0-72.0-0.0","A3DCWSOQTN5VDL","","","","{""Q0"":""best one""}","","","","","","","","","","","","","","","","","","","","","","",""
"5542","","image-slider-response","74","308674","0.0-73.0","A3DCWSOQTN5VDL","","","","","17","","","","","","","","","","","","","","","","","","","","","",""
"null","","image-button-response","75","313695","0.0-74.0","A3DCWSOQTN5VDL","img_art/20.jpg","null","","","","","","","","","","","","","","","","","","","","","","","","",""
"2210","","image-button-response","76","315910","0.0-75.0","A3DCWSOQTN5VDL","img_art/20.jpg","5","","","","","","","","","","","","","","","","","","","","","","","","",""
"1090","","image-button-response","77","317019","0.0-76.0-0.0","A3DCWSOQTN5VDL","img_art/20.jpg","3","","","","","","","","","","","","","","","","","","","","","","","","",""
"11119","","image-button-response","78","328143","0.0-77.0-0.0","A3DCWSOQTN5VDL","img_art/20.jpg","4","","","","","","","","","","","","","","","","","","","","","","","","",""
"null","","html-keyboard-response","79","329648","0.0-78.0","A3DCWSOQTN5VDL","<p style=""font-size: 48px;"">+</p>","","","","","null","allTrialResponses","1500","1","5","img_art/20.jpg","17","best one","Juan,Connor,Paul,Samuel,Daniel,Bryan","I like the deep blues, but I don't like the way this picture makes me feel.,-13,260,20","Dark frame overpowers the image,-6,240,20","It looks like a junkyard and isn't appealing,-22,300,20","crash after traffic causing grief,-11,400,20","Fails to capture what similar styles do,-12,320,20","Reminds me of Georgia O'Keefe.,11,400,20","Bryan","Reminds me of Georgia O'Keefe.,11,400,20","Samuel","crash after traffic causing grief,-11,400,20","Daniel","Fails to capture what similar styles do,-12,320,20","0"
"5913","","survey-text","80","335581","0.0-79.0-0.0","A3DCWSOQTN5VDL","","","","{""Q0"":""sky""}","","","","","","","","","","","","","","","","","","","","","","",""
"7027","","survey-text","81","342614","0.0-80.0-0.0","A3DCWSOQTN5VDL","","","","{""Q0"":""love it""}","","","","","","","","","","","","","","","","","","","","","","",""
"3161","","image-slider-response","82","345790","0.0-81.0","A3DCWSOQTN5VDL","","","","","26","","","","","","","","","","","","","","","","","","","","","",""
"null","","image-button-response","83","350796","0.0-82.0","A3DCWSOQTN5VDL","img_art/29.jpg","null","","","","","","","","","","","","","","","","","","","","","","","","",""
"5142","","image-button-response","84","355953","0.0-83.0","A3DCWSOQTN5VDL","img_art/29.jpg","3","","","","","","","","","","","","","","","","","","","","","","","","",""
"1973","","image-button-response","85","357933","0.0-84.0-0.0","A3DCWSOQTN5VDL","img_art/29.jpg","0","","","","","","","","","","","","","","","","","","","","","","","","",""
"2177","","image-button-response","86","360125","0.0-85.0-0.0","A3DCWSOQTN5VDL","img_art/29.jpg","4","","","","","","","","","","","","","","","","","","","","","","","","",""
"null","","html-keyboard-response","87","361130","0.0-86.0","A3DCWSOQTN5VDL","<p style=""font-size: 48px;"">+</p>","","","","","null","allTrialResponses","1000","1","6","img_art/29.jpg","26","love it","Vincent,Shane,Eric,Samuel,Daniel,Bryan","Another great work of art and very conversational piece,33,360,20","Darkness and torment,-50,80,20","I like that the colors are toned down even though they're everywhere.,5,100,20","too challenging to comprehend,-28,400,20","Pinball meets a dark dream meets whale alien, drab,13,320,20","Doesn't do much for me. I like some of the colors but not much else.,-10,400,20","Samuel","too challenging to comprehend,-28,400,20","Vincent","Another great work of art and very conversational piece,33,360,20","Daniel","Pinball meets a dark dream meets whale alien, drab,13,320,20","0"
"3810","","survey-text","88","364964","0.0-87.0-0.0","A3DCWSOQTN5VDL","","","","{""Q0"":""beautiful""}","","","","","","","","","","","","","","","","","","","","","","",""
"3985","","image-slider-response","89","368955","0.0-88.0","A3DCWSOQTN5VDL","","","","","17","","","","","","","","","","","","","","","","","","","","","",""
"null","","image-button-response","90","373968","0.0-89.0","A3DCWSOQTN5VDL","img_art/30.jpg","null","","","","","","","","","","","","","","","","","","","","","","","","",""
"30961","","image-button-response","91","404934","0.0-90.0","A3DCWSOQTN5VDL","img_art/30.jpg","3","","","","","","","","","","","","","","","","","","","","","","","","",""
"417","","image-button-response","92","405356","0.0-91.0-0.0","A3DCWSOQTN5VDL","img_art/30.jpg","4","","","","","","","","","","","","","","","","","","","","","","","","",""
"1110","","image-button-response","93","406473","0.0-92.0-0.0","A3DCWSOQTN5VDL","img_art/30.jpg","5","","","","","","","","","","","","","","","","","","","","","","","","",""
"null","","html-keyboard-response","94","406979","0.0-93.0","A3DCWSOQTN5VDL","<p style=""font-size: 48px;"">+</p>","","","","","null","allTrialResponses","500","1","7","img_art/30.jpg","17","beautiful","Vincent,Nathan,Cole,Samuel,Daniel,Seth","Personal , calming conservative signature business ideal.,32,360,20","It's okay. It should either have stuck to the grey-blue, or added more red. Seems unorganized (maybe that's the point?),-9,200,20","Its ugly. Too simple,-23,200,20","perceiving greatness,20,400,20","10 year old 10 minute project ""Fun with Painting"",-42,320,20","I love the color contrast of the red against the blue.,9,60,20","Samuel","perceiving greatness,20,400,20","Daniel","10 year old 10 minute project ""Fun with Painting"",-42,320,20","Seth","I love the color contrast of the red against the blue.,9,60,20","0"
"3354","","survey-text","95","410343","0.0-94.0-0.0","A3DCWSOQTN5VDL","","","","{""Q0"":""beautiful""}","","","","","","","","","","","","","","","","","","","","","","",""
"2956","","image-slider-response","96","413302","0.0-95.0","A3DCWSOQTN5VDL","","","","","13","","","","","","","","","","","","","","","","","","","","","",""
"null","","image-button-response","97","418327","0.0-96.0","A3DCWSOQTN5VDL","img_art/7.jpg","null","","","","","","","","","","","","","","","","","","","","","","","","",""
"7278","","image-button-response","98","425612","0.0-97.0","A3DCWSOQTN5VDL","img_art/7.jpg","4","","","","","","","","","","","","","","","","","","","","","","","","",""
"611","","image-button-response","99","426228","0.0-98.0-0.0","A3DCWSOQTN5VDL","img_art/7.jpg","3","","","","","","","","","","","","","","","","","","","","","","","","",""
"562","","image-button-response","100","426797","0.0-99.0-0.0","A3DCWSOQTN5VDL","img_art/7.jpg","5","","","","","","","","","","","","","","","","","","","","","","","","",""
"null","","html-keyboard-response","101","427299","0.0-100.0","A3DCWSOQTN5VDL","<p style=""font-size: 48px;"">+</p>","","","","","null","allTrialResponses","500","1","8","img_art/7.jpg","13","beautiful","Colton,Isaiah,Jonathan,Samuel,Daniel,Seth","reminds me of a cave wall,-21,220,20","I feel relaxed and a little nostalgic, like I'm exploring the wall of a very old building.,18,300,20","Looks like the surface of mars,29,140,20","looking down on earth,19,400,20","Great portrayal of solid surface,19,320,20","This piece reminds me of ants and it makes my skin crawl.,-37,60,20","Daniel","Great portrayal of solid surface,19,320,20","Samuel","looking down on earth,19,400,20","Seth","This piece reminds me of ants and it makes my skin crawl.,-37,60,20","0"
"7610","","survey-text","102","434917","0.0-101.0-0.0","A3DCWSOQTN5VDL","","","","{""Q0"":""best one""}","","","","","","","","","","","","","","","","","","","","","","",""
"3170","","image-slider-response","103","438096","0.0-102.0","A3DCWSOQTN5VDL","","","","","22","","","","","","","","","","","","","","","","","","","","","",""
"1961","","image-button-response","104","443102","0.0-103.0","A3DCWSOQTN5VDL","img_art/27.jpg","1","","","","","","","","","","","","","","","","","","","","","","","","",""
"2809","","image-button-response","105","445917","0.0-104.0","A3DCWSOQTN5VDL","img_art/27.jpg","4","","","","","","","","","","","","","","","","","","","","","","","","",""
"644","","image-button-response","106","446567","0.0-105.0-0.0","A3DCWSOQTN5VDL","img_art/27.jpg","3","","","","","","","","","","","","","","","","","","","","","","","","",""
"50693","","image-button-response","107","497266","0.0-106.0-0.0","A3DCWSOQTN5VDL","img_art/27.jpg","5","","","","","","","","","","","","","","","","","","","","","","","","",""
"null","","html-keyboard-response","108","498807","0.0-107.0","A3DCWSOQTN5VDL","<p style=""font-size: 48px;"">+</p>","","","","","null","allTrialResponses","1500","1","9","img_art/27.jpg","22","best one","Gabriel,Austin,Brendan,Samuel,Daniel,Seth","too messy dont like the color choices either,-17,160,20","Like the abstractness of this picture,20,240,20","nice firestorm on desert,23,340,20","city at sunset brings happyness,10,400,20","Nice back ground with childish scribble on top,-30,320,20","I don't care for the green scribbles; not sure what they are. But I adore the colors in the background.,24,60,20","Daniel","Nice back ground with childish scribble on top,-30,320,20","Samuel","city at sunset brings happyness,10,400,20","Seth","I don't care for the green scribbles; not sure what they are. But I adore the colors in the background.,24,60,20","0"
"3191","","survey-text","109","502012","0.0-108.0-0.0","A3DCWSOQTN5VDL","","","","{""Q0"":""interested""}","","","","","","","","","","","","","","","","","","","","","","",""
"2528","","image-slider-response","110","504543","0.0-109.0","A3DCWSOQTN5VDL","","","","","27","","","","","","","","","","","","","","","","","","","","","",""
"null","","image-button-response","111","509549","0.0-110.0","A3DCWSOQTN5VDL","img_art/22.jpg","null","","","","","","","","","","","","","","","","","","","","","","","","",""
"14342","","image-button-response","112","523896","0.0-111.0","A3DCWSOQTN5VDL","img_art/22.jpg","3","","","","","","","","","","","","","","","","","","","","","","","","",""
"904","","image-button-response","113","524804","0.0-112.0-0.0","A3DCWSOQTN5VDL","img_art/22.jpg","4","","","","","","","","","","","","","","","","","","","","","","","","",""
"23826","","image-button-response","114","548635","0.0-113.0-0.0","A3DCWSOQTN5VDL","img_art/22.jpg","5","","","","","","","","","","","","","","","","","","","","","","","","",""
"null","","html-keyboard-response","115","549638","0.0-114.0","A3DCWSOQTN5VDL","<p style=""font-size: 48px;"">+</p>","","","","","null","allTrialResponses","1000","1","10","img_art/22.jpg","27","interested","Jordan,Shawn,Joshua,Samuel,Daniel,Seth","The colors are too dark, too much red,2,160,20","Still like the colors but not the most interesting composition,17,100,20","This one would work in the right frame. It's nice.,20,240,20","ball of light in 90s,8,400,20","Organic sun spot on a flexible grid,18,320,20","I think the colors are beautiful they remind me of a sunset.,13,60,20","Samuel","ball of light in 90s,8,400,20","Daniel","Organic sun spot on a flexible grid,18,320,20","Seth","I think the colors are beautiful they remind me of a sunset.,13,60,20","0"
"7590","","survey-text","116","557243","0.0-115.0-0.0","A3DCWSOQTN5VDL","","","","{""Q0"":""our""}","","","","","","","","","","","","","","","","","","","","","","",""
"14072","","survey-text","117","571322","0.0-116.0-0.0","A3DCWSOQTN5VDL","","","","{""Q0"":""loved one""}","","","","","","","","","","","","","","","","","","","","","","",""
"4269","","image-slider-response","118","575598","0.0-117.0","A3DCWSOQTN5VDL","","","","","11","","","","","","","","","","","","","","","","","","","","","",""
"1571","","image-button-response","119","580610","0.0-118.0","A3DCWSOQTN5VDL","img_art/26.jpg","4","","","","","","","","","","","","","","","","","","","","","","","","",""
"19005","","image-button-response","120","599623","0.0-119.0","A3DCWSOQTN5VDL","img_art/26.jpg","3","","","","","","","","","","","","","","","","","","","","","","","","",""
"677","","image-button-response","121","600306","0.0-120.0-0.0","A3DCWSOQTN5VDL","img_art/26.jpg","4","","","","","","","","","","","","","","","","","","","","","","","","",""
"3890","","image-button-response","122","604202","0.0-121.0-0.0","A3DCWSOQTN5VDL","img_art/26.jpg","5","","","","","","","","","","","","","","","","","","","","","","","","",""
"null","","html-keyboard-response","123","605205","0.0-122.0","A3DCWSOQTN5VDL","<p style=""font-size: 48px;"">+</p>","","","","","null","allTrialResponses","1000","1","11","img_art/26.jpg","11","loved one","Peter,Caleb,Gregory,Samuel,Daniel,Seth","Reminds me of a European street, I desire to walk in this picture,28,320,20","Appears childish and unfinished.,-20,40,20","Street corner on a sunny day,5,220,20","reminds me of a hometown,7,400,20","Washed out suburban scene with childish tones.,-24,320,20","I'm not sure if this is the image of a furniture store or not.,-20,60,20","Samuel","reminds me of a hometown,7,400,20","Daniel","Washed out suburban scene with childish tones.,-24,320,20","Seth","I'm not sure if this is the image of a furniture store or not.,-20,60,20","0"
"2932","","survey-text","124","608151","0.0-123.0-0.0","A3DCWSOQTN5VDL","","","","{""Q0"":""beautiful""}","","","","","","","","","","","","","","","","","","","","","","",""
"12197","","image-slider-response","125","620353","0.0-124.0","A3DCWSOQTN5VDL","","","","","22","","","","","","","","","","","","","","","","","","","","","",""
"null","","image-button-response","126","625360","0.0-125.0","A3DCWSOQTN5VDL","img_art/19.jpg","null","","","","","","","","","","","","","","","","","","","","","","","","",""
"810","","image-button-response","127","626174","0.0-126.0","A3DCWSOQTN5VDL","img_art/19.jpg","4","","","","","","","","","","","","","","","","","","","","","","","","",""
"774","","image-button-response","128","626953","0.0-127.0-0.0","A3DCWSOQTN5VDL","img_art/19.jpg","3","","","","","","","","","","","","","","","","","","","","","","","","",""
"21037","","image-button-response","129","647995","0.0-128.0-0.0","A3DCWSOQTN5VDL","img_art/19.jpg","5","","","","","","","","","","","","","","","","","","","","","","","","",""
"null","","html-keyboard-response","130","648499","0.0-129.0","A3DCWSOQTN5VDL","<p style=""font-size: 48px;"">+</p>","","","","","null","allTrialResponses","500","1","12","img_art/19.jpg","22","beautiful","Charles,Jeremy,Nathaniel,Samuel,Daniel,Seth","The blue makes it look like it has depth,11,100,20","it's too busy for me. Makes me feel stressed.,1,60,20","Horrible. Squiggly lines everywhere.,-50,220,20","city life energy,8,400,20","Simple, scratchy lack of negative space.,-10,320,20","I wasn't sure if I liked it or hated it. It oddly reminds me of a clothing store.,11,60,20","Daniel","Simple, scratchy lack of negative space.,-10,320,20","Samuel","city life energy,8,400,20","Seth","I wasn't sure if I liked it or hated it. It oddly reminds me of a clothing store.,11,60,20","0"
"2867","","survey-text","131","651383","0.0-130.0-0.0","A3DCWSOQTN5VDL","","","","{""Q0"":""interested""}","","","","","","","","","","","","","","","","","","","","","","",""
"7666","","image-slider-response","132","659054","0.0-131.0","A3DCWSOQTN5VDL","","","","","18","","","","","","","","","","","","","","","","","","","","","",""
"4903","","image-button-response","133","664060","0.0-132.0","A3DCWSOQTN5VDL","img_art/1.jpg","4","","","","","","","","","","","","","","","","","","","","","","","","",""
"834","","image-button-response","134","664899","0.0-133.0","A3DCWSOQTN5VDL","img_art/1.jpg","3","","","","","","","","","","","","","","","","","","","","","","","","",""
"500","","image-button-response","135","665403","0.0-134.0-0.0","A3DCWSOQTN5VDL","img_art/1.jpg","4","","","","","","","","","","","","","","","","","","","","","","","","",""
"28237","","image-button-response","136","693646","0.0-135.0-0.0","A3DCWSOQTN5VDL","img_art/1.jpg","5","","","","","","","","","","","","","","","","","","","","","","","","",""
"null","","html-keyboard-response","137","694662","0.0-136.0","A3DCWSOQTN5VDL","<p style=""font-size: 48px;"">+</p>","","","","","null","allTrialResponses","1000","1","13","img_art/1.jpg","18","interested","Brett,John,Chase,Samuel,Daniel,Seth","I don't know how I feel about this,1,360,20","Its okay,not great.,1,120,20","It's alright but lacks any depth.,-5,120,20","feels like there is meaning,9,400,20","Nice colors with some 3D effects,15,320,20","Might be a person rowing their boat across the lake. Not sure if the background is trees or not.,12,60,20","Samuel","feels like there is meaning,9,400,20","Daniel","Nice colors with some 3D effects,15,320,20","Seth","Might be a person rowing their boat across the lake. Not sure if the background is trees or not.,12,60,20","0"
"46129","","survey-text","138","740807","0.0-137.0-0.0","A3DCWSOQTN5VDL","","","","{""Q0"":""beautiful""}","","","","","","","","","","","","","","","","","","","","","","",""
"42203","","image-slider-response","139","783018","0.0-138.0","A3DCWSOQTN5VDL","","","","","21","","","","","","","","","","","","","","","","","","","","","",""
"4884","","image-button-response","140","788026","0.0-139.0","A3DCWSOQTN5VDL","img_art/24.jpg","1","","","","","","","","","","","","","","","","","","","","","","","","",""
"369","","image-button-response","141","788397","0.0-140.0","A3DCWSOQTN5VDL","img_art/24.jpg","0","","","","","","","","","","","","","","","","","","","","","","","","",""
"668","","image-button-response","142","789078","0.0-141.0-0.0","A3DCWSOQTN5VDL","img_art/24.jpg","1","","","","","","","","","","","","","","","","","","","","","","","","",""
"751","","image-button-response","143","789835","0.0-142.0-0.0","A3DCWSOQTN5VDL","img_art/24.jpg","0","","","","","","","","","","","","","","","","","","","","","","","","",""
"808","","image-button-response","144","793694","0.0-142.1-0.1","A3DCWSOQTN5VDL","img_art/24.jpg","4","","","","","","","","","","","","","","","","","","","","","","","","",""
"null","","html-keyboard-response","145","794196","0.0-143.0","A3DCWSOQTN5VDL","<p style=""font-size: 48px;"">+</p>","","","","","null","allTrialResponses","500","1","14","img_art/24.jpg","21","beautiful","Tyler,Kevin,Jesus,Samuel,Daniel,Seth","Exceedingly garish,-19,320,20","What a nice refreshing waterfall.,39,320,20","I like the vivid colors and different textures,32,100,20","tranquility in the stream,34,400,20","Classic palette lacks real world 3d construction,19,320,20","This is stunning. I love how the brown, red and oranges are blended in together.,40,60,20","Tyler","Exceedingly garish,-19,320,20","Kevin","What a nice refreshing waterfall.,39,320,20","Daniel","Classic palette lacks real world 3d construction,19,320,20","2"
"3020","","survey-text","146","797235","0.0-144.0-0.0","A3DCWSOQTN5VDL","","","","{""Q0"":""beautiful""}","","","","","","","","","","","","","","","","","","","","","","",""
"5098","","image-slider-response","147","802337","0.0-145.0","A3DCWSOQTN5VDL","","","","","24","","","","","","","","","","","","","","","","","","","","","",""
"null","","image-button-response","148","807350","0.0-146.0","A3DCWSOQTN5VDL","img_art/11.jpg","null","","","","","","","","","","","","","","","","","","","","","","","","",""
"7049","","image-button-response","149","814406","0.0-147.0","A3DCWSOQTN5VDL","img_art/11.jpg","5","","","","","","","","","","","","","","","","","","","","","","","","",""
"482","","image-button-response","150","814896","0.0-148.0-0.0","A3DCWSOQTN5VDL","img_art/11.jpg","4","","","","","","","","","","","","","","","","","","","","","","","","",""
"1741","","image-button-response","151","816645","0.0-149.0-0.0","A3DCWSOQTN5VDL","img_art/11.jpg","3","","","","","","","","","","","","","","","","","","","","","","","","",""
"null","","html-keyboard-response","152","817651","0.0-150.0","A3DCWSOQTN5VDL","<p style=""font-size: 48px;"">+</p>","","","","","null","allTrialResponses","1000","1","15","img_art/11.jpg","24","beautiful","Tyler,Kevin,Devin,William,Daniel,Derek","Rainy day at an urban sea port. Portugal?,30,320,20","Thats a creepy old rollercoasters abandoned,-2,320,20","I like the vibe of the painting,-3,380,20","reminds me of a rainy day in the city,32,380,20","Some interesting color but scratchy train mess.,-14,320,20","There's a lot going on in this painting but it is pleasing and neat looking,31,360,20","Derek","There's a lot going on in this painting but it is pleasing and neat looking,31,360,20","Daniel","Some interesting color but scratchy train mess.,-14,320,20","William","reminds me of a rainy day in the city,32,380,20","2"
"7299","","survey-text","153","824966","0.0-151.0-0.0","A3DCWSOQTN5VDL","","","","{""Q0"":""course""}","","","","","","","","","","","","","","","","","","","","","","",""
"5453","","survey-text","154","830423","0.0-152.0-0.0","A3DCWSOQTN5VDL","","","","{""Q0"":""best one""}","","","","","","","","","","","","","","","","","","","","","","",""
"3723","","image-slider-response","155","834154","0.0-153.0","A3DCWSOQTN5VDL","","","","","23","","","","","","","","","","","","","","","","","","","","","",""
"2106","","image-button-response","156","839159","0.0-154.0","A3DCWSOQTN5VDL","img_art/2.jpg","4","","","","","","","","","","","","","","","","","","","","","","","","",""
"588","","image-button-response","157","839756","0.0-155.0","A3DCWSOQTN5VDL","img_art/2.jpg","4","","","","","","","","","","","","","","","","","","","","","","","","",""
"403","","image-button-response","158","840164","0.0-156.0-0.0","A3DCWSOQTN5VDL","img_art/2.jpg","3","","","","","","","","","","","","","","","","","","","","","","","","",""
"2406","","image-button-response","159","842576","0.0-157.0-0.0","A3DCWSOQTN5VDL","img_art/2.jpg","5","","","","","","","","","","","","","","","","","","","","","","","","",""
"null","","html-keyboard-response","160","843081","0.0-158.0","A3DCWSOQTN5VDL","<p style=""font-size: 48px;"">+</p>","","","","","null","allTrialResponses","500","1","16","img_art/2.jpg","23","best one","Jorge,Isaac,Mitchell,William,Daniel,Derek","Confused and disoriented,-33,180,20","Not sure what is happening. I'm not a big fan of the colors but they don't bother me either.,1,280,20","Dependence. Things relying on each other. Caring,-4,180,20","I like the colors,22,380,20","Colors and space work but the top scribbled killed it.,11,320,20","Not my favorite but I can see this being hung in a art museum,25,360,20","Daniel","Colors and space work but the top scribbled killed it.,11,320,20","William","I like the colors,22,380,20","Derek","Not my favorite but I can see this being hung in a art museum,25,360,20","2"
"3831","","survey-text","161","846926","0.0-159.0-0.0","A3DCWSOQTN5VDL","","","","{""Q0"":""interested""}","","","","","","","","","","","","","","","","","","","","","","",""
"3295","","image-slider-response","162","850225","0.0-160.0","A3DCWSOQTN5VDL","","","","","45","","","","","","","","","","","","","","","","","","","","","",""
"4977","","image-button-response","163","855231","0.0-161.0","A3DCWSOQTN5VDL","img_art/28.jpg","4","","","","","","","","","","","","","","","","","","","","","","","","",""
"718","","image-button-response","164","855966","0.0-162.0","A3DCWSOQTN5VDL","img_art/28.jpg","3","","","","","","","","","","","","","","","","","","","","","","","","",""
"531","","image-button-response","165","856501","0.0-163.0-0.0","A3DCWSOQTN5VDL","img_art/28.jpg","4","","","","","","","","","","","","","","","","","","","","","","","","",""
"33467","","image-button-response","166","889976","0.0-164.0-0.0","A3DCWSOQTN5VDL","img_art/28.jpg","5","","","","","","","","","","","","","","","","","","","","","","","","",""
"null","","html-keyboard-response","167","890483","0.0-165.0","A3DCWSOQTN5VDL","<p style=""font-size: 48px;"">+</p>","","","","","null","allTrialResponses","500","1","17","img_art/28.jpg","45","interested","Mark,Cameron,Grant,William,Daniel,Derek","It reminds me of the cantina in Star Wars.,37,80,20","dislike the colors. it looks like a bike, but misshapen wheels like it was wrecked.,-10,60,20","The darker colors make this unnerving.,40,200,20","drab and dreary,-21,380,20","Compact grey mess lack negative space,-10,320,20","The colors are dull but there's some kind of nostalgic essence of this painting,15,360,20","William","drab and dreary,-21,380,20","Daniel","Compact grey mess lack negative space,-10,320,20","Derek","The colors are dull but there's some kind of nostalgic essence of this painting,15,360,20","2"
"9209","","survey-text","168","899713","0.0-166.0-0.0","A3DCWSOQTN5VDL","","","","{""Q0"":""love it""}","","","","","","","","","","","","","","","","","","","","","","",""
"3333","","image-slider-response","169","903066","0.0-167.0","A3DCWSOQTN5VDL","","","","","28","","","","","","","","","","","","","","","","","","","","","",""
"null","","image-button-response","170","908073","0.0-168.0","A3DCWSOQTN5VDL","img_art/4.jpg","null","","","","","","","","","","","","","","","","","","","","","","","","",""
"1381","","image-button-response","171","909459","0.0-169.0","A3DCWSOQTN5VDL","img_art/4.jpg","5","","","","","","","","","","","","","","","","","","","","","","","","",""
"640","","image-button-response","172","910103","0.0-170.0-0.0","A3DCWSOQTN5VDL","img_art/4.jpg","4","","","","","","","","","","","","","","","","","","","","","","","","",""
"11016","","image-button-response","173","921130","0.0-171.0-0.0","A3DCWSOQTN5VDL","img_art/4.jpg","3","","","","","","","","","","","","","","","","","","","","","","","","",""
"null","","html-keyboard-response","174","922646","0.0-172.0","A3DCWSOQTN5VDL","<p style=""font-size: 48px;"">+</p>","","","","","null","allTrialResponses","1500","1","18","img_art/4.jpg","28","love it","Ian,Luis,Alejandro,William,Daniel,Derek","I just don't understand this one at all, I do not like it,-43,260,20","Its just not giving the vibe i should be finding,-31,400,20","Looks like finger nails from the Guinness world record book.,-30,80,20","dont like the colors,-31,380,20","Better version of a 7 year old who got lucky,-23,320,20","A bit too plain for my tastes,-10,360,20","Derek","A bit too plain for my tastes,-10,360,20","Daniel","Better version of a 7 year old who got lucky,-23,320,20","William","dont like the colors,-31,380,20","2"
"5333","","survey-text","175","927994","0.0-173.0-0.0","A3DCWSOQTN5VDL","","","","{""Q0"":""natural""}","","","","","","","","","","","","","","","","","","","","","","",""
"3474","","image-slider-response","176","931474","0.0-174.0","A3DCWSOQTN5VDL","","","","","25","","","","","","","","","","","","","","","","","","","","","",""
"4170","","image-button-response","177","936494","0.0-175.0","A3DCWSOQTN5VDL","img_art/8.jpg","1","","","","","","","","","","","","","","","","","","","","","","","","",""
"1020","","image-button-response","178","937525","0.0-176.0","A3DCWSOQTN5VDL","img_art/8.jpg","2","","","","","","","","","","","","","","","","","","","","","","","","",""
"1390","","image-button-response","179","938919","0.0-177.0-0.0","A3DCWSOQTN5VDL","img_art/8.jpg","4","","","","","","","","","","","","","","","","","","","","","","","","",""
"1249","","image-button-response","180","940173","0.0-178.0-0.0","A3DCWSOQTN5VDL","img_art/8.jpg","5","","","","","","","","","","","","","","","","","","","","","","","","",""
"null","","html-keyboard-response","181","941176","0.0-179.0","A3DCWSOQTN5VDL","<p style=""font-size: 48px;"">+</p>","","","","","null","allTrialResponses","1000","1","19","img_art/8.jpg","25","natural","Adam,Nicholas,Lucas,William,Daniel,Derek","Eclectic city with good mix of colors.,10,40,20","The face bothers me,-25,240,20","Different styles make this picture outstanding.,20,380,20","makes me think of a busy city,-18,380,20","Cortez's influence with fair color choices,10,320,20","It's simply gorgeous. This artist is very talented,50,360,20","Lucas","Different styles make this picture outstanding.,20,380,20","Daniel","Cortez's influence with fair color choices,10,320,20","Derek","It's simply gorgeous. This artist is very talented,50,360,20","2"
"7853","","survey-text","182","949044","0.0-180.0-0.0","A3DCWSOQTN5VDL","","","","{""Q0"":""fantastic""}","","","","","","","","","","","","","","","","","","","","","","",""
"2968","","image-slider-response","183","952017","0.0-181.0","A3DCWSOQTN5VDL","","","","","30","","","","","","","","","","","","","","","","","","","","","",""
"null","","image-button-response","184","957024","0.0-182.0","A3DCWSOQTN5VDL","img_art/23.jpg","null","","","","","","","","","","","","","","","","","","","","","","","","",""
"1006","","image-button-response","185","958037","0.0-183.0","A3DCWSOQTN5VDL","img_art/23.jpg","4","","","","","","","","","","","","","","","","","","","","","","","","",""
"440","","image-button-response","186","958482","0.0-184.0-0.0","A3DCWSOQTN5VDL","img_art/23.jpg","5","","","","","","","","","","","","","","","","","","","","","","","","",""
"5557","","image-button-response","187","964044","0.0-185.0-0.0","A3DCWSOQTN5VDL","img_art/23.jpg","3","","","","","","","","","","","","","","","","","","","","","","","","",""
"null","","html-keyboard-response","188","965564","0.0-186.0","A3DCWSOQTN5VDL","<p style=""font-size: 48px;"">+</p>","","","","","null","allTrialResponses","1500","1","20","img_art/23.jpg","30","fantastic","Patrick,Zachary,Lucas,Michael,Daniel,Derek","Beautiful color scheme,21,280,20","Vivid colors and the white in the middle looks like people dancing.,31,400,20","Shocked, beautiful.,20,380,20","I don't get it.,-40,140,20","Too busy with color with warrior lineup,0,320,20","Very colorful and wild. It's cool and I like it,32,360,20","Daniel","Too busy with color with warrior lineup,0,320,20","Derek","Very colorful and wild. It's cool and I like it,32,360,20","Michael","I don't get it.,-40,140,20","2"
"3071","","survey-text","189","968643","0.0-187.0-0.0","A3DCWSOQTN5VDL","","","","{""Q0"":""we""}","","","","","","","","","","","","","","","","","","","","","","",""
"13289","","survey-text","190","981938","0.0-188.0-0.0","A3DCWSOQTN5VDL","","","","{""Q0"":""natural""}","","","","","","","","","","","","","","","","","","","","","","",""
"2762","","image-slider-response","191","984704","0.0-189.0","A3DCWSOQTN5VDL","","","","","36","","","","","","","","","","","","","","","","","","","","","",""
"null","","image-button-response","192","989714","0.0-190.0","A3DCWSOQTN5VDL","img_art/14.jpg","null","","","","","","","","","","","","","","","","","","","","","","","","",""
"4968","","image-button-response","193","994685","0.0-191.0","A3DCWSOQTN5VDL","img_art/14.jpg","5","","","","","","","","","","","","","","","","","","","","","","","","",""
"1335","","image-button-response","194","996027","0.0-192.0-0.0","A3DCWSOQTN5VDL","img_art/14.jpg","1","","","","","","","","","","","","","","","","","","","","","","","","",""
"1030","","image-button-response","195","997072","0.0-193.0-0.0","A3DCWSOQTN5VDL","img_art/14.jpg","2","","","","","","","","","","","","","","","","","","","","","","","","",""
"null","","html-keyboard-response","196","998582","0.0-194.0","A3DCWSOQTN5VDL","<p style=""font-size: 48px;"">+</p>","","","","","null","allTrialResponses","1500","1","21","img_art/14.jpg","36","natural","Antonio,Richard,Brian,Michael,Daniel,Derek","Makes me think of trees and spring. A good feeling,26,220,20","the colors are peaceful and nature colors, soft,37,340,20","I don't care for the style,-38,380,20","Looks like there is some skill but also at the same time parts look unskilled.,-16,140,20","Baby's room palette with tree confusion in a more confused substrate.,-15,320,20","Very abstract and colorful,40,360,20","Derek","Very abstract and colorful,40,360,20","Richard","the colors are peaceful and nature colors, soft,37,340,20","Brian","I don't care for the style,-38,380,20","2"
"11010","","survey-text","197","1009606","0.0-195.0-0.0","A3DCWSOQTN5VDL","","","","{""Q0"":""interested""}","","","","","","","","","","","","","","","","","","","","","","",""
"5523","","image-slider-response","198","1015132","0.0-196.0","A3DCWSOQTN5VDL","","","","","17","","","","","","","","","","","","","","","","","","","","","",""
"null","","image-button-response","199","1020146","0.0-197.0","A3DCWSOQTN5VDL","img_art/15.jpg","null","","","","","","","","","","","","","","","","","","","","","","","","",""
"332","","image-button-response","200","1020484","0.0-198.0","A3DCWSOQTN5VDL","img_art/15.jpg","3","","","","","","","","","","","","","","","","","","","","","","","","",""
"1280","","image-button-response","201","1021768","0.0-199.0-0.0","A3DCWSOQTN5VDL","img_art/15.jpg","1","","","","","","","","","","","","","","","","","","","","","","","","",""
"500","","image-button-response","202","1022273","0.0-200.0-0.0","A3DCWSOQTN5VDL","img_art/15.jpg","2","","","","","","","","","","","","","","","","","","","","","","","","",""
"null","","html-keyboard-response","203","1022776","0.0-201.0","A3DCWSOQTN5VDL","<p style=""font-size: 48px;"">+</p>","","","","","null","allTrialResponses","500","1","22","img_art/15.jpg","17","interested","Andrew,Richard,Brian,David,Christian,Derek","The blues are soothing,21,160,20","dark and provoking,-50,340,20","This is simply too ""old-school"",-27,380,20","Hard to tell what I'm looking at, but it does a gives a slight impression of a of garden.,5,340,20","very unsettling! like reverse porcelain esp because of the colors,28,140,20","Although it looks a bit bland in terms of color, I really like the print/pattern,25,360,20","David","Hard to tell what I'm looking at, but it does a gives a slight impression of a of garden.,5,340,20","Richard","dark and provoking,-50,340,20","Brian","This is simply too ""old-school"",-27,380,20","2"
"3312","","survey-text","204","1026098","0.0-202.0-0.0","A3DCWSOQTN5VDL","","","","{""Q0"":""beautiful""}","","","","","","","","","","","","","","","","","","","","","","",""
"45696","","image-slider-response","205","1071805","0.0-203.0","A3DCWSOQTN5VDL","","","","","18","","","","","","","","","","","","","","","","","","","","","",""
"4934","","image-button-response","206","1076812","0.0-204.0","A3DCWSOQTN5VDL","img_art/10.jpg","0","","","","","","","","","","","","","","","","","","","","","","","","",""
"718","","image-button-response","207","1077533","0.0-205.0","A3DCWSOQTN5VDL","img_art/10.jpg","1","","","","","","","","","","","","","","","","","","","","","","","","",""
"1472","","image-button-response","208","1079010","0.0-206.0-0.0","A3DCWSOQTN5VDL","img_art/10.jpg","3","","","","","","","","","","","","","","","","","","","","","","","","",""
"18382","","image-button-response","209","1097399","0.0-207.0-0.0","A3DCWSOQTN5VDL","img_art/10.jpg","2","","","","","","","","","","","","","","","","","","","","","","","","",""
"null","","html-keyboard-response","210","1097907","0.0-208.0","A3DCWSOQTN5VDL","<p style=""font-size: 48px;"">+</p>","","","","","null","allTrialResponses","500","1","23","img_art/10.jpg","18","beautiful","Mason,Richard,Brian,David,Dustin,Angel","It's art. (for some),7,100,20","interesting portrayal of a violin?,10,340,20","this is a good painting, but feels musical in a way that I don't connect with.,-14,380,20","I can't really tell what this is suppose to represent, but overall I don't like the design.,-20,340,20","Dark and weird. Unidentifiable shape. I can't tell what it is, so I don't like it.,-50,20,20","This piece makes me think of music. The music is dark; I like dark music so it edges toward good.,10,180,20","Richard","interesting portrayal of a violin?,10,340,20","David","I can't really tell what this is suppose to represent, but overall I don't like the design.,-20,340,20","Brian","this is a good painting, but feels musical in a way that I don't connect with.,-14,380,20","2"
"3804","","survey-text","211","1101726","0.0-209.0-0.0","A3DCWSOQTN5VDL","","","","{""Q0"":""best one""}","","","","","","","","","","","","","","","","","","","","","","",""
"2684","","image-slider-response","212","1104413","0.0-210.0","A3DCWSOQTN5VDL","","","","","26","","","","","","","","","","","","","","","","","","","","","",""
"null","","image-button-response","213","1109417","0.0-211.0","A3DCWSOQTN5VDL","img_art/18.jpg","null","","","","","","","","","","","","","","","","","","","","","","","","",""
"5147","","image-button-response","214","1114576","0.0-212.0","A3DCWSOQTN5VDL","img_art/18.jpg","3","","","","","","","","","","","","","","","","","","","","","","","","",""
"1614","","image-button-response","215","1116196","0.0-213.0-0.0","A3DCWSOQTN5VDL","img_art/18.jpg","1","","","","","","","","","","","","","","","","","","","","","","","","",""
"973","","image-button-response","216","1117174","0.0-214.0-0.0","A3DCWSOQTN5VDL","img_art/18.jpg","2","","","","","","","","","","","","","","","","","","","","","","","","",""
"null","","html-keyboard-response","217","1118179","0.0-215.0","A3DCWSOQTN5VDL","<p style=""font-size: 48px;"">+</p>","","","","","null","allTrialResponses","1000","1","24","img_art/18.jpg","26","best one","Marcus,Richard,Brian,David,Elijah,Malik","like the grays and contrast of the yellow. This piece feels a bit angry,10,60,20","interesting piece, I like the horse and people inserted in spots,22,340,20","Very classy, I feel like it's the apocalypse.,25,380,20","I like how the image gives off an impression of bravery.,25,340,20","Makes me feel confused,16,80,20","Gently chaotic and beautiful,40,40,20","David","I like how the image gives off an impression of bravery.,25,340,20","Richard","interesting piece, I like the horse and people inserted in spots,22,340,20","Brian","Very classy, I feel like it's the apocalypse.,25,380,20","2"
"3750","","survey-text","218","1121961","0.0-216.0-0.0","A3DCWSOQTN5VDL","","","","{""Q0"":""beautiful""}","","","","","","","","","","","","","","","","","","","","","","",""
"4038","","image-slider-response","219","1126004","0.0-217.0","A3DCWSOQTN5VDL","","","","","50","","","","","","","","","","","","","","","","","","","","","",""
"4993","","image-button-response","220","1131010","0.0-218.0","A3DCWSOQTN5VDL","img_art/13.jpg","3","","","","","","","","","","","","","","","","","","","","","","","","",""
"1181","","image-button-response","221","1132195","0.0-219.0","A3DCWSOQTN5VDL","img_art/13.jpg","1","","","","","","","","","","","","","","","","","","","","","","","","",""
"7266","","image-button-response","222","1139466","0.0-220.0-0.0","A3DCWSOQTN5VDL","img_art/13.jpg","3","","","","","","","","","","","","","","","","","","","","","","","","",""
"1050","","image-button-response","223","1140523","0.0-221.0-0.0","A3DCWSOQTN5VDL","img_art/13.jpg","4","","","","","","","","","","","","","","","","","","","","","","","","",""
"null","","html-keyboard-response","224","1141026","0.0-222.0","A3DCWSOQTN5VDL","<p style=""font-size: 48px;"">+</p>","","","","","null","allTrialResponses","500","1","25","img_art/13.jpg","50","beautiful","Alex,Richard,Brian,David,Alexis,Christopher","I like the blue colors and the symmetry and paint splatters but I would not hang it in my house,8,100,20","kind of like the pattern and colors but don't love it,13,340,20","I don't really care for splatter paintings; the spectral colors underneath are nice.,-18,380,20","I like the color coordination between the foreground and background.,10,340,20","It looks too common, is a bit boring,-41,140,20","this is an appealing mix of textures to me and the color scheme is harmonious,36,160,20","Richard","kind of like the pattern and colors but don't love it,13,340,20","David","I like the color coordination between the foreground and background.,10,340,20","Alexis","It looks too common, is a bit boring,-41,140,20","2"
"5108","","survey-text","225","1146157","0.0-223.0-0.0","A3DCWSOQTN5VDL","","","","{""Q0"":""table""}","","","","","","","","","","","","","","","","","","","","","","",""
"7363","","survey-text","226","1153527","0.0-224.0-0.0","A3DCWSOQTN5VDL","","","","{""Q0"":""best one""}","","","","","","","","","","","","","","","","","","","","","","",""
"5423","","image-slider-response","227","1158962","0.0-225.0","A3DCWSOQTN5VDL","","","","","30","","","","","","","","","","","","","","","","","","","","","",""
"null","","image-button-response","228","1163974","0.0-226.0","A3DCWSOQTN5VDL","img_art/3.jpg","null","","","","","","","","","","","","","","","","","","","","","","","","",""
"1572","","image-button-response","229","1165555","0.0-227.0","A3DCWSOQTN5VDL","img_art/3.jpg","3","","","","","","","","","","","","","","","","","","","","","","","","",""
"1259","","image-button-response","230","1166825","0.0-228.0-0.0","A3DCWSOQTN5VDL","img_art/3.jpg","5","","","","","","","","","","","","","","","","","","","","","","","","",""
"3434","","image-button-response","231","1170266","0.0-229.0-0.0","A3DCWSOQTN5VDL","img_art/3.jpg","0","","","","","","","","","","","","","","","","","","","","","","","","",""
"null","","html-keyboard-response","232","1171280","0.0-230.0","A3DCWSOQTN5VDL","<p style=""font-size: 48px;"">+</p>","","","","","null","allTrialResponses","1000","1","26","img_art/3.jpg","30","best one","Carlos,Richard,Trevor,David,Alexis,Jack","The composition keeps the eye moving, the colors are satisfying.,31,80,20","7th grade art, not much effort to do this.,-39,340,20","looks more classic but i'm not a fan of the colors,7,280,20","No clue what I'm looking. This just looks a series of scribbles in a box.,-20,340,20","It looks like a child drawing,-29,140,20","unique & stylized. interesting. another one I could keep staring at.,50,320,20","David","No clue what I'm looking. This just looks a series of scribbles in a box.,-20,340,20","Jack","unique & stylized. interesting. another one I could keep staring at.,50,320,20","Carlos","The composition keeps the eye moving, the colors are satisfying.,31,80,20","2"
"3703","","survey-text","233","1175006","0.0-231.0-0.0","A3DCWSOQTN5VDL","","","","{""Q0"":""interested""}","","","","","","","","","","","","","","","","","","","","","","",""
"4384","","image-slider-response","234","1179405","0.0-232.0","A3DCWSOQTN5VDL","","","","","40","","","","","","","","","","","","","","","","","","","","","",""
"2328","","image-button-response","235","1184413","0.0-233.0","A3DCWSOQTN5VDL","img_art/17.jpg","0","","","","","","","","","","","","","","","","","","","","","","","","",""
"908","","image-button-response","236","1185340","0.0-234.0","A3DCWSOQTN5VDL","img_art/17.jpg","3","","","","","","","","","","","","","","","","","","","","","","","","",""
"1849","","image-button-response","237","1187195","0.0-235.0-0.0","A3DCWSOQTN5VDL","img_art/17.jpg","5","","","","","","","","","","","","","","","","","","","","","","","","",""
"15164","","image-button-response","238","1202368","0.0-236.0-0.0","A3DCWSOQTN5VDL","img_art/17.jpg","4","","","","","","","","","","","","","","","","","","","","","","","","",""
"null","","html-keyboard-response","239","1203377","0.0-237.0","A3DCWSOQTN5VDL","<p style=""font-size: 48px;"">+</p>","","","","","null","allTrialResponses","1000","1","27","img_art/17.jpg","40","interested","Carlos,Jesse,Noah,David,Evan,Jack","It feels like nature overtaking civilization.,21,80,20","Doesnt completely turn me off but wouldnt look twice,-3,80,20","feel close to nature,30,260,20","I like how the image gives an impression of gaseous tree.,15,340,20","This reminds me of spring,24,140,20","stunning. makes me feel happy, hopeful, serene, and a little wistful.,50,320,20","David","I like how the image gives an impression of gaseous tree.,15,340,20","Jack","stunning. makes me feel happy, hopeful, serene, and a little wistful.,50,320,20","Evan","This reminds me of spring,24,140,20","2"
"3782","","survey-text","240","1207174","0.0-238.0-0.0","A3DCWSOQTN5VDL","","","","{""Q0"":""beautiful""}","","","","","","","","","","","","","","","","","","","","","","",""
"9263","","image-slider-response","241","1216444","0.0-239.0","A3DCWSOQTN5VDL","","","","","27","","","","","","","","","","","","","","","","","","","","","",""
"null","","image-button-response","242","1221459","0.0-240.0","A3DCWSOQTN5VDL","img_art/6.jpg","null","","","","","","","","","","","","","","","","","","","","","","","","",""
"4480","","image-button-response","243","1225944","0.0-241.0","A3DCWSOQTN5VDL","img_art/6.jpg","5","","","","","","","","","","","","","","","","","","","","","","","","",""
"1345","","image-button-response","244","1227296","0.0-242.0-0.0","A3DCWSOQTN5VDL","img_art/6.jpg","3","","","","","","","","","","","","","","","","","","","","","","","","",""
"1499","","image-button-response","245","1228804","0.0-243.0-0.0","A3DCWSOQTN5VDL","img_art/6.jpg","4","","","","","","","","","","","","","","","","","","","","","","","","",""
"null","","html-keyboard-response","246","1229807","0.0-244.0","A3DCWSOQTN5VDL","<p style=""font-size: 48px;"">+</p>","","","","","null","allTrialResponses","1000","1","28","img_art/6.jpg","27","beautiful","Ryan,Bradley,Joseph,David,Evan,Jack","Makes me feel lonely,-22,380,20","It's okay. It kind of looks like a bird with his head buried in his feathers.,2,300,20","Little birdie in a desert. Seeking better frontiers.,13,220,20","I like the simplicity of the piece.,10,340,20","I am intrigued but unsure whether I enjoy this or not,6,140,20","I like the bottom half, but not the top,-7,320,20","Jack","I like the bottom half, but not the top,-7,320,20","David","I like the simplicity of the piece.,10,340,20","Evan","I am intrigued but unsure whether I enjoy this or not,6,140,20","2"
"3545","","survey-text","247","1233363","0.0-245.0-0.0","A3DCWSOQTN5VDL","","","","{""Q0"":""interested""}","","","","","","","","","","","","","","","","","","","","","","",""
"3976","","image-slider-response","248","1237346","0.0-246.0","A3DCWSOQTN5VDL","","","","","18","","","","","","","","","","","","","","","","","","","","","",""
"null","","image-button-response","249","1242355","0.0-247.0","A3DCWSOQTN5VDL","img_art/12.jpg","null","","","","","","","","","","","","","","","","","","","","","","","","",""
"11349","","image-button-response","250","1253715","0.0-248.0","A3DCWSOQTN5VDL","img_art/12.jpg","3","","","","","","","","","","","","","","","","","","","","","","","","",""
"2886","","image-button-response","251","1256606","0.0-249.0-0.0","A3DCWSOQTN5VDL","img_art/12.jpg","1","","","","","","","","","","","","","","","","","","","","","","","","",""
"684","","image-button-response","252","1257294","0.0-250.0-0.0","A3DCWSOQTN5VDL","img_art/12.jpg","2","","","","","","","","","","","","","","","","","","","","","","","","",""
"null","","html-keyboard-response","253","1258798","0.0-251.0","A3DCWSOQTN5VDL","<p style=""font-size: 48px;"">+</p>","","","","","null","allTrialResponses","1500","1","29","img_art/12.jpg","18","interested","Bryce,Taylor,Tristan,David,Evan,Jack","A little bit boring.,-24,20,20","Just wish it was more colorful.,20,200,20","Quite lovely with depth and possibility.,21,300,20","This doesn't invoke anything. Just a mosaic of random images.,0,340,20","It reminds me of the documentary Paris is Burning, though I'm not sure why,11,140,20","interesting, but feels like someone cut up a picture and pasted it together wrong. want to see the original,15,320,20","David","This doesn't invoke anything. Just a mosaic of random images.,0,340,20","Taylor","Just wish it was more colorful.,20,200,20","Tristan","Quite lovely with depth and possibility.,21,300,20","2"
"2676","","survey-text","254","1261487","0.0-252.0-0.0","A3DCWSOQTN5VDL","","","","{""Q0"":""natural""}","","","","","","","","","","","","","","","","","","","","","","",""
"3353","","image-slider-response","255","1264846","0.0-253.0","A3DCWSOQTN5VDL","","","","","-16","","","","","","","","","","","","","","","","","","","","","",""
"null","","image-button-response","256","1269866","0.0-254.0","A3DCWSOQTN5VDL","img_art/9.jpg","null","","","","","","","","","","","","","","","","","","","","","","","","",""
"2945","","image-button-response","257","1272815","0.0-255.0","A3DCWSOQTN5VDL","img_art/9.jpg","5","","","","","","","","","","","","","","","","","","","","","","","","",""
"1019","","image-button-response","258","1273839","0.0-256.0-0.0","A3DCWSOQTN5VDL","img_art/9.jpg","4","","","","","","","","","","","","","","","","","","","","","","","","",""
"714","","image-button-response","259","1274558","0.0-257.0-0.0","A3DCWSOQTN5VDL","img_art/9.jpg","3","","","","","","","","","","","","","","","","","","","","","","","","",""
"null","","html-keyboard-response","260","1275563","0.0-258.0","A3DCWSOQTN5VDL","<p style=""font-size: 48px;"">+</p>","","","","","null","allTrialResponses","1000","1","30","img_art/9.jpg","-16","natural","Justin,Taylor,Tristan,David,Robert,Alexander","It reminds me of an illustration for a fairy tale.,19,280,20","Caveman. Not for my walls.,-5,200,20","The busyness and harsh nature of the lines in this painting  mute my emotional response.,-10,300,20","I like how design can be interpreted differently, I see a person sleeping or a mountainous region.,10,340,20","Someone sleeping in a cave. Dont like the scribble look.,-30,360,20","The mouth of an ugly beast.,-25,120,20","Alexander","The mouth of an ugly beast.,-25,120,20","Robert","Someone sleeping in a cave. Dont like the scribble look.,-30,360,20","David","I like how design can be interpreted differently, I see a person sleeping or a mountainous region.,10,340,20","2"
"1656","","image-button-response_instructions","261","1277234","0.0-259.0","A3DCWSOQTN5VDL","","0","instructions","","","","","","","","","","","","","","","","","","","","","","","",""
"1520","","image-button-response","262","1278768","0.0-260.0","A3DCWSOQTN5VDL","","0","","","","","","","","","","","","","","","","","","","","","","","","",""
