"rt","url","trial_type","trial_index","time_elapsed","internal_node_id","participant_id","stimulus","button_pressed","Name","responses","response","key_press","variableName","fixationTime","condition","trial","photo","subjectRating","subjectResponse","agentsNames","agent_1_Response","agent_2_Response","agent_3_Response","agent_4_Response","agent_5_Response","agent_6_Response","kept_1_name","kept_1_response","kept_2_name","kept_2_response","kept_3_name","kept_3_response","errorCounter"
"14696","external_page_harvard.html","external-html","0","15791","0.0-0.0","A3EUH97BRHRSI6","","","","","","","","","","","","","","","","","","","","","","","","","","",""
"2549","","image-button-response","1","18345","0.0-1.0","A3EUH97BRHRSI6","","0","","","","","","","","","","","","","","","","","","","","","","","","",""
"2093","","image-button-response","2","20457","0.0-2.0-0.0","A3EUH97BRHRSI6","","1","phone","","","","","","","","","","","","","","","","","","","","","","","",""
"5984","","survey-text","3","26446","0.0-3.0-0.0","A3EUH97BRHRSI6","","","","{""Q0"":""A3EUH97BRHRSI6""}","","","","","","","","","","","","","","","","","","","","","","",""
"5791","","image-button-response_instructions","4","32242","0.0-4.0","A3EUH97BRHRSI6","","0","instructions","","","","","","","","","","","","","","","","","","","","","","","",""
"25086","","image-button-response_instructions","5","57341","0.0-5.0","A3EUH97BRHRSI6","img_art/ins/popularity/ins1.png","0","instructions","","","","","","","","","","","","","","","","","","","","","","","",""
"6518","","image-button-response_instructions","6","63862","0.0-6.0","A3EUH97BRHRSI6","img_art/ins/popularity/ins2.png","0","instructions","","","","","","","","","","","","","","","","","","","","","","","",""
"3830","","image-button-response_instructions","7","67697","0.0-7.0","A3EUH97BRHRSI6","img_art/ins/popularity/ins2Extreme.png","0","instructions","","","","","","","","","","","","","","","","","","","","","","","",""
"14055","","image-button-response_instructions","8","81756","0.0-8.0","A3EUH97BRHRSI6","img_art/ins/popularity/ins3KEEPpop.PNG","0","instructions","","","","","","","","","","","","","","","","","","","","","","","",""
"6819","","image-button-response_instructions","9","88578","0.0-9.0","A3EUH97BRHRSI6","img_art/ins/popularity/ins3ANamepop.PNG","0","instructions","","","","","","","","","","","","","","","","","","","","","","","",""
"2728","","image-button-response_instructions","10","91310","0.0-10.0","A3EUH97BRHRSI6","img_art/ins/popularity/ins3ARatingpop.png","0","instructions","","","","","","","","","","","","","","","","","","","","","","","",""
"1058","","image-button-response_instructions","11","92371","0.0-11.0","A3EUH97BRHRSI6","img_art/ins/popularity/ins3ATextpop.png","0","instructions","","","","","","","","","","","","","","","","","","","","","","","",""
"2085","","image-button-response_instructions","12","94459","0.0-12.0","A3EUH97BRHRSI6","img_art/ins/popularity/ins3ALikespop.png","0","instructions","","","","","","","","","","","","","","","","","","","","","","","",""
"11393","","image-button-response_instructions","13","105858","0.0-13.0","A3EUH97BRHRSI6","img_art/ins/popularity/ins3KEEPpop.PNG","0","instructions","","","","","","","","","","","","","","","","","","","","","","","",""
"27883","","image-button-response_instructions","14","133746","0.0-14.0","A3EUH97BRHRSI6","img_art/ins/popularity/ins3_5RED.png","0","instructions","","","","","","","","","","","","","","","","","","","","","","","",""
"4759","","image-button-response_instructions","15","138509","0.0-15.0","A3EUH97BRHRSI6","img_art/ins/popularity/ins3KEEPpop.PNG","0","instructions","","","","","","","","","","","","","","","","","","","","","","","",""
"15172","","image-button-response_instructions","16","153683","0.0-16.0","A3EUH97BRHRSI6","img_art/ins/popularity/ins4KEEPpop.PNG","0","instructions","","","","","","","","","","","","","","","","","","","","","","","",""
"2531","","image-button-response_instructions","17","156218","0.0-17.0","A3EUH97BRHRSI6","img_art/ins/popularity/ins5KEEPpop.PNG","0","instructions","","","","","","","","","","","","","","","","","","","","","","","",""
"4938","","image-button-response_instructions","18","161158","0.0-18.0","A3EUH97BRHRSI6","","0","instructions","","","","","","","","","","","","","","","","","","","","","","","",""
"12229","","survey-text","19","173471","0.0-19.0-0.0","A3EUH97BRHRSI6","","","","{""Q0"":""but""}","","","","","","","","","","","","","","","","","","","","","","",""
"130479","","survey-text","20","303956","0.0-20.0-0.0","A3EUH97BRHRSI6","","","","{""Q0"":""It was remembering a map""}","","","","","","","","","","","","","","","","","","","","","","",""
"10861","","image-slider-response","21","314825","0.0-21.0","A3EUH97BRHRSI6","","","","","-1","","","","","","","","","","","","","","","","","","","","","",""
"3604","","image-button-response","22","319832","0.0-22.0","A3EUH97BRHRSI6","img_art/ins/1.jpg","1","","","","","","","","","","","","","","","","","","","","","","","","",""
"7720","","image-button-response","23","327601","0.0-23.0","A3EUH97BRHRSI6","img_art/ins/1.jpg","4","","","","","","","","","","","","","","","","","","","","","","","","",""
"506","","image-button-response","24","328115","0.0-24.0-0.0","A3EUH97BRHRSI6","img_art/ins/1.jpg","4","","","","","","","","","","","","","","","","","","","","","","","","",""
"2235","","image-button-response","25","337100","0.0-24.1-0.1","A3EUH97BRHRSI6","img_art/ins/1.jpg","5","","","","","","","","","","","","","","","","","","","","","","","","",""
"2772","","image-button-response","26","339882","0.0-25.0-0.0","A3EUH97BRHRSI6","img_art/ins/1.jpg","1","","","","","","","","","","","","","","","","","","","","","","","","",""
"null","","html-keyboard-response","27","340392","0.0-26.0","A3EUH97BRHRSI6","<p style=""font-size: 48px;"">+</p>","","","","","null","allTrialResponses","500","1","-2","img_art/ins/1.jpg","-1","It was remembering a map","Adam,Alex,Ben,Carl,Daniel,Jack","Seems like doodles,-20,20,20","very creative work.,36,40,20","This color reminds me of poo,-46,60,20","very calming artwork,42,80,20","It looks like a murder scene.,-48,100,20","I like the sophisticated brushwork,40,120,20","Daniel","It looks like a murder scene.,-48,100,20","Jack","I like the sophisticated brushwork,40,120,20","Alex","very creative work.,36,40,20","2"
"17227","","survey-text","28","357632","0.0-27.0-0.0","A3EUH97BRHRSI6","","","","{""Q0"":""building""}","","","","","","","","","","","","","","","","","","","","","","",""
"7724","","image-slider-response","29","365360","0.0-28.0","A3EUH97BRHRSI6","","","","","-1","","","","","","","","","","","","","","","","","","","","","",""
"4540","","image-button-response","30","370365","0.0-29.0","A3EUH97BRHRSI6","img_art/ins/2.jpg","0","","","","","","","","","","","","","","","","","","","","","","","","",""
"1287","","image-button-response","31","371657","0.0-30.0","A3EUH97BRHRSI6","img_art/ins/2.jpg","3","","","","","","","","","","","","","","","","","","","","","","","","",""
"1804","","image-button-response","32","373466","0.0-31.0-0.0","A3EUH97BRHRSI6","img_art/ins/2.jpg","4","","","","","","","","","","","","","","","","","","","","","","","","",""
"2228","","image-button-response","33","375700","0.0-32.0-0.0","A3EUH97BRHRSI6","img_art/ins/2.jpg","5","","","","","","","","","","","","","","","","","","","","","","","","",""
"null","","html-keyboard-response","34","376202","0.0-33.0","A3EUH97BRHRSI6","<p style=""font-size: 48px;"">+</p>","","","","","null","allTrialResponses","500","1","-1","img_art/ins/2.jpg","-1","building","John,Alex,Kyle,James,Daniel,Jack","love the texture of paint,48,160,20","I like the blocks of color arrangements,30,40,20","Idk, it is just annoying,-32,180,20","looks too angry,-50,140,20","One of my pet peevs,-48,100,20","I would never be able to compose a sophisticated pallete like this,48,120,20","James","looks too angry,-50,140,20","Daniel","One of my pet peevs,-48,100,20","Jack","I would never be able to compose a sophisticated pallete like this,48,120,20","2"
"15810","","survey-text","35","392022","0.0-34.0-0.0","A3EUH97BRHRSI6","","","","{""Q0"":""It was creative""}","","","","","","","","","","","","","","","","","","","","","","",""
"8917","","image-slider-response","36","400944","0.0-35.0","A3EUH97BRHRSI6","","","","","11","","","","","","","","","","","","","","","","","","","","","",""
"null","","image-button-response","37","405950","0.0-36.0","A3EUH97BRHRSI6","img_art/ins/3.jpg","null","","","","","","","","","","","","","","","","","","","","","","","","",""
"2675","","image-button-response","38","408631","0.0-37.0","A3EUH97BRHRSI6","img_art/ins/3.jpg","3","","","","","","","","","","","","","","","","","","","","","","","","",""
"1918","","image-button-response","39","410555","0.0-38.0-0.0","A3EUH97BRHRSI6","img_art/ins/3.jpg","4","","","","","","","","","","","","","","","","","","","","","","","","",""
"1213","","image-button-response","40","411799","0.0-39.0-0.0","A3EUH97BRHRSI6","img_art/ins/3.jpg","5","","","","","","","","","","","","","","","","","","","","","","","","",""
"null","","html-keyboard-response","41","412304","0.0-40.0","A3EUH97BRHRSI6","<p style=""font-size: 48px;"">+</p>","","","","","null","allTrialResponses","500","1","0","img_art/ins/3.jpg","11","It was creative","Ron,Sam,Mike,James,Daniel,Jack","It looks depressing,-26,220,20","I can feel a rainy day from this painting,18,240,20","enjoy the different shades of blue,22,200,20","My worst nightmare,-42,140,20","looks like a murder room,-35,100,20","I feel connected to the artist,40,120,20","James","My worst nightmare,-42,140,20","Daniel","looks like a murder room,-35,100,20","Jack","I feel connected to the artist,40,120,20","2"
"6584","","image-button-response_instructions","42","418896","0.0-41.0","A3EUH97BRHRSI6","","0","instructions","","","","","","","","","","","","","","","","","","","","","","","",""
"19635","","survey-likert","43","438535","0.0-42.0-0.0","A3EUH97BRHRSI6","","","","{""Q0"":"""",""Q1"":0,""Q2"":0}","","","","","","","","","","","","","","","","","","","","","","",""
"7154","","survey-likert","44","448209","0.0-42.1-0.1","A3EUH97BRHRSI6","","","","{""Q0"":"""",""Q1"":0,""Q2"":1}","","","","","","","","","","","","","","","","","","","","","","",""
"7133","","survey-text","45","455473","0.0-43.0-0.0","A3EUH97BRHRSI6","","","","{""Q0"":""rock""}","","","","","","","","","","","","","","","","","","","","","","",""
"42310","","survey-text","46","497789","0.0-44.0-0.0","A3EUH97BRHRSI6","","","","{""Q0"":""It wasremembering ancient city""}","","","","","","","","","","","","","","","","","","","","","","",""
"7109","","image-slider-response","47","504905","0.0-45.0","A3EUH97BRHRSI6","","","","","9","","","","","","","","","","","","","","","","","","","","","",""
"null","","image-button-response","48","509993","0.0-46.0","A3EUH97BRHRSI6","img_art/8.jpg","null","","","","","","","","","","","","","","","","","","","","","","","","",""
"4999","","image-button-response","49","514995","0.0-47.0","A3EUH97BRHRSI6","img_art/8.jpg","0","","","","","","","","","","","","","","","","","","","","","","","","",""
"1220","","image-button-response","50","516218","0.0-48.0-0.0","A3EUH97BRHRSI6","img_art/8.jpg","1","","","","","","","","","","","","","","","","","","","","","","","","",""
"5513","","image-button-response","51","521737","0.0-49.0-0.0","A3EUH97BRHRSI6","img_art/8.jpg","4","","","","","","","","","","","","","","","","","","","","","","","","",""
"null","","html-keyboard-response","52","523410","0.0-50.0","A3EUH97BRHRSI6","<p style=""font-size: 48px;"">+</p>","","","","","null","allTrialResponses","1500","1","1","img_art/8.jpg","9","It wasremembering ancient city","Caleb,Gregory,Christopher,Bradley,Hunter,Ethan","Despite the detail, this picture is very abstract!,31,40,20","Cool designs and color schemes,44,220,20","it's interesting but i don't enjoy the style,-5,160,20","Interesting but it has a bit of a dark feel to it.,6,300,20","crisp shapes, find more things the longer you look,17,240,20","Very inspiring piece. I love how it's at angle. It gives it character.,23,120,20","Caleb","Despite the detail, this picture is very abstract!,31,40,20","Gregory","Cool designs and color schemes,44,220,20","Hunter","crisp shapes, find more things the longer you look,17,240,20","3"
"24495","","survey-text","53","547916","0.0-51.0-0.0","A3EUH97BRHRSI6","","","","{""Q0"":""Lookimg like a ant world""}","","","","","","","","","","","","","","","","","","","","","","",""
"6690","","image-slider-response","54","554610","0.0-52.0","A3EUH97BRHRSI6","","","","","18","","","","","","","","","","","","","","","","","","","","","",""
"4795","","image-button-response","55","559619","0.0-53.0","A3EUH97BRHRSI6","img_art/7.jpg","1","","","","","","","","","","","","","","","","","","","","","","","","",""
"2585","","image-button-response","56","562210","0.0-54.0","A3EUH97BRHRSI6","img_art/7.jpg","2","","","","","","","","","","","","","","","","","","","","","","","","",""
"1762","","image-button-response","57","563978","0.0-55.0-0.0","A3EUH97BRHRSI6","img_art/7.jpg","1","","","","","","","","","","","","","","","","","","","","","","","","",""
"2641","","image-button-response","58","566626","0.0-56.0-0.0","A3EUH97BRHRSI6","img_art/7.jpg","4","","","","","","","","","","","","","","","","","","","","","","","","",""
"null","","html-keyboard-response","59","567131","0.0-57.0","A3EUH97BRHRSI6","<p style=""font-size: 48px;"">+</p>","","","","","null","allTrialResponses","500","1","2","img_art/7.jpg","18","Lookimg like a ant world","Caleb,Gregory,Sean,Ryan,Hunter,Colton","More saturated color, even more interpretations to have.,44,40,20","Looks like a battle raging on,20,220,20","does not look good,-42,40,20","I hate everything about this painting from the cors to it looking like a war,-50,380,20","textures are engaging,8,240,20","reminds me of a cave wall,-21,220,20","Sean","does not look good,-42,40,20","Gregory","Looks like a battle raging on,20,220,20","Hunter","textures are engaging,8,240,20","3"
"14936","","survey-text","60","582086","0.0-58.0-0.0","A3EUH97BRHRSI6","","","","{""Q0"":""Hiding something""}","","","","","","","","","","","","","","","","","","","","","","",""
"5244","","image-slider-response","61","587337","0.0-59.0","A3EUH97BRHRSI6","","","","","14","","","","","","","","","","","","","","","","","","","","","",""
"4265","","image-button-response","62","592345","0.0-60.0","A3EUH97BRHRSI6","img_art/12.jpg","1","","","","","","","","","","","","","","","","","","","","","","","","",""
"1004","","image-button-response","63","593352","0.0-61.0","A3EUH97BRHRSI6","img_art/12.jpg","1","","","","","","","","","","","","","","","","","","","","","","","","",""
"1477","","image-button-response","64","594833","0.0-62.0-0.0","A3EUH97BRHRSI6","img_art/12.jpg","2","","","","","","","","","","","","","","","","","","","","","","","","",""
"1958","","image-button-response","65","596797","0.0-63.0-0.0","A3EUH97BRHRSI6","img_art/12.jpg","4","","","","","","","","","","","","","","","","","","","","","","","","",""
"null","","html-keyboard-response","66","598417","0.0-64.0","A3EUH97BRHRSI6","<p style=""font-size: 48px;"">+</p>","","","","","null","allTrialResponses","1500","1","3","img_art/12.jpg","14","Hiding something","Scott,Gregory,Sean,Dakota,Hunter,Trevor","I don't like the pattern or color choice,-41,20,20","Black and white contrast with color looks nice,15,220,20","my reaction is that the picture is wierd,-11,40,20","angry, disturbed and sharp,-25,280,20","reminds me of a dixie cup,3,240,20","way too 90s/80s for me,-9,280,20","Gregory","Black and white contrast with color looks nice,15,220,20","Sean","my reaction is that the picture is wierd,-11,40,20","Hunter","reminds me of a dixie cup,3,240,20","3"
"15588","","survey-text","67","614016","0.0-65.0-0.0","A3EUH97BRHRSI6","","","","{""Q0"":""Creative painting""}","","","","","","","","","","","","","","","","","","","","","","",""
"6608","","image-slider-response","68","620628","0.0-66.0","A3EUH97BRHRSI6","","","","","19","","","","","","","","","","","","","","","","","","","","","",""
"4454","","image-button-response","69","625977","0.0-67.0","A3EUH97BRHRSI6","img_art/15.jpg","0","","","","","","","","","","","","","","","","","","","","","","","","",""
"1188","","image-button-response","70","627170","0.0-68.0","A3EUH97BRHRSI6","img_art/15.jpg","1","","","","","","","","","","","","","","","","","","","","","","","","",""
"2272","","image-button-response","71","629449","0.0-69.0-0.0","A3EUH97BRHRSI6","img_art/15.jpg","4","","","","","","","","","","","","","","","","","","","","","","","","",""
"1625","","image-button-response","72","631080","0.0-70.0-0.0","A3EUH97BRHRSI6","img_art/15.jpg","5","","","","","","","","","","","","","","","","","","","","","","","","",""
"null","","html-keyboard-response","73","631584","0.0-71.0","A3EUH97BRHRSI6","<p style=""font-size: 48px;"">+</p>","","","","","null","allTrialResponses","500","1","4","img_art/15.jpg","19","Creative painting","Shawn,Gregory,Sean,Gabriel,Hunter,Robert","Like the composition and lines,26,100,20","Black and blue is my favorite color combination,35,220,20","my response to the picture is that I dont know what I am looking at,-25,40,20","i kinda like this one but wouldnt buy it for myself,17,160,20","reminds me of birds in trees,14,240,20","This piece is too dark,-42,360,20","Gregory","Black and blue is my favorite color combination,35,220,20","Hunter","reminds me of birds in trees,14,240,20","Robert","This piece is too dark,-42,360,20","3"
"16279","","survey-text","74","647880","0.0-72.0-0.0","A3EUH97BRHRSI6","","","","{""Q0"":""something hiding""}","","","","","","","","","","","","","","","","","","","","","","",""
"4902","","image-slider-response","75","652787","0.0-73.0","A3EUH97BRHRSI6","","","","","14","","","","","","","","","","","","","","","","","","","","","",""
"4481","","image-button-response","76","657942","0.0-74.0","A3EUH97BRHRSI6","img_art/19.jpg","1","","","","","","","","","","","","","","","","","","","","","","","","",""
"1110","","image-button-response","77","659056","0.0-75.0","A3EUH97BRHRSI6","img_art/19.jpg","1","","","","","","","","","","","","","","","","","","","","","","","","",""
"1875","","image-button-response","78","660939","0.0-76.0-0.0","A3EUH97BRHRSI6","img_art/19.jpg","4","","","","","","","","","","","","","","","","","","","","","","","","",""
"825","","image-button-response","79","661771","0.0-77.0-0.0","A3EUH97BRHRSI6","img_art/19.jpg","5","","","","","","","","","","","","","","","","","","","","","","","","",""
"null","","html-keyboard-response","80","662793","0.0-78.0","A3EUH97BRHRSI6","<p style=""font-size: 48px;"">+</p>","","","","","null","allTrialResponses","1000","1","5","img_art/19.jpg","14","something hiding","Jeffrey,Gregory,Devin,Paul,Hunter,Robert","very lively and colourful,21,40,20","Looks like a busy port,10,220,20","Looks a bit too loose,-2,380,20","The shapes make me recall a city scene but it looks dirty,-22,300,20","feels free and loose,3,240,20","A dreary town in the fall.,-4,360,20","Gregory","Looks like a busy port,10,220,20","Hunter","feels free and loose,3,240,20","Robert","A dreary town in the fall.,-4,360,20","3"
"6654","","survey-text","81","669471","0.0-79.0-0.0","A3EUH97BRHRSI6","","","","{""Q0"":""sky""}","","","","","","","","","","","","","","","","","","","","","","",""
"19394","","survey-text","82","688869","0.0-80.0-0.0","A3EUH97BRHRSI6","","","","{""Q0"":""looking like child world""}","","","","","","","","","","","","","","","","","","","","","","",""
"5728","","image-slider-response","83","694602","0.0-81.0","A3EUH97BRHRSI6","","","","","18","","","","","","","","","","","","","","","","","","","","","",""
"null","","image-button-response","84","699610","0.0-82.0","A3EUH97BRHRSI6","img_art/16.jpg","null","","","","","","","","","","","","","","","","","","","","","","","","",""
"5405","","image-button-response","85","705021","0.0-83.0","A3EUH97BRHRSI6","img_art/16.jpg","1","","","","","","","","","","","","","","","","","","","","","","","","",""
"3144","","image-button-response","86","708171","0.0-84.0-0.0","A3EUH97BRHRSI6","img_art/16.jpg","4","","","","","","","","","","","","","","","","","","","","","","","","",""
"841","","image-button-response","87","709021","0.0-85.0-0.0","A3EUH97BRHRSI6","img_art/16.jpg","5","","","","","","","","","","","","","","","","","","","","","","","","",""
"null","","html-keyboard-response","88","710026","0.0-86.0","A3EUH97BRHRSI6","<p style=""font-size: 48px;"">+</p>","","","","","null","allTrialResponses","1000","1","6","img_art/16.jpg","18","looking like child world","Dalton,Gregory,Corey,Luke,Hunter,Robert","lol i dont know how i feel about this.,1,300,20","Weird and funny,40,220,20","i like how it incorporates mixed visual art with the photo of the bear and the drawings,30,260,20","while simple, it seems to have a deeper meaning on childhood,33,20,20","so close to feeling intentional,-4,240,20","It looks violent.,-30,360,20","Gregory","Weird and funny,40,220,20","Hunter","so close to feeling intentional,-4,240,20","Robert","It looks violent.,-30,360,20","3"
"31388","","survey-text","89","741427","0.0-87.0-0.0","A3EUH97BRHRSI6","","","","{""Q0"":""It was futuristic""}","","","","","","","","","","","","","","","","","","","","","","",""
"5181","","image-slider-response","90","746614","0.0-88.0","A3EUH97BRHRSI6","","","","","14","","","","","","","","","","","","","","","","","","","","","",""
"4619","","image-button-response","91","751741","0.0-89.0","A3EUH97BRHRSI6","img_art/28.jpg","4","","","","","","","","","","","","","","","","","","","","","","","","",""
"1753","","image-button-response","92","753500","0.0-90.0","A3EUH97BRHRSI6","img_art/28.jpg","4","","","","","","","","","","","","","","","","","","","","","","","","",""
"602","","image-button-response","93","754113","0.0-91.0-0.0","A3EUH97BRHRSI6","img_art/28.jpg","5","","","","","","","","","","","","","","","","","","","","","","","","",""
"1664","","image-button-response","94","755783","0.0-92.0-0.0","A3EUH97BRHRSI6","img_art/28.jpg","1","","","","","","","","","","","","","","","","","","","","","","","","",""
"null","","html-keyboard-response","95","756786","0.0-93.0","A3EUH97BRHRSI6","<p style=""font-size: 48px;"">+</p>","","","","","null","allTrialResponses","1000","1","7","img_art/28.jpg","14","It was futuristic","Aaron,Gregory,Adam,Chase,Hunter,Robert","It's drab and looks like stereotypical abstract art.,-30,20,20","Gloomy colors and picture,5,220,20","Dislike the colors.,-20,40,20","I don't like the washed out colors.,-15,120,20","reminds me of kandinsky,14,240,20","The colors are neutral but I see a mother helping her child,31,360,20","Hunter","reminds me of kandinsky,14,240,20","Robert","The colors are neutral but I see a mother helping her child,31,360,20","Gregory","Gloomy colors and picture,5,220,20","3"
"21403","","survey-text","96","778200","0.0-94.0-0.0","A3EUH97BRHRSI6","","","","{""Q0"":""looking like ocean""}","","","","","","","","","","","","","","","","","","","","","","",""
"7462","","image-slider-response","97","785665","0.0-95.0","A3EUH97BRHRSI6","","","","","13","","","","","","","","","","","","","","","","","","","","","",""
"3762","","image-button-response","98","790695","0.0-96.0","A3EUH97BRHRSI6","img_art/23.jpg","4","","","","","","","","","","","","","","","","","","","","","","","","",""
"1106","","image-button-response","99","791811","0.0-97.0","A3EUH97BRHRSI6","img_art/23.jpg","4","","","","","","","","","","","","","","","","","","","","","","","","",""
"1190","","image-button-response","100","793007","0.0-98.0-0.0","A3EUH97BRHRSI6","img_art/23.jpg","5","","","","","","","","","","","","","","","","","","","","","","","","",""
"1578","","image-button-response","101","794592","0.0-99.0-0.0","A3EUH97BRHRSI6","img_art/23.jpg","1","","","","","","","","","","","","","","","","","","","","","","","","",""
"null","","html-keyboard-response","102","795640","0.0-100.0","A3EUH97BRHRSI6","<p style=""font-size: 48px;"">+</p>","","","","","null","allTrialResponses","1000","1","8","img_art/23.jpg","13","looking like ocean","Nicholas,Gregory,Dylan,Stephen,Hunter,Robert","The more i look at it the more i like it  the dots of color and very interesting,50,240,20","Reminds me of outer space and the stars,30,220,20","This is my favorite of them all. I love the colors.,41,40,20","Solid colors but the white throws it off for me.,4,140,20","do not like color splatters or sharp silhouettes, feels tacky,-34,240,20","This makes me think of an orchestra playing a forth of july song,12,360,20","Hunter","do not like color splatters or sharp silhouettes, feels tacky,-34,240,20","Robert","This makes me think of an orchestra playing a forth of july song,12,360,20","Gregory","Reminds me of outer space and the stars,30,220,20","3"
"22190","","survey-text","103","817840","0.0-101.0-0.0","A3EUH97BRHRSI6","","","","{""Q0"":""creative falls""}","","","","","","","","","","","","","","","","","","","","","","",""
"5456","","image-slider-response","104","823300","0.0-102.0","A3EUH97BRHRSI6","","","","","21","","","","","","","","","","","","","","","","","","","","","",""
"3490","","image-button-response","105","828360","0.0-103.0","A3EUH97BRHRSI6","img_art/24.jpg","1","","","","","","","","","","","","","","","","","","","","","","","","",""
"613","","image-button-response","106","828979","0.0-104.0","A3EUH97BRHRSI6","img_art/24.jpg","1","","","","","","","","","","","","","","","","","","","","","","","","",""
"1654","","image-button-response","107","830641","0.0-105.0-0.0","A3EUH97BRHRSI6","img_art/24.jpg","4","","","","","","","","","","","","","","","","","","","","","","","","",""
"1984","","image-button-response","108","832630","0.0-106.0-0.0","A3EUH97BRHRSI6","img_art/24.jpg","5","","","","","","","","","","","","","","","","","","","","","","","","",""
"null","","html-keyboard-response","109","834133","0.0-107.0","A3EUH97BRHRSI6","<p style=""font-size: 48px;"">+</p>","","","","","null","allTrialResponses","1500","1","9","img_art/24.jpg","21","creative falls","Jordan,Gregory,Blake,Tyler,Hunter,Robert","Beautiful waterfall I like waterfalls,39,160,20","Beautiful waterfall with nice colors,40,220,20","warm spring day after a rain. soft,20,280,20","Exceedingly garish,-19,320,20","feels overdone, but still executed well,0,240,20","A beautiful waterfall in the springtime.,40,360,20","Gregory","Beautiful waterfall with nice colors,40,220,20","Hunter","feels overdone, but still executed well,0,240,20","Robert","A beautiful waterfall in the springtime.,40,360,20","3"
"27832","","survey-text","110","861992","0.0-108.0-0.0","A3EUH97BRHRSI6","","","","{""Q0"":""scientific world""}","","","","","","","","","","","","","","","","","","","","","","",""
"8038","","image-slider-response","111","870033","0.0-109.0","A3EUH97BRHRSI6","","","","","35","","","","","","","","","","","","","","","","","","","","","",""
"3047","","image-button-response","112","875042","0.0-110.0","A3EUH97BRHRSI6","img_art/20.jpg","2","","","","","","","","","","","","","","","","","","","","","","","","",""
"1332","","image-button-response","113","876379","0.0-111.0","A3EUH97BRHRSI6","img_art/20.jpg","1","","","","","","","","","","","","","","","","","","","","","","","","",""
"2181","","image-button-response","114","878566","0.0-112.0-0.0","A3EUH97BRHRSI6","img_art/20.jpg","2","","","","","","","","","","","","","","","","","","","","","","","","",""
"780","","image-button-response","115","879394","0.0-113.0-0.0","A3EUH97BRHRSI6","img_art/20.jpg","2","","","","","","","","","","","","","","","","","","","","","","","","",""
"1072","","image-button-response","116","886331","0.0-113.1-0.1","A3EUH97BRHRSI6","img_art/20.jpg","4","","","","","","","","","","","","","","","","","","","","","","","","",""
"null","","html-keyboard-response","117","886835","0.0-114.0","A3EUH97BRHRSI6","<p style=""font-size: 48px;"">+</p>","","","","","null","allTrialResponses","500","1","10","img_art/20.jpg","35","scientific world","Bryan,Gregory,Connor,Travis,Hunter,Robert","Reminds me of Georgia O'Keefe.,11,400,20","Looks like some type of future dystopian civilization,35,220,20","Dark frame overpowers the image,-6,240,20","I liked this...I liked the blue and the black and I liked the smoothness to it.,31,260,20","feels underdeveloped,-11,240,20","Looks like an old gold mining down now deserted.,11,360,20","Gregory","Looks like some type of future dystopian civilization,35,220,20","Connor","Dark frame overpowers the image,-6,240,20","Hunter","feels underdeveloped,-11,240,20","5"
"8117","","survey-text","118","894979","0.0-115.0-0.0","A3EUH97BRHRSI6","","","","{""Q0"":""our""}","","","","","","","","","","","","","","","","","","","","","","",""
"21662","","survey-text","119","916644","0.0-116.0-0.0","A3EUH97BRHRSI6","","","","{""Q0"":""Something colourfull""}","","","","","","","","","","","","","","","","","","","","","","",""
"8265","","image-slider-response","120","924924","0.0-117.0","A3EUH97BRHRSI6","","","","","30","","","","","","","","","","","","","","","","","","","","","",""
"3190","","image-button-response","121","929931","0.0-118.0","A3EUH97BRHRSI6","img_art/2.jpg","4","","","","","","","","","","","","","","","","","","","","","","","","",""
"779","","image-button-response","122","930715","0.0-119.0","A3EUH97BRHRSI6","img_art/2.jpg","4","","","","","","","","","","","","","","","","","","","","","","","","",""
"1187","","image-button-response","123","931908","0.0-120.0-0.0","A3EUH97BRHRSI6","img_art/2.jpg","5","","","","","","","","","","","","","","","","","","","","","","","","",""
"2072","","image-button-response","124","933987","0.0-121.0-0.0","A3EUH97BRHRSI6","img_art/2.jpg","0","","","","","","","","","","","","","","","","","","","","","","","","",""
"null","","html-keyboard-response","125","935490","0.0-122.0","A3EUH97BRHRSI6","<p style=""font-size: 48px;"">+</p>","","","","","null","allTrialResponses","1500","1","11","img_art/2.jpg","30","Something colourfull","Taylor,Gregory,Connor,Eric,Hunter,Joshua","Have now advanced from kindergarten to the first grade.,-5,200,20","Awful color coordination and design,-35,220,20","There is an odd face here that is creepy,-4,240,20","I like the color, but I feel like I see a creepy face which I dislike.,-5,100,20","appealing colors,4,240,20","Looks like child's art.,-19,240,20","Hunter","appealing colors,4,240,20","Joshua","Looks like child's art.,-19,240,20","Taylor","Have now advanced from kindergarten to the first grade.,-5,200,20","5"
"19420","","survey-text","126","954920","0.0-123.0-0.0","A3EUH97BRHRSI6","","","","{""Q0"":""horror world""}","","","","","","","","","","","","","","","","","","","","","","",""
"5259","","image-slider-response","127","960185","0.0-124.0","A3EUH97BRHRSI6","","","","","13","","","","","","","","","","","","","","","","","","","","","",""
"3020","","image-button-response","128","965195","0.0-125.0","A3EUH97BRHRSI6","img_art/18.jpg","1","","","","","","","","","","","","","","","","","","","","","","","","",""
"1893","","image-button-response","129","967093","0.0-126.0","A3EUH97BRHRSI6","img_art/18.jpg","1","","","","","","","","","","","","","","","","","","","","","","","","",""
"2772","","image-button-response","130","969869","0.0-127.0-0.0","A3EUH97BRHRSI6","img_art/18.jpg","2","","","","","","","","","","","","","","","","","","","","","","","","",""
"2851","","image-button-response","131","972723","0.0-128.0-0.0","A3EUH97BRHRSI6","img_art/18.jpg","2","","","","","","","","","","","","","","","","","","","","","","","","",""
"1295","","image-button-response","132","979472","0.0-128.1-0.1","A3EUH97BRHRSI6","img_art/18.jpg","4","","","","","","","","","","","","","","","","","","","","","","","","",""
"null","","html-keyboard-response","133","980477","0.0-129.0","A3EUH97BRHRSI6","<p style=""font-size: 48px;"">+</p>","","","","","null","allTrialResponses","1000","1","12","img_art/18.jpg","13","horror world","Taylor,Alejandro,Jason,Austin,Hunter,Joshua","Bad guys are after the good guy.,-10,200,20","I love this because abstractly depicts the apocalypse. The white horse and its rider as Death, described in religious texts and pop culture. ""He rode a pale horse and his name was death."",50,80,20","Umclear what is present in the picture,0,20,20","Nice abstract art,50,240,20","creamy color, feels like organized chaos,23,240,20","Looks like ghost figures on a boat. It's okay.,7,240,20","Alejandro","I love this because abstractly depicts the apocalypse. The white horse and its rider as Death, described in religious texts and pop culture. ""He rode a pale horse and his name was death."",50,80,20","Jason","Umclear what is present in the picture,0,20,20","Hunter","creamy color, feels like organized chaos,23,240,20","7"
"15725","","survey-text","134","996210","0.0-130.0-0.0","A3EUH97BRHRSI6","","","","{""Q0"":""Old painting""}","","","","","","","","","","","","","","","","","","","","","","",""
"7933","","image-slider-response","135","1004149","0.0-131.0","A3EUH97BRHRSI6","","","","","11","","","","","","","","","","","","","","","","","","","","","",""
"3074","","image-button-response","136","1009175","0.0-132.0","A3EUH97BRHRSI6","img_art/25.jpg","1","","","","","","","","","","","","","","","","","","","","","","","","",""
"1477","","image-button-response","137","1010656","0.0-133.0","A3EUH97BRHRSI6","img_art/25.jpg","1","","","","","","","","","","","","","","","","","","","","","","","","",""
"1352","","image-button-response","138","1012012","0.0-134.0-0.0","A3EUH97BRHRSI6","img_art/25.jpg","2","","","","","","","","","","","","","","","","","","","","","","","","",""
"1795","","image-button-response","139","1013814","0.0-135.0-0.0","A3EUH97BRHRSI6","img_art/25.jpg","4","","","","","","","","","","","","","","","","","","","","","","","","",""
"null","","html-keyboard-response","140","1014854","0.0-136.0","A3EUH97BRHRSI6","<p style=""font-size: 48px;"">+</p>","","","","","null","allTrialResponses","1000","1","13","img_art/25.jpg","11","Old painting","Angel,Alejandro,Jason,Anthony,Hunter,Seth","I feel uneasy. Like watching someone powerful ready to perform a ritual, but I don't know their intentions.,-10,180,20","Seems ritualistic and nativist,50,80,20","Love the simplicity and lines,20,20,20","Spooky, but in a good way. I like the green and black color palette.,42,200,20","do not like that color of green,-11,240,20","This piece feels cultural. Like it represents something culturally.,22,60,20","Alejandro","Seems ritualistic and nativist,50,80,20","Jason","Love the simplicity and lines,20,20,20","Hunter","do not like that color of green,-11,240,20","7"
"15519","","survey-text","141","1030381","0.0-137.0-0.0","A3EUH97BRHRSI6","","","","{""Q0"":""something colourfull""}","","","","","","","","","","","","","","","","","","","","","","",""
"6831","","image-slider-response","142","1037219","0.0-138.0","A3EUH97BRHRSI6","","","","","11","","","","","","","","","","","","","","","","","","","","","",""
"3319","","image-button-response","143","1042227","0.0-139.0","A3EUH97BRHRSI6","img_art/30.jpg","1","","","","","","","","","","","","","","","","","","","","","","","","",""
"1171","","image-button-response","144","1043406","0.0-140.0","A3EUH97BRHRSI6","img_art/30.jpg","1","","","","","","","","","","","","","","","","","","","","","","","","",""
"1443","","image-button-response","145","1044854","0.0-141.0-0.0","A3EUH97BRHRSI6","img_art/30.jpg","2","","","","","","","","","","","","","","","","","","","","","","","","",""
"3218","","image-button-response","146","1048077","0.0-142.0-0.0","A3EUH97BRHRSI6","img_art/30.jpg","0","","","","","","","","","","","","","","","","","","","","","","","","",""
"null","","html-keyboard-response","147","1048580","0.0-143.0","A3EUH97BRHRSI6","<p style=""font-size: 48px;"">+</p>","","","","","null","allTrialResponses","500","1","14","img_art/30.jpg","11","something colourfull","Devon,Alejandro,Jason,Steven,Hunter,Jake","the different roads to take in life,10,400,20","An interesting design but don't like the colors. I value the time and effort put into it, but not a huge fan.,10,80,20","Do not like the streaks,-14,20,20","cant see the meaning behind it,-20,160,20","muddy, feels unintentional,-50,240,20","This is just simple and ugly.,-2,360,20","Alejandro","An interesting design but don't like the colors. I value the time and effort put into it, but not a huge fan.,10,80,20","Jason","Do not like the streaks,-14,20,20","Devon","the different roads to take in life,10,400,20","7"
"23697","","survey-text","148","1072287","0.0-144.0-0.0","A3EUH97BRHRSI6","","","","{""Q0"":""Want to see tis place""}","","","","","","","","","","","","","","","","","","","","","","",""
"6901","","image-slider-response","149","1079194","0.0-145.0","A3EUH97BRHRSI6","","","","","22","","","","","","","","","","","","","","","","","","","","","",""
"3578","","image-button-response","150","1084263","0.0-146.0","A3EUH97BRHRSI6","img_art/11.jpg","1","","","","","","","","","","","","","","","","","","","","","","","","",""
"1412","","image-button-response","151","1085680","0.0-147.0","A3EUH97BRHRSI6","img_art/11.jpg","1","","","","","","","","","","","","","","","","","","","","","","","","",""
"2215","","image-button-response","152","1087900","0.0-148.0-0.0","A3EUH97BRHRSI6","img_art/11.jpg","2","","","","","","","","","","","","","","","","","","","","","","","","",""
"1567","","image-button-response","153","1089473","0.0-149.0-0.0","A3EUH97BRHRSI6","img_art/11.jpg","4","","","","","","","","","","","","","","","","","","","","","","","","",""
"null","","html-keyboard-response","154","1090978","0.0-150.0","A3EUH97BRHRSI6","<p style=""font-size: 48px;"">+</p>","","","","","null","allTrialResponses","1500","1","15","img_art/11.jpg","22","Want to see tis place","Devon,Alejandro,Jason,Justin,Adrian,Samuel","a beautiful piece of art,33,400,20","Enjoyed the lines representing different paths that encompass different entities,20,80,20","Interesting use of color,9,20,20","It reminds me of telephone wires.,1,280,20","Not a fan of the colors but it looks interesting.,-31,60,20","business of traffic,10,400,20","Alejandro","Enjoyed the lines representing different paths that encompass different entities,20,80,20","Jason","Interesting use of color,9,20,20","Adrian","Not a fan of the colors but it looks interesting.,-31,60,20","7"
"7345","","survey-text","155","1098361","0.0-151.0-0.0","A3EUH97BRHRSI6","","","","{""Q0"":""course""}","","","","","","","","","","","","","","","","","","","","","","",""
"16349","","survey-text","156","1114713","0.0-152.0-0.0","A3EUH97BRHRSI6","","","","{""Q0"":""colourfulworld""}","","","","","","","","","","","","","","","","","","","","","","",""
"5016","","image-slider-response","157","1119732","0.0-153.0","A3EUH97BRHRSI6","","","","","15","","","","","","","","","","","","","","","","","","","","","",""
"2348","","image-button-response","158","1124794","0.0-154.0","A3EUH97BRHRSI6","img_art/27.jpg","1","","","","","","","","","","","","","","","","","","","","","","","","",""
"1190","","image-button-response","159","1125988","0.0-155.0","A3EUH97BRHRSI6","img_art/27.jpg","1","","","","","","","","","","","","","","","","","","","","","","","","",""
"1738","","image-button-response","160","1127731","0.0-156.0-0.0","A3EUH97BRHRSI6","img_art/27.jpg","2","","","","","","","","","","","","","","","","","","","","","","","","",""
"1908","","image-button-response","161","1129644","0.0-157.0-0.0","A3EUH97BRHRSI6","img_art/27.jpg","4","","","","","","","","","","","","","","","","","","","","","","","","",""
"null","","html-keyboard-response","162","1131361","0.0-158.0","A3EUH97BRHRSI6","<p style=""font-size: 48px;"">+</p>","","","","","null","allTrialResponses","1500","1","16","img_art/27.jpg","15","colourfulworld","Ian,Alejandro,Jason,Vincent,Adrian,Andrew","I'm not a fan. It looks like something my nephews (1 and 2) would make,-8,260,20","Muddied and directionless. Like someone dragged a brush across the paper for the sake of doing something.,-50,80,20","The variation of orange is nice,9,20,20","A beautiful day full of Hope and Inspiritation. The warmth of hot cocoa with the family gathering around,33,360,20","Looks like my niece's doodles.,-50,60,20","Reminds me of a town on fire,-15,160,20","Alejandro","Muddied and directionless. Like someone dragged a brush across the paper for the sake of doing something.,-50,80,20","Jason","The variation of orange is nice,9,20,20","Adrian","Looks like my niece's doodles.,-50,60,20","7"
"25018","","survey-text","163","1156392","0.0-159.0-0.0","A3EUH97BRHRSI6","","","","{""Q0"":""Colurful forest""}","","","","","","","","","","","","","","","","","","","","","","",""
"4582","","image-slider-response","164","1160977","0.0-160.0","A3EUH97BRHRSI6","","","","","19","","","","","","","","","","","","","","","","","","","","","",""
"3086","","image-button-response","165","1165982","0.0-161.0","A3EUH97BRHRSI6","img_art/1.jpg","1","","","","","","","","","","","","","","","","","","","","","","","","",""
"1200","","image-button-response","166","1167188","0.0-162.0","A3EUH97BRHRSI6","img_art/1.jpg","1","","","","","","","","","","","","","","","","","","","","","","","","",""
"990","","image-button-response","167","1168184","0.0-163.0-0.0","A3EUH97BRHRSI6","img_art/1.jpg","2","","","","","","","","","","","","","","","","","","","","","","","","",""
"1888","","image-button-response","168","1170077","0.0-164.0-0.0","A3EUH97BRHRSI6","img_art/1.jpg","4","","","","","","","","","","","","","","","","","","","","","","","","",""
"null","","html-keyboard-response","169","1171867","0.0-165.0","A3EUH97BRHRSI6","<p style=""font-size: 48px;"">+</p>","","","","","null","allTrialResponses","1500","1","17","img_art/1.jpg","19","Colurful forest","Michael,Alejandro,Jason,Edward,Adrian,Shane","Just a mess though a better mess than some others.,-11,140,20","Interesting color scheme but to bled to me,11,80,20","Interesting blend of colors,9,20,20","That one piece in the middle gives it depth and it's really neat,21,60,20","Not a fan of the colors. Makes me think of the Australian bush fires.,-5,60,20","Warmth of the sun,22,80,20","Alejandro","Interesting color scheme but to bled to me,11,80,20","Jason","Interesting blend of colors,9,20,20","Adrian","Not a fan of the colors. Makes me think of the Australian bush fires.,-5,60,20","7"
"15689","","survey-text","170","1187567","0.0-166.0-0.0","A3EUH97BRHRSI6","","","","{""Q0"":""very cool place""}","","","","","","","","","","","","","","","","","","","","","","",""
"5516","","image-slider-response","171","1193092","0.0-167.0","A3EUH97BRHRSI6","","","","","49","","","","","","","","","","","","","","","","","","","","","",""
"2207","","image-button-response","172","1198100","0.0-168.0","A3EUH97BRHRSI6","img_art/17.jpg","1","","","","","","","","","","","","","","","","","","","","","","","","",""
"1089","","image-button-response","173","1199194","0.0-169.0","A3EUH97BRHRSI6","img_art/17.jpg","1","","","","","","","","","","","","","","","","","","","","","","","","",""
"1328","","image-button-response","174","1200528","0.0-170.0-0.0","A3EUH97BRHRSI6","img_art/17.jpg","2","","","","","","","","","","","","","","","","","","","","","","","","",""
"1896","","image-button-response","175","1202429","0.0-171.0-0.0","A3EUH97BRHRSI6","img_art/17.jpg","4","","","","","","","","","","","","","","","","","","","","","","","","",""
"null","","html-keyboard-response","176","1202931","0.0-172.0","A3EUH97BRHRSI6","<p style=""font-size: 48px;"">+</p>","","","","","null","allTrialResponses","500","1","18","img_art/17.jpg","49","very cool place","Mason,Alejandro,Jason,Jesse,Adrian,Brendan","Like this one, super creative, calming.,43,100,20","Embodies beauty and complexity and in simplicity as well,50,80,20","Very beautiful,19,20,20","Doesnt completely turn me off but wouldnt look twice,-3,80,20","Pretty composition and I like the colors.,20,60,20","colorful tree really cool,27,340,20","Alejandro","Embodies beauty and complexity and in simplicity as well,50,80,20","Jason","Very beautiful,19,20,20","Adrian","Pretty composition and I like the colors.,20,60,20","7"
"15946","","survey-text","177","1218890","0.0-173.0-0.0","A3EUH97BRHRSI6","","","","{""Q0"":""wonderful picture""}","","","","","","","","","","","","","","","","","","","","","","",""
"7480","","image-slider-response","178","1226375","0.0-174.0","A3EUH97BRHRSI6","","","","","38","","","","","","","","","","","","","","","","","","","","","",""
"2427","","image-button-response","179","1231397","0.0-175.0","A3EUH97BRHRSI6","img_art/21.jpg","1","","","","","","","","","","","","","","","","","","","","","","","","",""
"1104","","image-button-response","180","1232507","0.0-176.0","A3EUH97BRHRSI6","img_art/21.jpg","1","","","","","","","","","","","","","","","","","","","","","","","","",""
"905","","image-button-response","181","1233417","0.0-177.0-0.0","A3EUH97BRHRSI6","img_art/21.jpg","2","","","","","","","","","","","","","","","","","","","","","","","","",""
"1292","","image-button-response","182","1234718","0.0-178.0-0.0","A3EUH97BRHRSI6","img_art/21.jpg","4","","","","","","","","","","","","","","","","","","","","","","","","",""
"null","","html-keyboard-response","183","1235290","0.0-179.0","A3EUH97BRHRSI6","<p style=""font-size: 48px;"">+</p>","","","","","null","allTrialResponses","500","1","19","img_art/21.jpg","38","wonderful picture","Timothy,Alejandro,Jason,Malik,Adrian,Nathan","Very calming and soft, makes me feel good,31,240,20","Feels like a clash between land and sea,31,80,20","The division in the picture is pleasing but the random white dots are distracting,12,20,20","Indistinct, but beautiful hues,10,40,20","I like this piece more the more I look at. Still wouldn't want it in my home, though.,8,60,20","I like it. It's some of war-scene, bloodshed and battle on the left, field of dispair on the right, dark and rich,40,200,20","Alejandro","Feels like a clash between land and sea,31,80,20","Jason","The division in the picture is pleasing but the random white dots are distracting,12,20,20","Adrian","I like this piece more the more I look at. Still wouldn't want it in my home, though.,8,60,20","7"
"33276","","survey-text","184","1268581","0.0-180.0-0.0","A3EUH97BRHRSI6","","","","{""Q0"":""Not able to understand""}","","","","","","","","","","","","","","","","","","","","","","",""
"5020","","image-slider-response","185","1273607","0.0-181.0","A3EUH97BRHRSI6","","","","","32","","","","","","","","","","","","","","","","","","","","","",""
"3152","","image-button-response","186","1278669","0.0-182.0","A3EUH97BRHRSI6","img_art/10.jpg","1","","","","","","","","","","","","","","","","","","","","","","","","",""
"2290","","image-button-response","187","1281044","0.0-183.0","A3EUH97BRHRSI6","img_art/10.jpg","1","","","","","","","","","","","","","","","","","","","","","","","","",""
"1130","","image-button-response","188","1282180","0.0-184.0-0.0","A3EUH97BRHRSI6","img_art/10.jpg","2","","","","","","","","","","","","","","","","","","","","","","","","",""
"1612","","image-button-response","189","1283798","0.0-185.0-0.0","A3EUH97BRHRSI6","img_art/10.jpg","4","","","","","","","","","","","","","","","","","","","","","","","","",""
"null","","html-keyboard-response","190","1285302","0.0-186.0","A3EUH97BRHRSI6","<p style=""font-size: 48px;"">+</p>","","","","","null","allTrialResponses","1500","1","20","img_art/10.jpg","32","Not able to understand","Derek,Alejandro,Jason,Kenneth,Adrian,Jacob","Cute and has a vintage feel to it,45,360,20","The contrast between the messy dots/dabs vs the straight affluent lines is unappealing,-20,80,20","Picture looks smudged,-7,20,20","I cant tell what this is supposed to be, but I enjoy the simplicity of it.,28,300,20","Looks like a violin. Not a fan of the smudges and smears, but my initial reaction was positive.,11,60,20","I feel like this has a cool concept behind it.,11,340,20","Alejandro","The contrast between the messy dots/dabs vs the straight affluent lines is unappealing,-20,80,20","Jason","Picture looks smudged,-7,20,20","Adrian","Looks like a violin. Not a fan of the smudges and smears, but my initial reaction was positive.,11,60,20","7"
"5633","","survey-text","191","1290954","0.0-187.0-0.0","A3EUH97BRHRSI6","","","","{""Q0"":""we""}","","","","","","","","","","","","","","","","","","","","","","",""
"17702","","survey-text","192","1308660","0.0-188.0-0.0","A3EUH97BRHRSI6","","","","{""Q0"":""Not able to understand ""}","","","","","","","","","","","","","","","","","","","","","","",""
"5877","","image-slider-response","193","1314541","0.0-189.0","A3EUH97BRHRSI6","","","","","24","","","","","","","","","","","","","","","","","","","","","",""
"2894","","image-button-response","194","1319724","0.0-190.0","A3EUH97BRHRSI6","img_art/9.jpg","1","","","","","","","","","","","","","","","","","","","","","","","","",""
"625","","image-button-response","195","1320356","0.0-191.0","A3EUH97BRHRSI6","img_art/9.jpg","1","","","","","","","","","","","","","","","","","","","","","","","","",""
"1076","","image-button-response","196","1321437","0.0-192.0-0.0","A3EUH97BRHRSI6","img_art/9.jpg","2","","","","","","","","","","","","","","","","","","","","","","","","",""
"1770","","image-button-response","197","1323215","0.0-193.0-0.0","A3EUH97BRHRSI6","img_art/9.jpg","4","","","","","","","","","","","","","","","","","","","","","","","","",""
"null","","html-keyboard-response","198","1324720","0.0-194.0","A3EUH97BRHRSI6","<p style=""font-size: 48px;"">+</p>","","","","","null","allTrialResponses","1500","1","21","img_art/9.jpg","24","Not able to understand ","Daniel,Alejandro,Jason,Elijah,Adrian,Dustin","A troubled painter was influenced by anger and mad at the woman in the middle, color not bad,-32,320,20","Evokes triumph of a mountain over powering a drowning sea,24,80,20","Focal point is interesting,2,20,20","It's a mix of paint splash and scribbling,-33,80,20","Looks like my niece's doodles.,-50,60,20","I like the blues and pinks. The woman lying down communicates relaxation. It is a serene, calming scene,30,20,20","Alejandro","Evokes triumph of a mountain over powering a drowning sea,24,80,20","Jason","Focal point is interesting,2,20,20","Adrian","Looks like my niece's doodles.,-50,60,20","7"
"11379","","survey-text","199","1336122","0.0-195.0-0.0","A3EUH97BRHRSI6","","","","{""Q0"":""Cool place""}","","","","","","","","","","","","","","","","","","","","","","",""
"6717","","image-slider-response","200","1342845","0.0-196.0","A3EUH97BRHRSI6","","","","","33","","","","","","","","","","","","","","","","","","","","","",""
"2486","","image-button-response","201","1347854","0.0-197.0","A3EUH97BRHRSI6","img_art/26.jpg","1","","","","","","","","","","","","","","","","","","","","","","","","",""
"1240","","image-button-response","202","1349099","0.0-198.0","A3EUH97BRHRSI6","img_art/26.jpg","1","","","","","","","","","","","","","","","","","","","","","","","","",""
"1397","","image-button-response","203","1350500","0.0-199.0-0.0","A3EUH97BRHRSI6","img_art/26.jpg","2","","","","","","","","","","","","","","","","","","","","","","","","",""
"2401","","image-button-response","204","1352908","0.0-200.0-0.0","A3EUH97BRHRSI6","img_art/26.jpg","4","","","","","","","","","","","","","","","","","","","","","","","","",""
"null","","html-keyboard-response","205","1354413","0.0-201.0","A3EUH97BRHRSI6","<p style=""font-size: 48px;"">+</p>","","","","","null","allTrialResponses","1500","1","22","img_art/26.jpg","33","Cool place","Richard,Alejandro,Jason,Miguel,Adrian,James","subtle use of colors, city street view?,8,340,20","Do not like water colors at all,-50,80,20","The colors look faded and blurry,2,20,20","Murky, messy, kid like.,-45,160,20","I see a suburban neighborhood with townhouses and trees. Not a fan of the colors or style.,-16,60,20","This picture is ok; just a normal city,11,380,20","Alejandro","Do not like water colors at all,-50,80,20","Jason","The colors look faded and blurry,2,20,20","Adrian","I see a suburban neighborhood with townhouses and trees. Not a fan of the colors or style.,-16,60,20","7"
"12784","","survey-text","206","1367298","0.0-202.0-0.0","A3EUH97BRHRSI6","","","","{""Q0"":""It was creative""}","","","","","","","","","","","","","","","","","","","","","","",""
"5868","","image-slider-response","207","1373170","0.0-203.0","A3EUH97BRHRSI6","","","","","27","","","","","","","","","","","","","","","","","","","","","",""
"3268","","image-button-response","208","1378176","0.0-204.0","A3EUH97BRHRSI6","img_art/29.jpg","1","","","","","","","","","","","","","","","","","","","","","","","","",""
"1174","","image-button-response","209","1379357","0.0-205.0","A3EUH97BRHRSI6","img_art/29.jpg","1","","","","","","","","","","","","","","","","","","","","","","","","",""
"978","","image-button-response","210","1380342","0.0-206.0-0.0","A3EUH97BRHRSI6","img_art/29.jpg","2","","","","","","","","","","","","","","","","","","","","","","","","",""
"1523","","image-button-response","211","1381870","0.0-207.0-0.0","A3EUH97BRHRSI6","img_art/29.jpg","4","","","","","","","","","","","","","","","","","","","","","","","","",""
"null","","html-keyboard-response","212","1382429","0.0-208.0","A3EUH97BRHRSI6","<p style=""font-size: 48px;"">+</p>","","","","","null","allTrialResponses","500","1","23","img_art/29.jpg","27","It was creative","Kevin,Alejandro,Jason,Matthew,Adrian,David","Thats a pretty wierd picture.,6,320,20","Reminiscent of Jackson Pollock with a hint of abstract structure with the bordering.,32,80,20","I do not like the red x present in the picture,-6,20,20","It that an actual PAINTBUSH! Love it.,50,120,20","Again, ugly colors and I'm not a fan of abstract. This looks like the view into a garbage dump.,-50,60,20","Don't really like the red x. It gives the impression that this a discarded piece.,-10,340,20","Alejandro","Reminiscent of Jackson Pollock with a hint of abstract structure with the bordering.,32,80,20","Jason","I do not like the red x present in the picture,-6,20,20","Adrian","Again, ugly colors and I'm not a fan of abstract. This looks like the view into a garbage dump.,-50,60,20","7"
"22960","","survey-text","213","1405406","0.0-209.0-0.0","A3EUH97BRHRSI6","","","","{""Q0"":""Looking lik microworld""}","","","","","","","","","","","","","","","","","","","","","","",""
"5647","","image-slider-response","214","1411074","0.0-210.0","A3EUH97BRHRSI6","","","","","36","","","","","","","","","","","","","","","","","","","","","",""
"3019","","image-button-response","215","1416080","0.0-211.0","A3EUH97BRHRSI6","img_art/13.jpg","1","","","","","","","","","","","","","","","","","","","","","","","","",""
"1288","","image-button-response","216","1417376","0.0-212.0","A3EUH97BRHRSI6","img_art/13.jpg","1","","","","","","","","","","","","","","","","","","","","","","","","",""
"815","","image-button-response","217","1418196","0.0-213.0-0.0","A3EUH97BRHRSI6","img_art/13.jpg","2","","","","","","","","","","","","","","","","","","","","","","","","",""
"1714","","image-button-response","218","1419915","0.0-214.0-0.0","A3EUH97BRHRSI6","img_art/13.jpg","4","","","","","","","","","","","","","","","","","","","","","","","","",""
"null","","html-keyboard-response","219","1420489","0.0-215.0","A3EUH97BRHRSI6","<p style=""font-size: 48px;"">+</p>","","","","","null","allTrialResponses","500","1","24","img_art/13.jpg","36","Looking lik microworld","Spencer,Alejandro,Jason,Cameron,Adrian,Lucas","Like it a lot, reminds me of rainy day on glass,43,120,20","Reminiscent of Jackson Pollock and gives me a feeling of chaotic satisfaction,50,80,20","Like the color choices,7,20,20","Like the use of color, not a fan of the splatter,29,60,20","I find this oddly pleasant, but I object to this style. It's just a background with splatters. How is that art?,-5,60,20","Incredible, curious.,20,380,20","Alejandro","Reminiscent of Jackson Pollock and gives me a feeling of chaotic satisfaction,50,80,20","Jason","Like the color choices,7,20,20","Adrian","I find this oddly pleasant, but I object to this style. It's just a background with splatters. How is that art?,-5,60,20","7"
"18725","","survey-text","220","1439223","0.0-216.0-0.0","A3EUH97BRHRSI6","","","","{""Q0"":""creative world""}","","","","","","","","","","","","","","","","","","","","","","",""
"6578","","image-slider-response","221","1445805","0.0-217.0","A3EUH97BRHRSI6","","","","","29","","","","","","","","","","","","","","","","","","","","","",""
"3192","","image-button-response","222","1450967","0.0-218.0","A3EUH97BRHRSI6","img_art/3.jpg","1","","","","","","","","","","","","","","","","","","","","","","","","",""
"1907","","image-button-response","223","1452923","0.0-219.0","A3EUH97BRHRSI6","img_art/3.jpg","1","","","","","","","","","","","","","","","","","","","","","","","","",""
"1269","","image-button-response","224","1454198","0.0-220.0-0.0","A3EUH97BRHRSI6","img_art/3.jpg","2","","","","","","","","","","","","","","","","","","","","","","","","",""
"2142","","image-button-response","225","1456347","0.0-221.0-0.0","A3EUH97BRHRSI6","img_art/3.jpg","4","","","","","","","","","","","","","","","","","","","","","","","","",""
"null","","html-keyboard-response","226","1456849","0.0-222.0","A3EUH97BRHRSI6","<p style=""font-size: 48px;"">+</p>","","","","","null","allTrialResponses","500","1","25","img_art/3.jpg","29","creative world","Thomas,Alejandro,Jason,Christian,Adrian,Patrick","Too messy and structure-less,-10,220,20","I like the abstract flowing lines. It lacks hard rigid marks and flow nicely into a piece of calamity.,32,80,20","Too much red; very bland,-26,20,20","sorry do not understand,-26,140,20","Angry red crayons, like a child throwing a tantrum. No thanks.,-10,60,20","Random use of red and looks scary,-50,280,20","Alejandro","I like the abstract flowing lines. It lacks hard rigid marks and flow nicely into a piece of calamity.,32,80,20","Jason","Too much red; very bland,-26,20,20","Adrian","Angry red crayons, like a child throwing a tantrum. No thanks.,-10,60,20","7"
"10788","","survey-text","227","1467656","0.0-223.0-0.0","A3EUH97BRHRSI6","","","","{""Q0"":""table""}","","","","","","","","","","","","","","","","","","","","","","",""
"19556","","survey-text","228","1487216","0.0-224.0-0.0","A3EUH97BRHRSI6","","","","{""Q0"":""Childhood image""}","","","","","","","","","","","","","","","","","","","","","","",""
"6157","","image-slider-response","229","1493378","0.0-225.0","A3EUH97BRHRSI6","","","","","39","","","","","","","","","","","","","","","","","","","","","",""
"2970","","image-button-response","230","1498383","0.0-226.0","A3EUH97BRHRSI6","img_art/6.jpg","1","","","","","","","","","","","","","","","","","","","","","","","","",""
"1610","","image-button-response","231","1500000","0.0-227.0","A3EUH97BRHRSI6","img_art/6.jpg","1","","","","","","","","","","","","","","","","","","","","","","","","",""
"1558","","image-button-response","232","1501566","0.0-228.0-0.0","A3EUH97BRHRSI6","img_art/6.jpg","2","","","","","","","","","","","","","","","","","","","","","","","","",""
"1700","","image-button-response","233","1503274","0.0-229.0-0.0","A3EUH97BRHRSI6","img_art/6.jpg","4","","","","","","","","","","","","","","","","","","","","","","","","",""
"null","","html-keyboard-response","234","1503776","0.0-230.0","A3EUH97BRHRSI6","<p style=""font-size: 48px;"">+</p>","","","","","null","allTrialResponses","500","1","26","img_art/6.jpg","39","Childhood image","Jeremy,Alejandro,Jason,Juan,Adrian,Luis","Kind of boring. I don't care for many abstracts,1,60,20","Gives me a feeling of solitude and nothingness,11,80,20","I like the simplicity of the picture,30,20,20","I don't like the colors and the dark shape at the top makes me think of a buzzard.,-28,260,20","Simple, warm, hopeful.,12,60,20","I love the representation of death and life.,50,400,20","Alejandro","Gives me a feeling of solitude and nothingness,11,80,20","Jason","I like the simplicity of the picture,30,20,20","Adrian","Simple, warm, hopeful.,12,60,20","7"
"16664","","survey-text","235","1520458","0.0-231.0-0.0","A3EUH97BRHRSI6","","","","{""Q0"":""It was creative""}","","","","","","","","","","","","","","","","","","","","","","",""
"5707","","image-slider-response","236","1526169","0.0-232.0","A3EUH97BRHRSI6","","","","","27","","","","","","","","","","","","","","","","","","","","","",""
"2292","","image-button-response","237","1531180","0.0-233.0","A3EUH97BRHRSI6","img_art/4.jpg","1","","","","","","","","","","","","","","","","","","","","","","","","",""
"2449","","image-button-response","238","1533637","0.0-234.0","A3EUH97BRHRSI6","img_art/4.jpg","1","","","","","","","","","","","","","","","","","","","","","","","","",""
"791","","image-button-response","239","1534436","0.0-235.0-0.0","A3EUH97BRHRSI6","img_art/4.jpg","2","","","","","","","","","","","","","","","","","","","","","","","","",""
"1613","","image-button-response","240","1536057","0.0-236.0-0.0","A3EUH97BRHRSI6","img_art/4.jpg","4","","","","","","","","","","","","","","","","","","","","","","","","",""
"null","","html-keyboard-response","241","1537576","0.0-237.0","A3EUH97BRHRSI6","<p style=""font-size: 48px;"">+</p>","","","","","null","allTrialResponses","1500","1","27","img_art/4.jpg","27","It was creative","Garrett,Alejandro,Jason,Jack,Adrian,Grant","I think that this picture is too boring in terms of color and it looks ugly.,-41,180,20","Looks like finger nails from the Guinness world record book.,-30,80,20","I don't understand this at all,3,20,20","creepy, looks like a deformed hand, but the background is pretty,5,320,20","Looks like feces smeared on the canvas. I hate it.,-50,60,20","This elicits no reaction in me.,0,200,20","Alejandro","Looks like finger nails from the Guinness world record book.,-30,80,20","Jason","I don't understand this at all,3,20,20","Adrian","Looks like feces smeared on the canvas. I hate it.,-50,60,20","7"
"22166","","survey-text","242","1560043","0.0-238.0-0.0","A3EUH97BRHRSI6","","","","{""Q0"":""Not able to imagine""}","","","","","","","","","","","","","","","","","","","","","","",""
"10549","","image-slider-response","243","1570598","0.0-239.0","A3EUH97BRHRSI6","","","","","32","","","","","","","","","","","","","","","","","","","","","",""
"2617","","image-button-response","244","1575785","0.0-240.0","A3EUH97BRHRSI6","img_art/5.jpg","1","","","","","","","","","","","","","","","","","","","","","","","","",""
"1110","","image-button-response","245","1576901","0.0-241.0","A3EUH97BRHRSI6","img_art/5.jpg","1","","","","","","","","","","","","","","","","","","","","","","","","",""
"979","","image-button-response","246","1577887","0.0-242.0-0.0","A3EUH97BRHRSI6","img_art/5.jpg","2","","","","","","","","","","","","","","","","","","","","","","","","",""
"1711","","image-button-response","247","1579605","0.0-243.0-0.0","A3EUH97BRHRSI6","img_art/5.jpg","4","","","","","","","","","","","","","","","","","","","","","","","","",""
"null","","html-keyboard-response","248","1580112","0.0-244.0","A3EUH97BRHRSI6","<p style=""font-size: 48px;"">+</p>","","","","","null","allTrialResponses","500","1","28","img_art/5.jpg","32","Not able to imagine","Isaac,Alejandro,Jason,Mitchell,Adrian,Tristan","I'm not sure what is going on here.,-46,280,20","Confused as to what the artist is attempting to do.,-50,80,20","Wish the background had been kept clean; distracts from main object,11,20,20","Building remnants in the sand.,1,180,20","Black bit reminds me of a giant splinter. Yellow bit reminds me of urine. I hate it.,-50,60,20","Nearly white background gives a lack of context. Questionable skills,-45,300,20","Alejandro","Confused as to what the artist is attempting to do.,-50,80,20","Jason","Wish the background had been kept clean; distracts from main object,11,20,20","Adrian","Black bit reminds me of a giant splinter. Yellow bit reminds me of urine. I hate it.,-50,60,20","7"
"38129","","survey-text","249","1618261","0.0-245.0-0.0","A3EUH97BRHRSI6","","","","{""Q0"":""Not able hiding messege""}","","","","","","","","","","","","","","","","","","","","","","",""
"5439","","image-slider-response","250","1623704","0.0-246.0","A3EUH97BRHRSI6","","","","","28","","","","","","","","","","","","","","","","","","","","","",""
"4043","","image-button-response","251","1628708","0.0-247.0","A3EUH97BRHRSI6","img_art/14.jpg","1","","","","","","","","","","","","","","","","","","","","","","","","",""
"1901","","image-button-response","252","1630615","0.0-248.0","A3EUH97BRHRSI6","img_art/14.jpg","1","","","","","","","","","","","","","","","","","","","","","","","","",""
"2209","","image-button-response","253","1632827","0.0-249.0-0.0","A3EUH97BRHRSI6","img_art/14.jpg","4","","","","","","","","","","","","","","","","","","","","","","","","",""
"1501","","image-button-response","254","1634334","0.0-250.0-0.0","A3EUH97BRHRSI6","img_art/14.jpg","5","","","","","","","","","","","","","","","","","","","","","","","","",""
"null","","html-keyboard-response","255","1635854","0.0-251.0","A3EUH97BRHRSI6","<p style=""font-size: 48px;"">+</p>","","","","","null","allTrialResponses","1500","1","29","img_art/14.jpg","28","Not able hiding messege","Charles,Alejandro,Jason,Jonathan,Adrian,Logan","In some ways it looks natural, but I'm just not feeling it,0,100,20","It looks like a tree but the bleeding water colors lack borders and makes it hard to appreciate the message.,-41,80,20","Focal point is interesting,5,20,20","This reminds me of the Lion King somehow! Feels inspiring,30,140,20","Warm, positive, growth.,8,60,20","I dont really vibe with the grayish color palette,-7,360,20","Alejandro","It looks like a tree but the bleeding water colors lack borders and makes it hard to appreciate the message.,-41,80,20","Adrian","Warm, positive, growth.,8,60,20","Logan","I dont really vibe with the grayish color palette,-7,360,20","7"
"12937","","survey-text","256","1648805","0.0-252.0-0.0","A3EUH97BRHRSI6","","","","{""Q0"":""Looking like hot world""}","","","","","","","","","","","","","","","","","","","","","","",""
"5986","","image-slider-response","257","1654796","0.0-253.0","A3EUH97BRHRSI6","","","","","18","","","","","","","","","","","","","","","","","","","","","",""
"2300","","image-button-response","258","1659806","0.0-254.0","A3EUH97BRHRSI6","img_art/22.jpg","1","","","","","","","","","","","","","","","","","","","","","","","","",""
"1246","","image-button-response","259","1661059","0.0-255.0","A3EUH97BRHRSI6","img_art/22.jpg","1","","","","","","","","","","","","","","","","","","","","","","","","",""
"1259","","image-button-response","260","1662325","0.0-256.0-0.0","A3EUH97BRHRSI6","img_art/22.jpg","2","","","","","","","","","","","","","","","","","","","","","","","","",""
"1849","","image-button-response","261","1664180","0.0-257.0-0.0","A3EUH97BRHRSI6","img_art/22.jpg","4","","","","","","","","","","","","","","","","","","","","","","","","",""
"null","","html-keyboard-response","262","1664814","0.0-258.0","A3EUH97BRHRSI6","<p style=""font-size: 48px;"">+</p>","","","","","null","allTrialResponses","500","1","30","img_art/22.jpg","18","Looking like hot world","Brett,Alejandro,John,Evan,Adrian,Logan","Climate change in a big city,35,360,20","Beautiful use of chalk or pastels. Love the abstract nature.,35,80,20","Its okay,it doesnt make me feel any sort of strong emotion,1,120,20","I enjoy the vibrant colors,23,140,20","Too much contrasting colors makes me feel anxious. I don't like it.,-20,60,20","so boring. Wow you made some circles some squares very nice,-40,360,20","Alejandro","Beautiful use of chalk or pastels. Love the abstract nature.,35,80,20","John","Its okay,it doesnt make me feel any sort of strong emotion,1,120,20","Adrian","Too much contrasting colors makes me feel anxious. I don't like it.,-20,60,20","7"
"8115","","image-button-response_instructions","263","1672932","0.0-259.0","A3EUH97BRHRSI6","","0","instructions","","","","","","","","","","","","","","","","","","","","","","","",""
"3271","","image-button-response","264","1676220","0.0-260.0","A3EUH97BRHRSI6","","0","","","","","","","","","","","","","","","","","","","","","","","","",""
