"rt","url","trial_type","trial_index","time_elapsed","internal_node_id","participant_id","stimulus","button_pressed","Name","responses","response","key_press","variableName","fixationTime","condition","trial","photo","subjectRating","subjectResponse","agentsNames","agent_1_Response","agent_2_Response","agent_3_Response","agent_4_Response","agent_5_Response","agent_6_Response","kept_1_name","kept_1_response","kept_2_name","kept_2_response","kept_3_name","kept_3_response","errorCounter"
"4363","external_page_harvard.html","external-html","0","4439","0.0-0.0","A3EWR58W0SA885","","","","","","","","","","","","","","","","","","","","","","","","","","",""
"1429","","image-button-response","1","5870","0.0-1.0","A3EWR58W0SA885","","0","","","","","","","","","","","","","","","","","","","","","","","","",""
"1366","","image-button-response","2","7240","0.0-2.0-0.0","A3EWR58W0SA885","","1","phone","","","","","","","","","","","","","","","","","","","","","","","",""
"2114","","survey-text","3","9355","0.0-3.0-0.0","A3EWR58W0SA885","","","","{""Q0"":""A3EWR58W0SA885""}","","","","","","","","","","","","","","","","","","","","","","",""
"6232","","image-button-response_instructions","4","15589","0.0-4.0","A3EWR58W0SA885","","0","instructions","","","","","","","","","","","","","","","","","","","","","","","",""
"16420","","image-button-response_instructions","5","32010","0.0-5.0","A3EWR58W0SA885","img_art/ins/popularity/ins1.png","0","instructions","","","","","","","","","","","","","","","","","","","","","","","",""
"5554","","image-button-response_instructions","6","37565","0.0-6.0","A3EWR58W0SA885","img_art/ins/popularity/ins2.png","0","instructions","","","","","","","","","","","","","","","","","","","","","","","",""
"3241","","image-button-response_instructions","7","40808","0.0-7.0","A3EWR58W0SA885","img_art/ins/popularity/ins2Extreme.png","0","instructions","","","","","","","","","","","","","","","","","","","","","","","",""
"4445","","image-button-response_instructions","8","45254","0.0-8.0","A3EWR58W0SA885","img_art/ins/popularity/ins3KEEPpop.PNG","0","instructions","","","","","","","","","","","","","","","","","","","","","","","",""
"4655","","image-button-response_instructions","9","49909","0.0-9.0","A3EWR58W0SA885","img_art/ins/popularity/ins3ANamepop.PNG","0","instructions","","","","","","","","","","","","","","","","","","","","","","","",""
"2611","","image-button-response_instructions","10","52522","0.0-10.0","A3EWR58W0SA885","img_art/ins/popularity/ins3ARatingpop.png","0","instructions","","","","","","","","","","","","","","","","","","","","","","","",""
"3171","","image-button-response_instructions","11","55694","0.0-11.0","A3EWR58W0SA885","img_art/ins/popularity/ins3ATextpop.png","0","instructions","","","","","","","","","","","","","","","","","","","","","","","",""
"1659","","image-button-response_instructions","12","57354","0.0-12.0","A3EWR58W0SA885","img_art/ins/popularity/ins3ALikespop.png","0","instructions","","","","","","","","","","","","","","","","","","","","","","","",""
"5131","","image-button-response_instructions","13","62485","0.0-13.0","A3EWR58W0SA885","img_art/ins/popularity/ins3KEEPpop.PNG","0","instructions","","","","","","","","","","","","","","","","","","","","","","","",""
"3767","","image-button-response_instructions","14","66254","0.0-14.0","A3EWR58W0SA885","img_art/ins/popularity/ins3_5RED.png","0","instructions","","","","","","","","","","","","","","","","","","","","","","","",""
"1817","","image-button-response_instructions","15","68072","0.0-15.0","A3EWR58W0SA885","img_art/ins/popularity/ins3KEEPpop.PNG","0","instructions","","","","","","","","","","","","","","","","","","","","","","","",""
"1833","","image-button-response_instructions","16","69905","0.0-16.0","A3EWR58W0SA885","img_art/ins/popularity/ins4KEEPpop.PNG","0","instructions","","","","","","","","","","","","","","","","","","","","","","","",""
"2329","","image-button-response_instructions","17","72235","0.0-17.0","A3EWR58W0SA885","img_art/ins/popularity/ins5KEEPpop.PNG","0","instructions","","","","","","","","","","","","","","","","","","","","","","","",""
"1785","","image-button-response_instructions","18","74021","0.0-18.0","A3EWR58W0SA885","","0","instructions","","","","","","","","","","","","","","","","","","","","","","","",""
"5620","","survey-text","19","79663","0.0-19.0-0.0","A3EWR58W0SA885","","","","{""Q0"":""but""}","","","","","","","","","","","","","","","","","","","","","","",""
"11063","","survey-text","20","90727","0.0-20.0-0.0","A3EWR58W0SA885","","","","{""Q0"":""Messy, ordinary, but not hard to look at""}","","","","","","","","","","","","","","","","","","","","","","",""
"3532.2999999523163","","image-slider-response","21","94262","0.0-21.0","A3EWR58W0SA885","","","","","-11","","","","","","","","","","","","","","","","","","","","","",""
"null","","image-button-response","22","99265","0.0-22.0","A3EWR58W0SA885","img_art/ins/1.jpg","null","","","","","","","","","","","","","","","","","","","","","","","","",""
"6435","","image-button-response","23","105702","0.0-23.0","A3EWR58W0SA885","img_art/ins/1.jpg","5","","","","","","","","","","","","","","","","","","","","","","","","",""
"7622","","image-button-response","24","113326","0.0-24.0-0.0","A3EWR58W0SA885","img_art/ins/1.jpg","4","","","","","","","","","","","","","","","","","","","","","","","","",""
"2186","","image-button-response","25","115514","0.0-25.0-0.0","A3EWR58W0SA885","img_art/ins/1.jpg","1","","","","","","","","","","","","","","","","","","","","","","","","",""
"null","","html-keyboard-response","26","116016","0.0-26.0","A3EWR58W0SA885","<p style=""font-size: 48px;"">+</p>","","","","","null","allTrialResponses","500","1","-2","img_art/ins/1.jpg","-11","Messy, ordinary, but not hard to look at","Adam,Alex,Ben,Carl,Daniel,Jack","Seems like doodles,-20,20,20","very creative work.,36,40,20","This color reminds me of poo,-46,60,20","very calming artwork,42,80,20","It looks like a murder scene.,-48,100,20","I like the sophisticated brushwork,40,120,20","Jack","I like the sophisticated brushwork,40,120,20","Daniel","It looks like a murder scene.,-48,100,20","Alex","very creative work.,36,40,20","0"
"10024","","survey-text","27","126050","0.0-27.0-0.0","A3EWR58W0SA885","","","","{""Q0"":""Reminds me of something prehistoric; it has strong colors""}","","","","","","","","","","","","","","","","","","","","","","",""
"2656.7999999523163","","image-slider-response","28","128708","0.0-28.0","A3EWR58W0SA885","","","","","10","","","","","","","","","","","","","","","","","","","","","",""
"2540","","image-button-response","29","133711","0.0-29.0","A3EWR58W0SA885","img_art/ins/2.jpg","1","","","","","","","","","","","","","","","","","","","","","","","","",""
"4248","","image-button-response","30","137961","0.0-30.0","A3EWR58W0SA885","img_art/ins/2.jpg","1","","","","","","","","","","","","","","","","","","","","","","","","",""
"1620","","image-button-response","31","139583","0.0-31.0-0.0","A3EWR58W0SA885","img_art/ins/2.jpg","0","","","","","","","","","","","","","","","","","","","","","","","","",""
"1053","","image-button-response","32","140637","0.0-32.0-0.0","A3EWR58W0SA885","img_art/ins/2.jpg","0","","","","","","","","","","","","","","","","","","","","","","","","",""
"755","","image-button-response","33","144973","0.0-32.1-0.1","A3EWR58W0SA885","img_art/ins/2.jpg","0","","","","","","","","","","","","","","","","","","","","","","","","",""
"9442","","image-button-response","34","156611","0.0-32.2-0.2","A3EWR58W0SA885","img_art/ins/2.jpg","0","","","","","","","","","","","","","","","","","","","","","","","","",""
"1346","","image-button-response","35","160631","0.0-32.3-0.3","A3EWR58W0SA885","img_art/ins/2.jpg","2","","","","","","","","","","","","","","","","","","","","","","","","",""
"null","","html-keyboard-response","36","161133","0.0-33.0","A3EWR58W0SA885","<p style=""font-size: 48px;"">+</p>","","","","","null","allTrialResponses","500","1","-1","img_art/ins/2.jpg","10","Reminds me of something prehistoric; it has strong colors","John,Alex,Kyle,James,Daniel,Jack","love the texture of paint,48,160,20","I like the blocks of color arrangements,30,40,20","Idk, it is just annoying,-32,180,20","looks too angry,-50,140,20","One of my pet peevs,-48,100,20","I would never be able to compose a sophisticated pallete like this,48,120,20","Alex","I like the blocks of color arrangements,30,40,20","John","love the texture of paint,48,160,20","Kyle","Idk, it is just annoying,-32,180,20","6"
"22930","","survey-text","37","184067","0.0-34.0-0.0","A3EWR58W0SA885","","","","{""Q0"":""I do like the colors, makes me feel cold, like something trapped in an ice cube trying to get out""}","","","","","","","","","","","","","","","","","","","","","","",""
"2310.5","","image-slider-response","38","186378","0.0-35.0","A3EWR58W0SA885","","","","","11","","","","","","","","","","","","","","","","","","","","","",""
"null","","image-button-response","39","191381","0.0-36.0","A3EWR58W0SA885","img_art/ins/3.jpg","null","","","","","","","","","","","","","","","","","","","","","","","","",""
"1285","","image-button-response","40","192667","0.0-37.0","A3EWR58W0SA885","img_art/ins/3.jpg","3","","","","","","","","","","","","","","","","","","","","","","","","",""
"1302","","image-button-response","41","193971","0.0-38.0-0.0","A3EWR58W0SA885","img_art/ins/3.jpg","5","","","","","","","","","","","","","","","","","","","","","","","","",""
"2816","","image-button-response","42","196789","0.0-39.0-0.0","A3EWR58W0SA885","img_art/ins/3.jpg","1","","","","","","","","","","","","","","","","","","","","","","","","",""
"null","","html-keyboard-response","43","197792","0.0-40.0","A3EWR58W0SA885","<p style=""font-size: 48px;"">+</p>","","","","","null","allTrialResponses","1000","1","0","img_art/ins/3.jpg","11","I do like the colors, makes me feel cold, like something trapped in an ice cube trying to get out","John,Alex,Kyle,Mike,Ron,Sam","I like the overlapping of brushes,41,160,20","calming blue is very nice,36,40,20","It looks like a playground for bats,-36,180,20","enjoy the different shades of blue,22,200,20","It looks depressing,-26,220,20","I can feel a rainy day from this painting,18,240,20","Mike","enjoy the different shades of blue,22,200,20","Sam","I can feel a rainy day from this painting,18,240,20","Alex","calming blue is very nice,36,40,20","6"
"4396","","image-button-response_instructions","44","202195","0.0-41.0","A3EWR58W0SA885","","0","instructions","","","","","","","","","","","","","","","","","","","","","","","",""
"8480","","survey-likert","45","210677","0.0-42.0-0.0","A3EWR58W0SA885","","","","{""Q0"":"""",""Q1"":0,""Q2"":1}","","","","","","","","","","","","","","","","","","","","","","",""
"3245","","survey-text","46","213927","0.0-43.0-0.0","A3EWR58W0SA885","","","","{""Q0"":""rock""}","","","","","","","","","","","","","","","","","","","","","","",""
"10795","","survey-text","47","224723","0.0-44.0-0.0","A3EWR58W0SA885","","","","{""Q0"":""It's reminding me of McDonald's french fries""}","","","","","","","","","","","","","","","","","","","","","","",""
"2374.600000143051","","image-slider-response","48","227098","0.0-45.0","A3EWR58W0SA885","","","","","-16","","","","","","","","","","","","","","","","","","","","","",""
"null","","image-button-response","49","232128","0.0-46.0","A3EWR58W0SA885","img_art/4.jpg","null","","","","","","","","","","","","","","","","","","","","","","","","",""
"2626","","image-button-response","50","234755","0.0-47.0","A3EWR58W0SA885","img_art/4.jpg","3","","","","","","","","","","","","","","","","","","","","","","","","",""
"3280","","image-button-response","51","238037","0.0-48.0-0.0","A3EWR58W0SA885","img_art/4.jpg","4","","","","","","","","","","","","","","","","","","","","","","","","",""
"4288","","image-button-response","52","242327","0.0-49.0-0.0","A3EWR58W0SA885","img_art/4.jpg","4","","","","","","","","","","","","","","","","","","","","","","","","",""
"580","","image-button-response","53","245166","0.0-49.1-0.1","A3EWR58W0SA885","img_art/4.jpg","1","","","","","","","","","","","","","","","","","","","","","","","","",""
"null","","html-keyboard-response","54","246667","0.0-50.0","A3EWR58W0SA885","<p style=""font-size: 48px;"">+</p>","","","","","null","allTrialResponses","1500","1","1","img_art/4.jpg","-16","It's reminding me of McDonald's french fries","Jared,Alex,Chase,Joshua,Seth,Hunter","it looks like a deformed hand,-9,400,20","Looks like more paint smearing but at least there is structure,-5,100,20","It looks like smeared poop.,-27,120,20","looks very rudimentary and too simple.,-14,240,20","Odd but intriguing. I feel emotion from this. Like a woman bent over carrying these emotions on her back.,33,60,20","appealing warm palette,6,240,20","Joshua","looks very rudimentary and too simple.,-14,240,20","Seth","Odd but intriguing. I feel emotion from this. Like a woman bent over carrying these emotions on her back.,33,60,20","Alex","Looks like more paint smearing but at least there is structure,-5,100,20","8"
"29552","","survey-text","55","276221","0.0-51.0-0.0","A3EWR58W0SA885","","","","{""Q0"":""I like the colors and the shapes let you kind of make of it what you will""}","","","","","","","","","","","","","","","","","","","","","","",""
"2405.899999856949","","image-slider-response","56","278628","0.0-52.0","A3EWR58W0SA885","","","","","27","","","","","","","","","","","","","","","","","","","","","",""
"null","","image-button-response","57","283630","0.0-53.0","A3EWR58W0SA885","img_art/15.jpg","null","","","","","","","","","","","","","","","","","","","","","","","","",""
"6394","","image-button-response","58","290025","0.0-54.0","A3EWR58W0SA885","img_art/15.jpg","3","","","","","","","","","","","","","","","","","","","","","","","","",""
"2406","","image-button-response","59","292432","0.0-55.0-0.0","A3EWR58W0SA885","img_art/15.jpg","1","","","","","","","","","","","","","","","","","","","","","","","","",""
"3232","","image-button-response","60","295666","0.0-56.0-0.0","A3EWR58W0SA885","img_art/15.jpg","4","","","","","","","","","","","","","","","","","","","","","","","","",""
"null","","html-keyboard-response","61","296168","0.0-57.0","A3EWR58W0SA885","<p style=""font-size: 48px;"">+</p>","","","","","null","allTrialResponses","500","1","2","img_art/15.jpg","27","I like the colors and the shapes let you kind of make of it what you will","Eric,Alex,Patrick,Joshua,Seth,Nicholas","This picture is too confusing for me. I wouldn't want to stare at it to figure it out.,-10,100,20","Interesting to look at but I don't appreciate the abstraction,2,100,20","I don't like the black dots,-19,280,20","Like this for the colors and arrangement.,11,240,20","There should be more space between the black marks. The black comes off harsh and the blue between the trees can barely be seen.,-21,60,20","Not interesting enough. Boring,-37,240,20","Joshua","Like this for the colors and arrangement.,11,240,20","Alex","Interesting to look at but I don't appreciate the abstraction,2,100,20","Seth","There should be more space between the black marks. The black comes off harsh and the blue between the trees can barely be seen.,-21,60,20","8"
"16854","","survey-text","62","313026","0.0-58.0-0.0","A3EWR58W0SA885","","","","{""Q0"":""Seems like two paintings at once, little interesting things here and there to look at""}","","","","","","","","","","","","","","","","","","","","","","",""
"2162.100000143051","","image-slider-response","63","315189","0.0-59.0","A3EWR58W0SA885","","","","","6","","","","","","","","","","","","","","","","","","","","","",""
"null","","image-button-response","64","320191","0.0-60.0","A3EWR58W0SA885","img_art/28.jpg","null","","","","","","","","","","","","","","","","","","","","","","","","",""
"3785","","image-button-response","65","323980","0.0-61.0","A3EWR58W0SA885","img_art/28.jpg","4","","","","","","","","","","","","","","","","","","","","","","","","",""
"2162","","image-button-response","66","326144","0.0-62.0-0.0","A3EWR58W0SA885","img_art/28.jpg","5","","","","","","","","","","","","","","","","","","","","","","","","",""
"5584","","image-button-response","67","331729","0.0-63.0-0.0","A3EWR58W0SA885","img_art/28.jpg","1","","","","","","","","","","","","","","","","","","","","","","","","",""
"null","","html-keyboard-response","68","332733","0.0-64.0","A3EWR58W0SA885","<p style=""font-size: 48px;"">+</p>","","","","","null","allTrialResponses","1000","1","3","img_art/28.jpg","6","Seems like two paintings at once, little interesting things here and there to look at","Anthony,Alex,Jesse,Joshua,Seth,Matthew","This picture doesn't really stand out to me,1,200,20","This piece is depressing to me, reminds me of German paintings,-6,100,20","Just all blurs together for me. No substance.,-23,80,20","The colors are drab and a little depressing.,-20,240,20","I think this piece is interesting. I love the faces drawn into it.,29,60,20","Normally don't react well to abstract art, but it looks almost like something's there.,28,120,20","Seth","I think this piece is interesting. I love the faces drawn into it.,29,60,20","Matthew","Normally don't react well to abstract art, but it looks almost like something's there.,28,120,20","Alex","This piece is depressing to me, reminds me of German paintings,-6,100,20","8"
"17881","","survey-text","69","350617","0.0-65.0-0.0","A3EWR58W0SA885","","","","{""Q0"":""Almost seems like a train or something coming down the line""}","","","","","","","","","","","","","","","","","","","","","","",""
"2358.5","","image-slider-response","70","352977","0.0-66.0","A3EWR58W0SA885","","","","","24","","","","","","","","","","","","","","","","","","","","","",""
"null","","image-button-response","71","357980","0.0-67.0","A3EWR58W0SA885","img_art/5.jpg","null","","","","","","","","","","","","","","","","","","","","","","","","",""
"1701","","image-button-response","72","359683","0.0-68.0","A3EWR58W0SA885","img_art/5.jpg","5","","","","","","","","","","","","","","","","","","","","","","","","",""
"1463","","image-button-response","73","361147","0.0-69.0-0.0","A3EWR58W0SA885","img_art/5.jpg","0","","","","","","","","","","","","","","","","","","","","","","","","",""
"8127","","image-button-response","74","369276","0.0-70.0-0.0","A3EWR58W0SA885","img_art/5.jpg","4","","","","","","","","","","","","","","","","","","","","","","","","",""
"null","","html-keyboard-response","75","370778","0.0-71.0","A3EWR58W0SA885","<p style=""font-size: 48px;"">+</p>","","","","","null","allTrialResponses","1500","1","4","img_art/5.jpg","24","Almost seems like a train or something coming down the line","Sean,Alex,Stephen,Blake,Seth,Matthew","the picture looks ok,8,40,20","What is this? It looks like no effort was put into this work,-2,100,20","Very little going on.,-4,140,20","puke yellow with nothing but sadness,-35,280,20","I didn't care for this art piece. I wasn't sure about the color choice.,-15,60,20","I like the simple shapes and colors.,23,120,20","Matthew","I like the simple shapes and colors.,23,120,20","Sean","the picture looks ok,8,40,20","Seth","I didn't care for this art piece. I wasn't sure about the color choice.,-15,60,20","8"
"19287","","survey-text","76","390067","0.0-72.0-0.0","A3EWR58W0SA885","","","","{""Q0"":""Seems like a painting that's dissolving into place; interesting small structure""}","","","","","","","","","","","","","","","","","","","","","","",""
"2162.7999999523163","","image-slider-response","77","392231","0.0-73.0","A3EWR58W0SA885","","","","","14","","","","","","","","","","","","","","","","","","","","","",""
"4651","","image-button-response","78","397234","0.0-74.0","A3EWR58W0SA885","img_art/14.jpg","3","","","","","","","","","","","","","","","","","","","","","","","","",""
"1440","","image-button-response","79","398677","0.0-75.0","A3EWR58W0SA885","img_art/14.jpg","3","","","","","","","","","","","","","","","","","","","","","","","","",""
"5671","","image-button-response","80","404350","0.0-76.0-0.0","A3EWR58W0SA885","img_art/14.jpg","1","","","","","","","","","","","","","","","","","","","","","","","","",""
"863","","image-button-response","81","405215","0.0-77.0-0.0","A3EWR58W0SA885","img_art/14.jpg","4","","","","","","","","","","","","","","","","","","","","","","","","",""
"null","","html-keyboard-response","82","406716","0.0-78.0","A3EWR58W0SA885","<p style=""font-size: 48px;"">+</p>","","","","","null","allTrialResponses","1500","1","5","img_art/14.jpg","14","Seems like a painting that's dissolving into place; interesting small structure","Sean,David,Cody,Dylan,Seth,Matthew","my reaction is that the picture is wierd,-14,40,20","I like how balanced the piece is with its symmetrical design.,20,340,20","Don't love it.,-10,180,20","Pretty, dainty, unique,22,40,20","This piece feels inviting. It's like opening up the pages of your favorite book for the first time.,26,60,20","I like the color tone, it's kind of disturbing.,35,120,20","Dylan","Pretty, dainty, unique,22,40,20","David","I like how balanced the piece is with its symmetrical design.,20,340,20","Seth","This piece feels inviting. It's like opening up the pages of your favorite book for the first time.,26,60,20","8"
"4247","","survey-text","83","410967","0.0-79.0-0.0","A3EWR58W0SA885","","","","{""Q0"":""sky""}","","","","","","","","","","","","","","","","","","","","","","",""
"19958","","survey-text","84","430926","0.0-80.0-0.0","A3EWR58W0SA885","","","","{""Q0"":""Very composed, and faded in a cool way, easy on the eyes""}","","","","","","","","","","","","","","","","","","","","","","",""
"2202.899999856949","","image-slider-response","85","433130","0.0-81.0","A3EWR58W0SA885","","","","","4","","","","","","","","","","","","","","","","","","","","","",""
"null","","image-button-response","86","438133","0.0-82.0","A3EWR58W0SA885","img_art/10.jpg","null","","","","","","","","","","","","","","","","","","","","","","","","",""
"9425","","image-button-response","87","447561","0.0-83.0","A3EWR58W0SA885","img_art/10.jpg","3","","","","","","","","","","","","","","","","","","","","","","","","",""
"2272","","image-button-response","88","449835","0.0-84.0-0.0","A3EWR58W0SA885","img_art/10.jpg","4","","","","","","","","","","","","","","","","","","","","","","","","",""
"3632","","image-button-response","89","453469","0.0-85.0-0.0","A3EWR58W0SA885","img_art/10.jpg","2","","","","","","","","","","","","","","","","","","","","","","","","",""
"null","","html-keyboard-response","90","454970","0.0-86.0","A3EWR58W0SA885","<p style=""font-size: 48px;"">+</p>","","","","","null","allTrialResponses","1500","1","6","img_art/10.jpg","4","Very composed, and faded in a cool way, easy on the eyes","Shane,David,Kyle,Dylan,Seth,Christian","Like a decision making process,46,80,20","I can't really tell what this is suppose to represent, but overall I don't like the design.,-20,340,20","It's okay but not giving me the strongest reaction,6,340,20","The longer I looked at this, the more I liked it,33,40,20","It reminds me of the ocean. Almost like a battlefield, but on the water.,19,60,20","gives a sense of a roller coaster unit splashed in water. it's not but i love it nevertheless,44,140,20","Dylan","The longer I looked at this, the more I liked it,33,40,20","Seth","It reminds me of the ocean. Almost like a battlefield, but on the water.,19,60,20","Kyle","It's okay but not giving me the strongest reaction,6,340,20","8"
"15196","","survey-text","91","470168","0.0-87.0-0.0","A3EWR58W0SA885","","","","{""Q0"":""Beautiful colors, gives a nice feeling of nature, but ordinary in a way""}","","","","","","","","","","","","","","","","","","","","","","",""
"2216.7000000476837","","image-slider-response","92","472386","0.0-88.0","A3EWR58W0SA885","","","","","1","","","","","","","","","","","","","","","","","","","","","",""
"3201","","image-button-response","93","477388","0.0-89.0","A3EWR58W0SA885","img_art/24.jpg","1","","","","","","","","","","","","","","","","","","","","","","","","",""
"1213","","image-button-response","94","478603","0.0-90.0","A3EWR58W0SA885","img_art/24.jpg","1","","","","","","","","","","","","","","","","","","","","","","","","",""
"7804","","image-button-response","95","486408","0.0-91.0-0.0","A3EWR58W0SA885","img_art/24.jpg","2","","","","","","","","","","","","","","","","","","","","","","","","",""
"689","","image-button-response","96","487100","0.0-92.0-0.0","A3EWR58W0SA885","img_art/24.jpg","0","","","","","","","","","","","","","","","","","","","","","","","","",""
"null","","html-keyboard-response","97","488102","0.0-93.0","A3EWR58W0SA885","<p style=""font-size: 48px;"">+</p>","","","","","null","allTrialResponses","1000","1","7","img_art/24.jpg","1","Beautiful colors, gives a nice feeling of nature, but ordinary in a way","Robert,Luis,Kyle,Dylan,Seth,Carlos","A beautiful waterfall in the springtime.,40,360,20","Love the natural vibe,50,400,20","This one is nice because it reminds me of nature,18,340,20","This reminds me of a creek or a river. It puts me a peace,42,40,20","This is stunning. I love how the brown, red and oranges are blended in together.,40,60,20","It is like a really bad impressionist painting.,-40,80,20","Luis","Love the natural vibe,50,400,20","Kyle","This one is nice because it reminds me of nature,18,340,20","Robert","A beautiful waterfall in the springtime.,40,360,20","8"
"22864","","survey-text","98","510972","0.0-94.0-0.0","A3EWR58W0SA885","","","","{""Q0"":""Unique but in an approachable, not trying-too-hard kind of way""}","","","","","","","","","","","","","","","","","","","","","","",""
"2154.5999999046326","","image-slider-response","99","513128","0.0-95.0","A3EWR58W0SA885","","","","","5","","","","","","","","","","","","","","","","","","","","","",""
"null","","image-button-response","100","518130","0.0-96.0","A3EWR58W0SA885","img_art/19.jpg","null","","","","","","","","","","","","","","","","","","","","","","","","",""
"844","","image-button-response","101","518976","0.0-97.0","A3EWR58W0SA885","img_art/19.jpg","0","","","","","","","","","","","","","","","","","","","","","","","","",""
"7558","","image-button-response","102","526536","0.0-98.0-0.0","A3EWR58W0SA885","img_art/19.jpg","5","","","","","","","","","","","","","","","","","","","","","","","","",""
"2005","","image-button-response","103","528544","0.0-99.0-0.0","A3EWR58W0SA885","img_art/19.jpg","2","","","","","","","","","","","","","","","","","","","","","","","","",""
"null","","html-keyboard-response","104","529046","0.0-100.0","A3EWR58W0SA885","<p style=""font-size: 48px;"">+</p>","","","","","null","allTrialResponses","500","1","8","img_art/19.jpg","5","Unique but in an approachable, not trying-too-hard kind of way","Robert,Luis,Kyle,Jonathan,Nathan,Ian","A dreary town in the fall.,-4,360,20","Gives a very open and freeing vibe,42,400,20","Just stirred a negative reaction. Don't really like it perhaps because of the structure?,-8,340,20","Feels like something I would hang in my dining room,42,140,20","It looks like as if it were portraying a village that was polluted? I don't like the theme anyway,-21,200,20","It looks cool but at the time looks like it was done by a talented 5 year old.,13,260,20","Robert","A dreary town in the fall.,-4,360,20","Ian","It looks cool but at the time looks like it was done by a talented 5 year old.,13,260,20","Kyle","Just stirred a negative reaction. Don't really like it perhaps because of the structure?,-8,340,20","8"
"19487","","survey-text","105","548540","0.0-101.0-0.0","A3EWR58W0SA885","","","","{""Q0"":""Interesting celebratory color and structure, but a little too loud for me""}","","","","","","","","","","","","","","","","","","","","","","",""
"2083.5","","image-slider-response","106","550625","0.0-102.0","A3EWR58W0SA885","","","","","-14","","","","","","","","","","","","","","","","","","","","","",""
"null","","image-button-response","107","555634","0.0-103.0","A3EWR58W0SA885","img_art/23.jpg","null","","","","","","","","","","","","","","","","","","","","","","","","",""
"4800","","image-button-response","108","560438","0.0-104.0","A3EWR58W0SA885","img_art/23.jpg","0","","","","","","","","","","","","","","","","","","","","","","","","",""
"4900","","image-button-response","109","565340","0.0-105.0-0.0","A3EWR58W0SA885","img_art/23.jpg","5","","","","","","","","","","","","","","","","","","","","","","","","",""
"3753","","image-button-response","110","569094","0.0-106.0-0.0","A3EWR58W0SA885","img_art/23.jpg","2","","","","","","","","","","","","","","","","","","","","","","","","",""
"null","","html-keyboard-response","111","569597","0.0-107.0","A3EWR58W0SA885","<p style=""font-size: 48px;"">+</p>","","","","","null","allTrialResponses","500","1","9","img_art/23.jpg","-14","Interesting celebratory color and structure, but a little too loud for me","Robert,Tanner,Kyle,Malik,Devon,Ian","This makes me think of an orchestra playing a forth of july song,12,360,20","fsiries, happy, spiritual,16,180,20","Mostly neutral but a bit too guady with the brash colors,-6,340,20","Very intense and unique,3,40,20","i cannot breath in this,-10,400,20","It's very colorful and different, the white looks like people dancing,26,260,20","Robert","This makes me think of an orchestra playing a forth of july song,12,360,20","Ian","It's very colorful and different, the white looks like people dancing,26,260,20","Kyle","Mostly neutral but a bit too guady with the brash colors,-6,340,20","8"
"15214","","survey-text","112","584822","0.0-108.0-0.0","A3EWR58W0SA885","","","","{""Q0"":""This is a very unique painting, awesome colors, looks like two styles at once""}","","","","","","","","","","","","","","","","","","","","","","",""
"1328.9000000953674","","image-slider-response","113","586152","0.0-109.0","A3EWR58W0SA885","","","","","34","","","","","","","","","","","","","","","","","","","","","",""
"null","","image-button-response","114","591155","0.0-110.0","A3EWR58W0SA885","img_art/18.jpg","null","","","","","","","","","","","","","","","","","","","","","","","","",""
"1532","","image-button-response","115","592690","0.0-111.0","A3EWR58W0SA885","img_art/18.jpg","4","","","","","","","","","","","","","","","","","","","","","","","","",""
"5200","","image-button-response","116","597892","0.0-112.0-0.0","A3EWR58W0SA885","img_art/18.jpg","5","","","","","","","","","","","","","","","","","","","","","","","","",""
"430","","image-button-response","117","598324","0.0-113.0-0.0","A3EWR58W0SA885","img_art/18.jpg","3","","","","","","","","","","","","","","","","","","","","","","","","",""
"null","","html-keyboard-response","118","598825","0.0-114.0","A3EWR58W0SA885","<p style=""font-size: 48px;"">+</p>","","","","","null","allTrialResponses","500","1","10","img_art/18.jpg","34","This is a very unique painting, awesome colors, looks like two styles at once","Robert,Dustin,Kyle,Marcus,Daniel,Ian","It made me think of a car crash,-39,360,20","Looks messy. Reminds me of a battle or war. I have an unpleasant feeling the more I look.,-20,20,20","I feel indifferent about this one,0,340,20","like the grays and contrast of the yellow. This piece feels a bit angry,10,60,20","Nice palette with complexity becoming nice at the center,34,320,20","This one raises some questions, there could be some sort of fight or battle going on.,11,260,20","Daniel","Nice palette with complexity becoming nice at the center,34,320,20","Ian","This one raises some questions, there could be some sort of fight or battle going on.,11,260,20","Marcus","like the grays and contrast of the yellow. This piece feels a bit angry,10,60,20","8"
"2886","","survey-text","119","601716","0.0-115.0-0.0","A3EWR58W0SA885","","","","{""Q0"":""our""}","","","","","","","","","","","","","","","","","","","","","","",""
"15525","","survey-text","120","617241","0.0-116.0-0.0","A3EWR58W0SA885","","","","{""Q0"":""While not hard to look at, it feels a little uninspired and simplistic""}","","","","","","","","","","","","","","","","","","","","","","",""
"1825.1000001430511","","image-slider-response","121","619067","0.0-117.0","A3EWR58W0SA885","","","","","-11","","","","","","","","","","","","","","","","","","","","","",""
"null","","image-button-response","122","624069","0.0-118.0","A3EWR58W0SA885","img_art/13.jpg","null","","","","","","","","","","","","","","","","","","","","","","","","",""
"1977","","image-button-response","123","626047","0.0-119.0","A3EWR58W0SA885","img_art/13.jpg","3","","","","","","","","","","","","","","","","","","","","","","","","",""
"2343","","image-button-response","124","628391","0.0-120.0-0.0","A3EWR58W0SA885","img_art/13.jpg","4","","","","","","","","","","","","","","","","","","","","","","","","",""
"2163","","image-button-response","125","630555","0.0-121.0-0.0","A3EWR58W0SA885","img_art/13.jpg","5","","","","","","","","","","","","","","","","","","","","","","","","",""
"null","","html-keyboard-response","126","632058","0.0-122.0","A3EWR58W0SA885","<p style=""font-size: 48px;"">+</p>","","","","","null","allTrialResponses","1500","1","11","img_art/13.jpg","-11","While not hard to look at, it feels a little uninspired and simplistic","Brendan,Brandon,Brett,Marcus,Daniel,Ian","its crazy to the point that i cant get it,-28,340,20","Simple, but pleasing. The blue gradient is a favorite of mine,32,320,20","Very abstract and soothing,40,360,20","It's okay. Feels like a blander take on a Jackson Pollack,11,60,20","Average overly symmetrical safe,-26,320,20","This looks like something that could be made off of windows paint, not a huge fan.,-30,260,20","Marcus","It's okay. Feels like a blander take on a Jackson Pollack,11,60,20","Daniel","Average overly symmetrical safe,-26,320,20","Ian","This looks like something that could be made off of windows paint, not a huge fan.,-30,260,20","8"
"19177","","survey-text","127","651247","0.0-123.0-0.0","A3EWR58W0SA885","","","","{""Q0"":""Bordering on child-like but adult at the same time, but still not enough going on""}","","","","","","","","","","","","","","","","","","","","","","",""
"2541.0999999046326","","image-slider-response","128","653789","0.0-124.0","A3EWR58W0SA885","","","","","-7","","","","","","","","","","","","","","","","","","","","","",""
"4319","","image-button-response","129","658791","0.0-125.0","A3EWR58W0SA885","img_art/26.jpg","1","","","","","","","","","","","","","","","","","","","","","","","","",""
"733","","image-button-response","130","659525","0.0-126.0","A3EWR58W0SA885","img_art/26.jpg","1","","","","","","","","","","","","","","","","","","","","","","","","",""
"3849","","image-button-response","131","663375","0.0-127.0-0.0","A3EWR58W0SA885","img_art/26.jpg","3","","","","","","","","","","","","","","","","","","","","","","","","",""
"2420","","image-button-response","132","665797","0.0-128.0-0.0","A3EWR58W0SA885","img_art/26.jpg","4","","","","","","","","","","","","","","","","","","","","","","","","",""
"null","","html-keyboard-response","133","666299","0.0-129.0","A3EWR58W0SA885","<p style=""font-size: 48px;"">+</p>","","","","","null","allTrialResponses","500","1","12","img_art/26.jpg","-7","Bordering on child-like but adult at the same time, but still not enough going on","Garrett,Connor,Benjamin,Marcus,Daniel,Ian","I like that it looks like an actual picture and isn't just random colors.,25,180,20","City scene in a park,23,240,20","The colors are muted.,1,260,20","Nice, but not very interesting. I do like the blue tree though.,6,60,20","Washed out suburban scene with childish tones.,-24,320,20","This seems pretty and sweet, it's something I would like to actually see.,31,260,20","Connor","City scene in a park,23,240,20","Marcus","Nice, but not very interesting. I do like the blue tree though.,6,60,20","Daniel","Washed out suburban scene with childish tones.,-24,320,20","8"
"12386","","survey-text","134","678689","0.0-130.0-0.0","A3EWR58W0SA885","","","","{""Q0"":""A little too avante garde for me""}","","","","","","","","","","","","","","","","","","","","","","",""
"1997.5","","image-slider-response","135","680688","0.0-131.0","A3EWR58W0SA885","","","","","-27","","","","","","","","","","","","","","","","","","","","","",""
"null","","image-button-response","136","685690","0.0-132.0","A3EWR58W0SA885","img_art/29.jpg","null","","","","","","","","","","","","","","","","","","","","","","","","",""
"174","","image-button-response","137","685865","0.0-133.0","A3EWR58W0SA885","img_art/29.jpg","2","","","","","","","","","","","","","","","","","","","","","","","","",""
"7742","","image-button-response","138","693609","0.0-134.0-0.0","A3EWR58W0SA885","img_art/29.jpg","5","","","","","","","","","","","","","","","","","","","","","","","","",""
"4075","","image-button-response","139","697685","0.0-135.0-0.0","A3EWR58W0SA885","img_art/29.jpg","0","","","","","","","","","","","","","","","","","","","","","","","","",""
"null","","html-keyboard-response","140","698187","0.0-136.0","A3EWR58W0SA885","<p style=""font-size: 48px;"">+</p>","","","","","null","allTrialResponses","500","1","13","img_art/29.jpg","-27","A little too avante garde for me","Mitchell,Connor,Jorge,Marcus,Daniel,Jack","death, darkness, negative picture,-31,180,20","Red X is scary, like the bricks,7,240,20","makes me feel busy and unorganized,4,180,20","I would like this piece better without the red X across it,-10,60,20","Pinball meets a dark dream meets whale alien, drab,13,320,20","risks well taken. the brush is hilarious. feels like an artist's frustration, which is relatable.,50,320,20","Jorge","makes me feel busy and unorganized,4,180,20","Jack","risks well taken. the brush is hilarious. feels like an artist's frustration, which is relatable.,50,320,20","Mitchell","death, darkness, negative picture,-31,180,20","8"
"33937","","survey-text","141","732131","0.0-137.0-0.0","A3EWR58W0SA885","","","","{""Q0"":""Pretty modern, but feels like the artist is trying too hard to be edgy""}","","","","","","","","","","","","","","","","","","","","","","",""
"2303.2000000476837","","image-slider-response","142","734436","0.0-138.0","A3EWR58W0SA885","","","","","-29","","","","","","","","","","","","","","","","","","","","","",""
"null","","image-button-response","143","739438","0.0-139.0","A3EWR58W0SA885","img_art/16.jpg","null","","","","","","","","","","","","","","","","","","","","","","","","",""
"5507","","image-button-response","144","744948","0.0-140.0","A3EWR58W0SA885","img_art/16.jpg","5","","","","","","","","","","","","","","","","","","","","","","","","",""
"1534","","image-button-response","145","746484","0.0-141.0-0.0","A3EWR58W0SA885","img_art/16.jpg","0","","","","","","","","","","","","","","","","","","","","","","","","",""
"650","","image-button-response","146","747136","0.0-142.0-0.0","A3EWR58W0SA885","img_art/16.jpg","1","","","","","","","","","","","","","","","","","","","","","","","","",""
"null","","html-keyboard-response","147","748637","0.0-143.0","A3EWR58W0SA885","<p style=""font-size: 48px;"">+</p>","","","","","null","allTrialResponses","1500","1","14","img_art/16.jpg","-29","Pretty modern, but feels like the artist is trying too hard to be edgy","Mitchell,Edward,Jorge,Trevor,Peter,Jack","A teddybear, gun, crying person does not give a happy reaction. Death, still, no life.,-50,180,20","It feels lazily done,-9,60,20","Dreamy and chaotic,-9,180,20","very creepy with a bear and a gun,-50,280,20","It's a little unsettling,2,320,20","very bizarre and confusing, but that feels purposeful, so i don't completely hate it.,-25,320,20","Jack","very bizarre and confusing, but that feels purposeful, so i don't completely hate it.,-25,320,20","Mitchell","A teddybear, gun, crying person does not give a happy reaction. Death, still, no life.,-50,180,20","Edward","It feels lazily done,-9,60,20","8"
"12515","","survey-text","148","761159","0.0-144.0-0.0","A3EWR58W0SA885","","","","{""Q0"":""I like the warm tones, like the reflection of a lake""}","","","","","","","","","","","","","","","","","","","","","","",""
"2839.2000000476837","","image-slider-response","149","764000","0.0-145.0","A3EWR58W0SA885","","","","","4","","","","","","","","","","","","","","","","","","","","","",""
"null","","image-button-response","150","769002","0.0-146.0","A3EWR58W0SA885","img_art/22.jpg","null","","","","","","","","","","","","","","","","","","","","","","","","",""
"9228","","image-button-response","151","778234","0.0-147.0","A3EWR58W0SA885","img_art/22.jpg","2","","","","","","","","","","","","","","","","","","","","","","","","",""
"8110","","image-button-response","152","786346","0.0-148.0-0.0","A3EWR58W0SA885","img_art/22.jpg","1","","","","","","","","","","","","","","","","","","","","","","","","",""
"1226","","image-button-response","153","787574","0.0-149.0-0.0","A3EWR58W0SA885","img_art/22.jpg","5","","","","","","","","","","","","","","","","","","","","","","","","",""
"null","","html-keyboard-response","154","788575","0.0-150.0","A3EWR58W0SA885","<p style=""font-size: 48px;"">+</p>","","","","","null","allTrialResponses","1000","1","15","img_art/22.jpg","4","I like the warm tones, like the reflection of a lake","Mitchell,Edward,Dalton,Jordan,Miguel,Jack","Scary monsters lurking causing confusion.,-40,180,20","I like the use of primary colors in an interesting way,29,60,20","i think its pretty but im not sure what i see,1,300,20","The colors are too dark, too much red,2,160,20","Same az the last one?,-49,160,20","beautiful. love the bright colors & soft brush strokes, and the imprint of the key is genius.,50,320,20","Dalton","i think its pretty but im not sure what i see,1,300,20","Edward","I like the use of primary colors in an interesting way,29,60,20","Jack","beautiful. love the bright colors & soft brush strokes, and the imprint of the key is genius.,50,320,20","8"
"3502","","survey-text","155","792082","0.0-151.0-0.0","A3EWR58W0SA885","","","","{""Q0"":""course""}","","","","","","","","","","","","","","","","","","","","","","",""
"14617","","survey-text","156","806700","0.0-152.0-0.0","A3EWR58W0SA885","","","","{""Q0"":""Warm colors, reminds me of fall, but seems a little uncoordinated/messy""}","","","","","","","","","","","","","","","","","","","","","","",""
"2790.600000143051","","image-slider-response","157","809492","0.0-153.0","A3EWR58W0SA885","","","","","2","","","","","","","","","","","","","","","","","","","","","",""
"null","","image-button-response","158","814494","0.0-154.0","A3EWR58W0SA885","img_art/1.jpg","null","","","","","","","","","","","","","","","","","","","","","","","","",""
"3146","","image-button-response","159","817644","0.0-155.0","A3EWR58W0SA885","img_art/1.jpg","4","","","","","","","","","","","","","","","","","","","","","","","","",""
"792","","image-button-response","160","818438","0.0-156.0-0.0","A3EWR58W0SA885","img_art/1.jpg","5","","","","","","","","","","","","","","","","","","","","","","","","",""
"7342","","image-button-response","161","825781","0.0-157.0-0.0","A3EWR58W0SA885","img_art/1.jpg","1","","","","","","","","","","","","","","","","","","","","","","","","",""
"null","","html-keyboard-response","162","827283","0.0-158.0","A3EWR58W0SA885","<p style=""font-size: 48px;"">+</p>","","","","","null","allTrialResponses","1500","1","16","img_art/1.jpg","2","Warm colors, reminds me of fall, but seems a little uncoordinated/messy","Paul,Edward,Dalton,Gregory,Samuel,Jack","I like the yellow and purple but the large red spot reminds me of blood and isn't great,6,300,20","That one piece in the middle gives it depth and it's really neat,21,60,20","the colors are vibrant and beautiful,1,300,20","Looks like just a bunch of colors with no real point,-5,220,20","feels like there is meaning,9,400,20","beautiful colors and brush strokes,47,320,20","Samuel","feels like there is meaning,9,400,20","Jack","beautiful colors and brush strokes,47,320,20","Edward","That one piece in the middle gives it depth and it's really neat,21,60,20","8"
"12074","","survey-text","163","839360","0.0-159.0-0.0","A3EWR58W0SA885","","","","{""Q0"":""I get a good feeling of texture, but am otherwise bored""}","","","","","","","","","","","","","","","","","","","","","","",""
"2122.5","","image-slider-response","164","841484","0.0-160.0","A3EWR58W0SA885","","","","","-24","","","","","","","","","","","","","","","","","","","","","",""
"null","","image-button-response","165","846486","0.0-161.0","A3EWR58W0SA885","img_art/7.jpg","null","","","","","","","","","","","","","","","","","","","","","","","","",""
"2362","","image-button-response","166","848849","0.0-162.0","A3EWR58W0SA885","img_art/7.jpg","4","","","","","","","","","","","","","","","","","","","","","","","","",""
"1202","","image-button-response","167","850053","0.0-163.0-0.0","A3EWR58W0SA885","img_art/7.jpg","5","","","","","","","","","","","","","","","","","","","","","","","","",""
"4970","","image-button-response","168","855025","0.0-164.0-0.0","A3EWR58W0SA885","img_art/7.jpg","2","","","","","","","","","","","","","","","","","","","","","","","","",""
"null","","html-keyboard-response","169","856027","0.0-165.0","A3EWR58W0SA885","<p style=""font-size: 48px;"">+</p>","","","","","null","allTrialResponses","1000","1","17","img_art/7.jpg","-24","I get a good feeling of texture, but am otherwise bored","Bryan,Edward,Adrian,Cameron,Samuel,Jack","Makes me itch - looks like a closeup of an ant colony or something.,-1,400,20","It looks like maybe some seeds?,14,60,20","It's dirty. I don't mind the colors so much as the way they are put together in this dirty-looking pattern.,-41,60,20","tracks in dirt?,-15,60,20","looking down on earth,19,400,20","reminds me of a desert from far above,23,320,20","Samuel","looking down on earth,19,400,20","Jack","reminds me of a desert from far above,23,320,20","Adrian","It's dirty. I don't mind the colors so much as the way they are put together in this dirty-looking pattern.,-41,60,20","8"
"15448","","survey-text","170","871483","0.0-166.0-0.0","A3EWR58W0SA885","","","","{""Q0"":""Interesting use of colors and composition, entertaining to the eye""}","","","","","","","","","","","","","","","","","","","","","","",""
"2208.9000000953674","","image-slider-response","171","873693","0.0-167.0","A3EWR58W0SA885","","","","","3","","","","","","","","","","","","","","","","","","","","","",""
"null","","image-button-response","172","878696","0.0-168.0","A3EWR58W0SA885","img_art/11.jpg","null","","","","","","","","","","","","","","","","","","","","","","","","",""
"4979","","image-button-response","173","883679","0.0-169.0","A3EWR58W0SA885","img_art/11.jpg","4","","","","","","","","","","","","","","","","","","","","","","","","",""
"2594","","image-button-response","174","886275","0.0-170.0-0.0","A3EWR58W0SA885","img_art/11.jpg","5","","","","","","","","","","","","","","","","","","","","","","","","",""
"2824","","image-button-response","175","889101","0.0-171.0-0.0","A3EWR58W0SA885","img_art/11.jpg","1","","","","","","","","","","","","","","","","","","","","","","","","",""
"null","","html-keyboard-response","176","890603","0.0-172.0","A3EWR58W0SA885","<p style=""font-size: 48px;"">+</p>","","","","","null","allTrialResponses","1500","1","18","img_art/11.jpg","3","Interesting use of colors and composition, entertaining to the eye","Bradley,William,Adrian,Jesus,Samuel,Jack","WOW!  I love how the ships and the seas become one in this piece.,50,300,20","reminds me of a rainy day in the city,32,380,20","Not a fan of the colors but it looks interesting.,-31,60,20","The different textures and colors make this pleasing to look at.,30,100,20","business of traffic,10,400,20","makes me think of city highways & bridges on a rainy, foggy day. I like the melancholy it evokes.,43,320,20","Samuel","business of traffic,10,400,20","Jack","makes me think of city highways & bridges on a rainy, foggy day. I like the melancholy it evokes.,43,320,20","William","reminds me of a rainy day in the city,32,380,20","8"
"20984","","survey-text","177","911593","0.0-173.0-0.0","A3EWR58W0SA885","","","","{""Q0"":""Lots of things for the eye to be entertained with, seems like a few paintings stitched together""}","","","","","","","","","","","","","","","","","","","","","","",""
"1911.3999998569489","","image-slider-response","178","913506","0.0-174.0","A3EWR58W0SA885","","","","","18","","","","","","","","","","","","","","","","","","","","","",""
"2452","","image-button-response","179","918509","0.0-175.0","A3EWR58W0SA885","img_art/8.jpg","0","","","","","","","","","","","","","","","","","","","","","","","","",""
"541","","image-button-response","180","919051","0.0-176.0","A3EWR58W0SA885","img_art/8.jpg","0","","","","","","","","","","","","","","","","","","","","","","","","",""
"5310","","image-button-response","181","924363","0.0-177.0-0.0","A3EWR58W0SA885","img_art/8.jpg","4","","","","","","","","","","","","","","","","","","","","","","","","",""
"1391","","image-button-response","182","925755","0.0-178.0-0.0","A3EWR58W0SA885","img_art/8.jpg","5","","","","","","","","","","","","","","","","","","","","","","","","",""
"null","","html-keyboard-response","183","926257","0.0-179.0","A3EWR58W0SA885","<p style=""font-size: 48px;"">+</p>","","","","","null","allTrialResponses","500","1","19","img_art/8.jpg","18","Lots of things for the eye to be entertained with, seems like a few paintings stitched together","Gabriel,William,Nathaniel,Elijah,Samuel,Jack","i like all the different faces,19,160,20","makes me think of a busy city,-18,380,20","Not a fan of abstract looking pieces with too many focal points. The tunnel and face, for example,-31,220,20","Makes me feel nice,23,80,20","being watched over,17,400,20","beautiful colors & details. love the surrealism & strange angle. the faces are interesting.,50,320,20","Gabriel","i like all the different faces,19,160,20","Samuel","being watched over,17,400,20","Jack","beautiful colors & details. love the surrealism & strange angle. the faces are interesting.,50,320,20","8"
"16208","","survey-text","184","942469","0.0-180.0-0.0","A3EWR58W0SA885","","","","{""Q0"":""More of a straightforward painting, but beautiful and easy to look at""}","","","","","","","","","","","","","","","","","","","","","","",""
"2154.7000000476837","","image-slider-response","185","944625","0.0-181.0","A3EWR58W0SA885","","","","","34","","","","","","","","","","","","","","","","","","","","","",""
"3171","","image-button-response","186","949628","0.0-182.0","A3EWR58W0SA885","img_art/17.jpg","1","","","","","","","","","","","","","","","","","","","","","","","","",""
"1629","","image-button-response","187","951259","0.0-183.0","A3EWR58W0SA885","img_art/17.jpg","1","","","","","","","","","","","","","","","","","","","","","","","","",""
"2272","","image-button-response","188","953533","0.0-184.0-0.0","A3EWR58W0SA885","img_art/17.jpg","3","","","","","","","","","","","","","","","","","","","","","","","","",""
"2361","","image-button-response","189","955895","0.0-185.0-0.0","A3EWR58W0SA885","img_art/17.jpg","5","","","","","","","","","","","","","","","","","","","","","","","","",""
"null","","html-keyboard-response","190","956397","0.0-186.0","A3EWR58W0SA885","<p style=""font-size: 48px;"">+</p>","","","","","null","allTrialResponses","500","1","20","img_art/17.jpg","34","More of a straightforward painting, but beautiful and easy to look at","Gabriel,Jacob,Timothy,Caleb,Samuel,Jack","this ones alright,10,160,20","The way they painted the trees is so cool.,27,340,20","This feels like creativity and limitlessness,30,240,20","Not even abstract to me, very clear meaning.,44,40,20","muted tones brings me down,-13,400,20","stunning. makes me feel happy, hopeful, serene, and a little wistful.,50,320,20","Jacob","The way they painted the trees is so cool.,27,340,20","Caleb","Not even abstract to me, very clear meaning.,44,40,20","Jack","stunning. makes me feel happy, hopeful, serene, and a little wistful.,50,320,20","8"
"1757","","survey-text","191","958161","0.0-187.0-0.0","A3EWR58W0SA885","","","","{""Q0"":""we""}","","","","","","","","","","","","","","","","","","","","","","",""
"169174","","survey-text","192","1127335","0.0-188.0-0.0","A3EWR58W0SA885","","","","{""Q0"":""Not ugly, but not inspiring""}","","","","","","","","","","","","","","","","","","","","","","",""
"2388.9000000953674","","image-slider-response","193","1129725","0.0-189.0","A3EWR58W0SA885","","","","","-15","","","","","","","","","","","","","","","","","","","","","",""
"4407","","image-button-response","194","1134727","0.0-190.0","A3EWR58W0SA885","img_art/30.jpg","1","","","","","","","","","","","","","","","","","","","","","","","","",""
"671","","image-button-response","195","1135400","0.0-191.0","A3EWR58W0SA885","img_art/30.jpg","1","","","","","","","","","","","","","","","","","","","","","","","","",""
"873","","image-button-response","196","1136274","0.0-192.0-0.0","A3EWR58W0SA885","img_art/30.jpg","3","","","","","","","","","","","","","","","","","","","","","","","","",""
"1594","","image-button-response","197","1137870","0.0-193.0-0.0","A3EWR58W0SA885","img_art/30.jpg","5","","","","","","","","","","","","","","","","","","","","","","","","",""
"null","","html-keyboard-response","198","1138371","0.0-194.0","A3EWR58W0SA885","<p style=""font-size: 48px;"">+</p>","","","","","null","allTrialResponses","500","1","21","img_art/30.jpg","-15","Not ugly, but not inspiring","Corey,Jacob,Devin,Caleb,Alexander,Jack","I dont like the colors whatsoever,-15,260,20","Looks cool , but no meaning,1,340,20","A bit haphazard looking and lacking in vision,2,380,20","Colors are nice but it just seems too simple.,-26,40,20","Sleek eel in the abstract ocean.,30,120,20","love the movement of the brush strokes. very interesting piece.,38,320,20","Jacob","Looks cool , but no meaning,1,340,20","Caleb","Colors are nice but it just seems too simple.,-26,40,20","Jack","love the movement of the brush strokes. very interesting piece.,38,320,20","8"
"21044","","survey-text","199","1159419","0.0-195.0-0.0","A3EWR58W0SA885","","","","{""Q0"":""Seems like one too many ideas going on""}","","","","","","","","","","","","","","","","","","","","","","",""
"2060.7000000476837","","image-slider-response","200","1161481","0.0-196.0","A3EWR58W0SA885","","","","","-3","","","","","","","","","","","","","","","","","","","","","",""
"2473","","image-button-response","201","1166484","0.0-197.0","A3EWR58W0SA885","img_art/27.jpg","1","","","","","","","","","","","","","","","","","","","","","","","","",""
"1029","","image-button-response","202","1167516","0.0-198.0","A3EWR58W0SA885","img_art/27.jpg","1","","","","","","","","","","","","","","","","","","","","","","","","",""
"7831","","image-button-response","203","1175349","0.0-199.0-0.0","A3EWR58W0SA885","img_art/27.jpg","5","","","","","","","","","","","","","","","","","","","","","","","","",""
"398","","image-button-response","204","1175749","0.0-200.0-0.0","A3EWR58W0SA885","img_art/27.jpg","4","","","","","","","","","","","","","","","","","","","","","","","","",""
"null","","html-keyboard-response","205","1176749","0.0-201.0","A3EWR58W0SA885","<p style=""font-size: 48px;"">+</p>","","","","","null","allTrialResponses","1000","1","22","img_art/27.jpg","-3","Seems like one too many ideas going on","Aaron,Jacob,Steven,Caleb,Alejandro,Jack","It looks like when my little sister took magic markers to the wall.,-11,20,20","Don't get the point of this piece that much, but it doesn't bug me,1,340,20","two warring cities, separated by a small desert,50,160,20","An abstract piece with such lifeless colors.,-26,40,20","Muddied and directionless. Like someone dragged a brush across the paper for the sake of doing something.,-50,80,20","the green & white scribbles feel childlike. perhaps the quality of the photo, but the colors are gloomy.,-13,320,20","Jacob","Don't get the point of this piece that much, but it doesn't bug me,1,340,20","Jack","the green & white scribbles feel childlike. perhaps the quality of the photo, but the colors are gloomy.,-13,320,20","Alejandro","Muddied and directionless. Like someone dragged a brush across the paper for the sake of doing something.,-50,80,20","8"
"12721","","survey-text","206","1189474","0.0-202.0-0.0","A3EWR58W0SA885","","","","{""Q0"":""Seems like a cool way to paint a bird""}","","","","","","","","","","","","","","","","","","","","","","",""
"2414.5999999046326","","image-slider-response","207","1191890","0.0-203.0","A3EWR58W0SA885","","","","","4","","","","","","","","","","","","","","","","","","","","","",""
"3399","","image-button-response","208","1196893","0.0-204.0","A3EWR58W0SA885","img_art/6.jpg","2","","","","","","","","","","","","","","","","","","","","","","","","",""
"544","","image-button-response","209","1197439","0.0-205.0","A3EWR58W0SA885","img_art/6.jpg","2","","","","","","","","","","","","","","","","","","","","","","","","",""
"2674","","image-button-response","210","1200115","0.0-206.0-0.0","A3EWR58W0SA885","img_art/6.jpg","3","","","","","","","","","","","","","","","","","","","","","","","","",""
"1643","","image-button-response","211","1201759","0.0-207.0-0.0","A3EWR58W0SA885","img_art/6.jpg","4","","","","","","","","","","","","","","","","","","","","","","","","",""
"null","","html-keyboard-response","212","1203261","0.0-208.0","A3EWR58W0SA885","<p style=""font-size: 48px;"">+</p>","","","","","null","allTrialResponses","1500","1","23","img_art/6.jpg","4","Seems like a cool way to paint a bird","Travis,Jacob,Richard,Isaiah,Alejandro,Jack","No feeling...just left me feeling kind of blah,1,260,20","Is this a leaf?,4,340,20","simplistic but reminds me of a crow in a field,-10,340,20","The painting makes me happy. Like I'm looking at a little bird.,6,300,20","Gives me a feeling of solitude and nothingness,11,80,20","I like the bottom half, but not the top,-7,320,20","Richard","simplistic but reminds me of a crow in a field,-10,340,20","Isaiah","The painting makes me happy. Like I'm looking at a little bird.,6,300,20","Alejandro","Gives me a feeling of solitude and nothingness,11,80,20","8"
"11255","","survey-text","213","1214528","0.0-209.0-0.0","A3EWR58W0SA885","","","","{""Q0"":""Very interesting way to draw a human-like figure""}","","","","","","","","","","","","","","","","","","","","","","",""
"2508.7999999523163","","image-slider-response","214","1217038","0.0-210.0","A3EWR58W0SA885","","","","","22","","","","","","","","","","","","","","","","","","","","","",""
"null","","image-button-response","215","1222040","0.0-211.0","A3EWR58W0SA885","img_art/25.jpg","null","","","","","","","","","","","","","","","","","","","","","","","","",""
"2600","","image-button-response","216","1224640","0.0-212.0","A3EWR58W0SA885","img_art/25.jpg","0","","","","","","","","","","","","","","","","","","","","","","","","",""
"4044","","image-button-response","217","1228686","0.0-213.0-0.0","A3EWR58W0SA885","img_art/25.jpg","4","","","","","","","","","","","","","","","","","","","","","","","","",""
"3585","","image-button-response","218","1232273","0.0-214.0-0.0","A3EWR58W0SA885","img_art/25.jpg","1","","","","","","","","","","","","","","","","","","","","","","","","",""
"null","","html-keyboard-response","219","1233275","0.0-215.0","A3EWR58W0SA885","<p style=""font-size: 48px;"">+</p>","","","","","null","allTrialResponses","1000","1","24","img_art/25.jpg","22","Very interesting way to draw a human-like figure","Logan,Christopher,Richard,Isaiah,Alejandro,Juan","creeeeeppyyyyyyy but mad cool,-26,360,20","green is really cool, and the pieces in black fit together and are interesting,20,160,20","interesting pattern and color choice, kind of unusual,2,340,20","I feel little to no emotion looking at this painting.,0,300,20","Seems ritualistic and nativist,50,80,20","I don't like the color. I don't like the abstract-ness of it.,-22,260,20","Logan","creeeeeppyyyyyyy but mad cool,-26,360,20","Alejandro","Seems ritualistic and nativist,50,80,20","Christopher","green is really cool, and the pieces in black fit together and are interesting,20,160,20","8"
"24242","","survey-text","220","1257524","0.0-216.0-0.0","A3EWR58W0SA885","","","","{""Q0"":""Feels like it has a bold sense of direction, but doesn't personally inspire me""}","","","","","","","","","","","","","","","","","","","","","","",""
"2280.7000000476837","","image-slider-response","221","1259806","0.0-217.0","A3EWR58W0SA885","","","","","2","","","","","","","","","","","","","","","","","","","","","",""
"null","","image-button-response","222","1264808","0.0-218.0","A3EWR58W0SA885","img_art/20.jpg","null","","","","","","","","","","","","","","","","","","","","","","","","",""
"363","","image-button-response","223","1265172","0.0-219.0","A3EWR58W0SA885","img_art/20.jpg","3","","","","","","","","","","","","","","","","","","","","","","","","",""
"5657","","image-button-response","224","1270831","0.0-220.0-0.0","A3EWR58W0SA885","img_art/20.jpg","1","","","","","","","","","","","","","","","","","","","","","","","","",""
"1721","","image-button-response","225","1272554","0.0-221.0-0.0","A3EWR58W0SA885","img_art/20.jpg","5","","","","","","","","","","","","","","","","","","","","","","","","",""
"null","","html-keyboard-response","226","1274056","0.0-222.0","A3EWR58W0SA885","<p style=""font-size: 48px;"">+</p>","","","","","null","allTrialResponses","1500","1","25","img_art/20.jpg","2","Feels like it has a bold sense of direction, but doesn't personally inspire me","Logan,Christopher,Jose,Angel,Alejandro,Michael","truck? train? dead cow? plane?,10,360,20","i ind of like this, it's saying something but not my style,6,160,20","More dark colors and blurry objects.,13,200,20","This looks like a ruin of what was once a thriving city.,-9,180,20","The pulling and sagging nature is very beautiful.,30,80,20","Brings about an emotion response of dspair. Loose lines but yet has a cohesion.,8,140,20","Angel","This looks like a ruin of what was once a thriving city.,-9,180,20","Christopher","i ind of like this, it's saying something but not my style,6,160,20","Michael","Brings about an emotion response of dspair. Loose lines but yet has a cohesion.,8,140,20","8"
"3687","","survey-text","227","1277756","0.0-223.0-0.0","A3EWR58W0SA885","","","","{""Q0"":""table""}","","","","","","","","","","","","","","","","","","","","","","",""
"16333","","survey-text","228","1294089","0.0-224.0-0.0","A3EWR58W0SA885","","","","{""Q0"":""messy, boring""}","","","","","","","","","","","","","","","","","","","","","","",""
"2745","","image-slider-response","229","1296836","0.0-225.0","A3EWR58W0SA885","","","","","-9","","","","","","","","","","","","","","","","","","","","","",""
"4995","","image-button-response","230","1301837","0.0-226.0","A3EWR58W0SA885","img_art/2.jpg","1","","","","","","","","","","","","","","","","","","","","","","","","",""
"489","","image-button-response","231","1302328","0.0-227.0","A3EWR58W0SA885","img_art/2.jpg","1","","","","","","","","","","","","","","","","","","","","","","","","",""
"7641","","image-button-response","232","1309970","0.0-228.0-0.0","A3EWR58W0SA885","img_art/2.jpg","4","","","","","","","","","","","","","","","","","","","","","","","","",""
"2171","","image-button-response","233","1312143","0.0-229.0-0.0","A3EWR58W0SA885","img_art/2.jpg","3","","","","","","","","","","","","","","","","","","","","","","","","",""
"null","","html-keyboard-response","234","1312644","0.0-230.0","A3EWR58W0SA885","<p style=""font-size: 48px;"">+</p>","","","","","null","allTrialResponses","500","1","26","img_art/2.jpg","-9","messy, boring","Ethan,Christopher,Charles,Angel,Derek,Michael","This looks like a professional abstract drawing. I like the shapes.,7,120,20","nope. just looks like a mess,-28,160,20","I like the green,13,100,20","I think I'm put off by the clashing colors here. It feels discombobulated and sick.,-10,180,20","Not my favorite but I can see this being hung in a art museum,25,360,20","Random colors and shapes mashed together. Nothing artistic, but better than some of the other ones.,-37,140,20","Christopher","nope. just looks like a mess,-28,160,20","Derek","Not my favorite but I can see this being hung in a art museum,25,360,20","Angel","I think I'm put off by the clashing colors here. It feels discombobulated and sick.,-10,180,20","8"
"15728","","survey-text","235","1328376","0.0-231.0-0.0","A3EWR58W0SA885","","","","{""Q0"":""I can see how this would be more than just scribbles, but still not my style""}","","","","","","","","","","","","","","","","","","","","","","",""
"2092.100000143051","","image-slider-response","236","1330469","0.0-232.0","A3EWR58W0SA885","","","","","-4","","","","","","","","","","","","","","","","","","","","","",""
"null","","image-button-response","237","1335471","0.0-233.0","A3EWR58W0SA885","img_art/3.jpg","null","","","","","","","","","","","","","","","","","","","","","","","","",""
"5247","","image-button-response","238","1340721","0.0-234.0","A3EWR58W0SA885","img_art/3.jpg","4","","","","","","","","","","","","","","","","","","","","","","","","",""
"2187","","image-button-response","239","1342909","0.0-235.0-0.0","A3EWR58W0SA885","img_art/3.jpg","2","","","","","","","","","","","","","","","","","","","","","","","","",""
"1691","","image-button-response","240","1344601","0.0-236.0-0.0","A3EWR58W0SA885","img_art/3.jpg","1","","","","","","","","","","","","","","","","","","","","","","","","",""
"null","","html-keyboard-response","241","1345102","0.0-237.0","A3EWR58W0SA885","<p style=""font-size: 48px;"">+</p>","","","","","null","allTrialResponses","500","1","27","img_art/3.jpg","-4","I can see how this would be more than just scribbles, but still not my style","Kenneth,Christopher,Adam,Angel,Derek,Mason","Reminds me of blood.,-28,300,20","the red is impactful but the work overall doesn't say anything to me,-8,160,20","Reminds me of a hot mess,-10,40,20","This gives me a negative feeling, like someone trying to scratch out their flaws. I see low self-esteem.,-20,180,20","Looks messy and too much for my eyes,-35,360,20","scribbles in red. 2 minute piece.,-30,100,20","Derek","Looks messy and too much for my eyes,-35,360,20","Adam","Reminds me of a hot mess,-10,40,20","Christopher","the red is impactful but the work overall doesn't say anything to me,-8,160,20","8"
"13437","","survey-text","242","1358555","0.0-238.0-0.0","A3EWR58W0SA885","","","","{""Q0"":""I like the colors and how the more you get to the center, the more there is""}","","","","","","","","","","","","","","","","","","","","","","",""
"2028.8000001907349","","image-slider-response","243","1360585","0.0-239.0","A3EWR58W0SA885","","","","","3","","","","","","","","","","","","","","","","","","","","","",""
"null","","image-button-response","244","1365587","0.0-240.0","A3EWR58W0SA885","img_art/9.jpg","null","","","","","","","","","","","","","","","","","","","","","","","","",""
"1049","","image-button-response","245","1366637","0.0-241.0","A3EWR58W0SA885","img_art/9.jpg","1","","","","","","","","","","","","","","","","","","","","","","","","",""
"674","","image-button-response","246","1367313","0.0-242.0-0.0","A3EWR58W0SA885","img_art/9.jpg","2","","","","","","","","","","","","","","","","","","","","","","","","",""
"4228","","image-button-response","247","1371543","0.0-243.0-0.0","A3EWR58W0SA885","img_art/9.jpg","4","","","","","","","","","","","","","","","","","","","","","","","","",""
"null","","html-keyboard-response","248","1373046","0.0-244.0","A3EWR58W0SA885","<p style=""font-size: 48px;"">+</p>","","","","","null","allTrialResponses","1500","1","28","img_art/9.jpg","3","I like the colors and how the more you get to the center, the more there is","Vincent,Christopher,Adam,Victor,Derek,Antonio","This speaks to me like a personalities and sides and not all are nice,19,360,20","I really like the color balance but the image is odd,-5,160,20","Very eclectic and messy. Not my preference, but may work for some.,-20,40,20","The colors are okay, but this looks like someone scribbled with a crayon,1,340,20","It's wild and chaotic but also beautiful and has some kind of calming factor about it,20,360,20","Stirs up emotions of watching someone sleep which is relaxing,11,220,20","Christopher","I really like the color balance but the image is odd,-5,160,20","Adam","Very eclectic and messy. Not my preference, but may work for some.,-20,40,20","Derek","It's wild and chaotic but also beautiful and has some kind of calming factor about it,20,360,20","8"
"8952","","survey-text","249","1382005","0.0-245.0-0.0","A3EWR58W0SA885","","","","{""Q0"":""Too block-y for me""}","","","","","","","","","","","","","","","","","","","","","","",""
"2911.2999999523163","","image-slider-response","250","1384917","0.0-246.0","A3EWR58W0SA885","","","","","-17","","","","","","","","","","","","","","","","","","","","","",""
"null","","image-button-response","251","1389920","0.0-247.0","A3EWR58W0SA885","img_art/12.jpg","null","","","","","","","","","","","","","","","","","","","","","","","","",""
"3744","","image-button-response","252","1393667","0.0-248.0","A3EWR58W0SA885","img_art/12.jpg","1","","","","","","","","","","","","","","","","","","","","","","","","",""
"5892","","image-button-response","253","1399561","0.0-249.0-0.0","A3EWR58W0SA885","img_art/12.jpg","5","","","","","","","","","","","","","","","","","","","","","","","","",""
"2304","","image-button-response","254","1401867","0.0-250.0-0.0","A3EWR58W0SA885","img_art/12.jpg","3","","","","","","","","","","","","","","","","","","","","","","","","",""
"null","","html-keyboard-response","255","1403368","0.0-251.0","A3EWR58W0SA885","<p style=""font-size: 48px;"">+</p>","","","","","null","allTrialResponses","1500","1","29","img_art/12.jpg","-17","Too block-y for me","Thomas,Christopher,Adam,Kevin,Derek,Spencer","Very interesting. Makes me want to look at it for a long time.,16,220,20","i think it's a good piece but it doesn't appeal to me,-18,160,20","Minimalist colors and shapes.,-5,40,20","That is a warn quilt grama made.,11,320,20","I love the pattern and this looks like it took a good deal of effort,35,360,20","Looks like a puzzle I want to put together, but not hang in my den,2,120,20","Christopher","i think it's a good piece but it doesn't appeal to me,-18,160,20","Spencer","Looks like a puzzle I want to put together, but not hang in my den,2,120,20","Kevin","That is a warn quilt grama made.,11,320,20","8"
"13629","","survey-text","256","1417005","0.0-252.0-0.0","A3EWR58W0SA885","","","","{""Q0"":""Love the colors, feels like it's a painting that's much harder to paint than it looks""}","","","","","","","","","","","","","","","","","","","","","","",""
"2552.5","","image-slider-response","257","1419559","0.0-253.0","A3EWR58W0SA885","","","","","14","","","","","","","","","","","","","","","","","","","","","",""
"4984","","image-button-response","258","1424561","0.0-254.0","A3EWR58W0SA885","img_art/21.jpg","1","","","","","","","","","","","","","","","","","","","","","","","","",""
"1186","","image-button-response","259","1425749","0.0-255.0","A3EWR58W0SA885","img_art/21.jpg","1","","","","","","","","","","","","","","","","","","","","","","","","",""
"4042","","image-button-response","260","1429793","0.0-256.0-0.0","A3EWR58W0SA885","img_art/21.jpg","5","","","","","","","","","","","","","","","","","","","","","","","","",""
"3965","","image-button-response","261","1433760","0.0-257.0-0.0","A3EWR58W0SA885","img_art/21.jpg","4","","","","","","","","","","","","","","","","","","","","","","","","",""
"null","","html-keyboard-response","262","1434261","0.0-258.0","A3EWR58W0SA885","<p style=""font-size: 48px;"">+</p>","","","","","null","allTrialResponses","500","1","30","img_art/21.jpg","14","Love the colors, feels like it's a painting that's much harder to paint than it looks","Brian,Christopher,Bryce,Kevin,Tristan,Spencer","there's not enough fine detail in this one,-27,380,20","I love the section of blues, the colors overall are really lovely,31,160,20","Nothing exciting in this one.,-36,20,20","Another ship on fire.,-10,320,20","A landscape that leaves me inspired and hopeful.,20,300,20","Love the colors, uplifting and stormy at the same time,32,120,20","Christopher","I love the section of blues, the colors overall are really lovely,31,160,20","Spencer","Love the colors, uplifting and stormy at the same time,32,120,20","Tristan","A landscape that leaves me inspired and hopeful.,20,300,20","8"
"3442","","image-button-response_instructions","263","1437709","0.0-259.0","A3EWR58W0SA885","","0","instructions","","","","","","","","","","","","","","","","","","","","","","","",""
"1041","","image-button-response","264","1438755","0.0-260.0","A3EWR58W0SA885","","0","","","","","","","","","","","","","","","","","","","","","","","","",""
