"rt","url","trial_type","trial_index","time_elapsed","internal_node_id","participant_id","stimulus","button_pressed","Name","responses","response","key_press","variableName","fixationTime","condition","trial","photo","subjectRating","subjectResponse","agentsNames","agent_1_Response","agent_2_Response","agent_3_Response","agent_4_Response","agent_5_Response","agent_6_Response","kept_1_name","kept_1_response","kept_2_name","kept_2_response","kept_3_name","kept_3_response","errorCounter"
"5293","external_page_harvard.html","external-html","0","5349","0.0-0.0","A3F5Z5S2AHMN2O","","","","","","","","","","","","","","","","","","","","","","","","","","",""
"1913","","image-button-response","1","7268","0.0-1.0","A3F5Z5S2AHMN2O","","0","","","","","","","","","","","","","","","","","","","","","","","","",""
"2528","","image-button-response","2","9804","0.0-2.0-0.0","A3F5Z5S2AHMN2O","","1","phone","","","","","","","","","","","","","","","","","","","","","","","",""
"5993","","survey-text","3","15802","0.0-3.0-0.0","A3F5Z5S2AHMN2O","","","","{""Q0"":""A3F5Z5S2AHMN2O""}","","","","","","","","","","","","","","","","","","","","","","",""
"4492","","image-button-response_instructions","4","20298","0.0-4.0","A3F5Z5S2AHMN2O","","0","instructions","","","","","","","","","","","","","","","","","","","","","","","",""
"8343","","image-button-response_instructions","5","28645","0.0-5.0","A3F5Z5S2AHMN2O","img_art/ins/popularity/ins1.png","0","instructions","","","","","","","","","","","","","","","","","","","","","","","",""
"2741","","image-button-response_instructions","6","31387","0.0-6.0","A3F5Z5S2AHMN2O","img_art/ins/popularity/ins2.png","0","instructions","","","","","","","","","","","","","","","","","","","","","","","",""
"1808","","image-button-response_instructions","7","33197","0.0-7.0","A3F5Z5S2AHMN2O","img_art/ins/popularity/ins2Extreme.png","0","instructions","","","","","","","","","","","","","","","","","","","","","","","",""
"4810","","image-button-response_instructions","8","38009","0.0-8.0","A3F5Z5S2AHMN2O","img_art/ins/popularity/ins3KEEPpop.PNG","0","instructions","","","","","","","","","","","","","","","","","","","","","","","",""
"1486","","image-button-response_instructions","9","39496","0.0-9.0","A3F5Z5S2AHMN2O","img_art/ins/popularity/ins3ANamepop.PNG","0","instructions","","","","","","","","","","","","","","","","","","","","","","","",""
"1411","","image-button-response_instructions","10","40909","0.0-10.0","A3F5Z5S2AHMN2O","img_art/ins/popularity/ins3ARatingpop.png","0","instructions","","","","","","","","","","","","","","","","","","","","","","","",""
"3882","","image-button-response_instructions","11","44793","0.0-11.0","A3F5Z5S2AHMN2O","img_art/ins/popularity/ins3ATextpop.png","0","instructions","","","","","","","","","","","","","","","","","","","","","","","",""
"3891","","image-button-response_instructions","12","48686","0.0-12.0","A3F5Z5S2AHMN2O","img_art/ins/popularity/ins3ALikespop.png","0","instructions","","","","","","","","","","","","","","","","","","","","","","","",""
"2971","","image-button-response_instructions","13","51659","0.0-13.0","A3F5Z5S2AHMN2O","img_art/ins/popularity/ins3KEEPpop.PNG","0","instructions","","","","","","","","","","","","","","","","","","","","","","","",""
"9610","","image-button-response_instructions","14","61271","0.0-14.0","A3F5Z5S2AHMN2O","img_art/ins/popularity/ins3_5RED.png","0","instructions","","","","","","","","","","","","","","","","","","","","","","","",""
"2718","","image-button-response_instructions","15","63990","0.0-15.0","A3F5Z5S2AHMN2O","img_art/ins/popularity/ins3KEEPpop.PNG","0","instructions","","","","","","","","","","","","","","","","","","","","","","","",""
"4714","","image-button-response_instructions","16","68706","0.0-16.0","A3F5Z5S2AHMN2O","img_art/ins/popularity/ins4KEEPpop.PNG","0","instructions","","","","","","","","","","","","","","","","","","","","","","","",""
"2035","","image-button-response_instructions","17","70743","0.0-17.0","A3F5Z5S2AHMN2O","img_art/ins/popularity/ins5KEEPpop.PNG","0","instructions","","","","","","","","","","","","","","","","","","","","","","","",""
"1565","","image-button-response_instructions","18","72308","0.0-18.0","A3F5Z5S2AHMN2O","","0","instructions","","","","","","","","","","","","","","","","","","","","","","","",""
"6048","","survey-text","19","78391","0.0-19.0-0.0","A3F5Z5S2AHMN2O","","","","{""Q0"":""but""}","","","","","","","","","","","","","","","","","","","","","","",""
"6848","","survey-text","20","85242","0.0-20.0-0.0","A3F5Z5S2AHMN2O","","","","{""Q0"":""smooth and floral""}","","","","","","","","","","","","","","","","","","","","","","",""
"2242.0999999996275","","image-slider-response","21","87490","0.0-21.0","A3F5Z5S2AHMN2O","","","","","16","","","","","","","","","","","","","","","","","","","","","",""
"3066","","image-button-response","22","92503","0.0-22.0","A3F5Z5S2AHMN2O","img_art/ins/1.jpg","3","","","","","","","","","","","","","","","","","","","","","","","","",""
"4534","","image-button-response","23","97041","0.0-23.0","A3F5Z5S2AHMN2O","img_art/ins/1.jpg","3","","","","","","","","","","","","","","","","","","","","","","","","",""
"1076","","image-button-response","24","98122","0.0-24.0-0.0","A3F5Z5S2AHMN2O","img_art/ins/1.jpg","4","","","","","","","","","","","","","","","","","","","","","","","","",""
"1408","","image-button-response","25","99536","0.0-25.0-0.0","A3F5Z5S2AHMN2O","img_art/ins/1.jpg","5","","","","","","","","","","","","","","","","","","","","","","","","",""
"null","","html-keyboard-response","26","101047","0.0-26.0","A3F5Z5S2AHMN2O","<p style=""font-size: 48px;"">+</p>","","","","","null","allTrialResponses","1500","1","-2","img_art/ins/1.jpg","16","smooth and floral","Adam,Alex,Ben,Carl,Daniel,Jack","Seems like doodles,-20,20,20","very creative work.,36,40,20","This color reminds me of poo,-46,60,20","very calming artwork,42,80,20","It looks like a murder scene.,-48,100,20","I like the sophisticated brushwork,40,120,20","Carl","very calming artwork,42,80,20","Daniel","It looks like a murder scene.,-48,100,20","Jack","I like the sophisticated brushwork,40,120,20","0"
"4657","","survey-text","27","105710","0.0-27.0-0.0","A3F5Z5S2AHMN2O","","","","{""Q0"":""intimate and heated""}","","","","","","","","","","","","","","","","","","","","","","",""
"2265.5","","image-slider-response","28","107979","0.0-28.0","A3F5Z5S2AHMN2O","","","","","8","","","","","","","","","","","","","","","","","","","","","",""
"2708","","image-button-response","29","112989","0.0-29.0","A3F5Z5S2AHMN2O","img_art/ins/2.jpg","1","","","","","","","","","","","","","","","","","","","","","","","","",""
"648","","image-button-response","30","113641","0.0-30.0","A3F5Z5S2AHMN2O","img_art/ins/2.jpg","3","","","","","","","","","","","","","","","","","","","","","","","","",""
"1288","","image-button-response","31","114933","0.0-31.0-0.0","A3F5Z5S2AHMN2O","img_art/ins/2.jpg","5","","","","","","","","","","","","","","","","","","","","","","","","",""
"1666","","image-button-response","32","116603","0.0-32.0-0.0","A3F5Z5S2AHMN2O","img_art/ins/2.jpg","1","","","","","","","","","","","","","","","","","","","","","","","","",""
"null","","html-keyboard-response","33","117606","0.0-33.0","A3F5Z5S2AHMN2O","<p style=""font-size: 48px;"">+</p>","","","","","null","allTrialResponses","1000","1","-1","img_art/ins/2.jpg","8","intimate and heated","James,John,Kyle,Carl,Daniel,Jack","looks too angry,-50,140,20","love the texture of paint,48,160,20","Idk, it is just annoying,-32,180,20","I can feel the artist's passion in it,45,80,20","One of my pet peevs,-48,100,20","I would never be able to compose a sophisticated pallete like this,48,120,20","Carl","I can feel the artist's passion in it,45,80,20","Jack","I would never be able to compose a sophisticated pallete like this,48,120,20","John","love the texture of paint,48,160,20","0"
"5478","","survey-text","34","123092","0.0-34.0-0.0","A3F5Z5S2AHMN2O","","","","{""Q0"":""cold and blue ""}","","","","","","","","","","","","","","","","","","","","","","",""
"3839.5999999996275","","image-slider-response","35","126935","0.0-35.0","A3F5Z5S2AHMN2O","","","","","-22","","","","","","","","","","","","","","","","","","","","","",""
"null","","image-button-response","36","131944","0.0-36.0","A3F5Z5S2AHMN2O","img_art/ins/3.jpg","null","","","","","","","","","","","","","","","","","","","","","","","","",""
"1269","","image-button-response","37","133217","0.0-37.0","A3F5Z5S2AHMN2O","img_art/ins/3.jpg","4","","","","","","","","","","","","","","","","","","","","","","","","",""
"867","","image-button-response","38","134089","0.0-38.0-0.0","A3F5Z5S2AHMN2O","img_art/ins/3.jpg","2","","","","","","","","","","","","","","","","","","","","","","","","",""
"802","","image-button-response","39","134897","0.0-39.0-0.0","A3F5Z5S2AHMN2O","img_art/ins/3.jpg","0","","","","","","","","","","","","","","","","","","","","","","","","",""
"null","","html-keyboard-response","40","136402","0.0-40.0","A3F5Z5S2AHMN2O","<p style=""font-size: 48px;"">+</p>","","","","","null","allTrialResponses","1500","1","0","img_art/ins/3.jpg","-22","cold and blue ","Mike,John,Sam,Carl,Ron,Jack","enjoy the different shades of blue,22,200,20","I like the overlapping of brushes,41,160,20","I can feel a rainy day from this painting,18,240,20","It's an alright work,15,80,20","It looks depressing,-26,220,20","I feel connected to the artist,40,120,20","Ron","It looks depressing,-26,220,20","Sam","I can feel a rainy day from this painting,18,240,20","Mike","enjoy the different shades of blue,22,200,20","0"
"3251","","image-button-response_instructions","41","139660","0.0-41.0","A3F5Z5S2AHMN2O","","0","instructions","","","","","","","","","","","","","","","","","","","","","","","",""
"10687","","survey-likert","42","150350","0.0-42.0-0.0","A3F5Z5S2AHMN2O","","","","{""Q0"":"""",""Q1"":0,""Q2"":1}","","","","","","","","","","","","","","","","","","","","","","",""
"13698","","survey-text","43","164057","0.0-43.0-0.0","A3F5Z5S2AHMN2O","","","","{""Q0"":""rock""}","","","","","","","","","","","","","","","","","","","","","","",""
"6225","","survey-text","44","170285","0.0-44.0-0.0","A3F5Z5S2AHMN2O","","","","{""Q0"":""a tiger in the wild""}","","","","","","","","","","","","","","","","","","","","","","",""
"2495.0999999996275","","image-slider-response","45","172782","0.0-45.0","A3F5Z5S2AHMN2O","","","","","29","","","","","","","","","","","","","","","","","","","","","",""
"null","","image-button-response","46","177816","0.0-46.0","A3F5Z5S2AHMN2O","img_art/18.jpg","null","","","","","","","","","","","","","","","","","","","","","","","","",""
"494","","image-button-response","47","178314","0.0-47.0","A3F5Z5S2AHMN2O","img_art/18.jpg","0","","","","","","","","","","","","","","","","","","","","","","","","",""
"852","","image-button-response","48","179170","0.0-48.0-0.0","A3F5Z5S2AHMN2O","img_art/18.jpg","4","","","","","","","","","","","","","","","","","","","","","","","","",""
"649","","image-button-response","49","179824","0.0-49.0-0.0","A3F5Z5S2AHMN2O","img_art/18.jpg","5","","","","","","","","","","","","","","","","","","","","","","","","",""
"null","","html-keyboard-response","50","180326","0.0-50.0","A3F5Z5S2AHMN2O","<p style=""font-size: 48px;"">+</p>","","","","","null","allTrialResponses","500","1","1","img_art/18.jpg","29","a tiger in the wild","Miguel,Adrian,Isaac,Devin,Brian,Alejandro","This looks amazing.,40,160,20","Interesting piece - gives you more the more you look at it. I like it but wouldn't buy it.,11,60,20","I like the detail but I wouldn't hang this up on my wall.,14,280,20","Good concept but then scribbled on a bit?,15,380,20","Very classy, I feel like it's the apocalypse.,25,380,20","I love this because abstractly depicts the apocalypse. The white horse and its rider as Death, described in religious texts and pop culture. ""He rode a pale horse and his name was death."",50,80,20","Miguel","This looks amazing.,40,160,20","Brian","Very classy, I feel like it's the apocalypse.,25,380,20","Alejandro","I love this because abstractly depicts the apocalypse. The white horse and its rider as Death, described in religious texts and pop culture. ""He rode a pale horse and his name was death."",50,80,20","0"
"6138","","survey-text","51","186471","0.0-51.0-0.0","A3F5Z5S2AHMN2O","","","","{""Q0"":""this reminds me of a clown nose""}","","","","","","","","","","","","","","","","","","","","","","",""
"2225.9000000003725","","image-slider-response","52","188700","0.0-52.0","A3F5Z5S2AHMN2O","","","","","-47","","","","","","","","","","","","","","","","","","","","","",""
"null","","image-button-response","53","193704","0.0-53.0","A3F5Z5S2AHMN2O","img_art/22.jpg","null","","","","","","","","","","","","","","","","","","","","","","","","",""
"989","","image-button-response","54","194695","0.0-54.0","A3F5Z5S2AHMN2O","img_art/22.jpg","3","","","","","","","","","","","","","","","","","","","","","","","","",""
"506","","image-button-response","55","195204","0.0-55.0-0.0","A3F5Z5S2AHMN2O","img_art/22.jpg","5","","","","","","","","","","","","","","","","","","","","","","","","",""
"326","","image-button-response","56","195536","0.0-56.0-0.0","A3F5Z5S2AHMN2O","img_art/22.jpg","4","","","","","","","","","","","","","","","","","","","","","","","","",""
"null","","html-keyboard-response","57","196541","0.0-57.0","A3F5Z5S2AHMN2O","<p style=""font-size: 48px;"">+</p>","","","","","null","allTrialResponses","1000","1","2","img_art/22.jpg","-47","this reminds me of a clown nose","Miguel,Brett,Spencer,Eric,Brian,Alejandro","Same az the last one?,-49,160,20","Climate change in a big city,35,360,20","Pretty colors but too blocky for me,-19,120,20","I don't normally like bright colors, but I like them in this. Don't like the random black paint.,30,100,20","this is too generic,-27,380,20","Beautiful use of chalk or pastels. Love the abstract nature.,35,80,20","Eric","I don't normally like bright colors, but I like them in this. Don't like the random black paint.,30,100,20","Alejandro","Beautiful use of chalk or pastels. Love the abstract nature.,35,80,20","Brian","this is too generic,-27,380,20","0"
"6817","","survey-text","58","203363","0.0-58.0-0.0","A3F5Z5S2AHMN2O","","","","{""Q0"":""a mess of kidneye""}","","","","","","","","","","","","","","","","","","","","","","",""
"2975.9000000003725","","image-slider-response","59","206342","0.0-59.0","A3F5Z5S2AHMN2O","","","","","5","","","","","","","","","","","","","","","","","","","","","",""
"4586","","image-button-response","60","211347","0.0-60.0","A3F5Z5S2AHMN2O","img_art/28.jpg","0","","","","","","","","","","","","","","","","","","","","","","","","",""
"1319","","image-button-response","61","212669","0.0-61.0","A3F5Z5S2AHMN2O","img_art/28.jpg","0","","","","","","","","","","","","","","","","","","","","","","","","",""
"481","","image-button-response","62","213153","0.0-62.0-0.0","A3F5Z5S2AHMN2O","img_art/28.jpg","1","","","","","","","","","","","","","","","","","","","","","","","","",""
"1272","","image-button-response","63","214430","0.0-63.0-0.0","A3F5Z5S2AHMN2O","img_art/28.jpg","4","","","","","","","","","","","","","","","","","","","","","","","","",""
"null","","html-keyboard-response","64","215432","0.0-64.0","A3F5Z5S2AHMN2O","<p style=""font-size: 48px;"">+</p>","","","","","null","allTrialResponses","1000","1","3","img_art/28.jpg","5","a mess of kidneye","Devon,Tyler,Mark,Eric,Brian,Alejandro","i'm not too impressed with this one.,-10,400,20","It's okay. There is harmony and balance.,11,320,20","It reminds me of the cantina in Star Wars.,37,80,20","I enjoy the colors.,25,100,20","the people kind of scare me in this one,-15,380,20","I like the flow and abstract nature of what seems to be humans,40,80,20","Devon","i'm not too impressed with this one.,-10,400,20","Tyler","It's okay. There is harmony and balance.,11,320,20","Brian","the people kind of scare me in this one,-15,380,20","0"
"5956","","survey-text","65","221394","0.0-65.0-0.0","A3F5Z5S2AHMN2O","","","","{""Q0"":""looks like fries""}","","","","","","","","","","","","","","","","","","","","","","",""
"3398.800000000745","","image-slider-response","66","224796","0.0-66.0","A3F5Z5S2AHMN2O","","","","","5","","","","","","","","","","","","","","","","","","","","","",""
"null","","image-button-response","67","229801","0.0-67.0","A3F5Z5S2AHMN2O","img_art/4.jpg","null","","","","","","","","","","","","","","","","","","","","","","","","",""
"732","","image-button-response","68","230537","0.0-68.0","A3F5Z5S2AHMN2O","img_art/4.jpg","2","","","","","","","","","","","","","","","","","","","","","","","","",""
"856","","image-button-response","69","231400","0.0-69.0-0.0","A3F5Z5S2AHMN2O","img_art/4.jpg","3","","","","","","","","","","","","","","","","","","","","","","","","",""
"347","","image-button-response","70","231752","0.0-70.0-0.0","A3F5Z5S2AHMN2O","img_art/4.jpg","4","","","","","","","","","","","","","","","","","","","","","","","","",""
"null","","html-keyboard-response","71","232254","0.0-71.0","A3F5Z5S2AHMN2O","<p style=""font-size: 48px;"">+</p>","","","","","null","allTrialResponses","500","1","4","img_art/4.jpg","5","looks like fries","Devon,Tyler,Chase,Christopher,Brian,Tanner","heart symbol - this tells a story of hidden love,30,400,20","This is what makes suburban dads say, ""my 4-year-old can do that."",-49,320,20","It looks like smeared poop.,-27,120,20","too many red/yellow shades, its impact without a reason,-27,160,20","it reminds me of McDonalds, and not in a good way.,-34,380,20","stresses me out, uncomfortable,-18,180,20","Chase","It looks like smeared poop.,-27,120,20","Christopher","too many red/yellow shades, its impact without a reason,-27,160,20","Brian","it reminds me of McDonalds, and not in a good way.,-34,380,20","0"
"7080","","survey-text","72","239341","0.0-72.0-0.0","A3F5Z5S2AHMN2O","","","","{""Q0"":""looks like a river""}","","","","","","","","","","","","","","","","","","","","","","",""
"3411.7999999988824","","image-slider-response","73","242756","0.0-73.0","A3F5Z5S2AHMN2O","","","","","33","","","","","","","","","","","","","","","","","","","","","",""
"null","","image-button-response","74","247761","0.0-74.0","A3F5Z5S2AHMN2O","img_art/24.jpg","null","","","","","","","","","","","","","","","","","","","","","","","","",""
"983","","image-button-response","75","248746","0.0-75.0","A3F5Z5S2AHMN2O","img_art/24.jpg","1","","","","","","","","","","","","","","","","","","","","","","","","",""
"433","","image-button-response","76","249183","0.0-76.0-0.0","A3F5Z5S2AHMN2O","img_art/24.jpg","2","","","","","","","","","","","","","","","","","","","","","","","","",""
"1722","","image-button-response","77","250910","0.0-77.0-0.0","A3F5Z5S2AHMN2O","img_art/24.jpg","5","","","","","","","","","","","","","","","","","","","","","","","","",""
"null","","html-keyboard-response","78","252414","0.0-78.0","A3F5Z5S2AHMN2O","<p style=""font-size: 48px;"">+</p>","","","","","null","allTrialResponses","1500","1","5","img_art/24.jpg","33","looks like a river","James,Cameron,Chase,Christopher,Brian,Adam","The waterfall looks peaceful,11,380,20","Mountain stream pineapple texture?,30,60,20","This one isn't that abstract. It clearly looks like a waterfall.,31,120,20","it's fine, the colors are pleasing, but not my taste,9,160,20","it's a nice stream, but I don't care for plain nature,-15,380,20","I appreciate the earth tones. Soothing.,5,40,20","Cameron","Mountain stream pineapple texture?,30,60,20","Chase","This one isn't that abstract. It clearly looks like a waterfall.,31,120,20","Adam","I appreciate the earth tones. Soothing.,5,40,20","0"
"4360","","survey-text","79","256784","0.0-79.0-0.0","A3F5Z5S2AHMN2O","","","","{""Q0"":""sky""}","","","","","","","","","","","","","","","","","","","","","","",""
"7021","","survey-text","80","263807","0.0-80.0-0.0","A3F5Z5S2AHMN2O","","","","{""Q0"":""arial view of town""}","","","","","","","","","","","","","","","","","","","","","","",""
"2371","","image-slider-response","81","266182","0.0-81.0","A3F5Z5S2AHMN2O","","","","","32","","","","","","","","","","","","","","","","","","","","","",""
"null","","image-button-response","82","271188","0.0-82.0","A3F5Z5S2AHMN2O","img_art/8.jpg","null","","","","","","","","","","","","","","","","","","","","","","","","",""
"1974","","image-button-response","83","273166","0.0-83.0","A3F5Z5S2AHMN2O","img_art/8.jpg","5","","","","","","","","","","","","","","","","","","","","","","","","",""
"658","","image-button-response","84","273828","0.0-84.0-0.0","A3F5Z5S2AHMN2O","img_art/8.jpg","4","","","","","","","","","","","","","","","","","","","","","","","","",""
"1312","","image-button-response","85","275144","0.0-85.0-0.0","A3F5Z5S2AHMN2O","img_art/8.jpg","1","","","","","","","","","","","","","","","","","","","","","","","","",""
"null","","html-keyboard-response","86","276148","0.0-86.0","A3F5Z5S2AHMN2O","<p style=""font-size: 48px;"">+</p>","","","","","null","allTrialResponses","1000","1","6","img_art/8.jpg","32","arial view of town","Justin,Cameron,Chase,Dakota,Malik,Adam","Interesting to look at, there are many things happening in the painting.,32,280,20","what's going on here. looks like scary town.,-25,60,20","This is kind of neat. I really like how things are oriented and the shapes used.,18,120,20","chaotic and disassembled,-8,280,20","Striking, but not my taste,20,40,20","Eclectic city with good mix of colors.,10,40,20","Adam","Eclectic city with good mix of colors.,10,40,20","Malik","Striking, but not my taste,20,40,20","Cameron","what's going on here. looks like scary town.,-25,60,20","0"
"9268","","survey-text","87","285423","0.0-87.0-0.0","A3F5Z5S2AHMN2O","","","","{""Q0"":""this looks like a bloodbath of red crayons""}","","","","","","","","","","","","","","","","","","","","","","",""
"2613.4000000003725","","image-slider-response","88","288040","0.0-88.0","A3F5Z5S2AHMN2O","","","","","-36","","","","","","","","","","","","","","","","","","","","","",""
"null","","image-button-response","89","293046","0.0-89.0","A3F5Z5S2AHMN2O","img_art/3.jpg","null","","","","","","","","","","","","","","","","","","","","","","","","",""
"2359","","image-button-response","90","295409","0.0-90.0","A3F5Z5S2AHMN2O","img_art/3.jpg","1","","","","","","","","","","","","","","","","","","","","","","","","",""
"472","","image-button-response","91","295885","0.0-91.0-0.0","A3F5Z5S2AHMN2O","img_art/3.jpg","0","","","","","","","","","","","","","","","","","","","","","","","","",""
"674","","image-button-response","92","296562","0.0-92.0-0.0","A3F5Z5S2AHMN2O","img_art/3.jpg","3","","","","","","","","","","","","","","","","","","","","","","","","",""
"null","","html-keyboard-response","93","297565","0.0-93.0","A3F5Z5S2AHMN2O","<p style=""font-size: 48px;"">+</p>","","","","","null","allTrialResponses","1000","1","7","img_art/3.jpg","-36","this looks like a bloodbath of red crayons","David,Cameron,Angel,Ryan,Malik,Adam","No clue what I'm looking. This just looks a series of scribbles in a box.,-20,340,20","kid scribbled on the wall again,-35,60,20","This gives me a negative feeling, like someone trying to scratch out their flaws. I see low self-esteem.,-20,180,20","Looks like someone threw blood at a wall,-50,380,20","Unaure what the artist  was doing, needs context,11,40,20","Reminds me of a hot mess,-10,40,20","Cameron","kid scribbled on the wall again,-35,60,20","David","No clue what I'm looking. This just looks a series of scribbles in a box.,-20,340,20","Ryan","Looks like someone threw blood at a wall,-50,380,20","0"
"5977","","survey-text","94","303549","0.0-94.0-0.0","A3F5Z5S2AHMN2O","","","","{""Q0"":""this is a creepy bear ""}","","","","","","","","","","","","","","","","","","","","","","",""
"2677.300000000745","","image-slider-response","95","306230","0.0-95.0","A3F5Z5S2AHMN2O","","","","","-50","","","","","","","","","","","","","","","","","","","","","",""
"null","","image-button-response","96","311237","0.0-96.0","A3F5Z5S2AHMN2O","img_art/16.jpg","null","","","","","","","","","","","","","","","","","","","","","","","","",""
"505","","image-button-response","97","311745","0.0-97.0","A3F5Z5S2AHMN2O","img_art/16.jpg","4","","","","","","","","","","","","","","","","","","","","","","","","",""
"910","","image-button-response","98","312658","0.0-98.0-0.0","A3F5Z5S2AHMN2O","img_art/16.jpg","0","","","","","","","","","","","","","","","","","","","","","","","","",""
"836","","image-button-response","99","313498","0.0-99.0-0.0","A3F5Z5S2AHMN2O","img_art/16.jpg","5","","","","","","","","","","","","","","","","","","","","","","","","",""
"null","","html-keyboard-response","100","314500","0.0-100.0","A3F5Z5S2AHMN2O","<p style=""font-size: 48px;"">+</p>","","","","","null","allTrialResponses","1000","1","8","img_art/16.jpg","-50","this is a creepy bear ","David,Cameron,Derek,Ryan,Taylor,Steven","The colored teddy bear clashes with the color scheme.,-20,340,20","Don't like teddy bears in art. I could draw that house.,-20,60,20","I can't figure out the meaning of this painting but it is pleasant to look at,40,360,20","Very modern, reminds me of bansky,43,380,20","It is sick to put a teddy bear and a gun on the same piece of canvas.,-40,200,20","Not interested at all,-15,160,20","Taylor","It is sick to put a teddy bear and a gun on the same piece of canvas.,-40,200,20","David","The colored teddy bear clashes with the color scheme.,-20,340,20","Steven","Not interested at all,-15,160,20","0"
"5985","","survey-text","101","320494","0.0-101.0-0.0","A3F5Z5S2AHMN2O","","","","{""Q0"":""this looks like black mold""}","","","","","","","","","","","","","","","","","","","","","","",""
"1903","","image-slider-response","102","322395","0.0-102.0","A3F5Z5S2AHMN2O","","","","","-29","","","","","","","","","","","","","","","","","","","","","",""
"null","","image-button-response","103","327391","0.0-103.0","A3F5Z5S2AHMN2O","img_art/15.jpg","null","","","","","","","","","","","","","","","","","","","","","","","","",""
"658","","image-button-response","104","328052","0.0-104.0","A3F5Z5S2AHMN2O","img_art/15.jpg","2","","","","","","","","","","","","","","","","","","","","","","","","",""
"754","","image-button-response","105","328809","0.0-105.0-0.0","A3F5Z5S2AHMN2O","img_art/15.jpg","5","","","","","","","","","","","","","","","","","","","","","","","","",""
"441","","image-button-response","106","329253","0.0-106.0-0.0","A3F5Z5S2AHMN2O","img_art/15.jpg","3","","","","","","","","","","","","","","","","","","","","","","","","",""
"null","","html-keyboard-response","107","329758","0.0-107.0","A3F5Z5S2AHMN2O","<p style=""font-size: 48px;"">+</p>","","","","","null","allTrialResponses","500","1","9","img_art/15.jpg","-29","this looks like black mold","David,Alex,Dalton,Jason,Taylor,Steven","Hard to tell what I'm looking at, but it does a gives a slight impression of a of garden.,5,340,20","Interesting to look at but I don't appreciate the abstraction,2,100,20","black leaves makes the blue birds stand out.,1,300,20","Simplicity of colors is nice,11,20,20","Getting better.,10,200,20","I'm just not into it,-5,160,20","Dalton","black leaves makes the blue birds stand out.,1,300,20","Steven","I'm just not into it,-5,160,20","Jason","Simplicity of colors is nice,11,20,20","0"
"6711","","survey-text","108","336475","0.0-108.0-0.0","A3F5Z5S2AHMN2O","","","","{""Q0"":""smear of mustard coming out""}","","","","","","","","","","","","","","","","","","","","","","",""
"2904.4000000003725","","image-slider-response","109","339380","0.0-109.0","A3F5Z5S2AHMN2O","","","","","-18","","","","","","","","","","","","","","","","","","","","","",""
"null","","image-button-response","110","344381","0.0-110.0","A3F5Z5S2AHMN2O","img_art/5.jpg","null","","","","","","","","","","","","","","","","","","","","","","","","",""
"790","","image-button-response","111","345174","0.0-111.0","A3F5Z5S2AHMN2O","img_art/5.jpg","1","","","","","","","","","","","","","","","","","","","","","","","","",""
"357","","image-button-response","112","345534","0.0-112.0-0.0","A3F5Z5S2AHMN2O","img_art/5.jpg","0","","","","","","","","","","","","","","","","","","","","","","","","",""
"460","","image-button-response","113","345997","0.0-113.0-0.0","A3F5Z5S2AHMN2O","img_art/5.jpg","2","","","","","","","","","","","","","","","","","","","","","","","","",""
"null","","html-keyboard-response","114","346499","0.0-114.0","A3F5Z5S2AHMN2O","<p style=""font-size: 48px;"">+</p>","","","","","null","allTrialResponses","500","1","10","img_art/5.jpg","-18","smear of mustard coming out","Stephen,Luke,Dalton,Jason,Shane,Steven","Very little going on.,-4,140,20","no clear emotion,-16,20,20","its something. i just dont know what it is.,1,300,20","Wish the background had been kept clean; distracts from main object,11,20,20","Seems clean and neat,11,80,20","I dont really get anything from this,-25,160,20","Luke","no clear emotion,-16,20,20","Stephen","Very little going on.,-4,140,20","Dalton","its something. i just dont know what it is.,1,300,20","0"
"3168","","survey-text","115","349677","0.0-115.0-0.0","A3F5Z5S2AHMN2O","","","","{""Q0"":""our""}","","","","","","","","","","","","","","","","","","","","","","",""
"7913","","survey-text","116","357593","0.0-116.0-0.0","A3F5Z5S2AHMN2O","","","","{""Q0"":""looks like a close up of mars""}","","","","","","","","","","","","","","","","","","","","","","",""
"2370.5999999996275","","image-slider-response","117","359966","0.0-117.0","A3F5Z5S2AHMN2O","","","","","18","","","","","","","","","","","","","","","","","","","","","",""
"null","","image-button-response","118","364972","0.0-118.0","A3F5Z5S2AHMN2O","img_art/7.jpg","null","","","","","","","","","","","","","","","","","","","","","","","","",""
"1048","","image-button-response","119","366024","0.0-119.0","A3F5Z5S2AHMN2O","img_art/7.jpg","0","","","","","","","","","","","","","","","","","","","","","","","","",""
"385","","image-button-response","120","366412","0.0-120.0-0.0","A3F5Z5S2AHMN2O","img_art/7.jpg","1","","","","","","","","","","","","","","","","","","","","","","","","",""
"304","","image-button-response","121","366720","0.0-121.0-0.0","A3F5Z5S2AHMN2O","img_art/7.jpg","2","","","","","","","","","","","","","","","","","","","","","","","","",""
"null","","html-keyboard-response","122","368225","0.0-122.0","A3F5Z5S2AHMN2O","<p style=""font-size: 48px;"">+</p>","","","","","null","allTrialResponses","1500","1","11","img_art/7.jpg","18","looks like a close up of mars","Stephen,Luke,Dalton,Matthew,Jack,Caleb","Nice realistic feel but nothing stands out.,4,140,20","reminds me of the desert,-20,20,20","i dont like it. it looks like rocks,-40,300,20","landscape of amrs, yawn.,-25,120,20","reminds me of a desert from far above,23,320,20","More saturated color, even more interpretations to have.,44,40,20","Stephen","Nice realistic feel but nothing stands out.,4,140,20","Luke","reminds me of the desert,-20,20,20","Dalton","i dont like it. it looks like rocks,-40,300,20","0"
"6970","","survey-text","123","375202","0.0-123.0-0.0","A3F5Z5S2AHMN2O","","","","{""Q0"":""this painting looks out of focus""}","","","","","","","","","","","","","","","","","","","","","","",""
"1450.5999999996275","","image-slider-response","124","376656","0.0-124.0","A3F5Z5S2AHMN2O","","","","","16","","","","","","","","","","","","","","","","","","","","","",""
"null","","image-button-response","125","381659","0.0-125.0","A3F5Z5S2AHMN2O","img_art/14.jpg","null","","","","","","","","","","","","","","","","","","","","","","","","",""
"586","","image-button-response","126","382248","0.0-126.0","A3F5Z5S2AHMN2O","img_art/14.jpg","4","","","","","","","","","","","","","","","","","","","","","","","","",""
"375","","image-button-response","127","382627","0.0-127.0-0.0","A3F5Z5S2AHMN2O","img_art/14.jpg","3","","","","","","","","","","","","","","","","","","","","","","","","",""
"377","","image-button-response","128","383008","0.0-128.0-0.0","A3F5Z5S2AHMN2O","img_art/14.jpg","5","","","","","","","","","","","","","","","","","","","","","","","","",""
"null","","html-keyboard-response","129","383515","0.0-129.0","A3F5Z5S2AHMN2O","<p style=""font-size: 48px;"">+</p>","","","","","null","allTrialResponses","500","1","12","img_art/14.jpg","16","this painting looks out of focus","Stephen,Luke,Dalton,Luis,Charles,Mitchell","I'm a fan of the background.,13,140,20","looks like it's symbolizing rebirth which is hopeful,22,20,20","nice simple art piece,2,300,20","Love the assortment of colors and flowers, expressing gentle and caring,50,400,20","In some ways it looks natural, but I'm just not feeling it,0,100,20","Tornado, nature. trees falling and displaced creatures. Love the colors though.,1,180,20","Charles","In some ways it looks natural, but I'm just not feeling it,0,100,20","Luis","Love the assortment of colors and flowers, expressing gentle and caring,50,400,20","Mitchell","Tornado, nature. trees falling and displaced creatures. Love the colors though.,1,180,20","0"
"8504","","survey-text","130","392026","0.0-130.0-0.0","A3F5Z5S2AHMN2O","","","","{""Q0"":""the colour choice is too dull""}","","","","","","","","","","","","","","","","","","","","","","",""
"2581","","image-slider-response","131","394610","0.0-131.0","A3F5Z5S2AHMN2O","","","","","-45","","","","","","","","","","","","","","","","","","","","","",""
"null","","image-button-response","132","399617","0.0-132.0","A3F5Z5S2AHMN2O","img_art/2.jpg","null","","","","","","","","","","","","","","","","","","","","","","","","",""
"578","","image-button-response","133","400201","0.0-133.0","A3F5Z5S2AHMN2O","img_art/2.jpg","1","","","","","","","","","","","","","","","","","","","","","","","","",""
"344","","image-button-response","134","400548","0.0-134.0-0.0","A3F5Z5S2AHMN2O","img_art/2.jpg","2","","","","","","","","","","","","","","","","","","","","","","","","",""
"712","","image-button-response","135","401264","0.0-135.0-0.0","A3F5Z5S2AHMN2O","img_art/2.jpg","0","","","","","","","","","","","","","","","","","","","","","","","","",""
"null","","html-keyboard-response","136","402768","0.0-136.0","A3F5Z5S2AHMN2O","<p style=""font-size: 48px;"">+</p>","","","","","null","allTrialResponses","1500","1","13","img_art/2.jpg","-45","the colour choice is too dull","Jordan,Travis,Logan,Luis,Charles,Mitchell","Reminds me of my baby brother,11,160,20","I didn't like this it looked like a kindergardner painted it and the green was out of place.,-46,260,20","omg she's so cute look at that little smile those eyelashes ugh love it,30,360,20","I dont like the expression of this,-19,400,20","I like the green,13,100,20","Dependence. Things relying on each other. Caring,-4,180,20","Travis","I didn't like this it looked like a kindergardner painted it and the green was out of place.,-46,260,20","Logan","omg she's so cute look at that little smile those eyelashes ugh love it,30,360,20","Jordan","Reminds me of my baby brother,11,160,20","0"
"7655","","survey-text","137","410428","0.0-137.0-0.0","A3F5Z5S2AHMN2O","","","","{""Q0"":""this looks like a mistake""}","","","","","","","","","","","","","","","","","","","","","","",""
"2782","","image-slider-response","138","413213","0.0-138.0","A3F5Z5S2AHMN2O","","","","","-46","","","","","","","","","","","","","","","","","","","","","",""
"null","","image-button-response","139","418220","0.0-139.0","A3F5Z5S2AHMN2O","img_art/29.jpg","null","","","","","","","","","","","","","","","","","","","","","","","","",""
"2183","","image-button-response","140","420406","0.0-140.0","A3F5Z5S2AHMN2O","img_art/29.jpg","2","","","","","","","","","","","","","","","","","","","","","","","","",""
"764","","image-button-response","141","421172","0.0-141.0-0.0","A3F5Z5S2AHMN2O","img_art/29.jpg","0","","","","","","","","","","","","","","","","","","","","","","","","",""
"796","","image-button-response","142","421972","0.0-142.0-0.0","A3F5Z5S2AHMN2O","img_art/29.jpg","3","","","","","","","","","","","","","","","","","","","","","","","","",""
"null","","html-keyboard-response","143","423478","0.0-143.0","A3F5Z5S2AHMN2O","<p style=""font-size: 48px;"">+</p>","","","","","null","allTrialResponses","1500","1","14","img_art/29.jpg","-46","this looks like a mistake","Jordan,Travis,Logan,William,Patrick,Gabriel","Messy and disorganized, to odark,-31,160,20","Neural...just a blackboard jungle.,3,260,20","is this supposed to be edgy,-21,360,20","makes me think of destruction,-20,380,20","I don't like the black,-50,280,20","dont like this one,-20,160,20","Logan","is this supposed to be edgy,-21,360,20","Jordan","Messy and disorganized, to odark,-31,160,20","William","makes me think of destruction,-20,380,20","0"
"6944","","survey-text","144","430431","0.0-144.0-0.0","A3F5Z5S2AHMN2O","","","","{""Q0"":""this looks like postage stamps ""}","","","","","","","","","","","","","","","","","","","","","","",""
"3291.4000000003725","","image-slider-response","145","433725","0.0-145.0","A3F5Z5S2AHMN2O","","","","","15","","","","","","","","","","","","","","","","","","","","","",""
"null","","image-button-response","146","438732","0.0-146.0","A3F5Z5S2AHMN2O","img_art/12.jpg","null","","","","","","","","","","","","","","","","","","","","","","","","",""
"389","","image-button-response","147","439124","0.0-147.0","A3F5Z5S2AHMN2O","img_art/12.jpg","0","","","","","","","","","","","","","","","","","","","","","","","","",""
"796","","image-button-response","148","439923","0.0-148.0-0.0","A3F5Z5S2AHMN2O","img_art/12.jpg","4","","","","","","","","","","","","","","","","","","","","","","","","",""
"336","","image-button-response","149","440263","0.0-149.0-0.0","A3F5Z5S2AHMN2O","img_art/12.jpg","3","","","","","","","","","","","","","","","","","","","","","","","","",""
"null","","html-keyboard-response","150","441766","0.0-150.0","A3F5Z5S2AHMN2O","<p style=""font-size: 48px;"">+</p>","","","","","null","allTrialResponses","1500","1","15","img_art/12.jpg","15","this looks like postage stamps ","Jordan,Corey,Logan,William,Ethan,Marcus","Made me uncomfortable, reminded me of the 90s,-9,160,20","I like the bottom half and hate the top half,7,260,20","giving me major endless summer vibes,26,360,20","to contemporary for me,3,380,20","The colors are ok. The piece reminds me of the 90s era, so I kinda like it!,-4,120,20","I like the colors in the bottom half of the painting,10,60,20","Jordan","Made me uncomfortable, reminded me of the 90s,-9,160,20","Ethan","The colors are ok. The piece reminds me of the 90s era, so I kinda like it!,-4,120,20","William","to contemporary for me,3,380,20","0"
"5141","","survey-text","151","446920","0.0-151.0-0.0","A3F5Z5S2AHMN2O","","","","{""Q0"":""course""}","","","","","","","","","","","","","","","","","","","","","","",""
"5960","","survey-text","152","452882","0.0-152.0-0.0","A3F5Z5S2AHMN2O","","","","{""Q0"":""this makes me feel sea sick""}","","","","","","","","","","","","","","","","","","","","","","",""
"2588.5999999996275","","image-slider-response","153","455474","0.0-153.0","A3F5Z5S2AHMN2O","","","","","-47","","","","","","","","","","","","","","","","","","","","","",""
"null","","image-button-response","154","460478","0.0-154.0","A3F5Z5S2AHMN2O","img_art/11.jpg","null","","","","","","","","","","","","","","","","","","","","","","","","",""
"544","","image-button-response","155","461025","0.0-155.0","A3F5Z5S2AHMN2O","img_art/11.jpg","0","","","","","","","","","","","","","","","","","","","","","","","","",""
"762","","image-button-response","156","461791","0.0-156.0-0.0","A3F5Z5S2AHMN2O","img_art/11.jpg","3","","","","","","","","","","","","","","","","","","","","","","","","",""
"321","","image-button-response","157","462116","0.0-157.0-0.0","A3F5Z5S2AHMN2O","img_art/11.jpg","4","","","","","","","","","","","","","","","","","","","","","","","","",""
"null","","html-keyboard-response","158","462618","0.0-158.0","A3F5Z5S2AHMN2O","<p style=""font-size: 48px;"">+</p>","","","","","null","allTrialResponses","500","1","16","img_art/11.jpg","-47","this makes me feel sea sick","Jordan,Edward,Alexis,William,Ethan,Isaiah","Rainy highways in RI,20,160,20","Reminds me of a city and how chaotic it can be,22,60,20","This photo makes me feel bleak,-16,140,20","reminds me of a rainy day in the city,32,380,20","I don't care for the color combo. The wavy lines give dimension though.,-13,120,20","I feel excited, like I'm in the middle of a bustling city.,26,300,20","Jordan","Rainy highways in RI,20,160,20","William","reminds me of a rainy day in the city,32,380,20","Ethan","I don't care for the color combo. The wavy lines give dimension though.,-13,120,20","0"
"6328","","survey-text","159","468954","0.0-159.0-0.0","A3F5Z5S2AHMN2O","","","","{""Q0"":""looks like green marker ruined it""}","","","","","","","","","","","","","","","","","","","","","","",""
"2056.5","","image-slider-response","160","471012","0.0-160.0","A3F5Z5S2AHMN2O","","","","","-48","","","","","","","","","","","","","","","","","","","","","",""
"null","","image-button-response","161","476019","0.0-161.0","A3F5Z5S2AHMN2O","img_art/27.jpg","null","","","","","","","","","","","","","","","","","","","","","","","","",""
"390","","image-button-response","162","476411","0.0-162.0","A3F5Z5S2AHMN2O","img_art/27.jpg","0","","","","","","","","","","","","","","","","","","","","","","","","",""
"336","","image-button-response","163","476750","0.0-163.0-0.0","A3F5Z5S2AHMN2O","img_art/27.jpg","1","","","","","","","","","","","","","","","","","","","","","","","","",""
"287","","image-button-response","164","477042","0.0-164.0-0.0","A3F5Z5S2AHMN2O","img_art/27.jpg","2","","","","","","","","","","","","","","","","","","","","","","","","",""
"null","","html-keyboard-response","165","477544","0.0-165.0","A3F5Z5S2AHMN2O","<p style=""font-size: 48px;"">+</p>","","","","","null","allTrialResponses","500","1","17","img_art/27.jpg","-48","looks like green marker ruined it","Jordan,Benjamin,Jake,William,Ethan,Christian","Looks like a little kids drawing,20,160,20","I like the colors.,6,260,20","This looks like a poor copy of Cy Twombly's style.,-3,360,20","reminds me of fall,33,380,20","I like the layer upon layer of different mediums used here.,21,120,20","don't understand, the green induces confusion,1,140,20","Jordan","Looks like a little kids drawing,20,160,20","Benjamin","I like the colors.,6,260,20","Jake","This looks like a poor copy of Cy Twombly's style.,-3,360,20","0"
"7850","","survey-text","166","485402","0.0-166.0-0.0","A3F5Z5S2AHMN2O","","","","{""Q0"":""looks like a violin body""}","","","","","","","","","","","","","","","","","","","","","","",""
"1820","","image-slider-response","167","487225","0.0-167.0","A3F5Z5S2AHMN2O","","","","","10","","","","","","","","","","","","","","","","","","","","","",""
"null","","image-button-response","168","492233","0.0-168.0","A3F5Z5S2AHMN2O","img_art/10.jpg","null","","","","","","","","","","","","","","","","","","","","","","","","",""
"543","","image-button-response","169","492779","0.0-169.0","A3F5Z5S2AHMN2O","img_art/10.jpg","5","","","","","","","","","","","","","","","","","","","","","","","","",""
"811","","image-button-response","170","493595","0.0-170.0-0.0","A3F5Z5S2AHMN2O","img_art/10.jpg","3","","","","","","","","","","","","","","","","","","","","","","","","",""
"309","","image-button-response","171","493909","0.0-171.0-0.0","A3F5Z5S2AHMN2O","img_art/10.jpg","4","","","","","","","","","","","","","","","","","","","","","","","","",""
"null","","html-keyboard-response","172","494914","0.0-172.0","A3F5Z5S2AHMN2O","<p style=""font-size: 48px;"">+</p>","","","","","null","allTrialResponses","1000","1","18","img_art/10.jpg","10","looks like a violin body","Jordan,Benjamin,Jake,Jared,Garrett,Jose","Looks gross and messy,-39,160,20","This picture just seems depressing.,-26,260,20","This is odd and ugly.,-9,360,20","it just doesnt appeal to me.,-10,400,20","I can't tell what this picture is supposed to mean and I think the colors are lacking variety.,-42,180,20","This is pretty rad. The outline looks like a music staff,15,200,20","Jose","This is pretty rad. The outline looks like a music staff,15,200,20","Jared","it just doesnt appeal to me.,-10,400,20","Garrett","I can't tell what this picture is supposed to mean and I think the colors are lacking variety.,-42,180,20","0"
"4929","","survey-text","173","499848","0.0-173.0-0.0","A3F5Z5S2AHMN2O","","","","{""Q0"":""is this finger paint?""}","","","","","","","","","","","","","","","","","","","","","","",""
"2321.800000000745","","image-slider-response","174","502174","0.0-174.0","A3F5Z5S2AHMN2O","","","","","-19","","","","","","","","","","","","","","","","","","","","","",""
"null","","image-button-response","175","507183","0.0-175.0","A3F5Z5S2AHMN2O","img_art/30.jpg","null","","","","","","","","","","","","","","","","","","","","","","","","",""
"117","","image-button-response","176","507302","0.0-176.0","A3F5Z5S2AHMN2O","img_art/30.jpg","4","","","","","","","","","","","","","","","","","","","","","","","","",""
"1030","","image-button-response","177","508336","0.0-177.0-0.0","A3F5Z5S2AHMN2O","img_art/30.jpg","1","","","","","","","","","","","","","","","","","","","","","","","","",""
"818","","image-button-response","178","509159","0.0-178.0-0.0","A3F5Z5S2AHMN2O","img_art/30.jpg","3","","","","","","","","","","","","","","","","","","","","","","","","",""
"null","","html-keyboard-response","179","510665","0.0-179.0","A3F5Z5S2AHMN2O","<p style=""font-size: 48px;"">+</p>","","","","","null","allTrialResponses","1500","1","19","img_art/30.jpg","-19","is this finger paint?","Austin,Shawn,Mason,Jared,Garrett,Jose","Love the bold brush strokes and the illusion it creates,50,240,20","Muddy, sloppy, unprofessional,-44,100,20","Neat, but simple, I could make this. not skilled.,9,100,20","i dont like how the colors are mixed,-6,400,20","I feel like the colors are too repetitive and not very eyecatching.,-20,180,20","For some reason I like the red in this one. Maybe it's the style of lines/blurs,46,200,20","Garrett","I feel like the colors are too repetitive and not very eyecatching.,-20,180,20","Shawn","Muddy, sloppy, unprofessional,-44,100,20","Jared","i dont like how the colors are mixed,-6,400,20","0"
"6288","","survey-text","180","516960","0.0-180.0-0.0","A3F5Z5S2AHMN2O","","","","{""Q0"":""how is this fingerpaint even art""}","","","","","","","","","","","","","","","","","","","","","","",""
"2031.800000000745","","image-slider-response","181","518994","0.0-181.0","A3F5Z5S2AHMN2O","","","","","-28","","","","","","","","","","","","","","","","","","","","","",""
"null","","image-button-response","182","524000","0.0-182.0","A3F5Z5S2AHMN2O","img_art/26.jpg","null","","","","","","","","","","","","","","","","","","","","","","","","",""
"346","","image-button-response","183","524348","0.0-183.0","A3F5Z5S2AHMN2O","img_art/26.jpg","1","","","","","","","","","","","","","","","","","","","","","","","","",""
"520","","image-button-response","184","524870","0.0-184.0-0.0","A3F5Z5S2AHMN2O","img_art/26.jpg","0","","","","","","","","","","","","","","","","","","","","","","","","",""
"879","","image-button-response","185","525753","0.0-185.0-0.0","A3F5Z5S2AHMN2O","img_art/26.jpg","3","","","","","","","","","","","","","","","","","","","","","","","","",""
"null","","html-keyboard-response","186","526757","0.0-186.0","A3F5Z5S2AHMN2O","<p style=""font-size: 48px;"">+</p>","","","","","null","allTrialResponses","1000","1","20","img_art/26.jpg","-28","how is this fingerpaint even art","Lucas,Shawn,Bryce,Jared,Garrett,Bryan","Nothing to say.,0,380,20","Not great use of space and brush strokes seem indistinct/accidental,-30,100,20","Love the colors in this one.,22,20,20","soothing and subtle,1,400,20","I like that it looks like an actual picture and isn't just random colors.,25,180,20","Like the muted colors & the scene which seems to be serene.,14,400,20","Shawn","Not great use of space and brush strokes seem indistinct/accidental,-30,100,20","Lucas","Nothing to say.,0,380,20","Jared","soothing and subtle,1,400,20","0"
"2413","","survey-text","187","529184","0.0-187.0-0.0","A3F5Z5S2AHMN2O","","","","{""Q0"":""we""}","","","","","","","","","","","","","","","","","","","","","","",""
"4742","","survey-text","188","533930","0.0-188.0-0.0","A3F5Z5S2AHMN2O","","","","{""Q0"":""red fury here""}","","","","","","","","","","","","","","","","","","","","","","",""
"2217.2000000011176","","image-slider-response","189","536150","0.0-189.0","A3F5Z5S2AHMN2O","","","","","-6","","","","","","","","","","","","","","","","","","","","","",""
"null","","image-button-response","190","541157","0.0-190.0","A3F5Z5S2AHMN2O","img_art/1.jpg","null","","","","","","","","","","","","","","","","","","","","","","","","",""
"438","","image-button-response","191","541597","0.0-191.0","A3F5Z5S2AHMN2O","img_art/1.jpg","2","","","","","","","","","","","","","","","","","","","","","","","","",""
"384","","image-button-response","192","541985","0.0-192.0-0.0","A3F5Z5S2AHMN2O","img_art/1.jpg","0","","","","","","","","","","","","","","","","","","","","","","","","",""
"1789","","image-button-response","193","543778","0.0-193.0-0.0","A3F5Z5S2AHMN2O","img_art/1.jpg","3","","","","","","","","","","","","","","","","","","","","","","","","",""
"null","","html-keyboard-response","194","544786","0.0-194.0","A3F5Z5S2AHMN2O","<p style=""font-size: 48px;"">+</p>","","","","","null","allTrialResponses","1000","1","21","img_art/1.jpg","-6","red fury here","Lucas,Shawn,Dustin,Jared,Cole,Vincent","The colors match and create a nice artistic disorder.,20,380,20","Powerful colors.,31,100,20","Too messy. Just looks like a mess of dark colors.,-20,20,20","there isnt anything clear to look at,-2,400,20","I like the colors. But it doesnt look like anything,27,200,20","I love the detail and colors like a beautiful autumn day,35,360,20","Dustin","Too messy. Just looks like a mess of dark colors.,-20,20,20","Lucas","The colors match and create a nice artistic disorder.,20,380,20","Jared","there isnt anything clear to look at,-2,400,20","0"
"7464","","survey-text","195","552258","0.0-195.0-0.0","A3F5Z5S2AHMN2O","","","","{""Q0"":""looks like a bird on a peach""}","","","","","","","","","","","","","","","","","","","","","","",""
"2394.800000000745","","image-slider-response","196","554656","0.0-196.0","A3F5Z5S2AHMN2O","","","","","24","","","","","","","","","","","","","","","","","","","","","",""
"null","","image-button-response","197","559661","0.0-197.0","A3F5Z5S2AHMN2O","img_art/6.jpg","null","","","","","","","","","","","","","","","","","","","","","","","","",""
"936","","image-button-response","198","560602","0.0-198.0","A3F5Z5S2AHMN2O","img_art/6.jpg","1","","","","","","","","","","","","","","","","","","","","","","","","",""
"527","","image-button-response","199","561134","0.0-199.0-0.0","A3F5Z5S2AHMN2O","img_art/6.jpg","0","","","","","","","","","","","","","","","","","","","","","","","","",""
"334","","image-button-response","200","561473","0.0-200.0-0.0","A3F5Z5S2AHMN2O","img_art/6.jpg","2","","","","","","","","","","","","","","","","","","","","","","","","",""
"null","","html-keyboard-response","201","562975","0.0-201.0","A3F5Z5S2AHMN2O","<p style=""font-size: 48px;"">+</p>","","","","","null","allTrialResponses","1500","1","22","img_art/6.jpg","24","looks like a bird on a peach","Lucas,Nicholas,Dustin,Jared,Kyle,Elijah","Nothing special.,-20,380,20","It isnt bad but sort of too bland,0,240,20","I like the warmth of the orange. But, I feel like it's a partial view. I'm frustrated I can't see the entirety.,-20,20,20","simplistic. i love orange and green and i love the subject,50,400,20","Simple and clean,11,340,20","Not impressed, just very plain,-10,80,20","Nicholas","It isnt bad but sort of too bland,0,240,20","Lucas","Nothing special.,-20,380,20","Dustin","I like the warmth of the orange. But, I feel like it's a partial view. I'm frustrated I can't see the entirety.,-20,20,20","0"
"8525","","survey-text","202","571511","0.0-202.0-0.0","A3F5Z5S2AHMN2O","","","","{""Q0"":""this looks likd a germ cell""}","","","","","","","","","","","","","","","","","","","","","","",""
"1878.5","","image-slider-response","203","573393","0.0-203.0","A3F5Z5S2AHMN2O","","","","","-18","","","","","","","","","","","","","","","","","","","","","",""
"null","","image-button-response","204","578400","0.0-204.0","A3F5Z5S2AHMN2O","img_art/9.jpg","null","","","","","","","","","","","","","","","","","","","","","","","","",""
"1040","","image-button-response","205","579443","0.0-205.0","A3F5Z5S2AHMN2O","img_art/9.jpg","3","","","","","","","","","","","","","","","","","","","","","","","","",""
"431","","image-button-response","206","579879","0.0-206.0-0.0","A3F5Z5S2AHMN2O","img_art/9.jpg","4","","","","","","","","","","","","","","","","","","","","","","","","",""
"335","","image-button-response","207","580218","0.0-207.0-0.0","A3F5Z5S2AHMN2O","img_art/9.jpg","5","","","","","","","","","","","","","","","","","","","","","","","","",""
"null","","html-keyboard-response","208","580720","0.0-208.0","A3F5Z5S2AHMN2O","<p style=""font-size: 48px;"">+</p>","","","","","null","allTrialResponses","500","1","23","img_art/9.jpg","-18","this looks likd a germ cell","Lucas,Nicholas,Dustin,Evan,Grant,Timothy","I like the way the artist has painted his painting.,20,380,20","Some nice colors but i do not like it,-18,240,20","I like the blues and pinks. The woman lying down communicates relaxation. It is a serene, calming scene,30,20,20","It makes me think of Snow White sleeping,11,140,20","The colors are pretty, and remind me of a circus.,5,200,20","A little too weird for me,-30,240,20","Evan","It makes me think of Snow White sleeping,11,140,20","Grant","The colors are pretty, and remind me of a circus.,5,200,20","Timothy","A little too weird for me,-30,240,20","0"
"7808","","survey-text","209","588537","0.0-209.0-0.0","A3F5Z5S2AHMN2O","","","","{""Q0"":""this looks like a dream explosion""}","","","","","","","","","","","","","","","","","","","","","","",""
"2418.9000000003725","","image-slider-response","210","590959","0.0-210.0","A3F5Z5S2AHMN2O","","","","","22","","","","","","","","","","","","","","","","","","","","","",""
"null","","image-button-response","211","595964","0.0-211.0","A3F5Z5S2AHMN2O","img_art/17.jpg","null","","","","","","","","","","","","","","","","","","","","","","","","",""
"419","","image-button-response","212","596386","0.0-212.0","A3F5Z5S2AHMN2O","img_art/17.jpg","0","","","","","","","","","","","","","","","","","","","","","","","","",""
"682","","image-button-response","213","597072","0.0-213.0-0.0","A3F5Z5S2AHMN2O","img_art/17.jpg","4","","","","","","","","","","","","","","","","","","","","","","","","",""
"737","","image-button-response","214","597816","0.0-214.0-0.0","A3F5Z5S2AHMN2O","img_art/17.jpg","5","","","","","","","","","","","","","","","","","","","","","","","","",""
"null","","html-keyboard-response","215","598818","0.0-215.0","A3F5Z5S2AHMN2O","<p style=""font-size: 48px;"">+</p>","","","","","null","allTrialResponses","1000","1","24","img_art/17.jpg","22","this looks like a dream explosion","Zachary,Cody,Sean,Evan,Grant,Timothy","Reminds me of a beautiful tree growing in a courtyard. I like the light and airy technique used.,34,400,20","Love the colors and the movement,46,180,20","my response to the picture is that it looks beautiful,27,40,20","This reminds me of spring,24,140,20","This makes me feel trapped.,5,200,20","This feels like creativity and limitlessness,30,240,20","Zachary","Reminds me of a beautiful tree growing in a courtyard. I like the light and airy technique used.,34,400,20","Grant","This makes me feel trapped.,5,200,20","Timothy","This feels like creativity and limitlessness,30,240,20","0"
"6261","","survey-text","216","605088","0.0-216.0-0.0","A3F5Z5S2AHMN2O","","","","{""Q0"":""looks like clouds of battle""}","","","","","","","","","","","","","","","","","","","","","","",""
"1579.9000000003725","","image-slider-response","217","606671","0.0-217.0","A3F5Z5S2AHMN2O","","","","","-10","","","","","","","","","","","","","","","","","","","","","",""
"null","","image-button-response","218","611675","0.0-218.0","A3F5Z5S2AHMN2O","img_art/21.jpg","null","","","","","","","","","","","","","","","","","","","","","","","","",""
"344","","image-button-response","219","612022","0.0-219.0","A3F5Z5S2AHMN2O","img_art/21.jpg","0","","","","","","","","","","","","","","","","","","","","","","","","",""
"328","","image-button-response","220","612353","0.0-220.0-0.0","A3F5Z5S2AHMN2O","img_art/21.jpg","1","","","","","","","","","","","","","","","","","","","","","","","","",""
"495","","image-button-response","221","612852","0.0-221.0-0.0","A3F5Z5S2AHMN2O","img_art/21.jpg","2","","","","","","","","","","","","","","","","","","","","","","","","",""
"null","","html-keyboard-response","222","614355","0.0-222.0","A3F5Z5S2AHMN2O","<p style=""font-size: 48px;"">+</p>","","","","","null","allTrialResponses","1500","1","25","img_art/21.jpg","-10","looks like clouds of battle","Zachary,Seth,Nathan,Gregory,Grant,Timothy","Looks like a body of water during a sunset. I like this piece.,21,400,20","Makes me feel light and airy. Like I've gone back in time to 1700th century France.,43,60,20","I like it. It's some of war-scene, bloodshed and battle on the left, field of dispair on the right, dark and rich,40,200,20","Contrast of fire and water looks cool,20,220,20","The colors make me think of a perilous scene at sea, and are pretty interesting.,15,200,20","Very calming and soft, makes me feel good,31,240,20","Zachary","Looks like a body of water during a sunset. I like this piece.,21,400,20","Seth","Makes me feel light and airy. Like I've gone back in time to 1700th century France.,43,60,20","Nathan","I like it. It's some of war-scene, bloodshed and battle on the left, field of dispair on the right, dark and rich,40,200,20","0"
"4361","","survey-text","223","618730","0.0-223.0-0.0","A3F5Z5S2AHMN2O","","","","{""Q0"":""table""}","","","","","","","","","","","","","","","","","","","","","","",""
"6255","","survey-text","224","624989","0.0-224.0-0.0","A3F5Z5S2AHMN2O","","","","{""Q0"":""freaky like halloween""}","","","","","","","","","","","","","","","","","","","","","","",""
"2741.800000000745","","image-slider-response","225","627733","0.0-225.0","A3F5Z5S2AHMN2O","","","","","-35","","","","","","","","","","","","","","","","","","","","","",""
"null","","image-button-response","226","632738","0.0-226.0","A3F5Z5S2AHMN2O","img_art/25.jpg","null","","","","","","","","","","","","","","","","","","","","","","","","",""
"409","","image-button-response","227","633150","0.0-227.0","A3F5Z5S2AHMN2O","img_art/25.jpg","1","","","","","","","","","","","","","","","","","","","","","","","","",""
"320","","image-button-response","228","633473","0.0-228.0-0.0","A3F5Z5S2AHMN2O","img_art/25.jpg","0","","","","","","","","","","","","","","","","","","","","","","","","",""
"335","","image-button-response","229","633812","0.0-229.0-0.0","A3F5Z5S2AHMN2O","img_art/25.jpg","2","","","","","","","","","","","","","","","","","","","","","","","","",""
"null","","html-keyboard-response","230","634816","0.0-230.0","A3F5Z5S2AHMN2O","<p style=""font-size: 48px;"">+</p>","","","","","null","allTrialResponses","1000","1","26","img_art/25.jpg","-35","freaky like halloween","Zachary,Seth,Nathan,Robert,Kenneth,Peter","I like the green color, but the combination of green and a person with a long neck reminds me of aliens,-27,400,20","This piece feels cultural. Like it represents something culturally.,22,60,20","I like it, a bit cryptic and obscene, I enjoy that,30,200,20","It made me think of healing.,22,360,20","I love the color. I don't know what exactly is going on but I like it.,24,300,20","It's very mystical.,5,320,20","Seth","This piece feels cultural. Like it represents something culturally.,22,60,20","Zachary","I like the green color, but the combination of green and a person with a long neck reminds me of aliens,-27,400,20","Nathan","I like it, a bit cryptic and obscene, I enjoy that,30,200,20","0"
"6797","","survey-text","231","641623","0.0-231.0-0.0","A3F5Z5S2AHMN2O","","","","{""Q0"":""I have nothing to day about this""}","","","","","","","","","","","","","","","","","","","","","","",""
"2395.199999999255","","image-slider-response","232","644021","0.0-232.0","A3F5Z5S2AHMN2O","","","","","3","","","","","","","","","","","","","","","","","","","","","",""
"null","","image-button-response","233","649027","0.0-233.0","A3F5Z5S2AHMN2O","img_art/20.jpg","null","","","","","","","","","","","","","","","","","","","","","","","","",""
"1661","","image-button-response","234","650691","0.0-234.0","A3F5Z5S2AHMN2O","img_art/20.jpg","3","","","","","","","","","","","","","","","","","","","","","","","","",""
"356","","image-button-response","235","651055","0.0-235.0-0.0","A3F5Z5S2AHMN2O","img_art/20.jpg","4","","","","","","","","","","","","","","","","","","","","","","","","",""
"342","","image-button-response","236","651402","0.0-236.0-0.0","A3F5Z5S2AHMN2O","img_art/20.jpg","5","","","","","","","","","","","","","","","","","","","","","","","","",""
"null","","html-keyboard-response","237","652409","0.0-237.0","A3F5Z5S2AHMN2O","<p style=""font-size: 48px;"">+</p>","","","","","null","allTrialResponses","1000","1","27","img_art/20.jpg","3","I have nothing to day about this","Zachary,Seth,Nathan,Colton,Jeremy,Michael","While interesting in technique.. It looks like a blurry car wreck. Does not evoke great emotions.,-20,400,20","I'm not sure why this reminds me of surrealism. It might be the colors used.,16,60,20","Don't really like the subject it focuses on, however the color usage is great,-10,200,20","reminds me of Salvadore Dali,24,220,20","scared. makes me feel alone or abandoned,-11,60,20","Brings about an emotion response of dspair. Loose lines but yet has a cohesion.,8,140,20","Colton","reminds me of Salvadore Dali,24,220,20","Jeremy","scared. makes me feel alone or abandoned,-11,60,20","Michael","Brings about an emotion response of dspair. Loose lines but yet has a cohesion.,8,140,20","0"
"8778","","survey-text","238","661196","0.0-238.0-0.0","A3F5Z5S2AHMN2O","","","","{""Q0"":""this looks like a busy italian street""}","","","","","","","","","","","","","","","","","","","","","","",""
"2169.699999999255","","image-slider-response","239","663369","0.0-239.0","A3F5Z5S2AHMN2O","","","","","22","","","","","","","","","","","","","","","","","","","","","",""
"null","","image-button-response","240","668376","0.0-240.0","A3F5Z5S2AHMN2O","img_art/19.jpg","null","","","","","","","","","","","","","","","","","","","","","","","","",""
"716","","image-button-response","241","669096","0.0-241.0","A3F5Z5S2AHMN2O","img_art/19.jpg","0","","","","","","","","","","","","","","","","","","","","","","","","",""
"340","","image-button-response","242","669438","0.0-242.0-0.0","A3F5Z5S2AHMN2O","img_art/19.jpg","2","","","","","","","","","","","","","","","","","","","","","","","","",""
"578","","image-button-response","243","670019","0.0-243.0-0.0","A3F5Z5S2AHMN2O","img_art/19.jpg","1","","","","","","","","","","","","","","","","","","","","","","","","",""
"null","","html-keyboard-response","244","670522","0.0-244.0","A3F5Z5S2AHMN2O","<p style=""font-size: 48px;"">+</p>","","","","","null","allTrialResponses","500","1","28","img_art/19.jpg","22","this looks like a busy italian street","Ian,Connor,Trevor,Colton,Jeremy,Michael","It looks cool but at the time looks like it was done by a talented 5 year old.,13,260,20","Childish music hall,-20,240,20","i like the colors and the way it looks like an actual scene,18,280,20","way too much going on,-33,220,20","it's too busy for me. Makes me feel stressed.,1,60,20","Loks like an amature did it, Not pleasing.,-45,140,20","Ian","It looks cool but at the time looks like it was done by a talented 5 year old.,13,260,20","Trevor","i like the colors and the way it looks like an actual scene,18,280,20","Connor","Childish music hall,-20,240,20","0"
"9801","","survey-text","245","680333","0.0-245.0-0.0","A3F5Z5S2AHMN2O","","","","{""Q0"":""this looks like splashed paint on a pole""}","","","","","","","","","","","","","","","","","","","","","","",""
"2031.300000000745","","image-slider-response","246","682367","0.0-246.0","A3F5Z5S2AHMN2O","","","","","-28","","","","","","","","","","","","","","","","","","","","","",""
"null","","image-button-response","247","687373","0.0-247.0","A3F5Z5S2AHMN2O","img_art/13.jpg","null","","","","","","","","","","","","","","","","","","","","","","","","",""
"439","","image-button-response","248","687815","0.0-248.0","A3F5Z5S2AHMN2O","img_art/13.jpg","0","","","","","","","","","","","","","","","","","","","","","","","","",""
"328","","image-button-response","249","688146","0.0-249.0-0.0","A3F5Z5S2AHMN2O","img_art/13.jpg","1","","","","","","","","","","","","","","","","","","","","","","","","",""
"457","","image-button-response","250","688606","0.0-250.0-0.0","A3F5Z5S2AHMN2O","img_art/13.jpg","2","","","","","","","","","","","","","","","","","","","","","","","","",""
"null","","html-keyboard-response","251","690110","0.0-251.0","A3F5Z5S2AHMN2O","<p style=""font-size: 48px;"">+</p>","","","","","null","allTrialResponses","1500","1","29","img_art/13.jpg","-28","this looks like splashed paint on a pole","Ian,Connor,Trevor,Anthony,Victor,Blake","This looks like something that could be made off of windows paint, not a huge fan.,-30,260,20","Color palette is complementary,40,240,20","i like the colors but it looks like something that would hang in a hotel,18,280,20","I like the color scheme,41,200,20","Great color balance. I like the splatter, and how the vertical lines go from sharper to more blended.,31,340,20","warm splash of salt water from ocean,16,280,20","Ian","This looks like something that could be made off of windows paint, not a huge fan.,-30,260,20","Connor","Color palette is complementary,40,240,20","Trevor","i like the colors but it looks like something that would hang in a hotel,18,280,20","0"
"7251","","survey-text","252","697372","0.0-252.0-0.0","A3F5Z5S2AHMN2O","","","","{""Q0"":""this looks like the mouth of a monster""}","","","","","","","","","","","","","","","","","","","","","","",""
"1565.2999999988824","","image-slider-response","253","698940","0.0-253.0","A3F5Z5S2AHMN2O","","","","","-28","","","","","","","","","","","","","","","","","","","","","",""
"null","","image-button-response","254","703944","0.0-254.0","A3F5Z5S2AHMN2O","img_art/23.jpg","null","","","","","","","","","","","","","","","","","","","","","","","","",""
"1372","","image-button-response","255","705321","0.0-255.0","A3F5Z5S2AHMN2O","img_art/23.jpg","2","","","","","","","","","","","","","","","","","","","","","","","","",""
"351","","image-button-response","256","705676","0.0-256.0-0.0","A3F5Z5S2AHMN2O","img_art/23.jpg","1","","","","","","","","","","","","","","","","","","","","","","","","",""
"350","","image-button-response","257","706032","0.0-257.0-0.0","A3F5Z5S2AHMN2O","img_art/23.jpg","0","","","","","","","","","","","","","","","","","","","","","","","","",""
"null","","html-keyboard-response","258","706534","0.0-258.0","A3F5Z5S2AHMN2O","<p style=""font-size: 48px;"">+</p>","","","","","null","allTrialResponses","500","1","30","img_art/23.jpg","-28","this looks like the mouth of a monster","Ian,Connor,Trevor,Jorge,Jesse,Jeffrey","It's very colorful and different, the white looks like people dancing,26,260,20","Confetti dancer,-7,240,20","nice bright colors but looks like it's from the 90's,6,280,20","puzzled with curiosity,31,180,20","Makes me want to stare at it for hours. Like there is something deeper to find.,37,80,20","Very energetic, seems like it is pulling me in,24,40,20","Trevor","nice bright colors but looks like it's from the 90's,6,280,20","Connor","Confetti dancer,-7,240,20","Ian","It's very colorful and different, the white looks like people dancing,26,260,20","0"
"6616","","image-button-response_instructions","259","713159","0.0-259.0","A3F5Z5S2AHMN2O","","0","instructions","","","","","","","","","","","","","","","","","","","","","","","",""
"1052","","image-button-response","260","714218","0.0-260.0","A3F5Z5S2AHMN2O","","0","","","","","","","","","","","","","","","","","","","","","","","","",""
