"rt","url","trial_type","trial_index","time_elapsed","internal_node_id","participant_id","stimulus","button_pressed","Name","responses","response","key_press","variableName","fixationTime","condition","trial","photo","subjectRating","subjectResponse","agentsNames","agent_1_Response","agent_2_Response","agent_3_Response","agent_4_Response","agent_5_Response","agent_6_Response","kept_1_name","kept_1_response","kept_2_name","kept_2_response","kept_3_name","kept_3_response","errorCounter"
"7967","external_page_harvard.html","external-html","0","8059","0.0-0.0","A3IZMPMBGIEGVP","","","","","","","","","","","","","","","","","","","","","","","","","","",""
"2292","","image-button-response","1","10353","0.0-1.0","A3IZMPMBGIEGVP","","1","","","","","","","","","","","","","","","","","","","","","","","","",""
"3608","","image-button-response","2","13963","0.0-2.0-0.0","A3IZMPMBGIEGVP","","1","phone","","","","","","","","","","","","","","","","","","","","","","","",""
"8165","","survey-text","3","22130","0.0-3.0-0.0","A3IZMPMBGIEGVP","","","","{""Q0"":""A3IZMPMBGIEGVP""}","","","","","","","","","","","","","","","","","","","","","","",""
"8712","","image-button-response_instructions","4","30844","0.0-4.0","A3IZMPMBGIEGVP","","0","instructions","","","","","","","","","","","","","","","","","","","","","","","",""
"15087","","image-button-response_instructions","5","45932","0.0-5.0","A3IZMPMBGIEGVP","img_art/ins/popularity/ins1.png","0","instructions","","","","","","","","","","","","","","","","","","","","","","","",""
"12066","","image-button-response_instructions","6","57998","0.0-6.0","A3IZMPMBGIEGVP","img_art/ins/popularity/ins2.png","0","instructions","","","","","","","","","","","","","","","","","","","","","","","",""
"5795","","image-button-response_instructions","7","63795","0.0-7.0","A3IZMPMBGIEGVP","img_art/ins/popularity/ins2Extreme.png","0","instructions","","","","","","","","","","","","","","","","","","","","","","","",""
"12678","","image-button-response_instructions","8","76474","0.0-8.0","A3IZMPMBGIEGVP","img_art/ins/popularity/ins3KEEPpop.PNG","0","instructions","","","","","","","","","","","","","","","","","","","","","","","",""
"7474","","image-button-response_instructions","9","83950","0.0-9.0","A3IZMPMBGIEGVP","img_art/ins/popularity/ins3ANamepop.PNG","0","instructions","","","","","","","","","","","","","","","","","","","","","","","",""
"5584","","image-button-response_instructions","10","89534","0.0-10.0","A3IZMPMBGIEGVP","img_art/ins/popularity/ins3ARatingpop.png","0","instructions","","","","","","","","","","","","","","","","","","","","","","","",""
"4170","","image-button-response_instructions","11","93704","0.0-11.0","A3IZMPMBGIEGVP","img_art/ins/popularity/ins3ATextpop.png","0","instructions","","","","","","","","","","","","","","","","","","","","","","","",""
"10336","","image-button-response_instructions","12","104042","0.0-12.0","A3IZMPMBGIEGVP","img_art/ins/popularity/ins3ALikespop.png","0","instructions","","","","","","","","","","","","","","","","","","","","","","","",""
"16204","","image-button-response_instructions","13","120247","0.0-13.0","A3IZMPMBGIEGVP","img_art/ins/popularity/ins3KEEPpop.PNG","0","instructions","","","","","","","","","","","","","","","","","","","","","","","",""
"21387","","image-button-response_instructions","14","141635","0.0-14.0","A3IZMPMBGIEGVP","img_art/ins/popularity/ins3_5RED.png","0","instructions","","","","","","","","","","","","","","","","","","","","","","","",""
"4653","","image-button-response_instructions","15","146288","0.0-15.0","A3IZMPMBGIEGVP","img_art/ins/popularity/ins3KEEPpop.PNG","0","instructions","","","","","","","","","","","","","","","","","","","","","","","",""
"13036","","image-button-response_instructions","16","159324","0.0-16.0","A3IZMPMBGIEGVP","img_art/ins/popularity/ins4KEEPpop.PNG","0","instructions","","","","","","","","","","","","","","","","","","","","","","","",""
"10219","","image-button-response_instructions","17","169544","0.0-17.0","A3IZMPMBGIEGVP","img_art/ins/popularity/ins5KEEPpop.PNG","0","instructions","","","","","","","","","","","","","","","","","","","","","","","",""
"3111","","image-button-response_instructions","18","172656","0.0-18.0","A3IZMPMBGIEGVP","","0","instructions","","","","","","","","","","","","","","","","","","","","","","","",""
"7035","","survey-text","19","179705","0.0-19.0-0.0","A3IZMPMBGIEGVP","","","","{""Q0"":""but""}","","","","","","","","","","","","","","","","","","","","","","",""
"25664","","survey-text","20","205371","0.0-20.0-0.0","A3IZMPMBGIEGVP","","","","{""Q0"":""this looks like neopolitan ice cream that melted down a hill""}","","","","","","","","","","","","","","","","","","","","","","",""
"5769.800000011921","","image-slider-response","21","211142","0.0-21.0","A3IZMPMBGIEGVP","","","","","32","","","","","","","","","","","","","","","","","","","","","",""
"null","","image-button-response","22","216146","0.0-22.0","A3IZMPMBGIEGVP","img_art/ins/1.jpg","null","","","","","","","","","","","","","","","","","","","","","","","","",""
"6020","","image-button-response","23","222167","0.0-23.0","A3IZMPMBGIEGVP","img_art/ins/1.jpg","4","","","","","","","","","","","","","","","","","","","","","","","","",""
"4726","","image-button-response","24","226894","0.0-24.0-0.0","A3IZMPMBGIEGVP","img_art/ins/1.jpg","5","","","","","","","","","","","","","","","","","","","","","","","","",""
"19060","","image-button-response","25","245955","0.0-25.0-0.0","A3IZMPMBGIEGVP","img_art/ins/1.jpg","0","","","","","","","","","","","","","","","","","","","","","","","","",""
"null","","html-keyboard-response","26","246957","0.0-26.0","A3IZMPMBGIEGVP","<p style=""font-size: 48px;"">+</p>","","","","","null","allTrialResponses","1000","1","-2","img_art/ins/1.jpg","32","this looks like neopolitan ice cream that melted down a hill","Allison,Ashley,Beth,Dora,Erika,Jen","looks like a lot of things going on in the mist,20,20,20","I just don't get why these type of art would be popular,-32,40,20","This color reminds me of poo,-46,60,20","looks like what my niece in 3rd grade did this afternoon,-50,80,20","I like the sophisticated brushwork,40,100,20","It reminds me of a candy land dream I had,36,120,20","Erika","I like the sophisticated brushwork,40,100,20","Jen","It reminds me of a candy land dream I had,36,120,20","Allison","looks like a lot of things going on in the mist,20,20,20","0"
"23560","","survey-text","27","270520","0.0-27.0-0.0","A3IZMPMBGIEGVP","","","","{""Q0"":""when your 3 year old helps you pain the house .. kewt""}","","","","","","","","","","","","","","","","","","","","","","",""
"3985.5999999940395","","image-slider-response","28","274507","0.0-28.0","A3IZMPMBGIEGVP","","","","","41","","","","","","","","","","","","","","","","","","","","","",""
"null","","image-button-response","29","279509","0.0-29.0","A3IZMPMBGIEGVP","img_art/ins/2.jpg","null","","","","","","","","","","","","","","","","","","","","","","","","",""
"311","","image-button-response","30","279821","0.0-30.0","A3IZMPMBGIEGVP","img_art/ins/2.jpg","1","","","","","","","","","","","","","","","","","","","","","","","","",""
"5172","","image-button-response","31","284994","0.0-31.0-0.0","A3IZMPMBGIEGVP","img_art/ins/2.jpg","4","","","","","","","","","","","","","","","","","","","","","","","","",""
"1642","","image-button-response","32","286638","0.0-32.0-0.0","A3IZMPMBGIEGVP","img_art/ins/2.jpg","5","","","","","","","","","","","","","","","","","","","","","","","","",""
"null","","html-keyboard-response","33","288139","0.0-33.0","A3IZMPMBGIEGVP","<p style=""font-size: 48px;"">+</p>","","","","","null","allTrialResponses","1500","1","-1","img_art/ins/2.jpg","41","when your 3 year old helps you pain the house .. kewt","Allison,Kara,Katie,Jenna,Erika,Jen","I don't have strong feelings about this,10,20,20","I like the blocks of color arrangements,30,160,20","too much color!,-28,180,20","One of my pet peevs,-48,140,20","I would never be able to compose a sophisticated pallete like this,48,100,20","It reminds me of a fireplace,36,120,20","Kara","I like the blocks of color arrangements,30,160,20","Erika","I would never be able to compose a sophisticated pallete like this,48,100,20","Jen","It reminds me of a fireplace,36,120,20","0"
"44660","","survey-text","34","332805","0.0-34.0-0.0","A3IZMPMBGIEGVP","","","","{""Q0"":""this piece could be a real ice-breaker :-)""}","","","","","","","","","","","","","","","","","","","","","","",""
"4728.70000000298","","image-slider-response","35","337535","0.0-35.0","A3IZMPMBGIEGVP","","","","","50","","","","","","","","","","","","","","","","","","","","","",""
"null","","image-button-response","36","342537","0.0-36.0","A3IZMPMBGIEGVP","img_art/ins/3.jpg","null","","","","","","","","","","","","","","","","","","","","","","","","",""
"8541","","image-button-response","37","351081","0.0-37.0","A3IZMPMBGIEGVP","img_art/ins/3.jpg","5","","","","","","","","","","","","","","","","","","","","","","","","",""
"2244","","image-button-response","38","353326","0.0-38.0-0.0","A3IZMPMBGIEGVP","img_art/ins/3.jpg","0","","","","","","","","","","","","","","","","","","","","","","","","",""
"3027","","image-button-response","39","356355","0.0-39.0-0.0","A3IZMPMBGIEGVP","img_art/ins/3.jpg","1","","","","","","","","","","","","","","","","","","","","","","","","",""
"null","","html-keyboard-response","40","356857","0.0-40.0","A3IZMPMBGIEGVP","<p style=""font-size: 48px;"">+</p>","","","","","null","allTrialResponses","500","1","0","img_art/ins/3.jpg","50","this piece could be a real ice-breaker :-)","Mary,Kara,Rose,Leslie,Erika,Jen","I like the overlapping of brushes,41,220,20","calming blue is very nice,36,160,20","My daily routine, it's depressing,-20,240,20","It's an alright work,15,200,20","I feel connected to the artist,40,100,20","I can feel a rainy day from this painting,18,120,20","Jen","I can feel a rainy day from this painting,18,120,20","Mary","I like the overlapping of brushes,41,220,20","Kara","calming blue is very nice,36,160,20","0"
"7440","","image-button-response_instructions","41","364300","0.0-41.0","A3IZMPMBGIEGVP","","0","instructions","","","","","","","","","","","","","","","","","","","","","","","",""
"16347","","survey-likert","42","380649","0.0-42.0-0.0","A3IZMPMBGIEGVP","","","","{""Q0"":"""",""Q1"":0,""Q2"":1}","","","","","","","","","","","","","","","","","","","","","","",""
"5839","","survey-text","43","386494","0.0-43.0-0.0","A3IZMPMBGIEGVP","","","","{""Q0"":""rock""}","","","","","","","","","","","","","","","","","","","","","","",""
"31143","","survey-text","44","417638","0.0-44.0-0.0","A3IZMPMBGIEGVP","","","","{""Q0"":""when my granddaughter decided to get into the make up .. reminds me of funny times""}","","","","","","","","","","","","","","","","","","","","","","",""
"5658.699999988079","","image-slider-response","45","423299","0.0-45.0","A3IZMPMBGIEGVP","","","","","40","","","","","","","","","","","","","","","","","","","","","",""
"null","","image-button-response","46","428314","0.0-46.0","A3IZMPMBGIEGVP","img_art/4.jpg","null","","","","","","","","","","","","","","","","","","","","","","","","",""
"3950","","image-button-response","47","432265","0.0-47.0","A3IZMPMBGIEGVP","img_art/4.jpg","4","","","","","","","","","","","","","","","","","","","","","","","","",""
"2454","","image-button-response","48","434721","0.0-48.0-0.0","A3IZMPMBGIEGVP","img_art/4.jpg","5","","","","","","","","","","","","","","","","","","","","","","","","",""
"23883","","image-button-response","49","458605","0.0-49.0-0.0","A3IZMPMBGIEGVP","img_art/4.jpg","1","","","","","","","","","","","","","","","","","","","","","","","","",""
"null","","html-keyboard-response","50","459107","0.0-50.0","A3IZMPMBGIEGVP","<p style=""font-size: 48px;"">+</p>","","","","","null","allTrialResponses","500","1","1","img_art/4.jpg","40","when my granddaughter decided to get into the make up .. reminds me of funny times","Lindsey,Sierra,Alexa,Sara,Isabella,Paige","Looks like feces smeared on the canvas. I hate it.,-50,400,20","it looks like a deformed hand,-9,260,20","A bit too plain for my tastes,-10,40,20","Random swirls again,-30,160,20","Looks like a creative hand,45,280,20","the colors are calming,31,60,20","Isabella","Looks like a creative hand,45,280,20","Paige","the colors are calming,31,60,20","Sierra","it looks like a deformed hand,-9,260,20","0"
"36429","","survey-text","51","495541","0.0-51.0-0.0","A3IZMPMBGIEGVP","","","","{""Q0"":""this reminds me of an escher piece .. entertainingly confuzzling""}","","","","","","","","","","","","","","","","","","","","","","",""
"8420.5","","image-slider-response","52","503963","0.0-52.0","A3IZMPMBGIEGVP","","","","","46","","","","","","","","","","","","","","","","","","","","","",""
"2028","","image-button-response","53","508964","0.0-53.0","A3IZMPMBGIEGVP","img_art/10.jpg","0","","","","","","","","","","","","","","","","","","","","","","","","",""
"1295","","image-button-response","54","510260","0.0-54.0","A3IZMPMBGIEGVP","img_art/10.jpg","0","","","","","","","","","","","","","","","","","","","","","","","","",""
"5803","","image-button-response","55","516065","0.0-55.0-0.0","A3IZMPMBGIEGVP","img_art/10.jpg","2","","","","","","","","","","","","","","","","","","","","","","","","",""
"7664","","image-button-response","56","523731","0.0-56.0-0.0","A3IZMPMBGIEGVP","img_art/10.jpg","4","","","","","","","","","","","","","","","","","","","","","","","","",""
"null","","html-keyboard-response","57","524733","0.0-57.0","A3IZMPMBGIEGVP","<p style=""font-size: 48px;"">+</p>","","","","","null","allTrialResponses","1000","1","2","img_art/10.jpg","46","this reminds me of an escher piece .. entertainingly confuzzling","Claire,Sierra,Amy,Erica,Isabella,Paige","it looks very musical,24,260,20","it just doesnt appeal to me.,-10,260,20","Highly abstract and yet the shapes and colors provide an emotional accessibility for me.,20,220,20","Relaxing; a lot of going on but colours make it easy to look at,20,80,20","Like a decision making process,46,280,20","kind of happy. it is intriguing,23,60,20","Claire","it looks very musical,24,260,20","Amy","Highly abstract and yet the shapes and colors provide an emotional accessibility for me.,20,220,20","Isabella","Like a decision making process,46,280,20","0"
"36182","","survey-text","58","560920","0.0-58.0-0.0","A3IZMPMBGIEGVP","","","","{""Q0"":""when i had a bit too much to drink in the garden""}","","","","","","","","","","","","","","","","","","","","","","",""
"4592.899999991059","","image-slider-response","59","565514","0.0-59.0","A3IZMPMBGIEGVP","","","","","43","","","","","","","","","","","","","","","","","","","","","",""
"null","","image-button-response","60","570517","0.0-60.0","A3IZMPMBGIEGVP","img_art/27.jpg","null","","","","","","","","","","","","","","","","","","","","","","","","",""
"13243","","image-button-response","61","583763","0.0-61.0","A3IZMPMBGIEGVP","img_art/27.jpg","1","","","","","","","","","","","","","","","","","","","","","","","","",""
"982","","image-button-response","62","584747","0.0-62.0-0.0","A3IZMPMBGIEGVP","img_art/27.jpg","2","","","","","","","","","","","","","","","","","","","","","","","","",""
"1246","","image-button-response","63","585995","0.0-63.0-0.0","A3IZMPMBGIEGVP","img_art/27.jpg","4","","","","","","","","","","","","","","","","","","","","","","","","",""
"null","","html-keyboard-response","64","587496","0.0-64.0","A3IZMPMBGIEGVP","<p style=""font-size: 48px;"">+</p>","","","","","null","allTrialResponses","1500","1","3","img_art/27.jpg","43","when i had a bit too much to drink in the garden","Claire,Heather,Amy,Crystal,Isabella,Jasmine","looks like a little kid did it,-30,260,20","looks like a garden in between two storms.,33,260,20","The colors provide a complexity to the nearly child-like sketches.,5,220,20","Muddied and directionless. Like someone dragged a brush across the paper for the sake of doing something.,-50,300,20","Makes me feel warm inside,21,280,20","I have no strong reactions to this,-1,340,20","Heather","looks like a garden in between two storms.,33,260,20","Amy","The colors provide a complexity to the nearly child-like sketches.,5,220,20","Isabella","Makes me feel warm inside,21,280,20","0"
"50123","","survey-text","65","637624","0.0-65.0-0.0","A3IZMPMBGIEGVP","","","","{""Q0"":""looks like a happy little abstract mess .. i can see it smiling at me saying \""i didn't do it\""""}","","","","","","","","","","","","","","","","","","","","","","",""
"4483.0999999940395","","image-slider-response","66","642109","0.0-66.0","A3IZMPMBGIEGVP","","","","","49","","","","","","","","","","","","","","","","","","","","","",""
"null","","image-button-response","67","647111","0.0-67.0","A3IZMPMBGIEGVP","img_art/2.jpg","null","","","","","","","","","","","","","","","","","","","","","","","","",""
"9337","","image-button-response","68","656448","0.0-68.0","A3IZMPMBGIEGVP","img_art/2.jpg","5","","","","","","","","","","","","","","","","","","","","","","","","",""
"4523","","image-button-response","69","660973","0.0-69.0-0.0","A3IZMPMBGIEGVP","img_art/2.jpg","1","","","","","","","","","","","","","","","","","","","","","","","","",""
"1160","","image-button-response","70","662135","0.0-70.0-0.0","A3IZMPMBGIEGVP","img_art/2.jpg","4","","","","","","","","","","","","","","","","","","","","","","","","",""
"null","","html-keyboard-response","71","663137","0.0-71.0","A3IZMPMBGIEGVP","<p style=""font-size: 48px;"">+</p>","","","","","null","allTrialResponses","1000","1","4","img_art/2.jpg","49","looks like a happy little abstract mess .. i can see it smiling at me saying ""i didn't do it""","Monica,Heather,Amy,Emma,Isabella,Katherine","I like the blue color in the center but that's it, the green is a gross color,-3,360,20","i like the colors and again can make out my own picture,38,260,20","The color palette of this painting is for me displeasing and immature.,-30,220,20","Don't love the colors,-30,60,20","Feels like a playground or park vibe,27,280,20","The color combo is kind of ugly but there's something charming about it still,17,120,20","Katherine","The color combo is kind of ugly but there's something charming about it still,17,120,20","Heather","i like the colors and again can make out my own picture,38,260,20","Isabella","Feels like a playground or park vibe,27,280,20","0"
"62261","","survey-text","72","725401","0.0-72.0-0.0","A3IZMPMBGIEGVP","","","","{""Q0"":""bloody hell .. that's what i would call it .. reminds me of my life during 'shark week'""}","","","","","","","","","","","","","","","","","","","","","","",""
"5332.70000000298","","image-slider-response","73","730735","0.0-73.0","A3IZMPMBGIEGVP","","","","","34","","","","","","","","","","","","","","","","","","","","","",""
"null","","image-button-response","74","735737","0.0-74.0","A3IZMPMBGIEGVP","img_art/3.jpg","null","","","","","","","","","","","","","","","","","","","","","","","","",""
"13832","","image-button-response","75","749571","0.0-75.0","A3IZMPMBGIEGVP","img_art/3.jpg","2","","","","","","","","","","","","","","","","","","","","","","","","",""
"14072","","image-button-response","76","763645","0.0-76.0-0.0","A3IZMPMBGIEGVP","img_art/3.jpg","1","","","","","","","","","","","","","","","","","","","","","","","","",""
"21631","","image-button-response","77","785277","0.0-77.0-0.0","A3IZMPMBGIEGVP","img_art/3.jpg","0","","","","","","","","","","","","","","","","","","","","","","","","",""
"null","","html-keyboard-response","78","786278","0.0-78.0","A3IZMPMBGIEGVP","<p style=""font-size: 48px;"">+</p>","","","","","null","allTrialResponses","1000","1","5","img_art/3.jpg","34","bloody hell .. that's what i would call it .. reminds me of my life during 'shark week'","Madeline,Heather,Mackenzie,Caroline,Isabella,Katherine","Scribbly a bit too much,-30,40,20","Blood splatter and one black spot.,1,260,20","I like the simplicity of it.,20,20,20","The red makes me think of blood which makes me think of pain,-50,100,20","Too much red or blood,-28,280,20","Too much red! Reminds me of blood. I hate blood.,-34,120,20","Mackenzie","I like the simplicity of it.,20,20,20","Heather","Blood splatter and one black spot.,1,260,20","Madeline","Scribbly a bit too much,-30,40,20","0"
"4482","","survey-text","79","790764","0.0-79.0-0.0","A3IZMPMBGIEGVP","","","","{""Q0"":""sky""}","","","","","","","","","","","","","","","","","","","","","","",""
"57983","","survey-text","80","848749","0.0-80.0-0.0","A3IZMPMBGIEGVP","","","","{""Q0"":""Abandon ship! We've got the grim reaper as a stowaway. I repeat -- abandon ship! This is NOT a drill.""}","","","","","","","","","","","","","","","","","","","","","","",""
"2647","","image-slider-response","81","851397","0.0-81.0","A3IZMPMBGIEGVP","","","","","50","","","","","","","","","","","","","","","","","","","","","",""
"null","","image-button-response","82","856399","0.0-82.0","A3IZMPMBGIEGVP","img_art/18.jpg","null","","","","","","","","","","","","","","","","","","","","","","","","",""
"15172","","image-button-response","83","871573","0.0-83.0","A3IZMPMBGIEGVP","img_art/18.jpg","5","","","","","","","","","","","","","","","","","","","","","","","","",""
"3272","","image-button-response","84","874847","0.0-84.0-0.0","A3IZMPMBGIEGVP","img_art/18.jpg","4","","","","","","","","","","","","","","","","","","","","","","","","",""
"1035","","image-button-response","85","875884","0.0-85.0-0.0","A3IZMPMBGIEGVP","img_art/18.jpg","2","","","","","","","","","","","","","","","","","","","","","","","","",""
"null","","html-keyboard-response","86","877385","0.0-86.0","A3IZMPMBGIEGVP","<p style=""font-size: 48px;"">+</p>","","","","","null","allTrialResponses","1500","1","6","img_art/18.jpg","50","Abandon ship! We've got the grim reaper as a stowaway. I repeat -- abandon ship! This is NOT a drill.","Madeline,Heather,Mackenzie,Shelby,Meghan,Jacqueline","Good concept but then scribbled on a bit?,15,40,20","i like the colors in the picture and can make out my own images,42,260,20","The shapes are very fun to interpret,30,20,20","This gives a very ominous feeling,-30,240,20","reminds me of sailors on a boat,17,220,20","Kinda neat, looks like cavalry, or a knight.,15,300,20","Jacqueline","Kinda neat, looks like cavalry, or a knight.,15,300,20","Meghan","reminds me of sailors on a boat,17,220,20","Mackenzie","The shapes are very fun to interpret,30,20,20","0"
"40012","","survey-text","87","917402","0.0-87.0-0.0","A3IZMPMBGIEGVP","","","","{""Q0"":""my journey down the beach AFTER I stayed at the pub to long lol .. luv it""}","","","","","","","","","","","","","","","","","","","","","","",""
"3847.2999999970198","","image-slider-response","88","921251","0.0-88.0","A3IZMPMBGIEGVP","","","","","50","","","","","","","","","","","","","","","","","","","","","",""
"null","","image-button-response","89","926254","0.0-89.0","A3IZMPMBGIEGVP","img_art/19.jpg","null","","","","","","","","","","","","","","","","","","","","","","","","",""
"12257","","image-button-response","90","938512","0.0-90.0","A3IZMPMBGIEGVP","img_art/19.jpg","0","","","","","","","","","","","","","","","","","","","","","","","","",""
"7195","","image-button-response","91","945708","0.0-91.0-0.0","A3IZMPMBGIEGVP","img_art/19.jpg","1","","","","","","","","","","","","","","","","","","","","","","","","",""
"3721","","image-button-response","92","949430","0.0-92.0-0.0","A3IZMPMBGIEGVP","img_art/19.jpg","4","","","","","","","","","","","","","","","","","","","","","","","","",""
"null","","html-keyboard-response","93","949931","0.0-93.0","A3IZMPMBGIEGVP","<p style=""font-size: 48px;"">+</p>","","","","","null","allTrialResponses","500","1","7","img_art/19.jpg","50","my journey down the beach AFTER I stayed at the pub to long lol .. luv it","Sydney,Amanda,Mackenzie,Nicole,Meghan,Jacqueline","I like the color and the mix of sketches along with paint.,30,320,20","Its just a nice painting, nothing too special but nothing negative,25,180,20","Shapes give it a feeling of being crowded,-18,20,20","Feels like something I would hang in my dining room,42,20,20","looks like a shopping center,20,220,20","This is just a mess.,-30,300,20","Sydney","I like the color and the mix of sketches along with paint.,30,320,20","Amanda","Its just a nice painting, nothing too special but nothing negative,25,180,20","Meghan","looks like a shopping center,20,220,20","0"
"97581","","survey-text","94","1047515","0.0-94.0-0.0","A3IZMPMBGIEGVP","","","","{""Q0"":""when i used to commute to/from work .. this was my route home .. always felt like I was melting from the heat and the exhaustion of the day""}","","","","","","","","","","","","","","","","","","","","","","",""
"3676.4000000059605","","image-slider-response","95","1051193","0.0-95.0","A3IZMPMBGIEGVP","","","","","50","","","","","","","","","","","","","","","","","","","","","",""
"null","","image-button-response","96","1056195","0.0-96.0","A3IZMPMBGIEGVP","img_art/11.jpg","null","","","","","","","","","","","","","","","","","","","","","","","","",""
"8316","","image-button-response","97","1064513","0.0-97.0","A3IZMPMBGIEGVP","img_art/11.jpg","2","","","","","","","","","","","","","","","","","","","","","","","","",""
"2731","","image-button-response","98","1067245","0.0-98.0-0.0","A3IZMPMBGIEGVP","img_art/11.jpg","0","","","","","","","","","","","","","","","","","","","","","","","","",""
"15228","","image-button-response","99","1082474","0.0-99.0-0.0","A3IZMPMBGIEGVP","img_art/11.jpg","0","","","","","","","","","","","","","","","","","","","","","","","","",""
"5380","","image-button-response","100","1115485","0.0-99.1-0.1","A3IZMPMBGIEGVP","img_art/11.jpg","0","","","","","","","","","","","","","","","","","","","","","","","","",""
"1058","","image-button-response","101","1119857","0.0-99.2-0.2","A3IZMPMBGIEGVP","img_art/11.jpg","1","","","","","","","","","","","","","","","","","","","","","","","","",""
"null","","html-keyboard-response","102","1120859","0.0-100.0","A3IZMPMBGIEGVP","<p style=""font-size: 48px;"">+</p>","","","","","null","allTrialResponses","1000","1","8","img_art/11.jpg","50","when i used to commute to/from work .. this was my route home .. always felt like I was melting from the heat and the exhaustion of the day","Sydney,Amanda,Cassandra,Jennifer,Meghan,Angelica","I don't like the gloomy color, but it reminds me of a city which I like.,35,320,20","It makes me feel angry and overwhelmed,-29,180,20","I liked it it looked like an roller coasters at an amusment park.,16,120,20","The narrow groups of lines in the center make me feel uneasy for some reason,-31,380,20","makes me feel dizzy,-37,220,20","This is very unappealing.,-11,280,20","Cassandra","I liked it it looked like an roller coasters at an amusment park.,16,120,20","Sydney","I don't like the gloomy color, but it reminds me of a city which I like.,35,320,20","Amanda","It makes me feel angry and overwhelmed,-29,180,20","4"
"188604","","survey-text","103","1309465","0.0-101.0-0.0","A3IZMPMBGIEGVP","","","","{""Q0"":""a factory in the desert? or is it a BBQ palace? I swear that white part to the left looks like a cow head .. hmmmm""}","","","","","","","","","","","","","","","","","","","","","","",""
"4168.100000008941","","image-slider-response","104","1313635","0.0-102.0","A3IZMPMBGIEGVP","","","","","50","","","","","","","","","","","","","","","","","","","","","",""
"null","","image-button-response","105","1318638","0.0-103.0","A3IZMPMBGIEGVP","img_art/20.jpg","null","","","","","","","","","","","","","","","","","","","","","","","","",""
"3882","","image-button-response","106","1322522","0.0-104.0","A3IZMPMBGIEGVP","img_art/20.jpg","2","","","","","","","","","","","","","","","","","","","","","","","","",""
"8047","","image-button-response","107","1330571","0.0-105.0-0.0","A3IZMPMBGIEGVP","img_art/20.jpg","3","","","","","","","","","","","","","","","","","","","","","","","","",""
"1337","","image-button-response","108","1331909","0.0-106.0-0.0","A3IZMPMBGIEGVP","img_art/20.jpg","4","","","","","","","","","","","","","","","","","","","","","","","","",""
"null","","html-keyboard-response","109","1332410","0.0-107.0","A3IZMPMBGIEGVP","<p style=""font-size: 48px;"">+</p>","","","","","null","allTrialResponses","500","1","9","img_art/20.jpg","50","a factory in the desert? or is it a BBQ palace? I swear that white part to the left looks like a cow head .. hmmmm","Sydney,Amanda,Cassandra,Courtney,Kaitlin,Kathryn","I love the color choice.,25,320,20","Too negative looks like a car and plane crash,-50,180,20","I liked this...I liked the blue and the black and I liked the smoothness to it.,31,120,20","The beast is running after you.,33,280,20","i can feel the intensity in this,11,60,20","This looks like a ruin of what was once a thriving city.,-9,140,20","Cassandra","I liked this...I liked the blue and the black and I liked the smoothness to it.,31,120,20","Courtney","The beast is running after you.,33,280,20","Kaitlin","i can feel the intensity in this,11,60,20","4"
"88330","","survey-text","110","1420742","0.0-108.0-0.0","A3IZMPMBGIEGVP","","","","{""Q0"":""a volcanic eruption from beneath the sea creating a brand new party island for you and me .. WHEE!!""}","","","","","","","","","","","","","","","","","","","","","","",""
"4219.5","","image-slider-response","111","1424963","0.0-109.0","A3IZMPMBGIEGVP","","","","","50","","","","","","","","","","","","","","","","","","","","","",""
"null","","image-button-response","112","1429964","0.0-110.0","A3IZMPMBGIEGVP","img_art/21.jpg","null","","","","","","","","","","","","","","","","","","","","","","","","",""
"10496","","image-button-response","113","1440462","0.0-111.0","A3IZMPMBGIEGVP","img_art/21.jpg","1","","","","","","","","","","","","","","","","","","","","","","","","",""
"3547","","image-button-response","114","1444010","0.0-112.0-0.0","A3IZMPMBGIEGVP","img_art/21.jpg","0","","","","","","","","","","","","","","","","","","","","","","","","",""
"1491","","image-button-response","115","1445502","0.0-113.0-0.0","A3IZMPMBGIEGVP","img_art/21.jpg","2","","","","","","","","","","","","","","","","","","","","","","","","",""
"null","","html-keyboard-response","116","1447004","0.0-114.0","A3IZMPMBGIEGVP","<p style=""font-size: 48px;"">+</p>","","","","","null","allTrialResponses","1500","1","10","img_art/21.jpg","50","a volcanic eruption from beneath the sea creating a brand new party island for you and me .. WHEE!!","Morgan,Leslie,Cassandra,Courtney,Kaitlin,Michaela","Survivable storm on the open sea.,27,380,20","The colors make me think of a perilous scene at sea, and are pretty interesting.,15,380,20","I liked it...it looked like a storm raging.,12,120,20","Another ship on fire.,-10,280,20","waterpaint is attractive,13,60,20","I love how vague it is but how you can imagine a story anyway, like clouds,45,260,20","Leslie","The colors make me think of a perilous scene at sea, and are pretty interesting.,15,380,20","Morgan","Survivable storm on the open sea.,27,380,20","Cassandra","I liked it...it looked like a storm raging.,12,120,20","4"
"6244","","survey-text","117","1453252","0.0-115.0-0.0","A3IZMPMBGIEGVP","","","","{""Q0"":""our""}","","","","","","","","","","","","","","","","","","","","","","",""
"122805","","survey-text","118","1576059","0.0-116.0-0.0","A3IZMPMBGIEGVP","","","","{""Q0"":""winter wonder lobby .. i see all my favorite stores down the way ""}","","","","","","","","","","","","","","","","","","","","","","",""
"5706.5","","image-slider-response","119","1581766","0.0-117.0","A3IZMPMBGIEGVP","","","","","50","","","","","","","","","","","","","","","","","","","","","",""
"null","","image-button-response","120","1586768","0.0-118.0","A3IZMPMBGIEGVP","img_art/17.jpg","null","","","","","","","","","","","","","","","","","","","","","","","","",""
"9653","","image-button-response","121","1596423","0.0-119.0","A3IZMPMBGIEGVP","img_art/17.jpg","2","","","","","","","","","","","","","","","","","","","","","","","","",""
"6380","","image-button-response","122","1602805","0.0-120.0-0.0","A3IZMPMBGIEGVP","img_art/17.jpg","4","","","","","","","","","","","","","","","","","","","","","","","","",""
"696","","image-button-response","123","1603503","0.0-121.0-0.0","A3IZMPMBGIEGVP","img_art/17.jpg","5","","","","","","","","","","","","","","","","","","","","","","","","",""
"null","","html-keyboard-response","124","1604004","0.0-122.0","A3IZMPMBGIEGVP","<p style=""font-size: 48px;"">+</p>","","","","","null","allTrialResponses","500","1","11","img_art/17.jpg","50","winter wonder lobby .. i see all my favorite stores down the way ","Morgan,Leslie,Cassandra,Julia,Victoria,Anna","Tree of knowledge in a quiet school.,17,380,20","This makes me feel trapped.,5,380,20","Very pretty...the colors and good and flow well.,33,120,20","I'm not into paintings of trees,-18,40,20","love the wispyness of it,34,400,20","it brings a clear picture to my minds eye:,45,300,20","Cassandra","Very pretty...the colors and good and flow well.,33,120,20","Victoria","love the wispyness of it,34,400,20","Anna","it brings a clear picture to my minds eye:,45,300,20","4"
"65896","","survey-text","125","1669902","0.0-123.0-0.0","A3IZMPMBGIEGVP","","","","{""Q0"":""i think the mushrooms kicked in y'all ... and i can see shadow pets""}","","","","","","","","","","","","","","","","","","","","","","",""
"4405.70000000298","","image-slider-response","126","1674309","0.0-124.0","A3IZMPMBGIEGVP","","","","","50","","","","","","","","","","","","","","","","","","","","","",""
"null","","image-button-response","127","1679311","0.0-125.0","A3IZMPMBGIEGVP","img_art/26.jpg","null","","","","","","","","","","","","","","","","","","","","","","","","",""
"10318","","image-button-response","128","1689632","0.0-126.0","A3IZMPMBGIEGVP","img_art/26.jpg","3","","","","","","","","","","","","","","","","","","","","","","","","",""
"1823","","image-button-response","129","1691457","0.0-127.0-0.0","A3IZMPMBGIEGVP","img_art/26.jpg","0","","","","","","","","","","","","","","","","","","","","","","","","",""
"2264","","image-button-response","130","1693722","0.0-128.0-0.0","A3IZMPMBGIEGVP","img_art/26.jpg","1","","","","","","","","","","","","","","","","","","","","","","","","",""
"null","","html-keyboard-response","131","1694723","0.0-129.0","A3IZMPMBGIEGVP","<p style=""font-size: 48px;"">+</p>","","","","","null","allTrialResponses","1000","1","12","img_art/26.jpg","50","i think the mushrooms kicked in y'all ... and i can see shadow pets","Elizabeth,Samantha,Cassandra,Stephanie,Victoria,Anna","Like the soft blend of colors,26,20,20","I like the colors and trees. Seems cheap vintage retail store art but i love it anyways,50,140,20","Neutral...nothing to say.,3,120,20","Day just begun in the city and the stores are opening their doors.,41,300,20","feels a tad old,30,400,20","It looks like a watercolor I did when I was 6.,-30,300,20","Stephanie","Day just begun in the city and the stores are opening their doors.,41,300,20","Elizabeth","Like the soft blend of colors,26,20,20","Samantha","I like the colors and trees. Seems cheap vintage retail store art but i love it anyways,50,140,20","4"
"59105","","survey-text","132","1753830","0.0-130.0-0.0","A3IZMPMBGIEGVP","","","","{""Q0"":""Oh no! My ex decided to drop by and he brought his demons with him! YIKES!!""}","","","","","","","","","","","","","","","","","","","","","","",""
"3950.9000000059605","","image-slider-response","133","1757782","0.0-131.0","A3IZMPMBGIEGVP","","","","","50","","","","","","","","","","","","","","","","","","","","","",""
"null","","image-button-response","134","1762785","0.0-132.0","A3IZMPMBGIEGVP","img_art/22.jpg","null","","","","","","","","","","","","","","","","","","","","","","","","",""
"4917","","image-button-response","135","1767705","0.0-133.0","A3IZMPMBGIEGVP","img_art/22.jpg","1","","","","","","","","","","","","","","","","","","","","","","","","",""
"2244","","image-button-response","136","1769951","0.0-134.0-0.0","A3IZMPMBGIEGVP","img_art/22.jpg","5","","","","","","","","","","","","","","","","","","","","","","","","",""
"2308","","image-button-response","137","1772261","0.0-135.0-0.0","A3IZMPMBGIEGVP","img_art/22.jpg","0","","","","","","","","","","","","","","","","","","","","","","","","",""
"null","","html-keyboard-response","138","1772763","0.0-136.0","A3IZMPMBGIEGVP","<p style=""font-size: 48px;"">+</p>","","","","","null","allTrialResponses","500","1","13","img_art/22.jpg","50","Oh no! My ex decided to drop by and he brought his demons with him! YIKES!!","Elizabeth,Samantha,Abigail,Stephanie,Taylor,Angela","Great color palette,29,20,20","Pretty colors but something seems sinister about it,25,140,20","The colors are too dark, too much red,2,20,20","I don't get much of a reaction.,11,300,20","Doesn't make me feel anything,-4,340,20","Like the colors. I enjoy looking at this one.,15,260,20","Samantha","Pretty colors but something seems sinister about it,25,140,20","Angela","Like the colors. I enjoy looking at this one.,15,260,20","Elizabeth","Great color palette,29,20,20","4"
"65628","","survey-text","139","1838393","0.0-137.0-0.0","A3IZMPMBGIEGVP","","","","{""Q0"":""Yeah, I remember this one from Schlitterban. NOT going down THAT slide again. But I'll watch everyone else do it :-)""}","","","","","","","","","","","","","","","","","","","","","","",""
"5117.5","","image-slider-response","140","1843512","0.0-138.0","A3IZMPMBGIEGVP","","","","","50","","","","","","","","","","","","","","","","","","","","","",""
"null","","image-button-response","141","1848514","0.0-139.0","A3IZMPMBGIEGVP","img_art/30.jpg","null","","","","","","","","","","","","","","","","","","","","","","","","",""
"6965","","image-button-response","142","1855481","0.0-140.0","A3IZMPMBGIEGVP","img_art/30.jpg","4","","","","","","","","","","","","","","","","","","","","","","","","",""
"987","","image-button-response","143","1856469","0.0-141.0-0.0","A3IZMPMBGIEGVP","img_art/30.jpg","0","","","","","","","","","","","","","","","","","","","","","","","","",""
"8198","","image-button-response","144","1864669","0.0-142.0-0.0","A3IZMPMBGIEGVP","img_art/30.jpg","2","","","","","","","","","","","","","","","","","","","","","","","","",""
"null","","html-keyboard-response","145","1865171","0.0-143.0","A3IZMPMBGIEGVP","<p style=""font-size: 48px;"">+</p>","","","","","null","allTrialResponses","500","1","14","img_art/30.jpg","50","Yeah, I remember this one from Schlitterban. NOT going down THAT slide again. But I'll watch everyone else do it :-)","Elizabeth,Samantha,Kimberly,Alexis,Diana,Angela","Love the bold brush strokes and the illusion it creates,50,20,20","Too much like childrens finger paint. I dont like the smear of blended colors,-50,140,20","looks like eels,-20,260,20","Too abstract, looks like something I could paint,-50,100,20","I love the color contrast of the red against the blue.,9,380,20","Really don't like this piece. It feels very lazy to me.,-31,260,20","Diana","I love the color contrast of the red against the blue.,9,380,20","Elizabeth","Love the bold brush strokes and the illusion it creates,50,20,20","Kimberly","looks like eels,-20,260,20","4"
"59621","","survey-text","146","1924794","0.0-144.0-0.0","A3IZMPMBGIEGVP","","","","{""Q0"":""My GPS in my car giving me directions .. into another dimension. LOL That crazy bot never knows where we're going. ""}","","","","","","","","","","","","","","","","","","","","","","",""
"14802.40000000596","","image-slider-response","147","1939598","0.0-145.0","A3IZMPMBGIEGVP","","","","","50","","","","","","","","","","","","","","","","","","","","","",""
"null","","image-button-response","148","1944604","0.0-146.0","A3IZMPMBGIEGVP","img_art/12.jpg","null","","","","","","","","","","","","","","","","","","","","","","","","",""
"6346","","image-button-response","149","1950953","0.0-147.0","A3IZMPMBGIEGVP","img_art/12.jpg","4","","","","","","","","","","","","","","","","","","","","","","","","",""
"4252","","image-button-response","150","1955207","0.0-148.0-0.0","A3IZMPMBGIEGVP","img_art/12.jpg","0","","","","","","","","","","","","","","","","","","","","","","","","",""
"6706","","image-button-response","151","1961914","0.0-149.0-0.0","A3IZMPMBGIEGVP","img_art/12.jpg","1","","","","","","","","","","","","","","","","","","","","","","","","",""
"null","","html-keyboard-response","152","1962416","0.0-150.0","A3IZMPMBGIEGVP","<p style=""font-size: 48px;"">+</p>","","","","","null","allTrialResponses","500","1","15","img_art/12.jpg","50","My GPS in my car giving me directions .. into another dimension. LOL That crazy bot never knows where we're going. ","Elizabeth,Jamie,Kimberly,Kristen,Diana,Erin","Explosion of texture,31,20,20","Black and white contrast with color looks nice,15,320,20","Just not a fan, I can't figure out why,-17,260,20","stressful, upsetting,-10,280,20","This is beautiful. It looks like 1,000 different sunrises and sunsets.,44,380,20","City scape but palette is odd,4,120,20","Diana","This is beautiful. It looks like 1,000 different sunrises and sunsets.,44,380,20","Elizabeth","Explosion of texture,31,20,20","Jamie","Black and white contrast with color looks nice,15,320,20","4"
"5031","","survey-text","153","1967452","0.0-151.0-0.0","A3IZMPMBGIEGVP","","","","{""Q0"":""course""}","","","","","","","","","","","","","","","","","","","","","","",""
"137470","","survey-text","154","2104923","0.0-152.0-0.0","A3IZMPMBGIEGVP","","","","{""Q0"":""Those crazy spirits building a city to house my anxiety. I love what they've done with the place. ""}","","","","","","","","","","","","","","","","","","","","","","",""
"5520.5999999940395","","image-slider-response","155","2110445","0.0-153.0","A3IZMPMBGIEGVP","","","","","50","","","","","","","","","","","","","","","","","","","","","",""
"null","","image-button-response","156","2115448","0.0-154.0","A3IZMPMBGIEGVP","img_art/8.jpg","null","","","","","","","","","","","","","","","","","","","","","","","","",""
"7433","","image-button-response","157","2122883","0.0-155.0","A3IZMPMBGIEGVP","img_art/8.jpg","3","","","","","","","","","","","","","","","","","","","","","","","","",""
"875","","image-button-response","158","2123759","0.0-156.0-0.0","A3IZMPMBGIEGVP","img_art/8.jpg","5","","","","","","","","","","","","","","","","","","","","","","","","",""
"9200","","image-button-response","159","2132962","0.0-157.0-0.0","A3IZMPMBGIEGVP","img_art/8.jpg","1","","","","","","","","","","","","","","","","","","","","","","","","",""
"null","","html-keyboard-response","160","2133964","0.0-158.0","A3IZMPMBGIEGVP","<p style=""font-size: 48px;"">+</p>","","","","","null","allTrialResponses","1000","1","16","img_art/8.jpg","50","Those crazy spirits building a city to house my anxiety. I love what they've done with the place. ","Elizabeth,Jamie,Mariah,Haley,Diana,Caitlin","Very unique and different,31,20,20","Cool designs and color schemes,44,320,20","Clean and stark. The colors are pleasant.,15,140,20","Gorgeous! I love the colors and the details.,50,220,20","I don't care for the piece, but I appreciate the talent that it took to create it.,22,380,20","And I'll huff and I'll puff and I'll blow your town down!!,20,80,20","Haley","Gorgeous! I love the colors and the details.,50,220,20","Caitlin","And I'll huff and I'll puff and I'll blow your town down!!,20,80,20","Jamie","Cool designs and color schemes,44,320,20","4"
"70854","","survey-text","161","2204821","0.0-159.0-0.0","A3IZMPMBGIEGVP","","","","{""Q0"":""This is a picture of how I feel when summer ends. :-(""}","","","","","","","","","","","","","","","","","","","","","","",""
"2820","","image-slider-response","162","2207643","0.0-160.0","A3IZMPMBGIEGVP","","","","","50","","","","","","","","","","","","","","","","","","","","","",""
"null","","image-button-response","163","2212645","0.0-161.0","A3IZMPMBGIEGVP","img_art/14.jpg","null","","","","","","","","","","","","","","","","","","","","","","","","",""
"8603","","image-button-response","164","2221249","0.0-162.0","A3IZMPMBGIEGVP","img_art/14.jpg","0","","","","","","","","","","","","","","","","","","","","","","","","",""
"12971","","image-button-response","165","2234221","0.0-163.0-0.0","A3IZMPMBGIEGVP","img_art/14.jpg","5","","","","","","","","","","","","","","","","","","","","","","","","",""
"25421","","image-button-response","166","2259645","0.0-164.0-0.0","A3IZMPMBGIEGVP","img_art/14.jpg","2","","","","","","","","","","","","","","","","","","","","","","","","",""
"null","","html-keyboard-response","167","2261146","0.0-165.0","A3IZMPMBGIEGVP","<p style=""font-size: 48px;"">+</p>","","","","","null","allTrialResponses","1500","1","17","img_art/14.jpg","50","This is a picture of how I feel when summer ends. :-(","Kaitlyn,Jamie,Mikayla,Haley,Sarah,Caitlin","Focal point is interesting,5,80,20","Not as cool as other tree looking paintings,-5,320,20","The red looks like blood and im not a huge fan,15,300,20","I like the colors in the background, but not the bottom/center. It almost looks sloppy.,-20,220,20","this looks pretty childish,-15,180,20","Are they blowing up a tree?,-5,80,20","Kaitlyn","Focal point is interesting,5,80,20","Caitlin","Are they blowing up a tree?,-5,80,20","Mikayla","The red looks like blood and im not a huge fan,15,300,20","4"
"50272","","survey-text","168","2311421","0.0-166.0-0.0","A3IZMPMBGIEGVP","","","","{""Q0"":""fell asleep eating sunflower seeds again .. my bad ""}","","","","","","","","","","","","","","","","","","","","","","",""
"4004.5","","image-slider-response","169","2315427","0.0-167.0","A3IZMPMBGIEGVP","","","","","39","","","","","","","","","","","","","","","","","","","","","",""
"null","","image-button-response","170","2320429","0.0-168.0","A3IZMPMBGIEGVP","img_art/15.jpg","null","","","","","","","","","","","","","","","","","","","","","","","","",""
"1150","","image-button-response","171","2321580","0.0-169.0","A3IZMPMBGIEGVP","img_art/15.jpg","2","","","","","","","","","","","","","","","","","","","","","","","","",""
"5216","","image-button-response","172","2326797","0.0-170.0-0.0","A3IZMPMBGIEGVP","img_art/15.jpg","3","","","","","","","","","","","","","","","","","","","","","","","","",""
"929","","image-button-response","173","2327728","0.0-171.0-0.0","A3IZMPMBGIEGVP","img_art/15.jpg","0","","","","","","","","","","","","","","","","","","","","","","","","",""
"null","","html-keyboard-response","174","2329229","0.0-172.0","A3IZMPMBGIEGVP","<p style=""font-size: 48px;"">+</p>","","","","","null","allTrialResponses","1500","1","18","img_art/15.jpg","39","fell asleep eating sunflower seeds again .. my bad ","Kaitlyn,Olivia,Mikayla,Leah,Brittany,Caitlin","Simplicity of colors is nice,11,80,20","Black reminds me of darkness,-18,40,20","The dots are cool with the blue accents.,24,300,20","Pretty, like in a field of poppies,19,360,20","Color scheme and design are rather boring.,-10,40,20","Getting better.,10,80,20","Mikayla","The dots are cool with the blue accents.,24,300,20","Leah","Pretty, like in a field of poppies,19,360,20","Kaitlyn","Simplicity of colors is nice,11,80,20","4"
"116276","","survey-text","175","2445512","0.0-173.0-0.0","A3IZMPMBGIEGVP","","","","{""Q0"":""The crane on North Padre Island beach in the morning waiting for me to wake up and get out of my camper truck and feed it left over bait shrimp. Caught him sleeping this time. ""}","","","","","","","","","","","","","","","","","","","","","","",""
"4481.9000000059605","","image-slider-response","176","2449995","0.0-174.0","A3IZMPMBGIEGVP","","","","","50","","","","","","","","","","","","","","","","","","","","","",""
"null","","image-button-response","177","2454997","0.0-175.0","A3IZMPMBGIEGVP","img_art/6.jpg","null","","","","","","","","","","","","","","","","","","","","","","","","",""
"12608","","image-button-response","178","2467606","0.0-176.0","A3IZMPMBGIEGVP","img_art/6.jpg","4","","","","","","","","","","","","","","","","","","","","","","","","",""
"9376","","image-button-response","179","2476983","0.0-177.0-0.0","A3IZMPMBGIEGVP","img_art/6.jpg","5","","","","","","","","","","","","","","","","","","","","","","","","",""
"2068","","image-button-response","180","2479052","0.0-178.0-0.0","A3IZMPMBGIEGVP","img_art/6.jpg","1","","","","","","","","","","","","","","","","","","","","","","","","",""
"null","","html-keyboard-response","181","2479553","0.0-179.0","A3IZMPMBGIEGVP","<p style=""font-size: 48px;"">+</p>","","","","","null","allTrialResponses","500","1","19","img_art/6.jpg","50","The crane on North Padre Island beach in the morning waiting for me to wake up and get out of my camper truck and feed it left over bait shrimp. Caught him sleeping this time. ","Kaitlyn,Andrea,Mikayla,Leah,Margaret,Maria","I like the simplicity of the picture,30,80,20","So forlorn, and beauty amid desolation.,25,240,20","Not very exciting.,-34,300,20","Boring, looks like a sad tree in wind,-37,360,20","reminds me of a happy edgar allen poe poem,8,100,20","intrigues me - not sure what I'm seeing, but I like combination of colour and texture,21,120,20","Margaret","reminds me of a happy edgar allen poe poem,8,100,20","Maria","intrigues me - not sure what I'm seeing, but I like combination of colour and texture,21,120,20","Andrea","So forlorn, and beauty amid desolation.,25,240,20","4"
"94637","","survey-text","182","2574193","0.0-180.0-0.0","A3IZMPMBGIEGVP","","","","{""Q0"":""This is what it looks like when you're walking down the city sidewalk and suddenly fall into a sinkhole that appears out of nowhere. ""}","","","","","","","","","","","","","","","","","","","","","","",""
"4649.0999999940395","","image-slider-response","183","2578844","0.0-181.0","A3IZMPMBGIEGVP","","","","","33","","","","","","","","","","","","","","","","","","","","","",""
"null","","image-button-response","184","2583846","0.0-182.0","A3IZMPMBGIEGVP","img_art/29.jpg","null","","","","","","","","","","","","","","","","","","","","","","","","",""
"3380","","image-button-response","185","2587227","0.0-183.0","A3IZMPMBGIEGVP","img_art/29.jpg","1","","","","","","","","","","","","","","","","","","","","","","","","",""
"855","","image-button-response","186","2588083","0.0-184.0-0.0","A3IZMPMBGIEGVP","img_art/29.jpg","0","","","","","","","","","","","","","","","","","","","","","","","","",""
"11767","","image-button-response","187","2599852","0.0-185.0-0.0","A3IZMPMBGIEGVP","img_art/29.jpg","3","","","","","","","","","","","","","","","","","","","","","","","","",""
"null","","html-keyboard-response","188","2600354","0.0-186.0","A3IZMPMBGIEGVP","<p style=""font-size: 48px;"">+</p>","","","","","null","allTrialResponses","500","1","20","img_art/29.jpg","33","This is what it looks like when you're walking down the city sidewalk and suddenly fall into a sinkhole that appears out of nowhere. ","Katelyn,Andrea,Sophia,Kelly,Margaret,Maria","Grabs interest but then confuses me,6,100,20","Bottomless pit and prison. Feels like its saying time is precious.,11,240,20","It's creative. It's just not my thing.,-32,280,20","Too much going on, and I don't like the colors. It looks like a crime scene.,-50,220,20","this does nothing for me. hate the colors. hate the design,-50,100,20","the mixed medium / collage annoys me,-19,120,20","Andrea","Bottomless pit and prison. Feels like its saying time is precious.,11,240,20","Katelyn","Grabs interest but then confuses me,6,100,20","Kelly","Too much going on, and I don't like the colors. It looks like a crime scene.,-50,220,20","4"
"4104","","survey-text","189","2604466","0.0-187.0-0.0","A3IZMPMBGIEGVP","","","","{""Q0"":""we""}","","","","","","","","","","","","","","","","","","","","","","",""
"67927","","survey-text","190","2672393","0.0-188.0-0.0","A3IZMPMBGIEGVP","","","","{""Q0"":""wipe out at waimea bay .. been there .. done that""}","","","","","","","","","","","","","","","","","","","","","","",""
"4422.70000000298","","image-slider-response","191","2676817","0.0-189.0","A3IZMPMBGIEGVP","","","","","50","","","","","","","","","","","","","","","","","","","","","",""
"null","","image-button-response","192","2681821","0.0-190.0","A3IZMPMBGIEGVP","img_art/13.jpg","null","","","","","","","","","","","","","","","","","","","","","","","","",""
"11921","","image-button-response","193","2693743","0.0-191.0","A3IZMPMBGIEGVP","img_art/13.jpg","2","","","","","","","","","","","","","","","","","","","","","","","","",""
"3299","","image-button-response","194","2697044","0.0-192.0-0.0","A3IZMPMBGIEGVP","img_art/13.jpg","0","","","","","","","","","","","","","","","","","","","","","","","","",""
"2114","","image-button-response","195","2699160","0.0-193.0-0.0","A3IZMPMBGIEGVP","img_art/13.jpg","1","","","","","","","","","","","","","","","","","","","","","","","","",""
"null","","html-keyboard-response","196","2700162","0.0-194.0","A3IZMPMBGIEGVP","<p style=""font-size: 48px;"">+</p>","","","","","null","allTrialResponses","1000","1","21","img_art/13.jpg","50","wipe out at waimea bay .. been there .. done that","Katelyn,Andrea,Cassidy,Kelly,Allison,Gabrielle","Really like this. Its like looking out a window into a beautiful storm,39,100,20","Raindrops on a window. Makes me feel like traveling.,31,240,20","Great color balance. I like the splatter, and how the vertical lines go from sharper to more blended.,31,140,20","I would hang this photo in my room.,21,220,20","Generic mix of colors. Cool and messy.,10,140,20","kind of like the pattern and colors but don't love it,13,160,20","Cassidy","Great color balance. I like the splatter, and how the vertical lines go from sharper to more blended.,31,140,20","Katelyn","Really like this. Its like looking out a window into a beautiful storm,39,100,20","Andrea","Raindrops on a window. Makes me feel like traveling.,31,240,20","4"
"101612","","survey-text","197","2801779","0.0-195.0-0.0","A3IZMPMBGIEGVP","","","","{""Q0"":""when the tables turn and the gazelle eats the tiger .. ironic""}","","","","","","","","","","","","","","","","","","","","","","",""
"3298.7999999970198","","image-slider-response","198","2805079","0.0-196.0","A3IZMPMBGIEGVP","","","","","47","","","","","","","","","","","","","","","","","","","","","",""
"null","","image-button-response","199","2810081","0.0-197.0","A3IZMPMBGIEGVP","img_art/9.jpg","null","","","","","","","","","","","","","","","","","","","","","","","","",""
"12506","","image-button-response","200","2822588","0.0-198.0","A3IZMPMBGIEGVP","img_art/9.jpg","1","","","","","","","","","","","","","","","","","","","","","","","","",""
"601","","image-button-response","201","2823191","0.0-199.0-0.0","A3IZMPMBGIEGVP","img_art/9.jpg","2","","","","","","","","","","","","","","","","","","","","","","","","",""
"3318","","image-button-response","202","2826511","0.0-200.0-0.0","A3IZMPMBGIEGVP","img_art/9.jpg","3","","","","","","","","","","","","","","","","","","","","","","","","",""
"null","","html-keyboard-response","203","2827013","0.0-201.0","A3IZMPMBGIEGVP","<p style=""font-size: 48px;"">+</p>","","","","","null","allTrialResponses","500","1","22","img_art/9.jpg","47","when the tables turn and the gazelle eats the tiger .. ironic","Katelyn,Andrea,Cassidy,Alicia,Cheyenne,Bailey","The lack of concrete form kind of turns me off,-2,100,20","Sleeping woman in a cave. Makes me feel safe.,20,240,20","The colors are okay, but this looks like someone scribbled with a crayon,1,140,20","Abstract titanic scene. It's nice though. I like how it makes me feel.,28,120,20","Too much going on, don't know what the focus is,-11,200,20","Not very enticing. No real substance other than a lady laying down,-35,360,20","Andrea","Sleeping woman in a cave. Makes me feel safe.,20,240,20","Cassidy","The colors are okay, but this looks like someone scribbled with a crayon,1,140,20","Alicia","Abstract titanic scene. It's nice though. I like how it makes me feel.,28,120,20","4"
"75102","","survey-text","204","2902118","0.0-202.0-0.0","A3IZMPMBGIEGVP","","","","{""Q0"":""the music from 'the good, the bad and the ugly' comes to mind""}","","","","","","","","","","","","","","","","","","","","","","",""
"6260.29999999702","","image-slider-response","205","2908379","0.0-203.0","A3IZMPMBGIEGVP","","","","","20","","","","","","","","","","","","","","","","","","","","","",""
"null","","image-button-response","206","2913382","0.0-204.0","A3IZMPMBGIEGVP","img_art/7.jpg","null","","","","","","","","","","","","","","","","","","","","","","","","",""
"7374","","image-button-response","207","2920758","0.0-205.0","A3IZMPMBGIEGVP","img_art/7.jpg","4","","","","","","","","","","","","","","","","","","","","","","","","",""
"5186","","image-button-response","208","2925946","0.0-206.0-0.0","A3IZMPMBGIEGVP","img_art/7.jpg","2","","","","","","","","","","","","","","","","","","","","","","","","",""
"46646","","image-button-response","209","2972593","0.0-207.0-0.0","A3IZMPMBGIEGVP","img_art/7.jpg","3","","","","","","","","","","","","","","","","","","","","","","","","",""
"null","","html-keyboard-response","210","2973095","0.0-208.0","A3IZMPMBGIEGVP","<p style=""font-size: 48px;"">+</p>","","","","","null","allTrialResponses","500","1","23","img_art/7.jpg","20","the music from 'the good, the bad and the ugly' comes to mind","Vanessa,Andrea,Cassidy,Alicia,Madison,Danielle","This is borning and lifeless.,-50,380,20","Reminds me of mold. Repulsive.,-10,240,20","I like the texture,12,140,20","I don't get it. looks like a picture of the ground.,-42,120,20","Is this a painting, really? Very compelling if so, the texture work is incredible.,15,60,20","I don't like this kind of color scheme or look they went for,-50,340,20","Madison","Is this a painting, really? Very compelling if so, the texture work is incredible.,15,60,20","Cassidy","I like the texture,12,140,20","Alicia","I don't get it. looks like a picture of the ground.,-42,120,20","4"
"115802","","survey-text","211","3088901","0.0-209.0-0.0","A3IZMPMBGIEGVP","","","","{""Q0"":""the teddy bear reaper arrives .. lock and load little teddy bear""}","","","","","","","","","","","","","","","","","","","","","","",""
"4389.9000000059605","","image-slider-response","212","3093292","0.0-210.0","A3IZMPMBGIEGVP","","","","","32","","","","","","","","","","","","","","","","","","","","","",""
"null","","image-button-response","213","3098295","0.0-211.0","A3IZMPMBGIEGVP","img_art/16.jpg","null","","","","","","","","","","","","","","","","","","","","","","","","",""
"8138","","image-button-response","214","3106436","0.0-212.0","A3IZMPMBGIEGVP","img_art/16.jpg","5","","","","","","","","","","","","","","","","","","","","","","","","",""
"2870","","image-button-response","215","3109307","0.0-213.0-0.0","A3IZMPMBGIEGVP","img_art/16.jpg","1","","","","","","","","","","","","","","","","","","","","","","","","",""
"1757","","image-button-response","216","3111067","0.0-214.0-0.0","A3IZMPMBGIEGVP","img_art/16.jpg","0","","","","","","","","","","","","","","","","","","","","","","","","",""
"null","","html-keyboard-response","217","3111568","0.0-215.0","A3IZMPMBGIEGVP","<p style=""font-size: 48px;"">+</p>","","","","","null","allTrialResponses","500","1","24","img_art/16.jpg","32","the teddy bear reaper arrives .. lock and load little teddy bear","Chelsea,Hannah,Cassidy,Alicia,Madison,Dominique","I wouldn't hang it up on my wall but I like the colors of the bear.,25,180,20","This is weird and a little creepy.,6,240,20","I don't know why, I just don't like it,-28,140,20","Don't get it. Hate it. ugly.,-44,120,20","Pop art, Tate Modern horse dung.,-50,60,20","Toys toys toys. Happy playful free spirit,30,400,20","Dominique","Toys toys toys. Happy playful free spirit,30,400,20","Hannah","This is weird and a little creepy.,6,240,20","Chelsea","I wouldn't hang it up on my wall but I like the colors of the bear.,25,180,20","4"
"106689","","survey-text","218","3218261","0.0-216.0-0.0","A3IZMPMBGIEGVP","","","","{""Q0"":""moments after disembarking from the 4 hour booze cruise ""}","","","","","","","","","","","","","","","","","","","","","","",""
"4355.29999999702","","image-slider-response","219","3222617","0.0-217.0","A3IZMPMBGIEGVP","","","","","50","","","","","","","","","","","","","","","","","","","","","",""
"null","","image-button-response","220","3227620","0.0-218.0","A3IZMPMBGIEGVP","img_art/1.jpg","null","","","","","","","","","","","","","","","","","","","","","","","","",""
"7834","","image-button-response","221","3235455","0.0-219.0","A3IZMPMBGIEGVP","img_art/1.jpg","4","","","","","","","","","","","","","","","","","","","","","","","","",""
"852","","image-button-response","222","3236309","0.0-220.0-0.0","A3IZMPMBGIEGVP","img_art/1.jpg","5","","","","","","","","","","","","","","","","","","","","","","","","",""
"3751","","image-button-response","223","3240061","0.0-221.0-0.0","A3IZMPMBGIEGVP","img_art/1.jpg","1","","","","","","","","","","","","","","","","","","","","","","","","",""
"null","","html-keyboard-response","224","3240563","0.0-222.0","A3IZMPMBGIEGVP","<p style=""font-size: 48px;"">+</p>","","","","","null","allTrialResponses","500","1","25","img_art/1.jpg","50","moments after disembarking from the 4 hour booze cruise ","Chelsea,Hannah,Megan,Alyssa,Cynthia,Dominique","The colors are a little too intense.,1,180,20","Reminds me of fall.,7,240,20","Nice colors with some 3D effects,15,200,20","Its okay,not great.,1,160,20","fishing on the lake surrounded by trees,42,320,20","I love the detail and colors like a beautiful autumn day,35,400,20","Cynthia","fishing on the lake surrounded by trees,42,320,20","Dominique","I love the detail and colors like a beautiful autumn day,35,400,20","Hannah","Reminds me of fall.,7,240,20","4"
"4783","","survey-text","225","3245353","0.0-223.0-0.0","A3IZMPMBGIEGVP","","","","{""Q0"":""table ""}","","","","","","","","","","","","","","","","","","","","","","",""
"4639","","survey-text","226","3255592","0.0-223.1-0.1","A3IZMPMBGIEGVP","","","","{""Q0"":""table""}","","","","","","","","","","","","","","","","","","","","","","",""
"263510","","survey-text","227","3519103","0.0-224.0-0.0","A3IZMPMBGIEGVP","","","","{""Q0"":""if orange is the new black then bright yellow trash bags are the new sack for the inmates that have to pick up litter along the highways""}","","","","","","","","","","","","","","","","","","","","","","",""
"14267.20000000298","","image-slider-response","228","3533372","0.0-225.0","A3IZMPMBGIEGVP","","","","","50","","","","","","","","","","","","","","","","","","","","","",""
"null","","image-button-response","229","3538375","0.0-226.0","A3IZMPMBGIEGVP","img_art/5.jpg","null","","","","","","","","","","","","","","","","","","","","","","","","",""
"9071","","image-button-response","230","3547448","0.0-227.0","A3IZMPMBGIEGVP","img_art/5.jpg","5","","","","","","","","","","","","","","","","","","","","","","","","",""
"2624","","image-button-response","231","3550074","0.0-228.0-0.0","A3IZMPMBGIEGVP","img_art/5.jpg","2","","","","","","","","","","","","","","","","","","","","","","","","",""
"3426","","image-button-response","232","3553501","0.0-229.0-0.0","A3IZMPMBGIEGVP","img_art/5.jpg","0","","","","","","","","","","","","","","","","","","","","","","","","",""
"null","","html-keyboard-response","233","3554504","0.0-230.0","A3IZMPMBGIEGVP","<p style=""font-size: 48px;"">+</p>","","","","","null","allTrialResponses","1000","1","26","img_art/5.jpg","50","if orange is the new black then bright yellow trash bags are the new sack for the inmates that have to pick up litter along the highways","Melissa,Hannah,Ashley,Gabriela,Cynthia,Dominique","strong appeal in contrast,27,240,20","Very basic, but at least has some color to it.,-9,240,20","I like the simple shapes and colors.,23,320,20","I am confused as to what this is supposed to be,6,140,20","boring and unsure,-25,320,20","It speaks volumes to some. It's also a conversational piece. And very different ideas,34,400,20","Dominique","It speaks volumes to some. It's also a conversational piece. And very different ideas,34,400,20","Ashley","I like the simple shapes and colors.,23,320,20","Melissa","strong appeal in contrast,27,240,20","5"
"87507","","survey-text","234","3642015","0.0-231.0-0.0","A3IZMPMBGIEGVP","","","","{""Q0"":""flaming Day of the Dead (Dia De Los Muertos) parade ""}","","","","","","","","","","","","","","","","","","","","","","",""
"3429.2999999970198","","image-slider-response","235","3645446","0.0-232.0","A3IZMPMBGIEGVP","","","","","50","","","","","","","","","","","","","","","","","","","","","",""
"null","","image-button-response","236","3650448","0.0-233.0","A3IZMPMBGIEGVP","img_art/23.jpg","null","","","","","","","","","","","","","","","","","","","","","","","","",""
"144","","image-button-response","237","3650594","0.0-234.0","A3IZMPMBGIEGVP","img_art/23.jpg","2","","","","","","","","","","","","","","","","","","","","","","","","",""
"8657","","image-button-response","238","3659252","0.0-235.0-0.0","A3IZMPMBGIEGVP","img_art/23.jpg","3","","","","","","","","","","","","","","","","","","","","","","","","",""
"903","","image-button-response","239","3660158","0.0-236.0-0.0","A3IZMPMBGIEGVP","img_art/23.jpg","5","","","","","","","","","","","","","","","","","","","","","","","","",""
"null","","html-keyboard-response","240","3661159","0.0-237.0","A3IZMPMBGIEGVP","<p style=""font-size: 48px;"">+</p>","","","","","null","allTrialResponses","1000","1","27","img_art/23.jpg","50","flaming Day of the Dead (Dia De Los Muertos) parade ","Melissa,Laura,Ashley,Shannon,Alexandria,Dominique","do not like color splatters or sharp silhouettes, feels tacky,-34,240,20","teeth! dancing people, celebrations,-39,320,20","A line dance, it's really strinkingly beautiful.,50,320,20","I really like the way all the colors look, I think this is a pretty picture.,40,220,20","makes me happy and want to dance,43,80,20","Very happy , busy , free, and full of Hope,28,400,20","Ashley","A line dance, it's really strinkingly beautiful.,50,320,20","Shannon","I really like the way all the colors look, I think this is a pretty picture.,40,220,20","Dominique","Very happy , busy , free, and full of Hope,28,400,20","5"
"70434","","survey-text","241","3731598","0.0-238.0-0.0","A3IZMPMBGIEGVP","","","","{""Q0"":""take a walk on the shady side of life .. back alley deals come to mind""}","","","","","","","","","","","","","","","","","","","","","","",""
"5186","","image-slider-response","242","3736785","0.0-239.0","A3IZMPMBGIEGVP","","","","","50","","","","","","","","","","","","","","","","","","","","","",""
"4527","","image-button-response","243","3741787","0.0-240.0","A3IZMPMBGIEGVP","img_art/28.jpg","0","","","","","","","","","","","","","","","","","","","","","","","","",""
"5093","","image-button-response","244","3746882","0.0-241.0","A3IZMPMBGIEGVP","img_art/28.jpg","5","","","","","","","","","","","","","","","","","","","","","","","","",""
"2660","","image-button-response","245","3749544","0.0-242.0-0.0","A3IZMPMBGIEGVP","img_art/28.jpg","2","","","","","","","","","","","","","","","","","","","","","","","","",""
"5154","","image-button-response","246","3754700","0.0-243.0-0.0","A3IZMPMBGIEGVP","img_art/28.jpg","0","","","","","","","","","","","","","","","","","","","","","","","","",""
"null","","html-keyboard-response","247","3756201","0.0-244.0","A3IZMPMBGIEGVP","<p style=""font-size: 48px;"">+</p>","","","","","null","allTrialResponses","1500","1","28","img_art/28.jpg","50","take a walk on the shady side of life .. back alley deals come to mind","Erika,Michelle,Ashley,Shannon,Brianna,Dominique","Invokes curiosity, I want to know it's story.,15,100,20","This piece is depressing to me, reminds me of German paintings,-6,280,20","Normally don't react well to abstract art, but it looks almost like something's there.,28,320,20","I don't like the way the colors look; I think very disgusting colors were used.,-20,220,20","My grandparents would like this, maybe my great grandparents. It's not my style.,-30,20,20","This is one of my favorites. It says to me to take time for people,37,400,20","Dominique","This is one of my favorites. It says to me to take time for people,37,400,20","Ashley","Normally don't react well to abstract art, but it looks almost like something's there.,28,320,20","Erika","Invokes curiosity, I want to know it's story.,15,100,20","5"
"57559","","survey-text","248","3813765","0.0-245.0-0.0","A3IZMPMBGIEGVP","","","","{""Q0"":""skinwalker ranch resident on a moonlit night""}","","","","","","","","","","","","","","","","","","","","","","",""
"7708.79999999702","","image-slider-response","249","3821475","0.0-246.0","A3IZMPMBGIEGVP","","","","","50","","","","","","","","","","","","","","","","","","","","","",""
"null","","image-button-response","250","3826477","0.0-247.0","A3IZMPMBGIEGVP","img_art/25.jpg","null","","","","","","","","","","","","","","","","","","","","","","","","",""
"10907","","image-button-response","251","3837385","0.0-248.0","A3IZMPMBGIEGVP","img_art/25.jpg","2","","","","","","","","","","","","","","","","","","","","","","","","",""
"2807","","image-button-response","252","3840194","0.0-249.0-0.0","A3IZMPMBGIEGVP","img_art/25.jpg","5","","","","","","","","","","","","","","","","","","","","","","","","",""
"3630","","image-button-response","253","3843826","0.0-250.0-0.0","A3IZMPMBGIEGVP","img_art/25.jpg","0","","","","","","","","","","","","","","","","","","","","","","","","",""
"null","","html-keyboard-response","254","3844327","0.0-251.0","A3IZMPMBGIEGVP","<p style=""font-size: 48px;"">+</p>","","","","","null","allTrialResponses","500","1","29","img_art/25.jpg","50","skinwalker ranch resident on a moonlit night","Erika,Jordan,Ashley,Lauren,Emily,Dominique","Very cryptic and ancient,36,100,20","It's fine, belongs in a church, or somewhere else mystical,15,20,20","haunting, a lovely impression.,50,320,20","Depicts something negative, such as ritual. I'm not a fan.,-10,340,20","Low skill not impressed.,-14,40,20","Iike this picture; it speaks to me on a personal level. But seems to scare the ones around me.,7,400,20","Ashley","haunting, a lovely impression.,50,320,20","Dominique","Iike this picture; it speaks to me on a personal level. But seems to scare the ones around me.,7,400,20","Erika","Very cryptic and ancient,36,100,20","5"
"124440","","survey-text","255","3968771","0.0-252.0-0.0","A3IZMPMBGIEGVP","","","","{""Q0"":""the water flows the water falls and thanks to drones we can see it all""}","","","","","","","","","","","","","","","","","","","","","","",""
"3714.2000000029802","","image-slider-response","256","3972486","0.0-253.0","A3IZMPMBGIEGVP","","","","","50","","","","","","","","","","","","","","","","","","","","","",""
"4728","","image-button-response","257","3977488","0.0-254.0","A3IZMPMBGIEGVP","img_art/24.jpg","2","","","","","","","","","","","","","","","","","","","","","","","","",""
"1367","","image-button-response","258","3978858","0.0-255.0","A3IZMPMBGIEGVP","img_art/24.jpg","2","","","","","","","","","","","","","","","","","","","","","","","","",""
"8592","","image-button-response","259","3987451","0.0-256.0-0.0","A3IZMPMBGIEGVP","img_art/24.jpg","1","","","","","","","","","","","","","","","","","","","","","","","","",""
"1479","","image-button-response","260","3988931","0.0-257.0-0.0","A3IZMPMBGIEGVP","img_art/24.jpg","5","","","","","","","","","","","","","","","","","","","","","","","","",""
"null","","html-keyboard-response","261","3990433","0.0-258.0","A3IZMPMBGIEGVP","<p style=""font-size: 48px;"">+</p>","","","","","null","allTrialResponses","1500","1","30","img_art/24.jpg","50","the water flows the water falls and thanks to drones we can see it all","Erika,Marissa,Ashley,Jenna,Kaylee,Dominique","Very nice textures and subject,38,100,20","It feels very serene,19,160,20","NOt quite Bob Ross, but still good.,30,320,20","colors are a bit cramped together. really unique take on a waterfall though.,32,360,20","lovely forest vibes,36,200,20","Spending a day in nature,21,400,20","Ashley","NOt quite Bob Ross, but still good.,30,320,20","Marissa","It feels very serene,19,160,20","Dominique","Spending a day in nature,21,400,20","5"
"11156","","image-button-response_instructions","262","4001597","0.0-259.0","A3IZMPMBGIEGVP","","0","instructions","","","","","","","","","","","","","","","","","","","","","","","",""
"1691","","image-button-response","263","4003291","0.0-260.0","A3IZMPMBGIEGVP","","0","","","","","","","","","","","","","","","","","","","","","","","","",""
