"rt","url","trial_type","trial_index","time_elapsed","internal_node_id","participant_id","stimulus","button_pressed","Name","responses","response","key_press","variableName","fixationTime","condition","trial","photo","subjectRating","subjectResponse","agentsNames","agent_1_Response","agent_2_Response","agent_3_Response","agent_4_Response","agent_5_Response","agent_6_Response","kept_1_name","kept_1_response","kept_2_name","kept_2_response","kept_3_name","kept_3_response","errorCounter"
"5522","external_page_harvard.html","external-html","0","5594","0.0-0.0","A3K9GTQBOI7O5A","","","","","","","","","","","","","","","","","","","","","","","","","","",""
"36002","","image-button-response","1","41601","0.0-1.0","A3K9GTQBOI7O5A","","1","","","","","","","","","","","","","","","","","","","","","","","","",""
"9787","","image-button-response","2","51405","0.0-2.0-0.0","A3K9GTQBOI7O5A","","1","phone","","","","","","","","","","","","","","","","","","","","","","","",""
"4570","","survey-text","3","55981","0.0-3.0-0.0","A3K9GTQBOI7O5A","","","","{""Q0"":""A3K9GTQBOI7O5A""}","","","","","","","","","","","","","","","","","","","","","","",""
"2755","","image-button-response_instructions","4","58739","0.0-4.0","A3K9GTQBOI7O5A","","0","instructions","","","","","","","","","","","","","","","","","","","","","","","",""
"6079","","image-button-response_instructions","5","64823","0.0-5.0","A3K9GTQBOI7O5A","img_art/ins/popularity/ins1.png","0","instructions","","","","","","","","","","","","","","","","","","","","","","","",""
"2756","","image-button-response_instructions","6","67582","0.0-6.0","A3K9GTQBOI7O5A","img_art/ins/popularity/ins2.png","0","instructions","","","","","","","","","","","","","","","","","","","","","","","",""
"1183","","image-button-response_instructions","7","68766","0.0-7.0","A3K9GTQBOI7O5A","img_art/ins/popularity/ins2Extreme.png","0","instructions","","","","","","","","","","","","","","","","","","","","","","","",""
"1500","","image-button-response_instructions","8","70268","0.0-8.0","A3K9GTQBOI7O5A","img_art/ins/popularity/ins3KEEPpop.PNG","0","instructions","","","","","","","","","","","","","","","","","","","","","","","",""
"3927","","image-button-response_instructions","9","74197","0.0-9.0","A3K9GTQBOI7O5A","img_art/ins/popularity/ins3ANamepop.PNG","0","instructions","","","","","","","","","","","","","","","","","","","","","","","",""
"2502","","image-button-response_instructions","10","76701","0.0-10.0","A3K9GTQBOI7O5A","img_art/ins/popularity/ins3ARatingpop.png","0","instructions","","","","","","","","","","","","","","","","","","","","","","","",""
"1620","","image-button-response_instructions","11","78323","0.0-11.0","A3K9GTQBOI7O5A","img_art/ins/popularity/ins3ATextpop.png","0","instructions","","","","","","","","","","","","","","","","","","","","","","","",""
"2129","","image-button-response_instructions","12","80454","0.0-12.0","A3K9GTQBOI7O5A","img_art/ins/popularity/ins3ALikespop.png","0","instructions","","","","","","","","","","","","","","","","","","","","","","","",""
"8369","","image-button-response_instructions","13","88826","0.0-13.0","A3K9GTQBOI7O5A","img_art/ins/popularity/ins3KEEPpop.PNG","0","instructions","","","","","","","","","","","","","","","","","","","","","","","",""
"1683","","image-button-response_instructions","14","90511","0.0-14.0","A3K9GTQBOI7O5A","img_art/ins/popularity/ins3_5RED.png","0","instructions","","","","","","","","","","","","","","","","","","","","","","","",""
"1871","","image-button-response_instructions","15","92385","0.0-15.0","A3K9GTQBOI7O5A","img_art/ins/popularity/ins3KEEPpop.PNG","0","instructions","","","","","","","","","","","","","","","","","","","","","","","",""
"1436","","image-button-response_instructions","16","93824","0.0-16.0","A3K9GTQBOI7O5A","img_art/ins/popularity/ins4KEEPpop.PNG","0","instructions","","","","","","","","","","","","","","","","","","","","","","","",""
"1809","","image-button-response_instructions","17","95635","0.0-17.0","A3K9GTQBOI7O5A","img_art/ins/popularity/ins5KEEPpop.PNG","0","instructions","","","","","","","","","","","","","","","","","","","","","","","",""
"1252","","image-button-response_instructions","18","96888","0.0-18.0","A3K9GTQBOI7O5A","","0","instructions","","","","","","","","","","","","","","","","","","","","","","","",""
"6357","","survey-text","19","103270","0.0-19.0-0.0","A3K9GTQBOI7O5A","","","","{""Q0"":""but""}","","","","","","","","","","","","","","","","","","","","","","",""
"13068","","survey-text","20","116342","0.0-20.0-0.0","A3K9GTQBOI7O5A","","","","{""Q0"":""liking the colors and variety in the artwork""}","","","","","","","","","","","","","","","","","","","","","","",""
"3444.5","","image-slider-response","21","119793","0.0-21.0","A3K9GTQBOI7O5A","","","","","21","","","","","","","","","","","","","","","","","","","","","",""
"2500","","image-button-response","22","124800","0.0-22.0","A3K9GTQBOI7O5A","img_art/ins/1.jpg","4","","","","","","","","","","","","","","","","","","","","","","","","",""
"498","","image-button-response","23","125302","0.0-23.0","A3K9GTQBOI7O5A","img_art/ins/1.jpg","5","","","","","","","","","","","","","","","","","","","","","","","","",""
"1391","","image-button-response","24","126701","0.0-24.0-0.0","A3K9GTQBOI7O5A","img_art/ins/1.jpg","4","","","","","","","","","","","","","","","","","","","","","","","","",""
"3857","","image-button-response","25","130566","0.0-25.0-0.0","A3K9GTQBOI7O5A","img_art/ins/1.jpg","0","","","","","","","","","","","","","","","","","","","","","","","","",""
"null","","html-keyboard-response","26","131572","0.0-26.0","A3K9GTQBOI7O5A","<p style=""font-size: 48px;"">+</p>","","","","","null","allTrialResponses","1000","1","-2","img_art/ins/1.jpg","21","liking the colors and variety in the artwork","Allison,Ashley,Beth,Dora,Erika,Jen","looks like a lot of things going on in the mist,20,20,20","I just don't get why these type of art would be popular,-32,40,20","This color reminds me of poo,-46,60,20","looks like what my niece in 3rd grade did this afternoon,-50,80,20","I like the sophisticated brushwork,40,100,20","It reminds me of a candy land dream I had,36,120,20","Jen","It reminds me of a candy land dream I had,36,120,20","Erika","I like the sophisticated brushwork,40,100,20","Allison","looks like a lot of things going on in the mist,20,20,20","0"
"14164","","survey-text","27","145743","0.0-27.0-0.0","A3K9GTQBOI7O5A","","","","{""Q0"":""it looks really nice, like the finish of the artwork""}","","","","","","","","","","","","","","","","","","","","","","",""
"4010.100000143051","","image-slider-response","28","149757","0.0-28.0","A3K9GTQBOI7O5A","","","","","35","","","","","","","","","","","","","","","","","","","","","",""
"2994","","image-button-response","29","154763","0.0-29.0","A3K9GTQBOI7O5A","img_art/ins/2.jpg","1","","","","","","","","","","","","","","","","","","","","","","","","",""
"2305","","image-button-response","30","157072","0.0-30.0","A3K9GTQBOI7O5A","img_art/ins/2.jpg","1","","","","","","","","","","","","","","","","","","","","","","","","",""
"4621","","image-button-response","31","161699","0.0-31.0-0.0","A3K9GTQBOI7O5A","img_art/ins/2.jpg","5","","","","","","","","","","","","","","","","","","","","","","","","",""
"6414","","image-button-response","32","168119","0.0-32.0-0.0","A3K9GTQBOI7O5A","img_art/ins/2.jpg","4","","","","","","","","","","","","","","","","","","","","","","","","",""
"null","","html-keyboard-response","33","169621","0.0-33.0","A3K9GTQBOI7O5A","<p style=""font-size: 48px;"">+</p>","","","","","null","allTrialResponses","1500","1","-1","img_art/ins/2.jpg","35","it looks really nice, like the finish of the artwork","Allison,Kara,Katie,Jenna,Erika,Jen","I don't have strong feelings about this,10,20,20","I like the blocks of color arrangements,30,160,20","too much color!,-28,180,20","One of my pet peevs,-48,140,20","I would never be able to compose a sophisticated pallete like this,48,100,20","It reminds me of a fireplace,36,120,20","Kara","I like the blocks of color arrangements,30,160,20","Jen","It reminds me of a fireplace,36,120,20","Erika","I would never be able to compose a sophisticated pallete like this,48,100,20","0"
"19464","","survey-text","34","189093","0.0-34.0-0.0","A3K9GTQBOI7O5A","","","","{""Q0"":""cold tones that lift up the spirit""}","","","","","","","","","","","","","","","","","","","","","","",""
"4827.5","","image-slider-response","35","193925","0.0-35.0","A3K9GTQBOI7O5A","","","","","24","","","","","","","","","","","","","","","","","","","","","",""
"2368","","image-button-response","36","198931","0.0-36.0","A3K9GTQBOI7O5A","img_art/ins/3.jpg","0","","","","","","","","","","","","","","","","","","","","","","","","",""
"235","","image-button-response","37","199170","0.0-37.0","A3K9GTQBOI7O5A","img_art/ins/3.jpg","0","","","","","","","","","","","","","","","","","","","","","","","","",""
"2079","","image-button-response","38","201253","0.0-38.0-0.0","A3K9GTQBOI7O5A","img_art/ins/3.jpg","0","","","","","","","","","","","","","","","","","","","","","","","","",""
"1313","","image-button-response","39","206086","0.0-38.1-0.1","A3K9GTQBOI7O5A","img_art/ins/3.jpg","4","","","","","","","","","","","","","","","","","","","","","","","","",""
"2307","","image-button-response","40","208395","0.0-39.0-0.0","A3K9GTQBOI7O5A","img_art/ins/3.jpg","0","","","","","","","","","","","","","","","","","","","","","","","","",""
"2239","","image-button-response","41","215889","0.0-39.1-0.1","A3K9GTQBOI7O5A","img_art/ins/3.jpg","5","","","","","","","","","","","","","","","","","","","","","","","","",""
"null","","html-keyboard-response","42","217404","0.0-40.0","A3K9GTQBOI7O5A","<p style=""font-size: 48px;"">+</p>","","","","","null","allTrialResponses","1500","1","0","img_art/ins/3.jpg","24","cold tones that lift up the spirit","Mary,Kara,Rose,Leslie,Erika,Jen","I like the overlapping of brushes,41,220,20","calming blue is very nice,36,160,20","My daily routine, it's depressing,-20,240,20","It's an alright work,15,200,20","I feel connected to the artist,40,100,20","I can feel a rainy day from this painting,18,120,20","Mary","I like the overlapping of brushes,41,220,20","Erika","I feel connected to the artist,40,100,20","Jen","I can feel a rainy day from this painting,18,120,20","4"
"4234","","image-button-response_instructions","43","221649","0.0-41.0","A3K9GTQBOI7O5A","","0","instructions","","","","","","","","","","","","","","","","","","","","","","","",""
"10690","","survey-likert","44","232343","0.0-42.0-0.0","A3K9GTQBOI7O5A","","","","{""Q0"":"""",""Q1"":0,""Q2"":1}","","","","","","","","","","","","","","","","","","","","","","",""
"4881","","survey-text","45","237236","0.0-43.0-0.0","A3K9GTQBOI7O5A","","","","{""Q0"":""rock""}","","","","","","","","","","","","","","","","","","","","","","",""
"16341","","survey-text","46","253579","0.0-44.0-0.0","A3K9GTQBOI7O5A","","","","{""Q0"":""like the colors and variety of tones""}","","","","","","","","","","","","","","","","","","","","","","",""
"5082.600000143051","","image-slider-response","47","258665","0.0-45.0","A3K9GTQBOI7O5A","","","","","21","","","","","","","","","","","","","","","","","","","","","",""
"2924","","image-button-response","48","263740","0.0-46.0","A3K9GTQBOI7O5A","img_art/22.jpg","1","","","","","","","","","","","","","","","","","","","","","","","","",""
"2356","","image-button-response","49","266100","0.0-47.0","A3K9GTQBOI7O5A","img_art/22.jpg","2","","","","","","","","","","","","","","","","","","","","","","","","",""
"1500","","image-button-response","50","267604","0.0-48.0-0.0","A3K9GTQBOI7O5A","img_art/22.jpg","1","","","","","","","","","","","","","","","","","","","","","","","","",""
"5246","","image-button-response","51","272857","0.0-49.0-0.0","A3K9GTQBOI7O5A","img_art/22.jpg","0","","","","","","","","","","","","","","","","","","","","","","","","",""
"null","","html-keyboard-response","52","274369","0.0-50.0","A3K9GTQBOI7O5A","<p style=""font-size: 48px;"">+</p>","","","","","null","allTrialResponses","1500","1","1","img_art/22.jpg","21","like the colors and variety of tones","Mary,Monica,Meghan,Savannah,Sabrina,Sarah","I do not like the color combo. This piece is too much the same throughout.,-1,180,20","I really like the bright colors and sunset feel,31,360,20","really beautiful colors and contrast,30,220,20","Seems too simple.,-19,200,20","Just not feeling it,-19,120,20","boring, too many red and yellow tones for my taste,-15,180,20","Meghan","really beautiful colors and contrast,30,220,20","Monica","I really like the bright colors and sunset feel,31,360,20","Mary","I do not like the color combo. This piece is too much the same throughout.,-1,180,20","4"
"15002","","survey-text","53","289378","0.0-51.0-0.0","A3K9GTQBOI7O5A","","","","{""Q0"":""makes you wonder about the scene, loving the complexity of the artwork""}","","","","","","","","","","","","","","","","","","","","","","",""
"5266.700000047684","","image-slider-response","54","294649","0.0-52.0","A3K9GTQBOI7O5A","","","","","36","","","","","","","","","","","","","","","","","","","","","",""
"2921","","image-button-response","55","299659","0.0-53.0","A3K9GTQBOI7O5A","img_art/8.jpg","0","","","","","","","","","","","","","","","","","","","","","","","","",""
"1296","","image-button-response","56","300960","0.0-54.0","A3K9GTQBOI7O5A","img_art/8.jpg","0","","","","","","","","","","","","","","","","","","","","","","","","",""
"2114","","image-button-response","57","303078","0.0-55.0-0.0","A3K9GTQBOI7O5A","img_art/8.jpg","5","","","","","","","","","","","","","","","","","","","","","","","","",""
"1824","","image-button-response","58","304906","0.0-56.0-0.0","A3K9GTQBOI7O5A","img_art/8.jpg","3","","","","","","","","","","","","","","","","","","","","","","","","",""
"null","","html-keyboard-response","59","305412","0.0-57.0","A3K9GTQBOI7O5A","<p style=""font-size: 48px;"">+</p>","","","","","null","allTrialResponses","500","1","2","img_art/8.jpg","36","makes you wonder about the scene, loving the complexity of the artwork","Mary,Monica,Meghan,Michelle,Samantha,Natalie","Very inspiring piece. I love how it's at angle. It gives it character.,23,180,20","The faces in the upper left show agony and contrast with the geometric shapes too much,-31,360,20","the face is creepy,-49,220,20","I appreciate the complexity of this piece but it's too cubist for me,3,280,20","The face bothers me,-25,140,20","looks nice, like the details,25,400,20","Mary","Very inspiring piece. I love how it's at angle. It gives it character.,23,180,20","Natalie","looks nice, like the details,25,400,20","Michelle","I appreciate the complexity of this piece but it's too cubist for me,3,280,20","4"
"15564","","survey-text","60","320985","0.0-58.0-0.0","A3K9GTQBOI7O5A","","","","{""Q0"":""simple art that is actually really complicated""}","","","","","","","","","","","","","","","","","","","","","","",""
"3733.7000000476837","","image-slider-response","61","324724","0.0-59.0","A3K9GTQBOI7O5A","","","","","23","","","","","","","","","","","","","","","","","","","","","",""
"4738","","image-button-response","62","329741","0.0-60.0","A3K9GTQBOI7O5A","img_art/19.jpg","4","","","","","","","","","","","","","","","","","","","","","","","","",""
"2169","","image-button-response","63","331914","0.0-61.0","A3K9GTQBOI7O5A","img_art/19.jpg","4","","","","","","","","","","","","","","","","","","","","","","","","",""
"1170","","image-button-response","64","333093","0.0-62.0-0.0","A3K9GTQBOI7O5A","img_art/19.jpg","0","","","","","","","","","","","","","","","","","","","","","","","","",""
"938","","image-button-response","65","334038","0.0-63.0-0.0","A3K9GTQBOI7O5A","img_art/19.jpg","3","","","","","","","","","","","","","","","","","","","","","","","","",""
"null","","html-keyboard-response","66","334555","0.0-64.0","A3K9GTQBOI7O5A","<p style=""font-size: 48px;"">+</p>","","","","","null","allTrialResponses","500","1","3","img_art/19.jpg","23","simple art that is actually really complicated","Mary,Alyssa,Katelyn,Michelle,Dominique,Natalie","I interpret an outdoor scene. It's good because it makes me want to look longer.,22,180,20","There's alot of elements to it bordering on clutter and chaotic,-20,160,20","I dont like the smudge effect,-7,100,20","I like the water but again, the small lines with no detail are irritating,3,280,20","I really like the colors and feel of this one and alot of life,41,400,20","the picture gave me anxiety,-38,400,20","Dominique","I really like the colors and feel of this one and alot of life,41,400,20","Mary","I interpret an outdoor scene. It's good because it makes me want to look longer.,22,180,20","Michelle","I like the water but again, the small lines with no detail are irritating,3,280,20","4"
"10847","","survey-text","67","345412","0.0-65.0-0.0","A3K9GTQBOI7O5A","","","","{""Q0"":""liking how the color fades and also the warm tones""}","","","","","","","","","","","","","","","","","","","","","","",""
"3423.2000000476837","","image-slider-response","68","348838","0.0-66.0","A3K9GTQBOI7O5A","","","","","27","","","","","","","","","","","","","","","","","","","","","",""
"4889","","image-button-response","69","353848","0.0-67.0","A3K9GTQBOI7O5A","img_art/1.jpg","4","","","","","","","","","","","","","","","","","","","","","","","","",""
"1016","","image-button-response","70","354870","0.0-68.0","A3K9GTQBOI7O5A","img_art/1.jpg","4","","","","","","","","","","","","","","","","","","","","","","","","",""
"1866","","image-button-response","71","356739","0.0-69.0-0.0","A3K9GTQBOI7O5A","img_art/1.jpg","0","","","","","","","","","","","","","","","","","","","","","","","","",""
"2368","","image-button-response","72","359111","0.0-70.0-0.0","A3K9GTQBOI7O5A","img_art/1.jpg","1","","","","","","","","","","","","","","","","","","","","","","","","",""
"null","","html-keyboard-response","73","360614","0.0-71.0","A3K9GTQBOI7O5A","<p style=""font-size: 48px;"">+</p>","","","","","null","allTrialResponses","1500","1","4","img_art/1.jpg","27","liking how the color fades and also the warm tones","Mary,Morgan,Emily,Michelle,Dominique,Cheyenne","This piece feels soft and romantic to me. I do not care for so much orange though.,3,180,20","Flat colors with no flavor.,5,380,20","Just a mess though a better mess than some others.,-11,40,20","Random paint does not make art,-5,280,20","I love the detail and colors like a beautiful autumn day,35,400,20","Nothing really going on but good color choices.,-3,200,20","Dominique","I love the detail and colors like a beautiful autumn day,35,400,20","Mary","This piece feels soft and romantic to me. I do not care for so much orange though.,3,180,20","Morgan","Flat colors with no flavor.,5,380,20","4"
"21973","","survey-text","74","382597","0.0-72.0-0.0","A3K9GTQBOI7O5A","","","","{""Q0"":""the artwork is cold and missing life. ""}","","","","","","","","","","","","","","","","","","","","","","",""
"3890.9000000953674","","image-slider-response","75","386491","0.0-73.0","A3K9GTQBOI7O5A","","","","","19","","","","","","","","","","","","","","","","","","","","","",""
"null","","image-button-response","76","391500","0.0-74.0","A3K9GTQBOI7O5A","img_art/26.jpg","null","","","","","","","","","","","","","","","","","","","","","","","","",""
"227","","image-button-response","77","391734","0.0-75.0","A3K9GTQBOI7O5A","img_art/26.jpg","5","","","","","","","","","","","","","","","","","","","","","","","","",""
"3429","","image-button-response","78","395168","0.0-76.0-0.0","A3K9GTQBOI7O5A","img_art/26.jpg","3","","","","","","","","","","","","","","","","","","","","","","","","",""
"2378","","image-button-response","79","397552","0.0-77.0-0.0","A3K9GTQBOI7O5A","img_art/26.jpg","0","","","","","","","","","","","","","","","","","","","","","","","","",""
"null","","html-keyboard-response","80","398556","0.0-78.0","A3K9GTQBOI7O5A","<p style=""font-size: 48px;"">+</p>","","","","","null","allTrialResponses","1000","1","5","img_art/26.jpg","19","the artwork is cold and missing life. ","Mary,Morgan,Anna,Angelica,Dominique,Alicia","I can tell it's some sort of outdoor scene. It looks very amateurish.,-9,180,20","Confusing park picture.,8,380,20","It looks like a watercolor I did when I was 6.,-30,300,20","It's not ugly but not beautiful at all.,-3,280,20","Small town and home feel on A nice day.,28,400,20","I like the simple watercolor colors, makes my mind work, thumbs up.,27,120,20","Alicia","I like the simple watercolor colors, makes my mind work, thumbs up.,27,120,20","Angelica","It's not ugly but not beautiful at all.,-3,280,20","Mary","I can tell it's some sort of outdoor scene. It looks very amateurish.,-9,180,20","4"
"4158","","survey-text","81","402735","0.0-79.0-0.0","A3K9GTQBOI7O5A","","","","{""Q0"":""sky""}","","","","","","","","","","","","","","","","","","","","","","",""
"21834","","survey-text","82","424574","0.0-80.0-0.0","A3K9GTQBOI7O5A","","","","{""Q0"":""the colors have a low energy, doesnt look professional. ""}","","","","","","","","","","","","","","","","","","","","","","",""
"4880.400000095367","","image-slider-response","83","429459","0.0-81.0","A3K9GTQBOI7O5A","","","","","-29","","","","","","","","","","","","","","","","","","","","","",""
"4638","","image-button-response","84","434470","0.0-82.0","A3K9GTQBOI7O5A","img_art/27.jpg","3","","","","","","","","","","","","","","","","","","","","","","","","",""
"1874","","image-button-response","85","436349","0.0-83.0","A3K9GTQBOI7O5A","img_art/27.jpg","3","","","","","","","","","","","","","","","","","","","","","","","","",""
"1238","","image-button-response","86","437590","0.0-84.0-0.0","A3K9GTQBOI7O5A","img_art/27.jpg","5","","","","","","","","","","","","","","","","","","","","","","","","",""
"2464","","image-button-response","87","440059","0.0-85.0-0.0","A3K9GTQBOI7O5A","img_art/27.jpg","2","","","","","","","","","","","","","","","","","","","","","","","","",""
"null","","html-keyboard-response","88","441568","0.0-86.0","A3K9GTQBOI7O5A","<p style=""font-size: 48px;"">+</p>","","","","","null","allTrialResponses","1500","1","6","img_art/27.jpg","-29","the colors have a low energy, doesnt look professional. ","Mary,Heather,Hailey,Angelica,Isabella,Alicia","I like the layer upon layer of different mediums used here.,21,180,20","looks like a garden in between two storms.,33,260,20","fruity and sweet. warm and juicy,10,200,20","This looks like a poor copy of Cy Twombly's style.,-3,280,20","Makes me feel warm inside,21,280,20","dont like it, don't hate it, meh.,2,120,20","Angelica","This looks like a poor copy of Cy Twombly's style.,-3,280,20","Alicia","dont like it, don't hate it, meh.,2,120,20","Hailey","fruity and sweet. warm and juicy,10,200,20","4"
"12380","","survey-text","89","453954","0.0-87.0-0.0","A3K9GTQBOI7O5A","","","","{""Q0"":""the artwork looks a bit creepy ""}","","","","","","","","","","","","","","","","","","","","","","",""
"4077.7000000476837","","image-slider-response","90","458035","0.0-88.0","A3K9GTQBOI7O5A","","","","","-31","","","","","","","","","","","","","","","","","","","","","",""
"2698","","image-button-response","91","463041","0.0-89.0","A3K9GTQBOI7O5A","img_art/16.jpg","0","","","","","","","","","","","","","","","","","","","","","","","","",""
"1435","","image-button-response","92","464481","0.0-90.0","A3K9GTQBOI7O5A","img_art/16.jpg","0","","","","","","","","","","","","","","","","","","","","","","","","",""
"1310","","image-button-response","93","465796","0.0-91.0-0.0","A3K9GTQBOI7O5A","img_art/16.jpg","3","","","","","","","","","","","","","","","","","","","","","","","","",""
"3123","","image-button-response","94","468925","0.0-92.0-0.0","A3K9GTQBOI7O5A","img_art/16.jpg","5","","","","","","","","","","","","","","","","","","","","","","","","",""
"null","","html-keyboard-response","95","469930","0.0-93.0","A3K9GTQBOI7O5A","<p style=""font-size: 48px;"">+</p>","","","","","null","allTrialResponses","1000","1","7","img_art/16.jpg","-31","the artwork looks a bit creepy ","Alexis,Elizabeth,Hailey,Angelica,Maria,Alicia","Don't like this technique. Too serial killer.,-50,100,20","Picture seems unique,12,20,20","cute and warm. i like the bear,15,200,20","This is creepy and puerile.,-45,280,20","feel a little creeped out,-20,120,20","Don't get it. Hate it. ugly.,-44,120,20","Alexis","Don't like this technique. Too serial killer.,-50,100,20","Angelica","This is creepy and puerile.,-45,280,20","Alicia","Don't get it. Hate it. ugly.,-44,120,20","4"
"16618","","survey-text","96","486558","0.0-94.0-0.0","A3K9GTQBOI7O5A","","","","{""Q0"":""like the effect of the droplets of paint""}","","","","","","","","","","","","","","","","","","","","","","",""
"8670.5","","image-slider-response","97","495233","0.0-95.0","A3K9GTQBOI7O5A","","","","","19","","","","","","","","","","","","","","","","","","","","","",""
"3429","","image-button-response","98","500241","0.0-96.0","A3K9GTQBOI7O5A","img_art/13.jpg","1","","","","","","","","","","","","","","","","","","","","","","","","",""
"1711","","image-button-response","99","501956","0.0-97.0","A3K9GTQBOI7O5A","img_art/13.jpg","0","","","","","","","","","","","","","","","","","","","","","","","","",""
"1104","","image-button-response","100","503062","0.0-98.0-0.0","A3K9GTQBOI7O5A","img_art/13.jpg","1","","","","","","","","","","","","","","","","","","","","","","","","",""
"2966","","image-button-response","101","506031","0.0-99.0-0.0","A3K9GTQBOI7O5A","img_art/13.jpg","4","","","","","","","","","","","","","","","","","","","","","","","","",""
"null","","html-keyboard-response","102","507033","0.0-100.0","A3K9GTQBOI7O5A","<p style=""font-size: 48px;"">+</p>","","","","","null","allTrialResponses","1000","1","8","img_art/13.jpg","19","like the effect of the droplets of paint","Alexis,Ashley,Makayla,Angelica,Mackenzie,Alicia","Simple, but pleasing. The blue gradient is a favorite of mine,32,100,20","AWESOME! Pollack but with more direction.,32,320,20","Reminds me of the aquarium,4,80,20","It's too violent looking and there's too much contrast between the white/black.,-21,280,20","I enjoy the cool colors mixed together,31,20,20","meh, 80's. retro,-9,120,20","Alexis","Simple, but pleasing. The blue gradient is a favorite of mine,32,100,20","Ashley","AWESOME! Pollack but with more direction.,32,320,20","Mackenzie","I enjoy the cool colors mixed together,31,20,20","4"
"23508","","survey-text","103","530557","0.0-101.0-0.0","A3K9GTQBOI7O5A","","","","{""Q0"":""I like the colors and like the lines in the artwork""}","","","","","","","","","","","","","","","","","","","","","","",""
"10576.5","","image-slider-response","104","541138","0.0-102.0","A3K9GTQBOI7O5A","","","","","22","","","","","","","","","","","","","","","","","","","","","",""
"4145","","image-button-response","105","546145","0.0-103.0","A3K9GTQBOI7O5A","img_art/18.jpg","1","","","","","","","","","","","","","","","","","","","","","","","","",""
"3945","","image-button-response","106","550094","0.0-104.0","A3K9GTQBOI7O5A","img_art/18.jpg","3","","","","","","","","","","","","","","","","","","","","","","","","",""
"2748","","image-button-response","107","552847","0.0-105.0-0.0","A3K9GTQBOI7O5A","img_art/18.jpg","1","","","","","","","","","","","","","","","","","","","","","","","","",""
"2558","","image-button-response","108","555408","0.0-106.0-0.0","A3K9GTQBOI7O5A","img_art/18.jpg","5","","","","","","","","","","","","","","","","","","","","","","","","",""
"null","","html-keyboard-response","109","556426","0.0-107.0","A3K9GTQBOI7O5A","<p style=""font-size: 48px;"">+</p>","","","","","null","allTrialResponses","1000","1","9","img_art/18.jpg","22","I like the colors and like the lines in the artwork","Alexis,Ashley,Kimberly,Kaitlin,Mackenzie,Courtney","Crusade-feel, but a little too abstract for my taste,23,100,20","Resembles a ship at sea, storm of activity.,28,320,20","I enjoy the detailed line work in this one,21,260,20","I really like this one - there seems to be a story behind it,32,60,20","The shapes are very fun to interpret,30,20,20","Pirate ship in stormy seas before it sank.,11,280,20","Kaitlin","I really like this one - there seems to be a story behind it,32,60,20","Ashley","Resembles a ship at sea, storm of activity.,28,320,20","Courtney","Pirate ship in stormy seas before it sank.,11,280,20","4"
"18858","","survey-text","110","575294","0.0-108.0-0.0","A3K9GTQBOI7O5A","","","","{""Q0"":""this artwork seems too dark for my taste""}","","","","","","","","","","","","","","","","","","","","","","",""
"8474","","image-slider-response","111","583774","0.0-109.0","A3K9GTQBOI7O5A","","","","","-21","","","","","","","","","","","","","","","","","","","","","",""
"3925","","image-button-response","112","588781","0.0-110.0","A3K9GTQBOI7O5A","img_art/15.jpg","0","","","","","","","","","","","","","","","","","","","","","","","","",""
"1480","","image-button-response","113","590267","0.0-111.0","A3K9GTQBOI7O5A","img_art/15.jpg","3","","","","","","","","","","","","","","","","","","","","","","","","",""
"1434","","image-button-response","114","591706","0.0-112.0-0.0","A3K9GTQBOI7O5A","img_art/15.jpg","0","","","","","","","","","","","","","","","","","","","","","","","","",""
"1994","","image-button-response","115","593707","0.0-113.0-0.0","A3K9GTQBOI7O5A","img_art/15.jpg","2","","","","","","","","","","","","","","","","","","","","","","","","",""
"null","","html-keyboard-response","116","594226","0.0-114.0","A3K9GTQBOI7O5A","<p style=""font-size: 48px;"">+</p>","","","","","null","allTrialResponses","500","1","10","img_art/15.jpg","-21","this artwork seems too dark for my taste","Julia,Ashley,Kelly,Kaitlin,Haley,Courtney","This is simply too ""old-school"",-27,40,20","I think of birds, nature, levels of space.,18,320,20","I can't really make out what this is supposed to be.,-8,220,20","This one seems a bit frightening,-19,60,20","Interesting, and I don't dislike it.,9,220,20","Weird fuzzball bush.,22,280,20","Kaitlin","This one seems a bit frightening,-19,60,20","Julia","This is simply too ""old-school"",-27,40,20","Kelly","I can't really make out what this is supposed to be.,-8,220,20","4"
"4972","","survey-text","117","599217","0.0-115.0-0.0","A3K9GTQBOI7O5A","","","","{""Q0"":""our""}","","","","","","","","","","","","","","","","","","","","","","",""
"12013","","survey-text","118","611233","0.0-116.0-0.0","A3K9GTQBOI7O5A","","","","{""Q0"":""realistic tones and colors, like it""}","","","","","","","","","","","","","","","","","","","","","","",""
"3391.7000000476837","","image-slider-response","119","614628","0.0-117.0","A3K9GTQBOI7O5A","","","","","30","","","","","","","","","","","","","","","","","","","","","",""
"null","","image-button-response","120","619648","0.0-118.0","A3K9GTQBOI7O5A","img_art/29.jpg","null","","","","","","","","","","","","","","","","","","","","","","","","",""
"123","","image-button-response","121","619773","0.0-119.0","A3K9GTQBOI7O5A","img_art/29.jpg","3","","","","","","","","","","","","","","","","","","","","","","","","",""
"1131","","image-button-response","122","620906","0.0-120.0-0.0","A3K9GTQBOI7O5A","img_art/29.jpg","0","","","","","","","","","","","","","","","","","","","","","","","","",""
"2320","","image-button-response","123","623229","0.0-121.0-0.0","A3K9GTQBOI7O5A","img_art/29.jpg","1","","","","","","","","","","","","","","","","","","","","","","","","",""
"null","","html-keyboard-response","124","623732","0.0-122.0","A3K9GTQBOI7O5A","<p style=""font-size: 48px;"">+</p>","","","","","null","allTrialResponses","500","1","11","img_art/29.jpg","30","realistic tones and colors, like it","Julia,Angela,Kelly,Kaitlin,Bailey,Victoria","it looks like a top-down battle arena,26,40,20","I would like this piece better without the red X across it,-10,260,20","Too much going on, and I don't like the colors. It looks like a crime scene.,-50,220,20","seems fun, looks like a battle zone,22,60,20","Giant messy blob. Looks like it tries to be edgy, but fails.,-40,360,20","makes me think of destruction,-20,400,20","Kaitlin","seems fun, looks like a battle zone,22,60,20","Julia","it looks like a top-down battle arena,26,40,20","Angela","I would like this piece better without the red X across it,-10,260,20","4"
"13987","","survey-text","125","637730","0.0-123.0-0.0","A3K9GTQBOI7O5A","","","","{""Q0"":""simple but at the same time complex. Like the colors. ""}","","","","","","","","","","","","","","","","","","","","","","",""
"6498.799999952316","","image-slider-response","126","644232","0.0-124.0","A3K9GTQBOI7O5A","","","","","21","","","","","","","","","","","","","","","","","","","","","",""
"null","","image-button-response","127","649239","0.0-125.0","A3K9GTQBOI7O5A","img_art/11.jpg","null","","","","","","","","","","","","","","","","","","","","","","","","",""
"7176","","image-button-response","128","656419","0.0-126.0","A3K9GTQBOI7O5A","img_art/11.jpg","1","","","","","","","","","","","","","","","","","","","","","","","","",""
"1808","","image-button-response","129","658234","0.0-127.0-0.0","A3K9GTQBOI7O5A","img_art/11.jpg","5","","","","","","","","","","","","","","","","","","","","","","","","",""
"1063","","image-button-response","130","659302","0.0-128.0-0.0","A3K9GTQBOI7O5A","img_art/11.jpg","3","","","","","","","","","","","","","","","","","","","","","","","","",""
"null","","html-keyboard-response","131","660308","0.0-129.0","A3K9GTQBOI7O5A","<p style=""font-size: 48px;"">+</p>","","","","","null","allTrialResponses","1000","1","12","img_art/11.jpg","21","simple but at the same time complex. Like the colors. ","Julia,Angela,Megan,Kaitlin,Stephanie,Caroline","this looks like a beautiful rainy day in a hellish urban mountain city,14,40,20","I like this one very much, especially the shades of gray.,30,260,20","Some interesting color but scratchy train mess.,-14,200,20","a beautiful piece of art,33,60,20","Rainy dreary day in a town.,7,300,20","Makes me think of far away places and traveling. Makes me feel like wandering,20,100,20","Angela","I like this one very much, especially the shades of gray.,30,260,20","Caroline","Makes me think of far away places and traveling. Makes me feel like wandering,20,100,20","Kaitlin","a beautiful piece of art,33,60,20","4"
"15397","","survey-text","132","675715","0.0-130.0-0.0","A3K9GTQBOI7O5A","","","","{""Q0"":""this looks like a professional work of art I like it. ""}","","","","","","","","","","","","","","","","","","","","","","",""
"10693.899999856949","","image-slider-response","133","686413","0.0-131.0","A3K9GTQBOI7O5A","","","","","28","","","","","","","","","","","","","","","","","","","","","",""
"null","","image-button-response","134","691421","0.0-132.0","A3K9GTQBOI7O5A","img_art/10.jpg","null","","","","","","","","","","","","","","","","","","","","","","","","",""
"4109","","image-button-response","135","695535","0.0-133.0","A3K9GTQBOI7O5A","img_art/10.jpg","1","","","","","","","","","","","","","","","","","","","","","","","","",""
"1372","","image-button-response","136","696913","0.0-134.0-0.0","A3K9GTQBOI7O5A","img_art/10.jpg","3","","","","","","","","","","","","","","","","","","","","","","","","",""
"1619","","image-button-response","137","698539","0.0-135.0-0.0","A3K9GTQBOI7O5A","img_art/10.jpg","2","","","","","","","","","","","","","","","","","","","","","","","","",""
"null","","html-keyboard-response","138","699048","0.0-136.0","A3K9GTQBOI7O5A","<p style=""font-size: 48px;"">+</p>","","","","","null","allTrialResponses","500","1","13","img_art/10.jpg","28","this looks like a professional work of art I like it. ","Shannon,Angela,Alexandra,Kaitlin,Cassidy,Caroline","I can't tell what this picture is supposed to mean and I think the colors are lacking variety.,-42,220,20","This makes me think of a city, specifically London.,20,260,20","The longer I looked at this, the more I liked it,33,60,20","awww... this looks very nice,32,60,20","Looks like someone just smeared some paint and called it good. Do not like.,-6,140,20","This painting made me think of a guitar which made me think of music which envoked happy feelings.,28,100,20","Angela","This makes me think of a city, specifically London.,20,260,20","Kaitlin","awww... this looks very nice,32,60,20","Alexandra","The longer I looked at this, the more I liked it,33,60,20","4"
"24441","","survey-text","139","723505","0.0-137.0-0.0","A3K9GTQBOI7O5A","","","","{""Q0"":""I like the scenes in the picture, and the colors. ""}","","","","","","","","","","","","","","","","","","","","","","",""
"4236.099999904633","","image-slider-response","140","727746","0.0-138.0","A3K9GTQBOI7O5A","","","","","22","","","","","","","","","","","","","","","","","","","","","",""
"4318","","image-button-response","141","732749","0.0-139.0","A3K9GTQBOI7O5A","img_art/12.jpg","1","","","","","","","","","","","","","","","","","","","","","","","","",""
"460","","image-button-response","142","733213","0.0-140.0","A3K9GTQBOI7O5A","img_art/12.jpg","2","","","","","","","","","","","","","","","","","","","","","","","","",""
"1046","","image-button-response","143","734265","0.0-141.0-0.0","A3K9GTQBOI7O5A","img_art/12.jpg","1","","","","","","","","","","","","","","","","","","","","","","","","",""
"875","","image-button-response","144","735148","0.0-142.0-0.0","A3K9GTQBOI7O5A","img_art/12.jpg","4","","","","","","","","","","","","","","","","","","","","","","","","",""
"null","","html-keyboard-response","145","736163","0.0-143.0","A3K9GTQBOI7O5A","<p style=""font-size: 48px;"">+</p>","","","","","null","allTrialResponses","1000","1","14","img_art/12.jpg","22","I like the scenes in the picture, and the colors. ","Allison,Angela,Alexandra,Kaitlin,Amber,Brooke","Minimalist colors and shapes.,-5,140,20","I like the colors in the bottom half of the painting,10,260,20","I like the pattern of this picture, but the colors could be nicer,11,60,20","too much - just overcrowded,-20,60,20","Like how all the colors seem to blend together.,15,200,20","Dislike the style, the sharp rectangular pattern very jarring.,-20,60,20","Alexandra","I like the pattern of this picture, but the colors could be nicer,11,60,20","Angela","I like the colors in the bottom half of the painting,10,260,20","Amber","Like how all the colors seem to blend together.,15,200,20","4"
"13481","","survey-text","146","749657","0.0-144.0-0.0","A3K9GTQBOI7O5A","","","","{""Q0"":""I dont like the colors or concept""}","","","","","","","","","","","","","","","","","","","","","","",""
"5187.599999904633","","image-slider-response","147","754849","0.0-145.0","A3K9GTQBOI7O5A","","","","","-20","","","","","","","","","","","","","","","","","","","","","",""
"2741","","image-button-response","148","759853","0.0-146.0","A3K9GTQBOI7O5A","img_art/4.jpg","0","","","","","","","","","","","","","","","","","","","","","","","","",""
"2120","","image-button-response","149","761979","0.0-147.0","A3K9GTQBOI7O5A","img_art/4.jpg","5","","","","","","","","","","","","","","","","","","","","","","","","",""
"1679","","image-button-response","150","763663","0.0-148.0-0.0","A3K9GTQBOI7O5A","img_art/4.jpg","2","","","","","","","","","","","","","","","","","","","","","","","","",""
"2117","","image-button-response","151","765784","0.0-149.0-0.0","A3K9GTQBOI7O5A","img_art/4.jpg","3","","","","","","","","","","","","","","","","","","","","","","","","",""
"null","","html-keyboard-response","152","767297","0.0-150.0","A3K9GTQBOI7O5A","<p style=""font-size: 48px;"">+</p>","","","","","null","allTrialResponses","1500","1","15","img_art/4.jpg","-20","I dont like the colors or concept","Jordan,Angela,Alexandra,Brianna,Amber,Cassandra","The colors remind me of mcdonalds,-33,20,20","Really like the colors, but don't like the object/squiggle in darker gold and black,4,260,20","This artwork looks like a child did it,-41,60,20","Really don't care for the yellowish brown color in the center.,-19,20,20","I like the bold style.,10,200,20","I don't like this...a mustardy scibble.,-47,120,20","Cassandra","I don't like this...a mustardy scibble.,-47,120,20","Alexandra","This artwork looks like a child did it,-41,60,20","Brianna","Really don't care for the yellowish brown color in the center.,-19,20,20","4"
"5108","","survey-text","153","772426","0.0-151.0-0.0","A3K9GTQBOI7O5A","","","","{""Q0"":""course""}","","","","","","","","","","","","","","","","","","","","","","",""
"10636","","survey-text","154","783066","0.0-152.0-0.0","A3K9GTQBOI7O5A","","","","{""Q0"":""missing color, too dark ""}","","","","","","","","","","","","","","","","","","","","","","",""
"3933","","image-slider-response","155","787002","0.0-153.0","A3K9GTQBOI7O5A","","","","","-20","","","","","","","","","","","","","","","","","","","","","",""
"4887","","image-button-response","156","792016","0.0-154.0","A3K9GTQBOI7O5A","img_art/28.jpg","1","","","","","","","","","","","","","","","","","","","","","","","","",""
"1619","","image-button-response","157","793648","0.0-155.0","A3K9GTQBOI7O5A","img_art/28.jpg","3","","","","","","","","","","","","","","","","","","","","","","","","",""
"239","","image-button-response","158","793893","0.0-156.0-0.0","A3K9GTQBOI7O5A","img_art/28.jpg","3","","","","","","","","","","","","","","","","","","","","","","","","",""
"870","","image-button-response","159","800374","0.0-156.1-0.1","A3K9GTQBOI7O5A","img_art/28.jpg","4","","","","","","","","","","","","","","","","","","","","","","","","",""
"1265","","image-button-response","160","801645","0.0-157.0-0.0","A3K9GTQBOI7O5A","img_art/28.jpg","1","","","","","","","","","","","","","","","","","","","","","","","","",""
"null","","html-keyboard-response","161","802649","0.0-158.0","A3K9GTQBOI7O5A","<p style=""font-size: 48px;"">+</p>","","","","","null","allTrialResponses","1000","1","16","img_art/28.jpg","-20","missing color, too dark ","Michaela,Christina,Alexandra,Brianna,Emma,Cassandra","Salvador Dali called and he thinks this looks pretty good,27,260,20","very blah colors and it's not fun,-27,240,20","Boring, looks like it belongs in a coffee shop,-20,60,20","My grandparents would like this, maybe my great grandparents. It's not my style.,-30,20,20","Don't love the colors,-10,60,20","Hate it...brown and drab,-37,120,20","Brianna","My grandparents would like this, maybe my great grandparents. It's not my style.,-30,20,20","Emma","Don't love the colors,-10,60,20","Christina","very blah colors and it's not fun,-27,240,20","6"
"10226","","survey-text","162","812888","0.0-159.0-0.0","A3K9GTQBOI7O5A","","","","{""Q0"":""seems like a battle like the contrast of colors. ""}","","","","","","","","","","","","","","","","","","","","","","",""
"5880.899999856949","","image-slider-response","163","818772","0.0-160.0","A3K9GTQBOI7O5A","","","","","15","","","","","","","","","","","","","","","","","","","","","",""
"3056","","image-button-response","164","823779","0.0-161.0","A3K9GTQBOI7O5A","img_art/21.jpg","1","","","","","","","","","","","","","","","","","","","","","","","","",""
"1246","","image-button-response","165","825031","0.0-162.0","A3K9GTQBOI7O5A","img_art/21.jpg","1","","","","","","","","","","","","","","","","","","","","","","","","",""
"1619","","image-button-response","166","826656","0.0-163.0-0.0","A3K9GTQBOI7O5A","img_art/21.jpg","0","","","","","","","","","","","","","","","","","","","","","","","","",""
"1577","","image-button-response","167","828239","0.0-164.0-0.0","A3K9GTQBOI7O5A","img_art/21.jpg","4","","","","","","","","","","","","","","","","","","","","","","","","",""
"null","","html-keyboard-response","168","828745","0.0-165.0","A3K9GTQBOI7O5A","<p style=""font-size: 48px;"">+</p>","","","","","null","allTrialResponses","500","1","17","img_art/21.jpg","15","seems like a battle like the contrast of colors. ","Jessica,Christina,Briana,Brianna,Emma,Erika","I like how the colors blend together like a beautiful sunset.,25,400,20","it has a lot of happy colors and it's very classic looking,35,240,20","Unfinished. Confusing to look at,-12,400,20","Don't really lean either way.,1,20,20","Pretty, good colors,30,60,20","Indistinct, but beautiful hues,10,100,20","Christina","it has a lot of happy colors and it's very classic looking,35,240,20","Jessica","I like how the colors blend together like a beautiful sunset.,25,400,20","Emma","Pretty, good colors,30,60,20","6"
"13700","","survey-text","169","842453","0.0-166.0-0.0","A3K9GTQBOI7O5A","","","","{""Q0"":""this looks improvised do not like the colors""}","","","","","","","","","","","","","","","","","","","","","","",""
"5349.400000095367","","image-slider-response","170","847807","0.0-167.0","A3K9GTQBOI7O5A","","","","","-13","","","","","","","","","","","","","","","","","","","","","",""
"4994","","image-button-response","171","852819","0.0-168.0","A3K9GTQBOI7O5A","img_art/9.jpg","5","","","","","","","","","","","","","","","","","","","","","","","","",""
"1558","","image-button-response","172","854380","0.0-169.0","A3K9GTQBOI7O5A","img_art/9.jpg","5","","","","","","","","","","","","","","","","","","","","","","","","",""
"931","","image-button-response","173","855315","0.0-170.0-0.0","A3K9GTQBOI7O5A","img_art/9.jpg","4","","","","","","","","","","","","","","","","","","","","","","","","",""
"938","","image-button-response","174","856259","0.0-171.0-0.0","A3K9GTQBOI7O5A","img_art/9.jpg","3","","","","","","","","","","","","","","","","","","","","","","","","",""
"null","","html-keyboard-response","175","857277","0.0-172.0","A3K9GTQBOI7O5A","<p style=""font-size: 48px;"">+</p>","","","","","null","allTrialResponses","1000","1","18","img_art/9.jpg","-13","this looks improvised do not like the colors","Jessica,Christina,Melissa,Jacqueline,Emma,Autumn","So I don't really like this style but it looks somewhat okay,3,400,20","nice colors but it looks like it's from the 80s,10,240,20","strong focal point, appealing use of selective line,11,240,20","Looks like a sloppy iguana.,-11,300,20","Feels angry .....,-40,60,20","Abstract but not well made,-26,340,20","Autumn","Abstract but not well made,-26,340,20","Emma","Feels angry .....,-40,60,20","Jacqueline","Looks like a sloppy iguana.,-11,300,20","6"
"11170","","survey-text","176","868461","0.0-173.0-0.0","A3K9GTQBOI7O5A","","","","{""Q0"":""looks disorganized, dont like the colors""}","","","","","","","","","","","","","","","","","","","","","","",""
"4055.100000143051","","image-slider-response","177","872522","0.0-174.0","A3K9GTQBOI7O5A","","","","","-20","","","","","","","","","","","","","","","","","","","","","",""
"3431","","image-button-response","178","877529","0.0-175.0","A3K9GTQBOI7O5A","img_art/30.jpg","3","","","","","","","","","","","","","","","","","","","","","","","","",""
"861","","image-button-response","179","878396","0.0-176.0","A3K9GTQBOI7O5A","img_art/30.jpg","5","","","","","","","","","","","","","","","","","","","","","","","","",""
"801","","image-button-response","180","879201","0.0-177.0-0.0","A3K9GTQBOI7O5A","img_art/30.jpg","3","","","","","","","","","","","","","","","","","","","","","","","","",""
"753","","image-button-response","181","879958","0.0-178.0-0.0","A3K9GTQBOI7O5A","img_art/30.jpg","1","","","","","","","","","","","","","","","","","","","","","","","","",""
"null","","html-keyboard-response","182","881466","0.0-179.0","A3K9GTQBOI7O5A","<p style=""font-size: 48px;"">+</p>","","","","","null","allTrialResponses","1500","1","19","img_art/30.jpg","-20","looks disorganized, dont like the colors","Rachel,Andrea,Shelby,Jacqueline,Emma,Autumn","I like this one because I am a mom and it reminds me of a child finger-painting.,20,80,20","It feels like graffiti and the dark colors do nothing for the mood.,-5,240,20","It's pleasent but otherwise unprovoking,8,240,20","Too dark and ugly with all the black smears,-20,300,20","Like the design, not a big fan of the colors,20,60,20","Absolutely messy,-31,340,20","Autumn","Absolutely messy,-31,340,20","Jacqueline","Too dark and ugly with all the black smears,-20,300,20","Andrea","It feels like graffiti and the dark colors do nothing for the mood.,-5,240,20","6"
"11157","","survey-text","183","892637","0.0-180.0-0.0","A3K9GTQBOI7O5A","","","","{""Q0"":""seems like a child painted this""}","","","","","","","","","","","","","","","","","","","","","","",""
"4835.899999856949","","image-slider-response","184","897478","0.0-181.0","A3K9GTQBOI7O5A","","","","","-10","","","","","","","","","","","","","","","","","","","","","",""
"2553","","image-button-response","185","902496","0.0-182.0","A3K9GTQBOI7O5A","img_art/2.jpg","3","","","","","","","","","","","","","","","","","","","","","","","","",""
"916","","image-button-response","186","903417","0.0-183.0","A3K9GTQBOI7O5A","img_art/2.jpg","5","","","","","","","","","","","","","","","","","","","","","","","","",""
"3489","","image-button-response","187","906909","0.0-184.0-0.0","A3K9GTQBOI7O5A","img_art/2.jpg","2","","","","","","","","","","","","","","","","","","","","","","","","",""
"739","","image-button-response","188","907654","0.0-185.0-0.0","A3K9GTQBOI7O5A","img_art/2.jpg","3","","","","","","","","","","","","","","","","","","","","","","","","",""
"null","","html-keyboard-response","189","908161","0.0-186.0","A3K9GTQBOI7O5A","<p style=""font-size: 48px;"">+</p>","","","","","null","allTrialResponses","500","1","20","img_art/2.jpg","-10","seems like a child painted this","Grace,Andrea,Jennifer,Jacqueline,Kylie,Autumn","Like the colors but reminds me of a kids show done in cubism.,0,180,20","It feels like a party and Moulin Rouge.,20,240,20","Ugly color scheme,-50,380,20","A bit ugly with the greens.,-20,300,20","Not very appealing,-5,300,20","7 year old painted?,-35,340,20","Autumn","7 year old painted?,-35,340,20","Jennifer","Ugly color scheme,-50,380,20","Jacqueline","A bit ugly with the greens.,-20,300,20","6"
"2985","","survey-text","190","911171","0.0-187.0-0.0","A3K9GTQBOI7O5A","","","","{""Q0"":""we""}","","","","","","","","","","","","","","","","","","","","","","",""
"13340","","survey-text","191","924516","0.0-188.0-0.0","A3K9GTQBOI7O5A","","","","{""Q0"":""like the realism of this artwork""}","","","","","","","","","","","","","","","","","","","","","","",""
"3879.5","","image-slider-response","192","928400","0.0-189.0","A3K9GTQBOI7O5A","","","","","10","","","","","","","","","","","","","","","","","","","","","",""
"3121","","image-button-response","193","933406","0.0-190.0","A3K9GTQBOI7O5A","img_art/7.jpg","0","","","","","","","","","","","","","","","","","","","","","","","","",""
"792","","image-button-response","194","934202","0.0-191.0","A3K9GTQBOI7O5A","img_art/7.jpg","0","","","","","","","","","","","","","","","","","","","","","","","","",""
"1495","","image-button-response","195","935704","0.0-192.0-0.0","A3K9GTQBOI7O5A","img_art/7.jpg","4","","","","","","","","","","","","","","","","","","","","","","","","",""
"1310","","image-button-response","196","937023","0.0-193.0-0.0","A3K9GTQBOI7O5A","img_art/7.jpg","5","","","","","","","","","","","","","","","","","","","","","","","","",""
"null","","html-keyboard-response","197","937543","0.0-194.0","A3K9GTQBOI7O5A","<p style=""font-size: 48px;"">+</p>","","","","","null","allTrialResponses","500","1","21","img_art/7.jpg","10","like the realism of this artwork","Nicole,Erin,Jennifer,Jacqueline,Sydney,Autumn","Looks like the surface of mars,29,20,20","Color is bland and looks damaged,-37,120,20","Very, very dull compared to the other paintings,-36,380,20","Just looks like rocks or some kind of mineral.,0,300,20","This piece is really simple but the colors and texture work well together.,20,320,20","Well done minimalism.,35,340,20","Nicole","Looks like the surface of mars,29,20,20","Sydney","This piece is really simple but the colors and texture work well together.,20,320,20","Autumn","Well done minimalism.,35,340,20","6"
"10455","","survey-text","198","948011","0.0-195.0-0.0","A3K9GTQBOI7O5A","","","","{""Q0"":""simple but eye catching love the colors""}","","","","","","","","","","","","","","","","","","","","","","",""
"3805.2999999523163","","image-slider-response","199","951822","0.0-196.0","A3K9GTQBOI7O5A","","","","","24","","","","","","","","","","","","","","","","","","","","","",""
"4254","","image-button-response","200","956840","0.0-197.0","A3K9GTQBOI7O5A","img_art/6.jpg","1","","","","","","","","","","","","","","","","","","","","","","","","",""
"2297","","image-button-response","201","959142","0.0-198.0","A3K9GTQBOI7O5A","img_art/6.jpg","1","","","","","","","","","","","","","","","","","","","","","","","","",""
"1843","","image-button-response","202","960991","0.0-199.0-0.0","A3K9GTQBOI7O5A","img_art/6.jpg","5","","","","","","","","","","","","","","","","","","","","","","","","",""
"798","","image-button-response","203","961795","0.0-200.0-0.0","A3K9GTQBOI7O5A","img_art/6.jpg","4","","","","","","","","","","","","","","","","","","","","","","","","",""
"null","","html-keyboard-response","204","962812","0.0-201.0","A3K9GTQBOI7O5A","<p style=""font-size: 48px;"">+</p>","","","","","null","allTrialResponses","1000","1","22","img_art/6.jpg","24","simple but eye catching love the colors","Nicole,Cynthia,Abigail,Amanda,Sydney,Autumn","The colors and rough brush strokes make me nervous,-10,20,20","seeds of change,11,320,20","This picture is weird,-6,20,20","Makes me feel lonely,-22,180,20","This piece reminds me of the lorax.,5,320,20","Bird? It's a bird.,23,340,20","Cynthia","seeds of change,11,320,20","Autumn","Bird? It's a bird.,23,340,20","Sydney","This piece reminds me of the lorax.,5,320,20","6"
"8313","","survey-text","205","971150","0.0-202.0-0.0","A3K9GTQBOI7O5A","","","","{""Q0"":""too creppy for my taste""}","","","","","","","","","","","","","","","","","","","","","","",""
"12072.899999856949","","image-slider-response","206","983229","0.0-203.0","A3K9GTQBOI7O5A","","","","","-15","","","","","","","","","","","","","","","","","","","","","",""
"4697","","image-button-response","207","988236","0.0-204.0","A3K9GTQBOI7O5A","img_art/17.jpg","2","","","","","","","","","","","","","","","","","","","","","","","","",""
"1742","","image-button-response","208","989984","0.0-205.0","A3K9GTQBOI7O5A","img_art/17.jpg","2","","","","","","","","","","","","","","","","","","","","","","","","",""
"1309","","image-button-response","209","991301","0.0-206.0-0.0","A3K9GTQBOI7O5A","img_art/17.jpg","3","","","","","","","","","","","","","","","","","","","","","","","","",""
"1555","","image-button-response","210","992862","0.0-207.0-0.0","A3K9GTQBOI7O5A","img_art/17.jpg","0","","","","","","","","","","","","","","","","","","","","","","","","",""
"null","","html-keyboard-response","211","993373","0.0-208.0","A3K9GTQBOI7O5A","<p style=""font-size: 48px;"">+</p>","","","","","null","allTrialResponses","500","1","23","img_art/17.jpg","-15","too creppy for my taste","Erica,Cynthia,Olivia,Caitlin,Sydney,Autumn","Makes me warm and cozy just by looking at it,29,80,20","battle between nature and man,31,320,20","muted tones brings me down,-13,40,20","Somewhat should trim the tree branches at the shopping mall.,10,80,20","This picture is calming to me, and I love the colors.,45,320,20","Looks awesome .,33,340,20","Olivia","muted tones brings me down,-13,40,20","Caitlin","Somewhat should trim the tree branches at the shopping mall.,10,80,20","Erica","Makes me warm and cozy just by looking at it,29,80,20","6"
"16111","","survey-text","212","1009498","0.0-209.0-0.0","A3K9GTQBOI7O5A","","","","{""Q0"":""like the colors and the minimalist approach""}","","","","","","","","","","","","","","","","","","","","","","",""
"237535","","image-slider-response","213","1247039","0.0-210.0","A3K9GTQBOI7O5A","","","","","13","","","","","","","","","","","","","","","","","","","","","",""
"null","","image-button-response","214","1252044","0.0-211.0","A3K9GTQBOI7O5A","img_art/14.jpg","null","","","","","","","","","","","","","","","","","","","","","","","","",""
"368","","image-button-response","215","1252416","0.0-212.0","A3K9GTQBOI7O5A","img_art/14.jpg","0","","","","","","","","","","","","","","","","","","","","","","","","",""
"3515","","image-button-response","216","1255935","0.0-213.0-0.0","A3K9GTQBOI7O5A","img_art/14.jpg","0","","","","","","","","","","","","","","","","","","","","","","","","",""
"2054","","image-button-response","217","1268230","0.0-213.1-0.1","A3K9GTQBOI7O5A","img_art/14.jpg","3","","","","","","","","","","","","","","","","","","","","","","","","",""
"1880","","image-button-response","218","1270118","0.0-214.0-0.0","A3K9GTQBOI7O5A","img_art/14.jpg","5","","","","","","","","","","","","","","","","","","","","","","","","",""
"null","","html-keyboard-response","219","1270624","0.0-215.0","A3K9GTQBOI7O5A","<p style=""font-size: 48px;"">+</p>","","","","","null","allTrialResponses","500","1","24","img_art/14.jpg","13","like the colors and the minimalist approach","Erica,Leslie,Olivia,Caitlin,Kaylee,Alexa","positive colours, makes me to look at it and investigate what is going on,27,80,20","This elicits no reaction in me.,0,380,20","tree of life brings hope,7,40,20","Are they blowing up a tree?,-5,80,20","it looks like a tree on desert,23,200,20","Very abstract and colorful,40,40,20","Erica","positive colours, makes me to look at it and investigate what is going on,27,80,20","Caitlin","Are they blowing up a tree?,-5,80,20","Alexa","Very abstract and colorful,40,40,20","8"
"16877","","survey-text","220","1287518","0.0-216.0-0.0","A3K9GTQBOI7O5A","","","","{""Q0"":""too much red for my licking. ""}","","","","","","","","","","","","","","","","","","","","","","",""
"5580.400000095367","","image-slider-response","221","1293102","0.0-217.0","A3K9GTQBOI7O5A","","","","","-20","","","","","","","","","","","","","","","","","","","","","",""
"3882","","image-button-response","222","1298118","0.0-218.0","A3K9GTQBOI7O5A","img_art/3.jpg","0","","","","","","","","","","","","","","","","","","","","","","","","",""
"1443","","image-button-response","223","1299569","0.0-219.0","A3K9GTQBOI7O5A","img_art/3.jpg","3","","","","","","","","","","","","","","","","","","","","","","","","",""
"1056","","image-button-response","224","1300629","0.0-220.0-0.0","A3K9GTQBOI7O5A","img_art/3.jpg","0","","","","","","","","","","","","","","","","","","","","","","","","",""
"2120","","image-button-response","225","1302752","0.0-221.0-0.0","A3K9GTQBOI7O5A","img_art/3.jpg","2","","","","","","","","","","","","","","","","","","","","","","","","",""
"null","","html-keyboard-response","226","1304254","0.0-222.0","A3K9GTQBOI7O5A","<p style=""font-size: 48px;"">+</p>","","","","","null","allTrialResponses","1500","1","25","img_art/3.jpg","-20","too much red for my licking. ","Erica,Brittany,Tiffany,Caitlin,Madeline,Alexa","Associates with blood and crime scene,-12,80,20","I don't care for art that looks like it was just scribbled.,-19,40,20","I feel uncomfortable, like I am looking at a crime scene.,-17,360,20","Why kids with color crayons is called art is beyond me. People pay for this???,-40,80,20","Scribbly a bit too much,-30,40,20","Looks messy and too much for my eyes,-35,40,20","Caitlin","Why kids with color crayons is called art is beyond me. People pay for this???,-40,80,20","Erica","Associates with blood and crime scene,-12,80,20","Tiffany","I feel uncomfortable, like I am looking at a crime scene.,-17,360,20","8"
"3540","","survey-text","227","1307823","0.0-223.0-0.0","A3K9GTQBOI7O5A","","","","{""Q0"":""table""}","","","","","","","","","","","","","","","","","","","","","","",""
"12646","","survey-text","228","1320474","0.0-224.0-0.0","A3K9GTQBOI7O5A","","","","{""Q0"":""dont like it something seems to be missing""}","","","","","","","","","","","","","","","","","","","","","","",""
"13327.100000143051","","image-slider-response","229","1333805","0.0-225.0","A3K9GTQBOI7O5A","","","","","-28","","","","","","","","","","","","","","","","","","","","","",""
"3882","","image-button-response","230","1338810","0.0-226.0","A3K9GTQBOI7O5A","img_art/5.jpg","3","","","","","","","","","","","","","","","","","","","","","","","","",""
"1252","","image-button-response","231","1340065","0.0-227.0","A3K9GTQBOI7O5A","img_art/5.jpg","3","","","","","","","","","","","","","","","","","","","","","","","","",""
"1327","","image-button-response","232","1341397","0.0-228.0-0.0","A3K9GTQBOI7O5A","img_art/5.jpg","2","","","","","","","","","","","","","","","","","","","","","","","","",""
"1682","","image-button-response","233","1343085","0.0-229.0-0.0","A3K9GTQBOI7O5A","img_art/5.jpg","5","","","","","","","","","","","","","","","","","","","","","","","","",""
"null","","html-keyboard-response","234","1344603","0.0-230.0","A3K9GTQBOI7O5A","<p style=""font-size: 48px;"">+</p>","","","","","null","allTrialResponses","1500","1","26","img_art/5.jpg","-28","dont like it something seems to be missing","Erica,Kayla,Tiffany,Caitlin,Jasmine,Leah","positive colours; yellow calls attention,6,80,20","I like that the pyramid is putting off a beacon of light.,11,180,20","I feel nothing looking at this.,-5,360,20","More kindergarten art class. Who buys this stuff?,-45,80,20","Not sure what to say about this piece honestly. It's okay I guess.,0,340,20","Boring, no flow except the pink feathery band,-42,360,20","Caitlin","More kindergarten art class. Who buys this stuff?,-45,80,20","Tiffany","I feel nothing looking at this.,-5,360,20","Leah","Boring, no flow except the pink feathery band,-42,360,20","8"
"36127","","survey-text","235","1380746","0.0-231.0-0.0","A3K9GTQBOI7O5A","","","","{""Q0"":""too creepy  do not like the tones""}","","","","","","","","","","","","","","","","","","","","","","",""
"6642.400000095367","","image-slider-response","236","1387393","0.0-232.0","A3K9GTQBOI7O5A","","","","","-28","","","","","","","","","","","","","","","","","","","","","",""
"4115","","image-button-response","237","1392413","0.0-233.0","A3K9GTQBOI7O5A","img_art/25.jpg","0","","","","","","","","","","","","","","","","","","","","","","","","",""
"1790","","image-button-response","238","1394211","0.0-234.0","A3K9GTQBOI7O5A","img_art/25.jpg","0","","","","","","","","","","","","","","","","","","","","","","","","",""
"988","","image-button-response","239","1395203","0.0-235.0-0.0","A3K9GTQBOI7O5A","img_art/25.jpg","1","","","","","","","","","","","","","","","","","","","","","","","","",""
"942","","image-button-response","240","1396150","0.0-236.0-0.0","A3K9GTQBOI7O5A","img_art/25.jpg","3","","","","","","","","","","","","","","","","","","","","","","","","",""
"null","","html-keyboard-response","241","1397153","0.0-237.0","A3K9GTQBOI7O5A","<p style=""font-size: 48px;"">+</p>","","","","","null","allTrialResponses","1000","1","27","img_art/25.jpg","-28","too creepy  do not like the tones","Madison,Kelsey,Tiffany,Caitlin,Amy,Leah","Meh. Hardly abstract, though.,-40,60,20","quite unnerving,-15,240,20","I feel little to no emotion looking at this painting.,0,360,20","Wish I was that thin.,-5,80,20","The limited palette make this figure mysterious and interpret-able.,20,220,20","I really like it, very simple, very tribal,38,360,20","Madison","Meh. Hardly abstract, though.,-40,60,20","Kelsey","quite unnerving,-15,240,20","Caitlin","Wish I was that thin.,-5,80,20","8"
"11858","","survey-text","242","1409026","0.0-238.0-0.0","A3K9GTQBOI7O5A","","","","{""Q0"":""like the colors and the people in white""}","","","","","","","","","","","","","","","","","","","","","","",""
"5795.299999952316","","image-slider-response","243","1414826","0.0-239.0","A3K9GTQBOI7O5A","","","","","29","","","","","","","","","","","","","","","","","","","","","",""
"null","","image-button-response","244","1419844","0.0-240.0","A3K9GTQBOI7O5A","img_art/23.jpg","null","","","","","","","","","","","","","","","","","","","","","","","","",""
"1568","","image-button-response","245","1421415","0.0-241.0","A3K9GTQBOI7O5A","img_art/23.jpg","0","","","","","","","","","","","","","","","","","","","","","","","","",""
"3804","","image-button-response","246","1425225","0.0-242.0-0.0","A3K9GTQBOI7O5A","img_art/23.jpg","2","","","","","","","","","","","","","","","","","","","","","","","","",""
"1546","","image-button-response","247","1426775","0.0-243.0-0.0","A3K9GTQBOI7O5A","img_art/23.jpg","5","","","","","","","","","","","","","","","","","","","","","","","","",""
"null","","html-keyboard-response","248","1428286","0.0-244.0","A3K9GTQBOI7O5A","<p style=""font-size: 48px;"">+</p>","","","","","null","allTrialResponses","1500","1","28","img_art/23.jpg","29","like the colors and the people in white","Madison,Kelsey,Gabriela,Caitlin,Gabrielle,Jamie","Looks celebratory and joyful! However, the photograph does not do the original work's colors justice.,27,60,20","i think this ones okay,10,240,20","It looks like a parade of musicians full of excitement. Makes me feel upbeat,33,140,20","SOME thought was put into this one.,5,80,20","it's OK, but just OK, kind of interesting but I wouldn't spend money on it,4,160,20","Reminds me of outer space and the stars,30,320,20","Madison","Looks celebratory and joyful! However, the photograph does not do the original work's colors justice.,27,60,20","Gabriela","It looks like a parade of musicians full of excitement. Makes me feel upbeat,33,140,20","Jamie","Reminds me of outer space and the stars,30,320,20","8"
"16901","","survey-text","249","1445207","0.0-245.0-0.0","A3K9GTQBOI7O5A","","","","{""Q0"":""like the natural elements of the picture, the water, the rocks""}","","","","","","","","","","","","","","","","","","","","","","",""
"4625.099999904633","","image-slider-response","250","1449835","0.0-246.0","A3K9GTQBOI7O5A","","","","","16","","","","","","","","","","","","","","","","","","","","","",""
"3153","","image-button-response","251","1454851","0.0-247.0","A3K9GTQBOI7O5A","img_art/24.jpg","1","","","","","","","","","","","","","","","","","","","","","","","","",""
"1947","","image-button-response","252","1456802","0.0-248.0","A3K9GTQBOI7O5A","img_art/24.jpg","1","","","","","","","","","","","","","","","","","","","","","","","","",""
"1113","","image-button-response","253","1457918","0.0-249.0-0.0","A3K9GTQBOI7O5A","img_art/24.jpg","4","","","","","","","","","","","","","","","","","","","","","","","","",""
"881","","image-button-response","254","1458806","0.0-250.0-0.0","A3K9GTQBOI7O5A","img_art/24.jpg","2","","","","","","","","","","","","","","","","","","","","","","","","",""
"null","","html-keyboard-response","255","1459310","0.0-251.0","A3K9GTQBOI7O5A","<p style=""font-size: 48px;"">+</p>","","","","","null","allTrialResponses","500","1","29","img_art/24.jpg","16","like the natural elements of the picture, the water, the rocks","Madison,Taylor,Gabriela,Katherine,Sara,Jamie","Exceedingly garish,-19,60,20","Makes me think of a couple of hikes that I've taken,50,340,20","I love how bold and vibrant the colors are,40,140,20","The combination of nature / realism with abstract colors is unique.,39,120,20","Beautiful scenic drawing with perfect color coordination,43,160,20","Beautiful waterfall with nice colors,40,320,20","Taylor","Makes me think of a couple of hikes that I've taken,50,340,20","Sara","Beautiful scenic drawing with perfect color coordination,43,160,20","Gabriela","I love how bold and vibrant the colors are,40,140,20","8"
"9860","","survey-text","256","1469184","0.0-252.0-0.0","A3K9GTQBOI7O5A","","","","{""Q0"":""looks scary like a deserted town""}","","","","","","","","","","","","","","","","","","","","","","",""
"5040.099999904633","","image-slider-response","257","1474229","0.0-253.0","A3K9GTQBOI7O5A","","","","","-29","","","","","","","","","","","","","","","","","","","","","",""
"3913","","image-button-response","258","1479235","0.0-254.0","A3K9GTQBOI7O5A","img_art/20.jpg","2","","","","","","","","","","","","","","","","","","","","","","","","",""
"906","","image-button-response","259","1480146","0.0-255.0","A3K9GTQBOI7O5A","img_art/20.jpg","3","","","","","","","","","","","","","","","","","","","","","","","","",""
"927","","image-button-response","260","1481078","0.0-256.0-0.0","A3K9GTQBOI7O5A","img_art/20.jpg","2","","","","","","","","","","","","","","","","","","","","","","","","",""
"1136","","image-button-response","261","1482220","0.0-257.0-0.0","A3K9GTQBOI7O5A","img_art/20.jpg","4","","","","","","","","","","","","","","","","","","","","","","","","",""
"null","","html-keyboard-response","262","1483239","0.0-258.0","A3K9GTQBOI7O5A","<p style=""font-size: 48px;"">+</p>","","","","","null","allTrialResponses","1000","1","30","img_art/20.jpg","-29","looks scary like a deserted town","Jenna,Taylor,Gabriela,Vanessa,Sara,Breanna","could look for hours. love the brush work. color choices look like a desert.,50,360,20","I just love this painting,47,340,20","it is a bit disturbing, like a monster or ghost floating away from a bleak building,-8,140,20","I like the deep blues, but I don't like the way this picture makes me feel.,-13,380,20","Looks calm but a bit dark,21,160,20","Makes me feel impressed,9,380,20","Vanessa","I like the deep blues, but I don't like the way this picture makes me feel.,-13,380,20","Gabriela","it is a bit disturbing, like a monster or ghost floating away from a bleak building,-8,140,20","Sara","Looks calm but a bit dark,21,160,20","8"
