"rt","url","trial_type","trial_index","time_elapsed","internal_node_id","participant_id","stimulus","button_pressed","Name","responses","response","key_press","variableName","fixationTime","condition","trial","photo","subjectRating","subjectResponse","agentsNames","agent_1_Response","agent_2_Response","agent_3_Response","agent_4_Response","agent_5_Response","agent_6_Response","kept_1_name","kept_1_response","kept_2_name","kept_2_response","kept_3_name","kept_3_response","errorCounter"
"7253","external_page_harvard.html","external-html","0","7393","0.0-0.0","A3KF6O09H04SP7","","","","","","","","","","","","","","","","","","","","","","","","","","",""
"1418","","image-button-response","1","8814","0.0-1.0","A3KF6O09H04SP7","","0","","","","","","","","","","","","","","","","","","","","","","","","",""
"2991","","image-button-response","2","11813","0.0-2.0-0.0","A3KF6O09H04SP7","","1","phone","","","","","","","","","","","","","","","","","","","","","","","",""
"6835","","survey-text","3","18650","0.0-3.0-0.0","A3KF6O09H04SP7","","","","{""Q0"":""A3KF6O09H04SP7""}","","","","","","","","","","","","","","","","","","","","","","",""
"4298","","image-button-response_instructions","4","22955","0.0-4.0","A3KF6O09H04SP7","","0","instructions","","","","","","","","","","","","","","","","","","","","","","","",""
"8504","","image-button-response_instructions","5","31462","0.0-5.0","A3KF6O09H04SP7","img_art/ins/popularity/ins1.png","0","instructions","","","","","","","","","","","","","","","","","","","","","","","",""
"4035","","image-button-response_instructions","6","35498","0.0-6.0","A3KF6O09H04SP7","img_art/ins/popularity/ins2.png","0","instructions","","","","","","","","","","","","","","","","","","","","","","","",""
"3094","","image-button-response_instructions","7","38594","0.0-7.0","A3KF6O09H04SP7","img_art/ins/popularity/ins2Extreme.png","0","instructions","","","","","","","","","","","","","","","","","","","","","","","",""
"4788","","image-button-response_instructions","8","43384","0.0-8.0","A3KF6O09H04SP7","img_art/ins/popularity/ins3KEEPpop.PNG","0","instructions","","","","","","","","","","","","","","","","","","","","","","","",""
"4237","","image-button-response_instructions","9","47623","0.0-9.0","A3KF6O09H04SP7","img_art/ins/popularity/ins3ANamepop.PNG","0","instructions","","","","","","","","","","","","","","","","","","","","","","","",""
"2717","","image-button-response_instructions","10","50342","0.0-10.0","A3KF6O09H04SP7","img_art/ins/popularity/ins3ARatingpop.png","0","instructions","","","","","","","","","","","","","","","","","","","","","","","",""
"2520","","image-button-response_instructions","11","52864","0.0-11.0","A3KF6O09H04SP7","img_art/ins/popularity/ins3ATextpop.png","0","instructions","","","","","","","","","","","","","","","","","","","","","","","",""
"6131","","image-button-response_instructions","12","58996","0.0-12.0","A3KF6O09H04SP7","img_art/ins/popularity/ins3ALikespop.png","0","instructions","","","","","","","","","","","","","","","","","","","","","","","",""
"9506","","image-button-response_instructions","13","68504","0.0-13.0","A3KF6O09H04SP7","img_art/ins/popularity/ins3KEEPpop.PNG","0","instructions","","","","","","","","","","","","","","","","","","","","","","","",""
"6741","","image-button-response_instructions","14","75247","0.0-14.0","A3KF6O09H04SP7","img_art/ins/popularity/ins3_5RED.png","0","instructions","","","","","","","","","","","","","","","","","","","","","","","",""
"2820","","image-button-response_instructions","15","78069","0.0-15.0","A3KF6O09H04SP7","img_art/ins/popularity/ins3KEEPpop.PNG","0","instructions","","","","","","","","","","","","","","","","","","","","","","","",""
"4686","","image-button-response_instructions","16","82756","0.0-16.0","A3KF6O09H04SP7","img_art/ins/popularity/ins4KEEPpop.PNG","0","instructions","","","","","","","","","","","","","","","","","","","","","","","",""
"2811","","image-button-response_instructions","17","85571","0.0-17.0","A3KF6O09H04SP7","img_art/ins/popularity/ins5KEEPpop.PNG","0","instructions","","","","","","","","","","","","","","","","","","","","","","","",""
"1412","","image-button-response_instructions","18","86985","0.0-18.0","A3KF6O09H04SP7","","0","instructions","","","","","","","","","","","","","","","","","","","","","","","",""
"5048","","survey-text","19","92070","0.0-19.0-0.0","A3KF6O09H04SP7","","","","{""Q0"":""but""}","","","","","","","","","","","","","","","","","","","","","","",""
"16032","","survey-text","20","108104","0.0-20.0-0.0","A3KF6O09H04SP7","","","","{""Q0"":""I'm not a big fan of the color palette. ""}","","","","","","","","","","","","","","","","","","","","","","",""
"4396","","image-slider-response","21","112503","0.0-21.0","A3KF6O09H04SP7","","","","","-19","","","","","","","","","","","","","","","","","","","","","",""
"null","","image-button-response","22","117539","0.0-22.0","A3KF6O09H04SP7","img_art/ins/1.jpg","null","","","","","","","","","","","","","","","","","","","","","","","","",""
"2370","","image-button-response","23","119913","0.0-23.0","A3KF6O09H04SP7","img_art/ins/1.jpg","4","","","","","","","","","","","","","","","","","","","","","","","","",""
"6137","","image-button-response","24","126056","0.0-24.0-0.0","A3KF6O09H04SP7","img_art/ins/1.jpg","5","","","","","","","","","","","","","","","","","","","","","","","","",""
"2137","","image-button-response","25","128198","0.0-25.0-0.0","A3KF6O09H04SP7","img_art/ins/1.jpg","3","","","","","","","","","","","","","","","","","","","","","","","","",""
"null","","html-keyboard-response","26","129712","0.0-26.0","A3KF6O09H04SP7","<p style=""font-size: 48px;"">+</p>","","","","","null","allTrialResponses","1500","1","-2","img_art/ins/1.jpg","-19","I'm not a big fan of the color palette. ","Adam,Alex,Ben,Carl,Daniel,Jack","Seems like doodles,-20,20,20","very creative work.,36,40,20","This color reminds me of poo,-46,60,20","very calming artwork,42,80,20","It looks like a murder scene.,-48,100,20","I like the sophisticated brushwork,40,120,20","Daniel","It looks like a murder scene.,-48,100,20","Jack","I like the sophisticated brushwork,40,120,20","Carl","very calming artwork,42,80,20","0"
"11274","","survey-text","27","140992","0.0-27.0-0.0","A3KF6O09H04SP7","","","","{""Q0"":""I like the texture of the paint.""}","","","","","","","","","","","","","","","","","","","","","","",""
"3578.5","","image-slider-response","28","144574","0.0-28.0","A3KF6O09H04SP7","","","","","19","","","","","","","","","","","","","","","","","","","","","",""
"2964","","image-button-response","29","149580","0.0-29.0","A3KF6O09H04SP7","img_art/ins/2.jpg","1","","","","","","","","","","","","","","","","","","","","","","","","",""
"6873","","image-button-response","30","156459","0.0-30.0","A3KF6O09H04SP7","img_art/ins/2.jpg","3","","","","","","","","","","","","","","","","","","","","","","","","",""
"980","","image-button-response","31","157441","0.0-31.0-0.0","A3KF6O09H04SP7","img_art/ins/2.jpg","1","","","","","","","","","","","","","","","","","","","","","","","","",""
"4907","","image-button-response","32","162352","0.0-32.0-0.0","A3KF6O09H04SP7","img_art/ins/2.jpg","0","","","","","","","","","","","","","","","","","","","","","","","","",""
"null","","html-keyboard-response","33","163371","0.0-33.0","A3KF6O09H04SP7","<p style=""font-size: 48px;"">+</p>","","","","","null","allTrialResponses","1000","1","-1","img_art/ins/2.jpg","19","I like the texture of the paint.","James,John,Kyle,Carl,Daniel,Jack","looks too angry,-50,140,20","love the texture of paint,48,160,20","Idk, it is just annoying,-32,180,20","I can feel the artist's passion in it,45,80,20","One of my pet peevs,-48,100,20","I would never be able to compose a sophisticated pallete like this,48,120,20","Carl","I can feel the artist's passion in it,45,80,20","John","love the texture of paint,48,160,20","James","looks too angry,-50,140,20","0"
"10560","","survey-text","34","173947","0.0-34.0-0.0","A3KF6O09H04SP7","","","","{""Q0"":""Very cold in a calming way.""}","","","","","","","","","","","","","","","","","","","","","","",""
"3434.5","","image-slider-response","35","177384","0.0-35.0","A3KF6O09H04SP7","","","","","14","","","","","","","","","","","","","","","","","","","","","",""
"null","","image-button-response","36","182389","0.0-36.0","A3KF6O09H04SP7","img_art/ins/3.jpg","null","","","","","","","","","","","","","","","","","","","","","","","","",""
"2726","","image-button-response","37","185117","0.0-37.0","A3KF6O09H04SP7","img_art/ins/3.jpg","2","","","","","","","","","","","","","","","","","","","","","","","","",""
"837","","image-button-response","38","185958","0.0-38.0-0.0","A3KF6O09H04SP7","img_art/ins/3.jpg","5","","","","","","","","","","","","","","","","","","","","","","","","",""
"845","","image-button-response","39","186805","0.0-39.0-0.0","A3KF6O09H04SP7","img_art/ins/3.jpg","1","","","","","","","","","","","","","","","","","","","","","","","","",""
"null","","html-keyboard-response","40","187322","0.0-40.0","A3KF6O09H04SP7","<p style=""font-size: 48px;"">+</p>","","","","","null","allTrialResponses","500","1","0","img_art/ins/3.jpg","14","Very cold in a calming way.","James,John,Mike,Carl,Ron,Sam","My worst nightmare,-42,140,20","I like the overlapping of brushes,41,160,20","enjoy the different shades of blue,22,200,20","It's an alright work,15,80,20","It looks depressing,-26,220,20","I can feel a rainy day from this painting,18,240,20","Mike","enjoy the different shades of blue,22,200,20","Sam","I can feel a rainy day from this painting,18,240,20","John","I like the overlapping of brushes,41,160,20","0"
"4100","","image-button-response_instructions","41","191428","0.0-41.0","A3KF6O09H04SP7","","0","instructions","","","","","","","","","","","","","","","","","","","","","","","",""
"8027","","survey-likert","42","199457","0.0-42.0-0.0","A3KF6O09H04SP7","","","","{""Q0"":"""",""Q1"":0,""Q2"":1}","","","","","","","","","","","","","","","","","","","","","","",""
"4068","","survey-text","43","203534","0.0-43.0-0.0","A3KF6O09H04SP7","","","","{""Q0"":""rock""}","","","","","","","","","","","","","","","","","","","","","","",""
"17605","","survey-text","44","221142","0.0-44.0-0.0","A3KF6O09H04SP7","","","","{""Q0"":""I like the leaf or tree that is sprouting out of the dirt.""}","","","","","","","","","","","","","","","","","","","","","","",""
"4363.300000011921","","image-slider-response","45","225508","0.0-45.0","A3KF6O09H04SP7","","","","","27","","","","","","","","","","","","","","","","","","","","","",""
"null","","image-button-response","46","230548","0.0-46.0","A3KF6O09H04SP7","img_art/6.jpg","null","","","","","","","","","","","","","","","","","","","","","","","","",""
"2657","","image-button-response","47","233210","0.0-47.0","A3KF6O09H04SP7","img_art/6.jpg","5","","","","","","","","","","","","","","","","","","","","","","","","",""
"1077","","image-button-response","48","234290","0.0-48.0-0.0","A3KF6O09H04SP7","img_art/6.jpg","3","","","","","","","","","","","","","","","","","","","","","","","","",""
"1467","","image-button-response","49","235761","0.0-49.0-0.0","A3KF6O09H04SP7","img_art/6.jpg","1","","","","","","","","","","","","","","","","","","","","","","","","",""
"null","","html-keyboard-response","50","236772","0.0-50.0","A3KF6O09H04SP7","<p style=""font-size: 48px;"">+</p>","","","","","null","allTrialResponses","1000","1","1","img_art/6.jpg","27","I like the leaf or tree that is sprouting out of the dirt.","Luke,Joseph,Charles,William,Travis,Hunter","i like it but it is very neutral,9,20,20","Little birdie in a desert. Seeking better frontiers.,13,220,20","It's pretty dour,-10,100,20","makes me think of nature,30,380,20","No feeling...just left me feeling kind of blah,1,260,20","composition is engaging,28,240,20","Hunter","composition is engaging,28,240,20","William","makes me think of nature,30,380,20","Joseph","Little birdie in a desert. Seeking better frontiers.,13,220,20","0"
"10556","","survey-text","51","247340","0.0-51.0-0.0","A3KF6O09H04SP7","","","","{""Q0"":""Very off putting combination of colors.""}","","","","","","","","","","","","","","","","","","","","","","",""
"2763.0999999940395","","image-slider-response","52","250106","0.0-52.0","A3KF6O09H04SP7","","","","","-34","","","","","","","","","","","","","","","","","","","","","",""
"4372","","image-button-response","53","255112","0.0-53.0","A3KF6O09H04SP7","img_art/2.jpg","0","","","","","","","","","","","","","","","","","","","","","","","","",""
"812","","image-button-response","54","255928","0.0-54.0","A3KF6O09H04SP7","img_art/2.jpg","2","","","","","","","","","","","","","","","","","","","","","","","","",""
"565","","image-button-response","55","256496","0.0-55.0-0.0","A3KF6O09H04SP7","img_art/2.jpg","0","","","","","","","","","","","","","","","","","","","","","","","","",""
"4003","","image-button-response","56","260502","0.0-56.0-0.0","A3KF6O09H04SP7","img_art/2.jpg","0","","","","","","","","","","","","","","","","","","","","","","","","",""
"813","","image-button-response","57","265468","0.0-56.1-0.1","A3KF6O09H04SP7","img_art/2.jpg","1","","","","","","","","","","","","","","","","","","","","","","","","",""
"null","","html-keyboard-response","58","266478","0.0-57.0","A3KF6O09H04SP7","<p style=""font-size: 48px;"">+</p>","","","","","null","allTrialResponses","1000","1","2","img_art/2.jpg","-34","Very off putting combination of colors.","Kyle,Joseph,Anthony,William,Stephen,Hunter","Color picks are a bad mesh with each other,-17,340,20","Different cultures. I like that it brings differences together.,4,220,20","Ugly color scheme,-50,200,20","I like the colors,22,380,20","Colors mix nicely.,5,140,20","appealing colors,4,240,20","Anthony","Ugly color scheme,-50,200,20","Kyle","Color picks are a bad mesh with each other,-17,340,20","Joseph","Different cultures. I like that it brings differences together.,4,220,20","2"
"20248","","survey-text","59","286731","0.0-58.0-0.0","A3KF6O09H04SP7","","","","{""Q0"":""I'm not a big fan of photos used in paintings.""}","","","","","","","","","","","","","","","","","","","","","","",""
"3413.0999999940395","","image-slider-response","60","290146","0.0-59.0","A3KF6O09H04SP7","","","","","-41","","","","","","","","","","","","","","","","","","","","","",""
"null","","image-button-response","61","295166","0.0-60.0","A3KF6O09H04SP7","img_art/16.jpg","null","","","","","","","","","","","","","","","","","","","","","","","","",""
"3469","","image-button-response","62","298639","0.0-61.0","A3KF6O09H04SP7","img_art/16.jpg","1","","","","","","","","","","","","","","","","","","","","","","","","",""
"1117","","image-button-response","63","299758","0.0-62.0-0.0","A3KF6O09H04SP7","img_art/16.jpg","2","","","","","","","","","","","","","","","","","","","","","","","","",""
"2269","","image-button-response","64","302030","0.0-63.0-0.0","A3KF6O09H04SP7","img_art/16.jpg","4","","","","","","","","","","","","","","","","","","","","","","","","",""
"null","","html-keyboard-response","65","302535","0.0-64.0","A3KF6O09H04SP7","<p style=""font-size: 48px;"">+</p>","","","","","null","allTrialResponses","500","1","3","img_art/16.jpg","-41","I'm not a big fan of photos used in paintings.","Kyle,Joseph,Anthony,Logan,Dalton,Adam","I like it because it's quite different from the rest,23,340,20","Looks upsetting. Like it's actually graphic violence but you can't tell.,-24,220,20","Very creepy, it makes me feel uneasy,-31,200,20","what is this doing for anyone. If you connect with this you're literally lying to yourself. pretentious,-50,360,20","lol i dont know how i feel about this.,1,300,20","Hard contrast, but no emotions towards any of the objects.,-6,40,20","Joseph","Looks upsetting. Like it's actually graphic violence but you can't tell.,-24,220,20","Anthony","Very creepy, it makes me feel uneasy,-31,200,20","Dalton","lol i dont know how i feel about this.,1,300,20","2"
"9679","","survey-text","66","312220","0.0-65.0-0.0","A3KF6O09H04SP7","","","","{""Q0"":""Love the brush strokes on this.""}","","","","","","","","","","","","","","","","","","","","","","",""
"4612.299999982119","","image-slider-response","67","316836","0.0-66.0","A3KF6O09H04SP7","","","","","13","","","","","","","","","","","","","","","","","","","","","",""
"null","","image-button-response","68","321840","0.0-67.0","A3KF6O09H04SP7","img_art/30.jpg","null","","","","","","","","","","","","","","","","","","","","","","","","",""
"1718","","image-button-response","69","323564","0.0-68.0","A3KF6O09H04SP7","img_art/30.jpg","4","","","","","","","","","","","","","","","","","","","","","","","","",""
"1741","","image-button-response","70","325308","0.0-69.0-0.0","A3KF6O09H04SP7","img_art/30.jpg","3","","","","","","","","","","","","","","","","","","","","","","","","",""
"2365","","image-button-response","71","327677","0.0-70.0-0.0","A3KF6O09H04SP7","img_art/30.jpg","1","","","","","","","","","","","","","","","","","","","","","","","","",""
"null","","html-keyboard-response","72","328180","0.0-71.0","A3KF6O09H04SP7","<p style=""font-size: 48px;"">+</p>","","","","","null","allTrialResponses","500","1","4","img_art/30.jpg","13","Love the brush strokes on this.","Brian,Joseph,Anthony,Ryan,Dalton,Bryan","this is probably part of a neat series, but the abstraction doesn't speak to me,-17,380,20","It's soothing- the page is full, but there aren't too many things happening.,23,220,20","The color scheme used in this piece is very ugly.,-50,200,20","Love how the red stands out,20,380,20","beautiful paint brush strokes,1,300,20","A little too dull. Would've liked brighter colors. Also looks washed out.,1,400,20","Dalton","beautiful paint brush strokes,1,300,20","Ryan","Love how the red stands out,20,380,20","Joseph","It's soothing- the page is full, but there aren't too many things happening.,23,220,20","2"
"12252","","survey-text","73","340445","0.0-72.0-0.0","A3KF6O09H04SP7","","","","{""Q0"":""I like the minimalist water color look.""}","","","","","","","","","","","","","","","","","","","","","","",""
"3475.9000000059605","","image-slider-response","74","343923","0.0-73.0","A3KF6O09H04SP7","","","","","18","","","","","","","","","","","","","","","","","","","","","",""
"null","","image-button-response","75","348937","0.0-74.0","A3KF6O09H04SP7","img_art/26.jpg","null","","","","","","","","","","","","","","","","","","","","","","","","",""
"158","","image-button-response","76","349100","0.0-75.0","A3KF6O09H04SP7","img_art/26.jpg","2","","","","","","","","","","","","","","","","","","","","","","","","",""
"3170","","image-button-response","77","352274","0.0-76.0-0.0","A3KF6O09H04SP7","img_art/26.jpg","5","","","","","","","","","","","","","","","","","","","","","","","","",""
"1081","","image-button-response","78","353361","0.0-77.0-0.0","A3KF6O09H04SP7","img_art/26.jpg","4","","","","","","","","","","","","","","","","","","","","","","","","",""
"null","","html-keyboard-response","79","353875","0.0-78.0","A3KF6O09H04SP7","<p style=""font-size: 48px;"">+</p>","","","","","null","allTrialResponses","500","1","5","img_art/26.jpg","18","I like the minimalist water color look.","Devin,Joseph,Austin,Ryan,Dalton,Jesus","I like the shapes but needs more detail i think,3,380,20","Looks like the suburbs. I live in those.,13,220,20","Like the soft blend of colors,26,240,20","Pleasant to look at,28,380,20","neighborhood and trees. i wonder if this is water paint.,1,300,20","Very interesting to look at, I like the shapes, textures and colors.,30,100,20","Austin","Like the soft blend of colors,26,240,20","Jesus","Very interesting to look at, I like the shapes, textures and colors.,30,100,20","Dalton","neighborhood and trees. i wonder if this is water paint.,1,300,20","2"
"4806","","survey-text","80","358701","0.0-79.0-0.0","A3KF6O09H04SP7","","","","{""Q0"":""sky""}","","","","","","","","","","","","","","","","","","","","","","",""
"20574","","survey-text","81","379277","0.0-80.0-0.0","A3KF6O09H04SP7","","","","{""Q0"":""Interesting, like a puzzle that has been put together incorrectly.""}","","","","","","","","","","","","","","","","","","","","","","",""
"2907.5","","image-slider-response","82","382187","0.0-81.0","A3KF6O09H04SP7","","","","","12","","","","","","","","","","","","","","","","","","","","","",""
"null","","image-button-response","83","387207","0.0-82.0","A3KF6O09H04SP7","img_art/12.jpg","null","","","","","","","","","","","","","","","","","","","","","","","","",""
"2063","","image-button-response","84","389273","0.0-83.0","A3KF6O09H04SP7","img_art/12.jpg","5","","","","","","","","","","","","","","","","","","","","","","","","",""
"1483","","image-button-response","85","390760","0.0-84.0-0.0","A3KF6O09H04SP7","img_art/12.jpg","4","","","","","","","","","","","","","","","","","","","","","","","","",""
"1573","","image-button-response","86","392336","0.0-85.0-0.0","A3KF6O09H04SP7","img_art/12.jpg","2","","","","","","","","","","","","","","","","","","","","","","","","",""
"null","","html-keyboard-response","87","393339","0.0-86.0","A3KF6O09H04SP7","<p style=""font-size: 48px;"">+</p>","","","","","null","allTrialResponses","1000","1","6","img_art/12.jpg","12","Interesting, like a puzzle that has been put together incorrectly.","Shane,Ethan,Austin,Jeffrey,Dalton,Jesus","Something you would see in a government building hallway,3,80,20","The colors are ok. The piece reminds me of the 90s era, so I kinda like it!,-4,120,20","Explosion of texture,31,240,20","good colours scheme; organised,17,40,20","beautiful also reminds me of a quilt,1,300,20","I like the color scheme.,10,100,20","Jesus","I like the color scheme.,10,100,20","Dalton","beautiful also reminds me of a quilt,1,300,20","Austin","Explosion of texture,31,240,20","2"
"13887","","survey-text","88","407241","0.0-87.0-0.0","A3KF6O09H04SP7","","","","{""Q0"":""Loving the colors on this and the impressionist look.""}","","","","","","","","","","","","","","","","","","","","","","",""
"2523.0999999940395","","image-slider-response","89","409768","0.0-88.0","A3KF6O09H04SP7","","","","","11","","","","","","","","","","","","","","","","","","","","","",""
"4077","","image-button-response","90","414775","0.0-89.0","A3KF6O09H04SP7","img_art/19.jpg","2","","","","","","","","","","","","","","","","","","","","","","","","",""
"755","","image-button-response","91","415534","0.0-90.0","A3KF6O09H04SP7","img_art/19.jpg","2","","","","","","","","","","","","","","","","","","","","","","","","",""
"1326","","image-button-response","92","416862","0.0-91.0-0.0","A3KF6O09H04SP7","img_art/19.jpg","5","","","","","","","","","","","","","","","","","","","","","","","","",""
"3602","","image-button-response","93","420469","0.0-92.0-0.0","A3KF6O09H04SP7","img_art/19.jpg","4","","","","","","","","","","","","","","","","","","","","","","","","",""
"null","","html-keyboard-response","94","421978","0.0-93.0","A3KF6O09H04SP7","<p style=""font-size: 48px;"">+</p>","","","","","null","allTrialResponses","1500","1","7","img_art/19.jpg","11","Loving the colors on this and the impressionist look.","Joshua,Nathaniel,Austin,Alejandro,Dalton,Jesus","Just don't like this one.,-9,240,20","Horrible. Squiggly lines everywhere.,-50,220,20","Like the painting strokes,39,240,20","It is an interesting piece but there are too many muted tones,22,80,20","love the images I can pick out of this art,1,300,20","Shapes give it a feeling of being crowded,-18,100,20","Austin","Like the painting strokes,39,240,20","Jesus","Shapes give it a feeling of being crowded,-18,100,20","Dalton","love the images I can pick out of this art,1,300,20","2"
"16630","","survey-text","95","438614","0.0-94.0-0.0","A3KF6O09H04SP7","","","","{""Q0"":""Looks like mustard and ketchup got spilled on paper.""}","","","","","","","","","","","","","","","","","","","","","","",""
"2811.699999988079","","image-slider-response","96","441429","0.0-95.0","A3KF6O09H04SP7","","","","","-38","","","","","","","","","","","","","","","","","","","","","",""
"null","","image-button-response","97","446446","0.0-96.0","A3KF6O09H04SP7","img_art/4.jpg","null","","","","","","","","","","","","","","","","","","","","","","","","",""
"655","","image-button-response","98","447115","0.0-97.0","A3KF6O09H04SP7","img_art/4.jpg","5","","","","","","","","","","","","","","","","","","","","","","","","",""
"2882","","image-button-response","99","450000","0.0-98.0-0.0","A3KF6O09H04SP7","img_art/4.jpg","3","","","","","","","","","","","","","","","","","","","","","","","","",""
"2261","","image-button-response","100","452264","0.0-99.0-0.0","A3KF6O09H04SP7","img_art/4.jpg","4","","","","","","","","","","","","","","","","","","","","","","","","",""
"null","","html-keyboard-response","101","453775","0.0-100.0","A3KF6O09H04SP7","<p style=""font-size: 48px;"">+</p>","","","","","null","allTrialResponses","1500","1","8","img_art/4.jpg","-38","Looks like mustard and ketchup got spilled on paper.","Benjamin,Lucas,Austin,Samuel,Dalton,Jesus","I like the bold style.,10,260,20","Not bad at all.,20,380,20","Like the color vibrancy,29,240,20","The muted tones,-11,400,20","looks like an award from an award show.,22,300,20","I don't enjoy the colors, or texture, it seems like mustard,-23,100,20","Jesus","I don't enjoy the colors, or texture, it seems like mustard,-23,100,20","Samuel","The muted tones,-11,400,20","Dalton","looks like an award from an award show.,22,300,20","2"
"11550","","survey-text","102","465329","0.0-101.0-0.0","A3KF6O09H04SP7","","","","{""Q0"":""Has an MC Escher quality that I like.""}","","","","","","","","","","","","","","","","","","","","","","",""
"3308.5999999940395","","image-slider-response","103","468640","0.0-102.0","A3KF6O09H04SP7","","","","","21","","","","","","","","","","","","","","","","","","","","","",""
"null","","image-button-response","104","473643","0.0-103.0","A3KF6O09H04SP7","img_art/8.jpg","null","","","","","","","","","","","","","","","","","","","","","","","","",""
"575","","image-button-response","105","474223","0.0-104.0","A3KF6O09H04SP7","img_art/8.jpg","2","","","","","","","","","","","","","","","","","","","","","","","","",""
"1810","","image-button-response","106","476038","0.0-105.0-0.0","A3KF6O09H04SP7","img_art/8.jpg","5","","","","","","","","","","","","","","","","","","","","","","","","",""
"2955","","image-button-response","107","478996","0.0-106.0-0.0","A3KF6O09H04SP7","img_art/8.jpg","1","","","","","","","","","","","","","","","","","","","","","","","","",""
"null","","html-keyboard-response","108","479512","0.0-107.0","A3KF6O09H04SP7","<p style=""font-size: 48px;"">+</p>","","","","","null","allTrialResponses","500","1","9","img_art/8.jpg","21","Has an MC Escher quality that I like.","Scott,Cameron,Paul,Samuel,Dalton,Jesus","the face is creepy,-49,20,20","what's going on here. looks like scary town.,-25,60,20","The faces in the upper left show agony and contrast with the geometric shapes too much,-31,300,20","being watched over,17,400,20","woman looking over a the community,1,300,20","The different shapes are fun to look for.,30,100,20","Paul","The faces in the upper left show agony and contrast with the geometric shapes too much,-31,300,20","Jesus","The different shapes are fun to look for.,30,100,20","Cameron","what's going on here. looks like scary town.,-25,60,20","2"
"11042","","survey-text","109","490568","0.0-108.0-0.0","A3KF6O09H04SP7","","","","{""Q0"":""A bit too messy looking for my tastes.""}","","","","","","","","","","","","","","","","","","","","","","",""
"3242.9000000059605","","image-slider-response","110","493813","0.0-109.0","A3KF6O09H04SP7","","","","","-33","","","","","","","","","","","","","","","","","","","","","",""
"null","","image-button-response","111","498825","0.0-110.0","A3KF6O09H04SP7","img_art/9.jpg","null","","","","","","","","","","","","","","","","","","","","","","","","",""
"216","","image-button-response","112","499047","0.0-111.0","A3KF6O09H04SP7","img_art/9.jpg","0","","","","","","","","","","","","","","","","","","","","","","","","",""
"1433","","image-button-response","113","500484","0.0-112.0-0.0","A3KF6O09H04SP7","img_art/9.jpg","3","","","","","","","","","","","","","","","","","","","","","","","","",""
"3875","","image-button-response","114","504363","0.0-113.0-0.0","A3KF6O09H04SP7","img_art/9.jpg","4","","","","","","","","","","","","","","","","","","","","","","","","",""
"null","","html-keyboard-response","115","505366","0.0-114.0","A3KF6O09H04SP7","<p style=""font-size: 48px;"">+</p>","","","","","null","allTrialResponses","1000","1","10","img_art/9.jpg","-33","A bit too messy looking for my tastes.","Dylan,Cameron,Paul,Noah,Bradley,Jesus","This picture is too busy and ugly,-20,40,20","Dark fantasy seaside cave carnival? Fun.,15,60,20","I like the greens and blues around the sides and the person reclining in the center makes me feel relaxed,24,300,20","while I don't dispute the art, it feels childish,-20,260,20","Yikes. I'm not sure what to make of this one.,-14,300,20","I enjoy the design, but the colors look waxy,-7,100,20","Dylan","This picture is too busy and ugly,-20,40,20","Noah","while I don't dispute the art, it feels childish,-20,260,20","Bradley","Yikes. I'm not sure what to make of this one.,-14,300,20","2"
"4201","","survey-text","116","509575","0.0-115.0-0.0","A3KF6O09H04SP7","","","","{""Q0"":""our""}","","","","","","","","","","","","","","","","","","","","","","",""
"18964","","survey-text","117","528544","0.0-116.0-0.0","A3KF6O09H04SP7","","","","{""Q0"":""I like when these splatter paintings somehow look intentional and organized.""}","","","","","","","","","","","","","","","","","","","","","","",""
"2698.2000000178814","","image-slider-response","118","531246","0.0-117.0","A3KF6O09H04SP7","","","","","29","","","","","","","","","","","","","","","","","","","","","",""
"null","","image-button-response","119","536254","0.0-118.0","A3KF6O09H04SP7","img_art/13.jpg","null","","","","","","","","","","","","","","","","","","","","","","","","",""
"3754","","image-button-response","120","540011","0.0-119.0","A3KF6O09H04SP7","img_art/13.jpg","1","","","","","","","","","","","","","","","","","","","","","","","","",""
"2012","","image-button-response","121","542026","0.0-120.0-0.0","A3KF6O09H04SP7","img_art/13.jpg","4","","","","","","","","","","","","","","","","","","","","","","","","",""
"804","","image-button-response","122","542834","0.0-121.0-0.0","A3KF6O09H04SP7","img_art/13.jpg","0","","","","","","","","","","","","","","","","","","","","","","","","",""
"null","","html-keyboard-response","123","543847","0.0-122.0","A3KF6O09H04SP7","<p style=""font-size: 48px;"">+</p>","","","","","null","allTrialResponses","1000","1","11","img_art/13.jpg","29","I like when these splatter paintings somehow look intentional and organized.","Dylan,Michael,Antonio,Noah,Bradley,Christopher","I do like the blue colors in this.,12,40,20","I don't car for it but it does seem organized and like it took considereably more skill that others.,9,140,20","Pretty but didnt cause a reaction,33,220,20","evokes a dampening feeling,-9,260,20","I like the colors used in this piece.,2,300,20","this is an appealing mix of textures to me and the color scheme is harmonious,36,160,20","Michael","I don't car for it but it does seem organized and like it took considereably more skill that others.,9,140,20","Bradley","I like the colors used in this piece.,2,300,20","Dylan","I do like the blue colors in this.,12,40,20","2"
"15615","","survey-text","124","559483","0.0-123.0-0.0","A3KF6O09H04SP7","","","","{""Q0"":""Too many brown tones that I find unsettling.""}","","","","","","","","","","","","","","","","","","","","","","",""
"3412","","image-slider-response","125","562898","0.0-124.0","A3KF6O09H04SP7","","","","","-26","","","","","","","","","","","","","","","","","","","","","",""
"null","","image-button-response","126","567901","0.0-125.0","A3KF6O09H04SP7","img_art/28.jpg","null","","","","","","","","","","","","","","","","","","","","","","","","",""
"1472","","image-button-response","127","569376","0.0-126.0","A3KF6O09H04SP7","img_art/28.jpg","1","","","","","","","","","","","","","","","","","","","","","","","","",""
"692","","image-button-response","128","570071","0.0-127.0-0.0","A3KF6O09H04SP7","img_art/28.jpg","5","","","","","","","","","","","","","","","","","","","","","","","","",""
"1916","","image-button-response","129","571990","0.0-128.0-0.0","A3KF6O09H04SP7","img_art/28.jpg","3","","","","","","","","","","","","","","","","","","","","","","","","",""
"null","","html-keyboard-response","130","572493","0.0-129.0","A3KF6O09H04SP7","<p style=""font-size: 48px;"">+</p>","","","","","null","allTrialResponses","500","1","12","img_art/28.jpg","-26","Too many brown tones that I find unsettling.","Dylan,Michael,Brett,Alex,Bradley,Miguel","Boring, looks like it belongs in a coffee shop,-20,40,20","Incoherent ugly mess.,-50,140,20","Overpopulated city,35,360,20","This piece is depressing to me, reminds me of German paintings,-6,100,20","I think this may have to do with humpty dumpty?,-7,300,20","Looks yucky and poor.,-33,160,20","Michael","Incoherent ugly mess.,-50,140,20","Miguel","Looks yucky and poor.,-33,160,20","Alex","This piece is depressing to me, reminds me of German paintings,-6,100,20","2"
"13743","","survey-text","131","586247","0.0-130.0-0.0","A3KF6O09H04SP7","","","","{""Q0"":""Somewhat interesting and I see flowers.""}","","","","","","","","","","","","","","","","","","","","","","",""
"2636.300000011921","","image-slider-response","132","588886","0.0-131.0","A3KF6O09H04SP7","","","","","5","","","","","","","","","","","","","","","","","","","","","",""
"4396","","image-button-response","133","593890","0.0-132.0","A3KF6O09H04SP7","img_art/15.jpg","0","","","","","","","","","","","","","","","","","","","","","","","","",""
"2711","","image-button-response","134","596603","0.0-133.0","A3KF6O09H04SP7","img_art/15.jpg","4","","","","","","","","","","","","","","","","","","","","","","","","",""
"502","","image-button-response","135","597107","0.0-134.0-0.0","A3KF6O09H04SP7","img_art/15.jpg","3","","","","","","","","","","","","","","","","","","","","","","","","",""
"1277","","image-button-response","136","598387","0.0-135.0-0.0","A3KF6O09H04SP7","img_art/15.jpg","0","","","","","","","","","","","","","","","","","","","","","","","","",""
"null","","html-keyboard-response","137","598888","0.0-136.0","A3KF6O09H04SP7","<p style=""font-size: 48px;"">+</p>","","","","","null","allTrialResponses","500","1","13","img_art/15.jpg","5","Somewhat interesting and I see flowers.","Mason,Michael,Richard,Alex,Peter,Miguel","It's ok, it makes me think. That's something I guess.,8,100,20","Looks incomplete.,-19,140,20","dark and provoking,-50,340,20","Interesting to look at but I don't appreciate the abstraction,2,100,20","It's just dots. Doesn't bring any positive or negative feelings,2,320,20","Simple but not good,-34,160,20","Peter","It's just dots. Doesn't bring any positive or negative feelings,2,320,20","Alex","Interesting to look at but I don't appreciate the abstraction,2,100,20","Mason","It's ok, it makes me think. That's something I guess.,8,100,20","2"
"16197","","survey-text","138","615099","0.0-137.0-0.0","A3KF6O09H04SP7","","","","{""Q0"":""Doesn't seem to say much, but I do like the texture.""}","","","","","","","","","","","","","","","","","","","","","","",""
"2909.300000011921","","image-slider-response","139","618011","0.0-138.0","A3KF6O09H04SP7","","","","","-6","","","","","","","","","","","","","","","","","","","","","",""
"null","","image-button-response","140","623016","0.0-139.0","A3KF6O09H04SP7","img_art/7.jpg","null","","","","","","","","","","","","","","","","","","","","","","","","",""
"709","","image-button-response","141","623729","0.0-140.0","A3KF6O09H04SP7","img_art/7.jpg","0","","","","","","","","","","","","","","","","","","","","","","","","",""
"1436","","image-button-response","142","625168","0.0-141.0-0.0","A3KF6O09H04SP7","img_art/7.jpg","5","","","","","","","","","","","","","","","","","","","","","","","","",""
"436","","image-button-response","143","625607","0.0-142.0-0.0","A3KF6O09H04SP7","img_art/7.jpg","4","","","","","","","","","","","","","","","","","","","","","","","","",""
"null","","html-keyboard-response","144","626611","0.0-143.0","A3KF6O09H04SP7","<p style=""font-size: 48px;"">+</p>","","","","","null","allTrialResponses","1000","1","14","img_art/7.jpg","-6","Doesn't seem to say much, but I do like the texture.","Mason,Tanner,Juan,Alex,Peter,Andrew","I don't get it. looks like a picture of the ground.,-42,100,20","sand, beach, tranquil,10,180,20","This is borning and lifeless.,-50,260,20","Hmm interesting, looks like mars or something terrestrial. Too abstract for me and too much brown,4,100,20","It's just like sand from the beach,2,320,20","It makes me think of new archaeology discoveries,15,160,20","Mason","I don't get it. looks like a picture of the ground.,-42,100,20","Andrew","It makes me think of new archaeology discoveries,15,160,20","Peter","It's just like sand from the beach,2,320,20","2"
"11823","","survey-text","145","638442","0.0-144.0-0.0","A3KF6O09H04SP7","","","","{""Q0"":""Wow, the colors really pop for me on this one.""}","","","","","","","","","","","","","","","","","","","","","","",""
"3560.0999999940395","","image-slider-response","146","642005","0.0-145.0","A3KF6O09H04SP7","","","","","35","","","","","","","","","","","","","","","","","","","","","",""
"null","","image-button-response","147","647017","0.0-146.0","A3KF6O09H04SP7","img_art/24.jpg","null","","","","","","","","","","","","","","","","","","","","","","","","",""
"777","","image-button-response","148","647798","0.0-147.0","A3KF6O09H04SP7","img_art/24.jpg","2","","","","","","","","","","","","","","","","","","","","","","","","",""
"493","","image-button-response","149","648294","0.0-148.0-0.0","A3KF6O09H04SP7","img_art/24.jpg","1","","","","","","","","","","","","","","","","","","","","","","","","",""
"1716","","image-button-response","150","650014","0.0-149.0-0.0","A3KF6O09H04SP7","img_art/24.jpg","5","","","","","","","","","","","","","","","","","","","","","","","","",""
"null","","html-keyboard-response","151","650527","0.0-150.0","A3KF6O09H04SP7","<p style=""font-size: 48px;"">+</p>","","","","","null","allTrialResponses","500","1","15","img_art/24.jpg","35","Wow, the colors really pop for me on this one.","Mason,Luis,Mark,Taylor,Peter,Andrew","Nature, abstract, I'd hang this in my house.,37,100,20","Love the natural vibe,50,400,20","Waterfall, and I love the coloring.,48,80,20","I actually like this one. You can tell what it is.,25,200,20","Looks like a serene waterfall and woods,29,320,20","Makes me think of a couple of hikes that I've taken,50,160,20","Mark","Waterfall, and I love the coloring.,48,80,20","Luis","Love the natural vibe,50,400,20","Andrew","Makes me think of a couple of hikes that I've taken,50,160,20","2"
"3859","","survey-text","152","654411","0.0-151.0-0.0","A3KF6O09H04SP7","","","","{""Q0"":""course""}","","","","","","","","","","","","","","","","","","","","","","",""
"18373","","survey-text","153","672786","0.0-152.0-0.0","A3KF6O09H04SP7","","","","{""Q0"":""Looks like the green marks are a child's graffiti.""}","","","","","","","","","","","","","","","","","","","","","","",""
"2749.100000023842","","image-slider-response","154","675537","0.0-153.0","A3KF6O09H04SP7","","","","","-24","","","","","","","","","","","","","","","","","","","","","",""
"null","","image-button-response","155","680541","0.0-154.0","A3KF6O09H04SP7","img_art/27.jpg","null","","","","","","","","","","","","","","","","","","","","","","","","",""
"854","","image-button-response","156","681400","0.0-155.0","A3KF6O09H04SP7","img_art/27.jpg","4","","","","","","","","","","","","","","","","","","","","","","","","",""
"1790","","image-button-response","157","683192","0.0-156.0-0.0","A3KF6O09H04SP7","img_art/27.jpg","3","","","","","","","","","","","","","","","","","","","","","","","","",""
"2906","","image-button-response","158","686102","0.0-157.0-0.0","A3KF6O09H04SP7","img_art/27.jpg","0","","","","","","","","","","","","","","","","","","","","","","","","",""
"null","","html-keyboard-response","159","687108","0.0-158.0","A3KF6O09H04SP7","<p style=""font-size: 48px;"">+</p>","","","","","null","allTrialResponses","1000","1","16","img_art/27.jpg","-24","Looks like the green marks are a child's graffiti.","Dustin,Luis,Mark,Daniel,Evan,Andrew","Fire, explosion. Red/orange colors are fire/explosion. White is smoke. Makes me worried/scared/anxious,-20,20,20","Love the representation of home,22,400,20","I see a cathedral through the woods.,12,80,20","Nice back ground with childish scribble on top,-30,320,20","I am bothered by the green doodles,-20,140,20","Reminds me of a town on fire,-15,160,20","Evan","I am bothered by the green doodles,-20,140,20","Daniel","Nice back ground with childish scribble on top,-30,320,20","Dustin","Fire, explosion. Red/orange colors are fire/explosion. White is smoke. Makes me worried/scared/anxious,-20,20,20","2"
"21620","","survey-text","160","708740","0.0-159.0-0.0","A3KF6O09H04SP7","","","","{""Q0"":""Interesting colors, like an explosion.""}","","","","","","","","","","","","","","","","","","","","","","",""
"3107.800000011921","","image-slider-response","161","711851","0.0-160.0","A3KF6O09H04SP7","","","","","11","","","","","","","","","","","","","","","","","","","","","",""
"null","","image-button-response","162","716861","0.0-161.0","A3KF6O09H04SP7","img_art/14.jpg","null","","","","","","","","","","","","","","","","","","","","","","","","",""
"1932","","image-button-response","163","718800","0.0-162.0","A3KF6O09H04SP7","img_art/14.jpg","4","","","","","","","","","","","","","","","","","","","","","","","","",""
"933","","image-button-response","164","719736","0.0-163.0-0.0","A3KF6O09H04SP7","img_art/14.jpg","0","","","","","","","","","","","","","","","","","","","","","","","","",""
"1941","","image-button-response","165","721680","0.0-164.0-0.0","A3KF6O09H04SP7","img_art/14.jpg","1","","","","","","","","","","","","","","","","","","","","","","","","",""
"null","","html-keyboard-response","166","722696","0.0-165.0","A3KF6O09H04SP7","<p style=""font-size: 48px;"">+</p>","","","","","null","allTrialResponses","1000","1","17","img_art/14.jpg","11","Interesting colors, like an explosion.","Dustin,Eric,Kevin,Daniel,Evan,Brendan","It represents growth. I see a plant/tree growing out of the ground. I like the rainbow of color in the painting.,31,20,20","I'm imagining a flower bouquet with pretty colors which I like.,35,100,20","The pirates ship is sinking.,27,320,20","Baby's room palette with tree confusion in a more confused substrate.,-15,320,20","I like the sharpness of the lines,20,140,20","it looks like a tree on desert,23,340,20","Evan","I like the sharpness of the lines,20,140,20","Dustin","It represents growth. I see a plant/tree growing out of the ground. I like the rainbow of color in the painting.,31,20,20","Eric","I'm imagining a flower bouquet with pretty colors which I like.,35,100,20","2"
"16866","","survey-text","167","739568","0.0-166.0-0.0","A3KF6O09H04SP7","","","","{""Q0"":""Love the green tones and it reminds me of The Wicker Man.""}","","","","","","","","","","","","","","","","","","","","","","",""
"2804.9000000059605","","image-slider-response","168","742374","0.0-167.0","A3KF6O09H04SP7","","","","","22","","","","","","","","","","","","","","","","","","","","","",""
"null","","image-button-response","169","747378","0.0-168.0","A3KF6O09H04SP7","img_art/25.jpg","null","","","","","","","","","","","","","","","","","","","","","","","","",""
"1086","","image-button-response","170","748468","0.0-169.0","A3KF6O09H04SP7","img_art/25.jpg","0","","","","","","","","","","","","","","","","","","","","","","","","",""
"1965","","image-button-response","171","750435","0.0-170.0-0.0","A3KF6O09H04SP7","img_art/25.jpg","4","","","","","","","","","","","","","","","","","","","","","","","","",""
"2628","","image-button-response","172","753067","0.0-171.0-0.0","A3KF6O09H04SP7","img_art/25.jpg","2","","","","","","","","","","","","","","","","","","","","","","","","",""
"null","","html-keyboard-response","173","754577","0.0-172.0","A3KF6O09H04SP7","<p style=""font-size: 48px;"">+</p>","","","","","null","allTrialResponses","1500","1","18","img_art/25.jpg","22","Love the green tones and it reminds me of The Wicker Man.","Dustin,Eric,Kenneth,Jeremy,Evan,Shawn","Reminds me of ancient civilization art. I like the aqua color; soothing to me.,1,20,20","This piece gives me a lot of questions which I kind of like.,10,100,20","I love the color. I don't know what exactly is going on but I like it.,24,300,20","reminds me of ancient history which makes me happy,40,60,20","I really like the green and the fact that it is tattered on the edges,23,140,20","Cheesy and unprofessional,-30,100,20","Dustin","Reminds me of ancient civilization art. I like the aqua color; soothing to me.,1,20,20","Evan","I really like the green and the fact that it is tattered on the edges,23,140,20","Kenneth","I love the color. I don't know what exactly is going on but I like it.,24,300,20","2"
"15348","","survey-text","174","769932","0.0-173.0-0.0","A3KF6O09H04SP7","","","","{""Q0"":""Love the white dead space in the galaxy of color.""}","","","","","","","","","","","","","","","","","","","","","","",""
"3345.7000000178814","","image-slider-response","175","773281","0.0-174.0","A3KF6O09H04SP7","","","","","35","","","","","","","","","","","","","","","","","","","","","",""
"null","","image-button-response","176","778285","0.0-175.0","A3KF6O09H04SP7","img_art/23.jpg","null","","","","","","","","","","","","","","","","","","","","","","","","",""
"702","","image-button-response","177","778992","0.0-176.0","A3KF6O09H04SP7","img_art/23.jpg","2","","","","","","","","","","","","","","","","","","","","","","","","",""
"2508","","image-button-response","178","781503","0.0-177.0-0.0","A3KF6O09H04SP7","img_art/23.jpg","5","","","","","","","","","","","","","","","","","","","","","","","","",""
"2052","","image-button-response","179","783558","0.0-178.0-0.0","A3KF6O09H04SP7","img_art/23.jpg","3","","","","","","","","","","","","","","","","","","","","","","","","",""
"null","","html-keyboard-response","180","784063","0.0-179.0","A3KF6O09H04SP7","<p style=""font-size: 48px;"">+</p>","","","","","null","allTrialResponses","500","1","19","img_art/23.jpg","35","Love the white dead space in the galaxy of color.","Dustin,Nathan,Kenneth,Victor,Evan,Jose","I don't get it! the white in the middle of the speckled rainbow is confusing.,-10,20,20","While I don't normally enjoy these color schemes all together, I kind of like this one,10,200,20","Love this. I love the white, really pops with the colors surrounding it.,44,300,20","I like the colors, the tiny dots, and the contrast between the white and background,28,340,20","It feels exciting,23,140,20","This one is awesome, kinda looks like a cake with sprinkles but in a different universe,50,200,20","Kenneth","Love this. I love the white, really pops with the colors surrounding it.,44,300,20","Jose","This one is awesome, kinda looks like a cake with sprinkles but in a different universe,50,200,20","Victor","I like the colors, the tiny dots, and the contrast between the white and background,28,340,20","2"
"15784","","survey-text","181","799854","0.0-180.0-0.0","A3KF6O09H04SP7","","","","{""Q0"":""Very nice contrast between the artificial and natural.""}","","","","","","","","","","","","","","","","","","","","","","",""
"3100.899999976158","","image-slider-response","182","802958","0.0-181.0","A3KF6O09H04SP7","","","","","31","","","","","","","","","","","","","","","","","","","","","",""
"null","","image-button-response","183","807961","0.0-182.0","A3KF6O09H04SP7","img_art/17.jpg","null","","","","","","","","","","","","","","","","","","","","","","","","",""
"304","","image-button-response","184","808268","0.0-183.0","A3KF6O09H04SP7","img_art/17.jpg","2","","","","","","","","","","","","","","","","","","","","","","","","",""
"3076","","image-button-response","185","811346","0.0-184.0-0.0","A3KF6O09H04SP7","img_art/17.jpg","3","","","","","","","","","","","","","","","","","","","","","","","","",""
"2316","","image-button-response","186","813665","0.0-185.0-0.0","A3KF6O09H04SP7","img_art/17.jpg","5","","","","","","","","","","","","","","","","","","","","","","","","",""
"null","","html-keyboard-response","187","815182","0.0-186.0","A3KF6O09H04SP7","<p style=""font-size: 48px;"">+</p>","","","","","null","allTrialResponses","1500","1","20","img_art/17.jpg","31","Very nice contrast between the artificial and natural.","Gregory,Dakota,Kenneth,Victor,Sean,Jose","Looks like some fantasy tree. Nice,30,220,20","home - reminds me of fond memories of the Barnes Museum courtyard (looks just like it),30,280,20","I really like this, especially the tree.,23,300,20","cool. Sharp and blocky below, light and flowing on top. Overall pleasing to look at,32,340,20","my response to the picture is that it looks beautiful,27,40,20","Looks like a weird blurry heaven again! I dig,32,200,20","Kenneth","I really like this, especially the tree.,23,300,20","Victor","cool. Sharp and blocky below, light and flowing on top. Overall pleasing to look at,32,340,20","Jose","Looks like a weird blurry heaven again! I dig,32,200,20","2"
"4012","","survey-text","188","819214","0.0-187.0-0.0","A3KF6O09H04SP7","","","","{""Q0"":""we""}","","","","","","","","","","","","","","","","","","","","","","",""
"20245","","survey-text","189","839462","0.0-188.0-0.0","A3KF6O09H04SP7","","","","{""Q0"":""Not liking this one, the yellow draws the eye too much.""}","","","","","","","","","","","","","","","","","","","","","","",""
"2996.300000011921","","image-slider-response","190","842460","0.0-189.0","A3KF6O09H04SP7","","","","","-26","","","","","","","","","","","","","","","","","","","","","",""
"null","","image-button-response","191","847474","0.0-190.0","A3KF6O09H04SP7","img_art/5.jpg","null","","","","","","","","","","","","","","","","","","","","","","","","",""
"343","","image-button-response","192","847819","0.0-191.0","A3KF6O09H04SP7","img_art/5.jpg","2","","","","","","","","","","","","","","","","","","","","","","","","",""
"6642","","image-button-response","193","854464","0.0-192.0-0.0","A3KF6O09H04SP7","img_art/5.jpg","3","","","","","","","","","","","","","","","","","","","","","","","","",""
"1885","","image-button-response","194","856352","0.0-193.0-0.0","A3KF6O09H04SP7","img_art/5.jpg","0","","","","","","","","","","","","","","","","","","","","","","","","",""
"null","","html-keyboard-response","195","857359","0.0-194.0","A3KF6O09H04SP7","<p style=""font-size: 48px;"">+</p>","","","","","null","allTrialResponses","1000","1","21","img_art/5.jpg","-26","Not liking this one, the yellow draws the eye too much.","Jason,Carlos,Kenneth,Victor,Nicholas,Jose","Wish the background had been kept clean; distracts from main object,11,20,20","It feels very strong and open.,31,80,20","It looks like daffy duck's leg with a random trail of pink.,-22,300,20","I like these colors together and the tiny splatters, but what is this?,7,340,20","I cant explain why i like this so much but it really calls out to me,50,240,20","Don't love don't hate,8,200,20","Kenneth","It looks like daffy duck's leg with a random trail of pink.,-22,300,20","Victor","I like these colors together and the tiny splatters, but what is this?,7,340,20","Jason","Wish the background had been kept clean; distracts from main object,11,20,20","2"
"15863","","survey-text","196","873248","0.0-195.0-0.0","A3KF6O09H04SP7","","","","{""Q0"":""Very interesting, I find myself seeing different things in it.""}","","","","","","","","","","","","","","","","","","","","","","",""
"4803.199999988079","","image-slider-response","197","878053","0.0-196.0","A3KF6O09H04SP7","","","","","14","","","","","","","","","","","","","","","","","","","","","",""
"null","","image-button-response","198","883073","0.0-197.0","A3KF6O09H04SP7","img_art/10.jpg","null","","","","","","","","","","","","","","","","","","","","","","","","",""
"704","","image-button-response","199","883780","0.0-198.0","A3KF6O09H04SP7","img_art/10.jpg","2","","","","","","","","","","","","","","","","","","","","","","","","",""
"661","","image-button-response","200","884443","0.0-199.0-0.0","A3KF6O09H04SP7","img_art/10.jpg","5","","","","","","","","","","","","","","","","","","","","","","","","",""
"2972","","image-button-response","201","887418","0.0-200.0-0.0","A3KF6O09H04SP7","img_art/10.jpg","4","","","","","","","","","","","","","","","","","","","","","","","","",""
"null","","html-keyboard-response","202","888426","0.0-201.0","A3KF6O09H04SP7","<p style=""font-size: 48px;"">+</p>","","","","","null","allTrialResponses","1000","1","22","img_art/10.jpg","14","Very interesting, I find myself seeing different things in it.","Jason,Cody,Kenneth,Victor,Blake,Christian","Picture looks smudged,-7,20,20","Feels musical .....,40,180,20","I cant tell what this is supposed to be, but I enjoy the simplicity of it.,28,300,20","Looks like someone just smeared some paint and called it good. Do not like.,-6,340,20","a fast racetrack. go, go, go,5,280,20","gives a sense of a roller coaster unit splashed in water. it's not but i love it nevertheless,44,140,20","Kenneth","I cant tell what this is supposed to be, but I enjoy the simplicity of it.,28,300,20","Christian","gives a sense of a roller coaster unit splashed in water. it's not but i love it nevertheless,44,140,20","Blake","a fast racetrack. go, go, go,5,280,20","2"
"20216","","survey-text","203","908658","0.0-202.0-0.0","A3KF6O09H04SP7","","","","{""Q0"":""Looks a bit messy and the paint brush inclusion seems very pretentious. ""}","","","","","","","","","","","","","","","","","","","","","","",""
"2372.300000011921","","image-slider-response","204","911033","0.0-203.0","A3KF6O09H04SP7","","","","","-34","","","","","","","","","","","","","","","","","","","","","",""
"null","","image-button-response","205","916049","0.0-204.0","A3KF6O09H04SP7","img_art/29.jpg","null","","","","","","","","","","","","","","","","","","","","","","","","",""
"2888","","image-button-response","206","918943","0.0-205.0","A3KF6O09H04SP7","img_art/29.jpg","3","","","","","","","","","","","","","","","","","","","","","","","","",""
"1580","","image-button-response","207","920525","0.0-206.0-0.0","A3KF6O09H04SP7","img_art/29.jpg","2","","","","","","","","","","","","","","","","","","","","","","","","",""
"1397","","image-button-response","208","921925","0.0-207.0-0.0","A3KF6O09H04SP7","img_art/29.jpg","1","","","","","","","","","","","","","","","","","","","","","","","","",""
"null","","html-keyboard-response","209","922450","0.0-208.0","A3KF6O09H04SP7","<p style=""font-size: 48px;"">+</p>","","","","","null","allTrialResponses","500","1","23","img_art/29.jpg","-34","Looks a bit messy and the paint brush inclusion seems very pretentious. ","Jonathan,Gabriel,Kenneth,Chase,Blake,Christian","This one feels scary in a good way,30,140,20","dont like this one,-20,160,20","Too much going on, and I don't like the colors. It looks like a crime scene.,-50,300,20","This is ugly as fuck,-50,120,20","a hot fireplace with things to burn. warm,12,280,20","love the texture, i don't know, i just really like it (and the paintbrush adds a nice touch),44,140,20","Chase","This is ugly as fuck,-50,120,20","Kenneth","Too much going on, and I don't like the colors. It looks like a crime scene.,-50,300,20","Gabriel","dont like this one,-20,160,20","2"
"13212","","survey-text","210","935679","0.0-209.0-0.0","A3KF6O09H04SP7","","","","{""Q0"":""Almost reminds me of a DNA sequence.""}","","","","","","","","","","","","","","","","","","","","","","",""
"3124.199999988079","","image-slider-response","211","938805","0.0-210.0","A3KF6O09H04SP7","","","","","16","","","","","","","","","","","","","","","","","","","","","",""
"null","","image-button-response","212","943835","0.0-211.0","A3KF6O09H04SP7","img_art/11.jpg","null","","","","","","","","","","","","","","","","","","","","","","","","",""
"628","","image-button-response","213","944469","0.0-212.0","A3KF6O09H04SP7","img_art/11.jpg","4","","","","","","","","","","","","","","","","","","","","","","","","",""
"1074","","image-button-response","214","945547","0.0-213.0-0.0","A3KF6O09H04SP7","img_art/11.jpg","5","","","","","","","","","","","","","","","","","","","","","","","","",""
"2317","","image-button-response","215","947866","0.0-214.0-0.0","A3KF6O09H04SP7","img_art/11.jpg","1","","","","","","","","","","","","","","","","","","","","","","","","",""
"null","","html-keyboard-response","216","948879","0.0-215.0","A3KF6O09H04SP7","<p style=""font-size: 48px;"">+</p>","","","","","null","allTrialResponses","1000","1","24","img_art/11.jpg","16","Almost reminds me of a DNA sequence.","Patrick,Gabriel,Kenneth,Chase,Corey,Justin","Looks sad but clean,31,280,20","its like telephone wires, or mountains,-17,160,20","Its a little psychedelic.,10,300,20","It's too dark and dingy.,-30,120,20","dont like the colors. Its a gloomy day in london and this is the transit system,-26,260,20","It reminds me of telephone wires.,1,280,20","Corey","dont like the colors. Its a gloomy day in london and this is the transit system,-26,260,20","Justin","It reminds me of telephone wires.,1,280,20","Gabriel","its like telephone wires, or mountains,-17,160,20","2"
"18272","","survey-text","217","967161","0.0-216.0-0.0","A3KF6O09H04SP7","","","","{""Q0"":""A bit too impressionistic for me, could be more defined.""}","","","","","","","","","","","","","","","","","","","","","","",""
"2915.5","","image-slider-response","218","970079","0.0-217.0","A3KF6O09H04SP7","","","","","-15","","","","","","","","","","","","","","","","","","","","","",""
"null","","image-button-response","219","975099","0.0-218.0","A3KF6O09H04SP7","img_art/20.jpg","null","","","","","","","","","","","","","","","","","","","","","","","","",""
"4077","","image-button-response","220","979180","0.0-219.0","A3KF6O09H04SP7","img_art/20.jpg","4","","","","","","","","","","","","","","","","","","","","","","","","",""
"1860","","image-button-response","221","981043","0.0-220.0-0.0","A3KF6O09H04SP7","img_art/20.jpg","3","","","","","","","","","","","","","","","","","","","","","","","","",""
"1022","","image-button-response","222","982069","0.0-221.0-0.0","A3KF6O09H04SP7","img_art/20.jpg","0","","","","","","","","","","","","","","","","","","","","","","","","",""
"null","","html-keyboard-response","223","983577","0.0-222.0","A3KF6O09H04SP7","<p style=""font-size: 48px;"">+</p>","","","","","null","allTrialResponses","1500","1","25","img_art/20.jpg","-15","A bit too impressionistic for me, could be more defined.","Spencer,Gabriel,Tyler,Angel,Corey,Justin","A sad past town, pollution, guess I like happier scenes,-30,120,20","i almost feel like i can recognize what this is,-6,160,20","This is not abstract art, it is representative.,0,320,20","This looks like a ruin of what was once a thriving city.,-9,180,20","It seems to be a neutral cool toned art piece. Gives me alamo/desert vibes,2,260,20","The colors and the scene depicted is interesting.,13,280,20","Corey","It seems to be a neutral cool toned art piece. Gives me alamo/desert vibes,2,260,20","Angel","This looks like a ruin of what was once a thriving city.,-9,180,20","Spencer","A sad past town, pollution, guess I like happier scenes,-30,120,20","2"
"3944","","survey-text","224","987553","0.0-223.0-0.0","A3KF6O09H04SP7","","","","{""Q0"":""table""}","","","","","","","","","","","","","","","","","","","","","","",""
"16886","","survey-text","225","1004441","0.0-224.0-0.0","A3KF6O09H04SP7","","","","{""Q0"":""The colors seem a bit too desaturated for my liking.""}","","","","","","","","","","","","","","","","","","","","","","",""
"2180.9000000059605","","image-slider-response","226","1006624","0.0-225.0","A3KF6O09H04SP7","","","","","-24","","","","","","","","","","","","","","","","","","","","","",""
"null","","image-button-response","227","1011627","0.0-226.0","A3KF6O09H04SP7","img_art/1.jpg","null","","","","","","","","","","","","","","","","","","","","","","","","",""
"1663","","image-button-response","228","1013295","0.0-227.0","A3KF6O09H04SP7","img_art/1.jpg","5","","","","","","","","","","","","","","","","","","","","","","","","",""
"3258","","image-button-response","229","1016557","0.0-228.0-0.0","A3KF6O09H04SP7","img_art/1.jpg","4","","","","","","","","","","","","","","","","","","","","","","","","",""
"1179","","image-button-response","230","1017740","0.0-229.0-0.0","A3KF6O09H04SP7","img_art/1.jpg","1","","","","","","","","","","","","","","","","","","","","","","","","",""
"null","","html-keyboard-response","231","1018242","0.0-230.0","A3KF6O09H04SP7","<p style=""font-size: 48px;"">+</p>","","","","","null","allTrialResponses","500","1","26","img_art/1.jpg","-24","The colors seem a bit too desaturated for my liking.","Spencer,Tristan,Jorge,Angel,Corey,Trevor","Pretty intermeshing of colors, happy,32,120,20","Unpleasing palette. I see a figure but it seems incongrous to the highly abstract background.,-20,300,20","fishing on the lake surrounded by trees,42,180,20","For some reason this makes me want to go ice skating. It's whimsical and free but also very smooth.,20,180,20","basic reminds me of something a school would have on the wall,-7,260,20","nice colors but kinds of blah,1,280,20","Trevor","nice colors but kinds of blah,1,280,20","Corey","basic reminds me of something a school would have on the wall,-7,260,20","Tristan","Unpleasing palette. I see a figure but it seems incongrous to the highly abstract background.,-20,300,20","2"
"13132","","survey-text","232","1031390","0.0-231.0-0.0","A3KF6O09H04SP7","","","","{""Q0"":""Looks like a storm on the horizon.""}","","","","","","","","","","","","","","","","","","","","","","",""
"2244.7999999821186","","image-slider-response","233","1033637","0.0-232.0","A3KF6O09H04SP7","","","","","8","","","","","","","","","","","","","","","","","","","","","",""
"null","","image-button-response","234","1038642","0.0-233.0","A3KF6O09H04SP7","img_art/21.jpg","null","","","","","","","","","","","","","","","","","","","","","","","","",""
"951","","image-button-response","235","1039596","0.0-234.0","A3KF6O09H04SP7","img_art/21.jpg","4","","","","","","","","","","","","","","","","","","","","","","","","",""
"1373","","image-button-response","236","1040971","0.0-235.0-0.0","A3KF6O09H04SP7","img_art/21.jpg","3","","","","","","","","","","","","","","","","","","","","","","","","",""
"1668","","image-button-response","237","1042643","0.0-236.0-0.0","A3KF6O09H04SP7","img_art/21.jpg","1","","","","","","","","","","","","","","","","","","","","","","","","",""
"null","","html-keyboard-response","238","1044160","0.0-237.0","A3KF6O09H04SP7","<p style=""font-size: 48px;"">+</p>","","","","","null","allTrialResponses","1500","1","27","img_art/21.jpg","8","Looks like a storm on the horizon.","Bryce,Tristan,Derek,Thomas,Corey,Trevor","Nothing exciting in this one.,-36,20,20","A landscape that leaves me inspired and hopeful.,20,300,20","I love the colors in this painting,30,360,20","Again, I love the use of color,50,220,20","i like the colors and the blending,17,260,20","it has a lot of happy colors and it's very classic looking,35,280,20","Corey","i like the colors and the blending,17,260,20","Thomas","Again, I love the use of color,50,220,20","Tristan","A landscape that leaves me inspired and hopeful.,20,300,20","2"
"14307","","survey-text","239","1058486","0.0-238.0-0.0","A3KF6O09H04SP7","","","","{""Q0"":""That grey smudge almost ruins it for me.""}","","","","","","","","","","","","","","","","","","","","","","",""
"2936.5999999940395","","image-slider-response","240","1061425","0.0-239.0","A3KF6O09H04SP7","","","","","-5","","","","","","","","","","","","","","","","","","","","","",""
"null","","image-button-response","241","1066443","0.0-240.0","A3KF6O09H04SP7","img_art/3.jpg","null","","","","","","","","","","","","","","","","","","","","","","","","",""
"1873","","image-button-response","242","1068320","0.0-241.0","A3KF6O09H04SP7","img_art/3.jpg","4","","","","","","","","","","","","","","","","","","","","","","","","",""
"933","","image-button-response","243","1069255","0.0-242.0-0.0","A3KF6O09H04SP7","img_art/3.jpg","3","","","","","","","","","","","","","","","","","","","","","","","","",""
"2277","","image-button-response","244","1071535","0.0-243.0-0.0","A3KF6O09H04SP7","img_art/3.jpg","1","","","","","","","","","","","","","","","","","","","","","","","","",""
"null","","html-keyboard-response","245","1073047","0.0-244.0","A3KF6O09H04SP7","<p style=""font-size: 48px;"">+</p>","","","","","null","allTrialResponses","1500","1","28","img_art/3.jpg","-5","That grey smudge almost ruins it for me.","Jesse,Tristan,Jake,Thomas,Corey,Garrett","No substance or feeling to it,-20,80,20","i like the colors particulairly the contrast of foreground to background. Exciting and thoughtful.,10,300,20","This is angry and childish looking.,-49,360,20","Too messy and structure-less,-10,220,20","seems distressing. a blood scene,-3,260,20","I can't tell what this image is supposed to be it looks extremely ugly and color variety is boring.,-50,180,20","Corey","seems distressing. a blood scene,-3,260,20","Thomas","Too messy and structure-less,-10,220,20","Tristan","i like the colors particulairly the contrast of foreground to background. Exciting and thoughtful.,10,300,20","2"
"15793","","survey-text","246","1088863","0.0-245.0-0.0","A3KF6O09H04SP7","","","","{""Q0"":""The colors are too desaturated and I don't like the random key.""}","","","","","","","","","","","","","","","","","","","","","","",""
"3292.5","","image-slider-response","247","1092158","0.0-246.0","A3KF6O09H04SP7","","","","","-22","","","","","","","","","","","","","","","","","","","","","",""
"null","","image-button-response","248","1097170","0.0-247.0","A3KF6O09H04SP7","img_art/22.jpg","null","","","","","","","","","","","","","","","","","","","","","","","","",""
"609","","image-button-response","249","1097781","0.0-248.0","A3KF6O09H04SP7","img_art/22.jpg","1","","","","","","","","","","","","","","","","","","","","","","","","",""
"3939","","image-button-response","250","1101723","0.0-249.0-0.0","A3KF6O09H04SP7","img_art/22.jpg","4","","","","","","","","","","","","","","","","","","","","","","","","",""
"1044","","image-button-response","251","1102772","0.0-250.0-0.0","A3KF6O09H04SP7","img_art/22.jpg","2","","","","","","","","","","","","","","","","","","","","","","","","",""
"null","","html-keyboard-response","252","1103780","0.0-251.0","A3KF6O09H04SP7","<p style=""font-size: 48px;"">+</p>","","","","","null","allTrialResponses","1000","1","29","img_art/22.jpg","-22","The colors are too desaturated and I don't like the random key.","Isaiah,Tristan,Robert,Thomas,Corey,Vincent","The painting makes me feel a little sad.,12,300,20","I appreciate the shapes but the abundance of primary colors make it seem garrish.,-10,300,20","I don't get much of a reaction.,11,360,20","Beautiful. I love the color contrast and gradients.,50,220,20","i feel like this is a a basic art piece that a school would have on the wall,-24,260,20","Can fit with anyone. And in any home a great piece of art,35,360,20","Tristan","I appreciate the shapes but the abundance of primary colors make it seem garrish.,-10,300,20","Corey","i feel like this is a a basic art piece that a school would have on the wall,-24,260,20","Robert","I don't get much of a reaction.,11,360,20","2"
"18283","","survey-text","253","1122081","0.0-252.0-0.0","A3KF6O09H04SP7","","","","{""Q0"":""Love how the colors draw your eye to the center like a black hole.""}","","","","","","","","","","","","","","","","","","","","","","",""
"3188.5","","image-slider-response","254","1125272","0.0-253.0","A3KF6O09H04SP7","","","","","21","","","","","","","","","","","","","","","","","","","","","",""
"null","","image-button-response","255","1130281","0.0-254.0","A3KF6O09H04SP7","img_art/18.jpg","null","","","","","","","","","","","","","","","","","","","","","","","","",""
"1347","","image-button-response","256","1131630","0.0-255.0","A3KF6O09H04SP7","img_art/18.jpg","0","","","","","","","","","","","","","","","","","","","","","","","","",""
"724","","image-button-response","257","1132357","0.0-256.0-0.0","A3KF6O09H04SP7","img_art/18.jpg","1","","","","","","","","","","","","","","","","","","","","","","","","",""
"845","","image-button-response","258","1133205","0.0-257.0-0.0","A3KF6O09H04SP7","img_art/18.jpg","3","","","","","","","","","","","","","","","","","","","","","","","","",""
"null","","html-keyboard-response","259","1134714","0.0-258.0","A3KF6O09H04SP7","<p style=""font-size: 48px;"">+</p>","","","","","null","allTrialResponses","1500","1","30","img_art/18.jpg","21","Love how the colors draw your eye to the center like a black hole.","Grant,Tristan,Robert,Seth,Corey,Connor","This is a very energetic painting, and brings to mind scenes of battle.,50,200,20","So much going on. Frightening and tumultous, brave and inspiring. I'd like to spend the rest of my life interpreting it.,30,300,20","It made me think of a car crash,-39,360,20","This painting reminds me of the 4 horsemen of the apocalypse. It feels haunting.,31,60,20","reminds me of dying at sea in the 1700s,-8,260,20","See a weird horse,-22,240,20","Grant","This is a very energetic painting, and brings to mind scenes of battle.,50,200,20","Tristan","So much going on. Frightening and tumultous, brave and inspiring. I'd like to spend the rest of my life interpreting it.,30,300,20","Seth","This painting reminds me of the 4 horsemen of the apocalypse. It feels haunting.,31,60,20","2"
"2871","","image-button-response_instructions","260","1137611","0.0-259.0","A3KF6O09H04SP7","","0","instructions","","","","","","","","","","","","","","","","","","","","","","","",""
"2849","","image-button-response","261","1140473","0.0-260.0","A3KF6O09H04SP7","","0","","","","","","","","","","","","","","","","","","","","","","","","",""
