"rt","url","trial_type","trial_index","time_elapsed","internal_node_id","participant_id","stimulus","button_pressed","Name","responses","response","key_press","variableName","fixationTime","condition","trial","photo","subjectRating","subjectResponse","agentsNames","agent_1_Response","agent_2_Response","agent_3_Response","agent_4_Response","agent_5_Response","agent_6_Response","kept_1_name","kept_1_response","kept_2_name","kept_2_response","kept_3_name","kept_3_response","errorCounter"
"5763","external_page_harvard.html","external-html","0","5821","0.0-0.0","A3KK5FKG3L0Q66","","","","","","","","","","","","","","","","","","","","","","","","","","",""
"1069","","image-button-response","1","6892","0.0-1.0","A3KK5FKG3L0Q66","","1","","","","","","","","","","","","","","","","","","","","","","","","",""
"2704","","image-button-response","2","9599","0.0-2.0-0.0","A3KK5FKG3L0Q66","","1","phone","","","","","","","","","","","","","","","","","","","","","","","",""
"1991","","survey-text","3","11592","0.0-3.0-0.0","A3KK5FKG3L0Q66","","","","{""Q0"":""A3KK5FKG3L0Q66""}","","","","","","","","","","","","","","","","","","","","","","",""
"4992","","image-button-response_instructions","4","16585","0.0-4.0","A3KK5FKG3L0Q66","","0","instructions","","","","","","","","","","","","","","","","","","","","","","","",""
"7238","","image-button-response_instructions","5","23825","0.0-5.0","A3KK5FKG3L0Q66","img_art/ins/popularity/ins1.png","0","instructions","","","","","","","","","","","","","","","","","","","","","","","",""
"2800","","image-button-response_instructions","6","26627","0.0-6.0","A3KK5FKG3L0Q66","img_art/ins/popularity/ins2.png","0","instructions","","","","","","","","","","","","","","","","","","","","","","","",""
"3461","","image-button-response_instructions","7","30092","0.0-7.0","A3KK5FKG3L0Q66","img_art/ins/popularity/ins2Extreme.png","0","instructions","","","","","","","","","","","","","","","","","","","","","","","",""
"9415","","image-button-response_instructions","8","39509","0.0-8.0","A3KK5FKG3L0Q66","img_art/ins/popularity/ins3KEEPpop.PNG","0","instructions","","","","","","","","","","","","","","","","","","","","","","","",""
"2809","","image-button-response_instructions","9","42320","0.0-9.0","A3KK5FKG3L0Q66","img_art/ins/popularity/ins3ANamepop.PNG","0","instructions","","","","","","","","","","","","","","","","","","","","","","","",""
"3343","","image-button-response_instructions","10","45665","0.0-10.0","A3KK5FKG3L0Q66","img_art/ins/popularity/ins3ARatingpop.png","0","instructions","","","","","","","","","","","","","","","","","","","","","","","",""
"2511","","image-button-response_instructions","11","48178","0.0-11.0","A3KK5FKG3L0Q66","img_art/ins/popularity/ins3ATextpop.png","0","instructions","","","","","","","","","","","","","","","","","","","","","","","",""
"5496","","image-button-response_instructions","12","53676","0.0-12.0","A3KK5FKG3L0Q66","img_art/ins/popularity/ins3ALikespop.png","0","instructions","","","","","","","","","","","","","","","","","","","","","","","",""
"8303","","image-button-response_instructions","13","61980","0.0-13.0","A3KK5FKG3L0Q66","img_art/ins/popularity/ins3KEEPpop.PNG","0","instructions","","","","","","","","","","","","","","","","","","","","","","","",""
"7697","","image-button-response_instructions","14","69679","0.0-14.0","A3KK5FKG3L0Q66","img_art/ins/popularity/ins3_5RED.png","0","instructions","","","","","","","","","","","","","","","","","","","","","","","",""
"3041","","image-button-response_instructions","15","72722","0.0-15.0","A3KK5FKG3L0Q66","img_art/ins/popularity/ins3KEEPpop.PNG","0","instructions","","","","","","","","","","","","","","","","","","","","","","","",""
"6445","","image-button-response_instructions","16","79168","0.0-16.0","A3KK5FKG3L0Q66","img_art/ins/popularity/ins4KEEPpop.PNG","0","instructions","","","","","","","","","","","","","","","","","","","","","","","",""
"4336","","image-button-response_instructions","17","83506","0.0-17.0","A3KK5FKG3L0Q66","img_art/ins/popularity/ins5KEEPpop.PNG","0","instructions","","","","","","","","","","","","","","","","","","","","","","","",""
"1270","","image-button-response_instructions","18","84776","0.0-18.0","A3KK5FKG3L0Q66","","0","instructions","","","","","","","","","","","","","","","","","","","","","","","",""
"3668","","survey-text","19","88465","0.0-19.0-0.0","A3KK5FKG3L0Q66","","","","{""Q0"":""but""}","","","","","","","","","","","","","","","","","","","","","","",""
"16755","","survey-text","20","105221","0.0-20.0-0.0","A3KK5FKG3L0Q66","","","","{""Q0"":""Personally I'm not a fan of the color scheme / palette.""}","","","","","","","","","","","","","","","","","","","","","","",""
"5617.10000000149","","image-slider-response","21","110845","0.0-21.0","A3KK5FKG3L0Q66","","","","","-20","","","","","","","","","","","","","","","","","","","","","",""
"null","","image-button-response","22","115850","0.0-22.0","A3KK5FKG3L0Q66","img_art/ins/1.jpg","null","","","","","","","","","","","","","","","","","","","","","","","","",""
"466","","image-button-response","23","116319","0.0-23.0","A3KK5FKG3L0Q66","img_art/ins/1.jpg","5","","","","","","","","","","","","","","","","","","","","","","","","",""
"6868","","image-button-response","24","123192","0.0-24.0-0.0","A3KK5FKG3L0Q66","img_art/ins/1.jpg","4","","","","","","","","","","","","","","","","","","","","","","","","",""
"4348","","image-button-response","25","127545","0.0-25.0-0.0","A3KK5FKG3L0Q66","img_art/ins/1.jpg","0","","","","","","","","","","","","","","","","","","","","","","","","",""
"null","","html-keyboard-response","26","128548","0.0-26.0","A3KK5FKG3L0Q66","<p style=""font-size: 48px;"">+</p>","","","","","null","allTrialResponses","1000","1","-2","img_art/ins/1.jpg","-20","Personally I'm not a fan of the color scheme / palette.","Allison,Ashley,Beth,Dora,Erika,Jen","looks like a lot of things going on in the mist,20,20,20","I just don't get why these type of art would be popular,-32,40,20","This color reminds me of poo,-46,60,20","looks like what my niece in 3rd grade did this afternoon,-50,80,20","I like the sophisticated brushwork,40,100,20","It reminds me of a candy land dream I had,36,120,20","Jen","It reminds me of a candy land dream I had,36,120,20","Erika","I like the sophisticated brushwork,40,100,20","Allison","looks like a lot of things going on in the mist,20,20,20","0"
"16737","","survey-text","27","145290","0.0-27.0-0.0","A3KK5FKG3L0Q66","","","","{""Q0"":""The texture in the artwork is extremely interesting. It seems rustic.""}","","","","","","","","","","","","","","","","","","","","","","",""
"4878.5","","image-slider-response","28","150172","0.0-28.0","A3KK5FKG3L0Q66","","","","","30","","","","","","","","","","","","","","","","","","","","","",""
"1935","","image-button-response","29","155176","0.0-29.0","A3KK5FKG3L0Q66","img_art/ins/2.jpg","1","","","","","","","","","","","","","","","","","","","","","","","","",""
"2357","","image-button-response","30","157538","0.0-30.0","A3KK5FKG3L0Q66","img_art/ins/2.jpg","1","","","","","","","","","","","","","","","","","","","","","","","","",""
"3055","","image-button-response","31","160596","0.0-31.0-0.0","A3KK5FKG3L0Q66","img_art/ins/2.jpg","4","","","","","","","","","","","","","","","","","","","","","","","","",""
"469","","image-button-response","32","161068","0.0-32.0-0.0","A3KK5FKG3L0Q66","img_art/ins/2.jpg","5","","","","","","","","","","","","","","","","","","","","","","","","",""
"null","","html-keyboard-response","33","162571","0.0-33.0","A3KK5FKG3L0Q66","<p style=""font-size: 48px;"">+</p>","","","","","null","allTrialResponses","1500","1","-1","img_art/ins/2.jpg","30","The texture in the artwork is extremely interesting. It seems rustic.","Allison,Kara,Katie,Jenna,Erika,Jen","I don't have strong feelings about this,10,20,20","I like the blocks of color arrangements,30,160,20","too much color!,-28,180,20","One of my pet peevs,-48,140,20","I would never be able to compose a sophisticated pallete like this,48,100,20","It reminds me of a fireplace,36,120,20","Kara","I like the blocks of color arrangements,30,160,20","Erika","I would never be able to compose a sophisticated pallete like this,48,100,20","Jen","It reminds me of a fireplace,36,120,20","0"
"19323","","survey-text","34","181906","0.0-34.0-0.0","A3KK5FKG3L0Q66","","","","{""Q0"":""This painting reminds me of an icy snowstorm. It feels cold.""}","","","","","","","","","","","","","","","","","","","","","","",""
"3060.699999999255","","image-slider-response","35","184969","0.0-35.0","A3KK5FKG3L0Q66","","","","","37","","","","","","","","","","","","","","","","","","","","","",""
"null","","image-button-response","36","189972","0.0-36.0","A3KK5FKG3L0Q66","img_art/ins/3.jpg","null","","","","","","","","","","","","","","","","","","","","","","","","",""
"3112","","image-button-response","37","193087","0.0-37.0","A3KK5FKG3L0Q66","img_art/ins/3.jpg","5","","","","","","","","","","","","","","","","","","","","","","","","",""
"1434","","image-button-response","38","194525","0.0-38.0-0.0","A3KK5FKG3L0Q66","img_art/ins/3.jpg","0","","","","","","","","","","","","","","","","","","","","","","","","",""
"2222","","image-button-response","39","196749","0.0-39.0-0.0","A3KK5FKG3L0Q66","img_art/ins/3.jpg","4","","","","","","","","","","","","","","","","","","","","","","","","",""
"null","","html-keyboard-response","40","197252","0.0-40.0","A3KK5FKG3L0Q66","<p style=""font-size: 48px;"">+</p>","","","","","null","allTrialResponses","500","1","0","img_art/ins/3.jpg","37","This painting reminds me of an icy snowstorm. It feels cold.","Mary,Kara,Rose,Leslie,Erika,Jen","I like the overlapping of brushes,41,220,20","calming blue is very nice,36,160,20","My daily routine, it's depressing,-20,240,20","It's an alright work,15,200,20","I feel connected to the artist,40,100,20","I can feel a rainy day from this painting,18,120,20","Jen","I can feel a rainy day from this painting,18,120,20","Mary","I like the overlapping of brushes,41,220,20","Erika","I feel connected to the artist,40,100,20","0"
"9550","","image-button-response_instructions","41","206808","0.0-41.0","A3KK5FKG3L0Q66","","0","instructions","","","","","","","","","","","","","","","","","","","","","","","",""
"10892","","survey-likert","42","217704","0.0-42.0-0.0","A3KK5FKG3L0Q66","","","","{""Q0"":"""",""Q1"":0,""Q2"":1}","","","","","","","","","","","","","","","","","","","","","","",""
"2651","","survey-text","43","220360","0.0-43.0-0.0","A3KK5FKG3L0Q66","","","","{""Q0"":""rock""}","","","","","","","","","","","","","","","","","","","","","","",""
"17129","","survey-text","44","237490","0.0-44.0-0.0","A3KK5FKG3L0Q66","","","","{""Q0"":""I'm personally not a fan of the grainy texture. It seems overwhelming.""}","","","","","","","","","","","","","","","","","","","","","","",""
"3884.39999999851","","image-slider-response","45","241378","0.0-45.0","A3KK5FKG3L0Q66","","","","","-35","","","","","","","","","","","","","","","","","","","","","",""
"null","","image-button-response","46","246402","0.0-46.0","A3KK5FKG3L0Q66","img_art/12.jpg","null","","","","","","","","","","","","","","","","","","","","","","","","",""
"4941","","image-button-response","47","251347","0.0-47.0","A3KK5FKG3L0Q66","img_art/12.jpg","2","","","","","","","","","","","","","","","","","","","","","","","","",""
"1723","","image-button-response","48","253073","0.0-48.0-0.0","A3KK5FKG3L0Q66","img_art/12.jpg","0","","","","","","","","","","","","","","","","","","","","","","","","",""
"628","","image-button-response","49","253706","0.0-49.0-0.0","A3KK5FKG3L0Q66","img_art/12.jpg","4","","","","","","","","","","","","","","","","","","","","","","","","",""
"null","","html-keyboard-response","50","254209","0.0-50.0","A3KK5FKG3L0Q66","<p style=""font-size: 48px;"">+</p>","","","","","null","allTrialResponses","500","1","1","img_art/12.jpg","-35","I'm personally not a fan of the grainy texture. It seems overwhelming.","Amanda,Sara,Angelica,Mariah,Briana,Cassidy","The colors are beautiful and it has great composition,50,180,20","I don't like the blocking,-20,160,20","It's strange looking and unappealing.,-4,280,20","It is very bland and the colors are not cohesive.,-20,140,20","Interesting colors. I really dont like modern art though,24,400,20","I like the colors and pattern,21,140,20","Angelica","It's strange looking and unappealing.,-4,280,20","Amanda","The colors are beautiful and it has great composition,50,180,20","Briana","Interesting colors. I really dont like modern art though,24,400,20","0"
"15494","","survey-text","51","269710","0.0-51.0-0.0","A3KK5FKG3L0Q66","","","","{""Q0"":""You can see the pure rage and emotion put into this artwork.""}","","","","","","","","","","","","","","","","","","","","","","",""
"4680.099999997765","","image-slider-response","52","274394","0.0-52.0","A3KK5FKG3L0Q66","","","","","50","","","","","","","","","","","","","","","","","","","","","",""
"null","","image-button-response","53","279397","0.0-53.0","A3KK5FKG3L0Q66","img_art/3.jpg","null","","","","","","","","","","","","","","","","","","","","","","","","",""
"3220","","image-button-response","54","282618","0.0-54.0","A3KK5FKG3L0Q66","img_art/3.jpg","0","","","","","","","","","","","","","","","","","","","","","","","","",""
"7218","","image-button-response","55","289838","0.0-55.0-0.0","A3KK5FKG3L0Q66","img_art/3.jpg","2","","","","","","","","","","","","","","","","","","","","","","","","",""
"1438","","image-button-response","56","291278","0.0-56.0-0.0","A3KK5FKG3L0Q66","img_art/3.jpg","4","","","","","","","","","","","","","","","","","","","","","","","","",""
"null","","html-keyboard-response","57","292781","0.0-57.0","A3KK5FKG3L0Q66","<p style=""font-size: 48px;"">+</p>","","","","","null","allTrialResponses","1500","1","2","img_art/3.jpg","50","You can see the pure rage and emotion put into this artwork.","Amanda,Bailey,Angelica,Jordan,Briana,Breanna","Looks like someone threw blood at a wall,-50,180,20","Just scribbles. People buy that?,-47,360,20","This is angry and childish looking.,-49,280,20","i don't like this, just looks like scribbles,-50,20,20","Sharp peaks look like sharp teeth,-37,400,20","Somebody scribbled on a piece of paper,-35,380,20","Amanda","Looks like someone threw blood at a wall,-50,180,20","Angelica","This is angry and childish looking.,-49,280,20","Briana","Sharp peaks look like sharp teeth,-37,400,20","0"
"17099","","survey-text","58","309888","0.0-58.0-0.0","A3KK5FKG3L0Q66","","","","{""Q0"":""Reminds me of someone who did drugs and then made art.""}","","","","","","","","","","","","","","","","","","","","","","",""
"4412.400000002235","","image-slider-response","59","314303","0.0-59.0","A3KK5FKG3L0Q66","","","","","10","","","","","","","","","","","","","","","","","","","","","",""
"null","","image-button-response","60","319307","0.0-60.0","A3KK5FKG3L0Q66","img_art/19.jpg","null","","","","","","","","","","","","","","","","","","","","","","","","",""
"3861","","image-button-response","61","323172","0.0-61.0","A3KK5FKG3L0Q66","img_art/19.jpg","3","","","","","","","","","","","","","","","","","","","","","","","","",""
"1269","","image-button-response","62","324441","0.0-62.0-0.0","A3KK5FKG3L0Q66","img_art/19.jpg","0","","","","","","","","","","","","","","","","","","","","","","","","",""
"2347","","image-button-response","63","326791","0.0-63.0-0.0","A3KK5FKG3L0Q66","img_art/19.jpg","4","","","","","","","","","","","","","","","","","","","","","","","","",""
"null","","html-keyboard-response","64","327793","0.0-64.0","A3KK5FKG3L0Q66","<p style=""font-size: 48px;"">+</p>","","","","","null","allTrialResponses","1000","1","3","img_art/19.jpg","10","Reminds me of someone who did drugs and then made art.","Amanda,Rebecca,Angelica,Mary,Briana,Danielle","Its just a nice painting, nothing too special but nothing negative,25,180,20","interesting take on depth (reminds me of those 1000 piece puzzles),2,100,20","This is like an ugly version of a Basquiat.,-24,280,20","I interpret an outdoor scene. It's good because it makes me want to look longer.,22,180,20","Its simple and the colors i like. It reminds me of chagall,34,400,20","It looks like as if it were portraying a village that was polluted? I don't like the theme anyway,-21,340,20","Mary","I interpret an outdoor scene. It's good because it makes me want to look longer.,22,180,20","Amanda","Its just a nice painting, nothing too special but nothing negative,25,180,20","Briana","Its simple and the colors i like. It reminds me of chagall,34,400,20","0"
"15947","","survey-text","65","343746","0.0-65.0-0.0","A3KK5FKG3L0Q66","","","","{""Q0"":""The colors blend together a little too much for my personal taste, but it reminds me of fall. ""}","","","","","","","","","","","","","","","","","","","","","","",""
"5008.800000000745","","image-slider-response","66","348756","0.0-66.0","A3KK5FKG3L0Q66","","","","","-6","","","","","","","","","","","","","","","","","","","","","",""
"null","","image-button-response","67","353763","0.0-67.0","A3KK5FKG3L0Q66","img_art/1.jpg","null","","","","","","","","","","","","","","","","","","","","","","","","",""
"2479","","image-button-response","68","356246","0.0-68.0","A3KK5FKG3L0Q66","img_art/1.jpg","4","","","","","","","","","","","","","","","","","","","","","","","","",""
"1333","","image-button-response","69","357584","0.0-69.0-0.0","A3KK5FKG3L0Q66","img_art/1.jpg","3","","","","","","","","","","","","","","","","","","","","","","","","",""
"1129","","image-button-response","70","358717","0.0-70.0-0.0","A3KK5FKG3L0Q66","img_art/1.jpg","1","","","","","","","","","","","","","","","","","","","","","","","","",""
"null","","html-keyboard-response","71","359220","0.0-71.0","A3KK5FKG3L0Q66","<p style=""font-size: 48px;"">+</p>","","","","","null","allTrialResponses","500","1","4","img_art/1.jpg","-6","The colors blend together a little too much for my personal taste, but it reminds me of fall. ","Amanda,Kristen,Sarah,Mary,Briana,Allison","Seems like one i previously saw in this survey,27,180,20","river, fall, cozy, warm,12,280,20","it's boring despite all the colors,-2,180,20","This piece feels soft and romantic to me. I do not care for so much orange though.,3,180,20","I like the colors. But it doesnt look like anything,27,400,20","Messy mix of primary colors.,-10,140,20","Briana","I like the colors. But it doesnt look like anything,27,400,20","Mary","This piece feels soft and romantic to me. I do not care for so much orange though.,3,180,20","Kristen","river, fall, cozy, warm,12,280,20","0"
"18604","","survey-text","72","377831","0.0-72.0-0.0","A3KK5FKG3L0Q66","","","","{""Q0"":""I love the oranges and warm tones in this photo. I just wish this didn't have the green scribbles.""}","","","","","","","","","","","","","","","","","","","","","","",""
"3115.300000000745","","image-slider-response","73","380949","0.0-73.0","A3KK5FKG3L0Q66","","","","","-30","","","","","","","","","","","","","","","","","","","","","",""
"null","","image-button-response","74","385952","0.0-74.0","A3KK5FKG3L0Q66","img_art/27.jpg","null","","","","","","","","","","","","","","","","","","","","","","","","",""
"4306","","image-button-response","75","390261","0.0-75.0","A3KK5FKG3L0Q66","img_art/27.jpg","5","","","","","","","","","","","","","","","","","","","","","","","","",""
"692","","image-button-response","76","390956","0.0-76.0-0.0","A3KK5FKG3L0Q66","img_art/27.jpg","2","","","","","","","","","","","","","","","","","","","","","","","","",""
"2487","","image-button-response","77","393449","0.0-77.0-0.0","A3KK5FKG3L0Q66","img_art/27.jpg","3","","","","","","","","","","","","","","","","","","","","","","","","",""
"null","","html-keyboard-response","78","394953","0.0-78.0","A3KK5FKG3L0Q66","<p style=""font-size: 48px;"">+</p>","","","","","null","allTrialResponses","1500","1","5","img_art/27.jpg","-30","I love the oranges and warm tones in this photo. I just wish this didn't have the green scribbles.","Melissa,Kristen,Andrea,Mary,Briana,Megan","reminds me of kandinsky,10,240,20","makes me think of fume clouds, low visibility,-28,280,20","I see a cathedral through the woods.,12,240,20","I like the layer upon layer of different mediums used here.,21,180,20","Unfinished something?,-30,400,20","Nice back ground with childish scribble on top,-30,200,20","Megan","Nice back ground with childish scribble on top,-30,200,20","Andrea","I see a cathedral through the woods.,12,240,20","Mary","I like the layer upon layer of different mediums used here.,21,180,20","0"
"2838","","survey-text","79","397801","0.0-79.0-0.0","A3KK5FKG3L0Q66","","","","{""Q0"":""sky""}","","","","","","","","","","","","","","","","","","","","","","",""
"27579","","survey-text","80","425384","0.0-80.0-0.0","A3KK5FKG3L0Q66","","","","{""Q0"":""It's hard to make out what the original scene is at first, but I love the technique. You can tell the person is a master.""}","","","","","","","","","","","","","","","","","","","","","","",""
"3446.199999999255","","image-slider-response","81","428835","0.0-81.0","A3KK5FKG3L0Q66","","","","","14","","","","","","","","","","","","","","","","","","","","","",""
"2325","","image-button-response","82","433838","0.0-82.0","A3KK5FKG3L0Q66","img_art/24.jpg","0","","","","","","","","","","","","","","","","","","","","","","","","",""
"900","","image-button-response","83","434742","0.0-83.0","A3KK5FKG3L0Q66","img_art/24.jpg","1","","","","","","","","","","","","","","","","","","","","","","","","",""
"1361","","image-button-response","84","436104","0.0-84.0-0.0","A3KK5FKG3L0Q66","img_art/24.jpg","2","","","","","","","","","","","","","","","","","","","","","","","","",""
"1836","","image-button-response","85","437945","0.0-85.0-0.0","A3KK5FKG3L0Q66","img_art/24.jpg","3","","","","","","","","","","","","","","","","","","","","","","","","",""
"null","","html-keyboard-response","86","438947","0.0-86.0","A3KK5FKG3L0Q66","<p style=""font-size: 48px;"">+</p>","","","","","null","allTrialResponses","1000","1","6","img_art/24.jpg","14","It's hard to make out what the original scene is at first, but I love the technique. You can tell the person is a master.","Kathryn,Michelle,Andrea,Mary,Kimberly,Megan","This is clear and healthy. It makes me think of unspoiled nature.,20,140,20","Looks like a waterfall or a brook, the colors are very nice,15,280,20","Waterfall, and I love the coloring.,48,240,20","This is sort of interesting. I think it's a bit busy. Less is more.,3,180,20","It just feels a little bland for me,-23,260,20","Classic palette lacks real world 3d construction,19,200,20","Michelle","Looks like a waterfall or a brook, the colors are very nice,15,280,20","Andrea","Waterfall, and I love the coloring.,48,240,20","Mary","This is sort of interesting. I think it's a bit busy. Less is more.,3,180,20","0"
"14440","","survey-text","87","453394","0.0-87.0-0.0","A3KK5FKG3L0Q66","","","","{""Q0"":""This makes me want to take a nice relaxing walk at night.""}","","","","","","","","","","","","","","","","","","","","","","",""
"3270","","image-slider-response","88","456668","0.0-88.0","A3KK5FKG3L0Q66","","","","","40","","","","","","","","","","","","","","","","","","","","","",""
"null","","image-button-response","89","461671","0.0-89.0","A3KK5FKG3L0Q66","img_art/17.jpg","null","","","","","","","","","","","","","","","","","","","","","","","","",""
"816","","image-button-response","90","462492","0.0-90.0","A3KK5FKG3L0Q66","img_art/17.jpg","0","","","","","","","","","","","","","","","","","","","","","","","","",""
"1181","","image-button-response","91","463676","0.0-91.0-0.0","A3KK5FKG3L0Q66","img_art/17.jpg","4","","","","","","","","","","","","","","","","","","","","","","","","",""
"1002","","image-button-response","92","464680","0.0-92.0-0.0","A3KK5FKG3L0Q66","img_art/17.jpg","0","","","","","","","","","","","","","","","","","","","","","","","","",""
"4818","","image-button-response","93","471949","0.0-92.1-0.1","A3KK5FKG3L0Q66","img_art/17.jpg","3","","","","","","","","","","","","","","","","","","","","","","","","",""
"null","","html-keyboard-response","94","472951","0.0-93.0","A3KK5FKG3L0Q66","<p style=""font-size: 48px;"">+</p>","","","","","null","allTrialResponses","1000","1","7","img_art/17.jpg","40","This makes me want to take a nice relaxing walk at night.","Rachel,Michelle,Andrea,Mary,Haley,Alexis","Reminds me of a beautiful tree growing in a courtyard. I like the light and airy technique used.,34,80,20","I can tell there are tress and maybe some doors but I'm not a fan of the style,-2,280,20","A coming storm but I think I would appreciate it more with more contrast.,-12,240,20","The colors are nice and soft but not very complimentary.,7,180,20","Colors and composition are beautiful. I would hang this in my home.,50,220,20","Love the color and nature motif,36,100,20","Rachel","Reminds me of a beautiful tree growing in a courtyard. I like the light and airy technique used.,34,80,20","Haley","Colors and composition are beautiful. I would hang this in my home.,50,220,20","Mary","The colors are nice and soft but not very complimentary.,7,180,20","2"
"22445","","survey-text","95","495402","0.0-94.0-0.0","A3KK5FKG3L0Q66","","","","{""Q0"":""I can see where the artist intended, but overall, I think less is more. It's too busy for my eyes.""}","","","","","","","","","","","","","","","","","","","","","","",""
"2509.699999999255","","image-slider-response","96","497916","0.0-95.0","A3KK5FKG3L0Q66","","","","","-32","","","","","","","","","","","","","","","","","","","","","",""
"null","","image-button-response","97","502920","0.0-96.0","A3KK5FKG3L0Q66","img_art/2.jpg","null","","","","","","","","","","","","","","","","","","","","","","","","",""
"1246","","image-button-response","98","504169","0.0-97.0","A3KK5FKG3L0Q66","img_art/2.jpg","0","","","","","","","","","","","","","","","","","","","","","","","","",""
"2181","","image-button-response","99","506353","0.0-98.0-0.0","A3KK5FKG3L0Q66","img_art/2.jpg","2","","","","","","","","","","","","","","","","","","","","","","","","",""
"3556","","image-button-response","100","509911","0.0-99.0-0.0","A3KK5FKG3L0Q66","img_art/2.jpg","1","","","","","","","","","","","","","","","","","","","","","","","","",""
"null","","html-keyboard-response","101","510923","0.0-100.0","A3KK5FKG3L0Q66","<p style=""font-size: 48px;"">+</p>","","","","","null","allTrialResponses","1000","1","8","img_art/2.jpg","-32","I can see where the artist intended, but overall, I think less is more. It's too busy for my eyes.","Rachel,Katie,Vanessa,Mary,Haley,Abigail","I am not a fan of the color story. I am confused by the piece and therefore do not like it.,-21,80,20","Doesn't look like anything. Just a blob of colors.,1,160,20","I don't like the abstract nature of this painting or the colors used.,-50,380,20","This looks like a professional abstract drawing. I like the shapes.,7,180,20","My first thought was that it looks like a children's art project,-30,220,20","Reminds me of my baby brother,11,20,20","Rachel","I am not a fan of the color story. I am confused by the piece and therefore do not like it.,-21,80,20","Vanessa","I don't like the abstract nature of this painting or the colors used.,-50,380,20","Katie","Doesn't look like anything. Just a blob of colors.,1,160,20","2"
"23998","","survey-text","102","534927","0.0-101.0-0.0","A3KK5FKG3L0Q66","","","","{""Q0"":""The artwork reminds me of someone in pain, expressing themselves. Very cool.""}","","","","","","","","","","","","","","","","","","","","","","",""
"3557.39999999851","","image-slider-response","103","538488","0.0-102.0","A3KK5FKG3L0Q66","","","","","43","","","","","","","","","","","","","","","","","","","","","",""
"null","","image-button-response","104","543492","0.0-103.0","A3KK5FKG3L0Q66","img_art/29.jpg","null","","","","","","","","","","","","","","","","","","","","","","","","",""
"4375","","image-button-response","105","547870","0.0-104.0","A3KK5FKG3L0Q66","img_art/29.jpg","5","","","","","","","","","","","","","","","","","","","","","","","","",""
"3364","","image-button-response","106","551236","0.0-105.0-0.0","A3KK5FKG3L0Q66","img_art/29.jpg","3","","","","","","","","","","","","","","","","","","","","","","","","",""
"2397","","image-button-response","107","553636","0.0-106.0-0.0","A3KK5FKG3L0Q66","img_art/29.jpg","1","","","","","","","","","","","","","","","","","","","","","","","","",""
"null","","html-keyboard-response","108","554139","0.0-107.0","A3KK5FKG3L0Q66","<p style=""font-size: 48px;"">+</p>","","","","","null","allTrialResponses","500","1","9","img_art/29.jpg","43","The artwork reminds me of someone in pain, expressing themselves. Very cool.","Rachel,Katie,Vanessa,Jasmine,Margaret,Lindsey","It looks like someone did not like their art and drew an x over it.,-32,80,20","Don't get it! Too dark and random. Perhaps it was the start of something but the artist stopped and cancelled out the work.,-50,160,20","I hate the red x over everything, hate the black hate how hopeless this is.,-50,380,20","I like the usage of blacks and greys in this,8,340,20","this does nothing for me. hate the colors. hate the design,-50,100,20","Again, ugly colors and I'm not a fan of abstract. This looks like the view into a garbage dump.,-50,400,20","Lindsey","Again, ugly colors and I'm not a fan of abstract. This looks like the view into a garbage dump.,-50,400,20","Jasmine","I like the usage of blacks and greys in this,8,340,20","Katie","Don't get it! Too dark and random. Perhaps it was the start of something but the artist stopped and cancelled out the work.,-50,160,20","2"
"11307","","survey-text","109","565450","0.0-108.0-0.0","A3KK5FKG3L0Q66","","","","{""Q0"":""This one trips me out! It makes me feel dizzy.""}","","","","","","","","","","","","","","","","","","","","","","",""
"5264.400000002235","","image-slider-response","110","570716","0.0-109.0","A3KK5FKG3L0Q66","","","","","-2","","","","","","","","","","","","","","","","","","","","","",""
"null","","image-button-response","111","575721","0.0-110.0","A3KK5FKG3L0Q66","img_art/8.jpg","null","","","","","","","","","","","","","","","","","","","","","","","","",""
"3831","","image-button-response","112","579555","0.0-111.0","A3KK5FKG3L0Q66","img_art/8.jpg","2","","","","","","","","","","","","","","","","","","","","","","","","",""
"1067","","image-button-response","113","580627","0.0-112.0-0.0","A3KK5FKG3L0Q66","img_art/8.jpg","0","","","","","","","","","","","","","","","","","","","","","","","","",""
"2229","","image-button-response","114","582859","0.0-113.0-0.0","A3KK5FKG3L0Q66","img_art/8.jpg","3","","","","","","","","","","","","","","","","","","","","","","","","",""
"null","","html-keyboard-response","115","584362","0.0-114.0","A3KK5FKG3L0Q66","<p style=""font-size: 48px;"">+</p>","","","","","null","allTrialResponses","1500","1","10","img_art/8.jpg","-2","This one trips me out! It makes me feel dizzy.","Molly,Katie,Amber,Jasmine,Paige,Lindsey","Different styles make this picture outstanding.,20,340,20","I like the colors. But I don't like the faces, they look distraught. Faces and sharp shapes make me anxious,1,160,20","Very colorful. Looks like the hustle and bustle of a city.,11,200,20","Not too bad despite the chaos.,16,340,20","Nervous like being up high,10,60,20","Pleasant colors, lots of interest. Not sure what's going on but I like it.,20,400,20","Amber","Very colorful. Looks like the hustle and bustle of a city.,11,200,20","Molly","Different styles make this picture outstanding.,20,340,20","Jasmine","Not too bad despite the chaos.,16,340,20","2"
"2402","","survey-text","116","586769","0.0-115.0-0.0","A3KK5FKG3L0Q66","","","","{""Q0"":""our""}","","","","","","","","","","","","","","","","","","","","","","",""
"11469","","survey-text","117","598240","0.0-116.0-0.0","A3KK5FKG3L0Q66","","","","{""Q0"":""I'm in love with the color choices the artist made. ""}","","","","","","","","","","","","","","","","","","","","","","",""
"2142.300000000745","","image-slider-response","118","600384","0.0-117.0","A3KK5FKG3L0Q66","","","","","50","","","","","","","","","","","","","","","","","","","","","",""
"null","","image-button-response","119","605389","0.0-118.0","A3KK5FKG3L0Q66","img_art/5.jpg","null","","","","","","","","","","","","","","","","","","","","","","","","",""
"3272","","image-button-response","120","608667","0.0-119.0","A3KK5FKG3L0Q66","img_art/5.jpg","5","","","","","","","","","","","","","","","","","","","","","","","","",""
"2729","","image-button-response","121","611399","0.0-120.0-0.0","A3KK5FKG3L0Q66","img_art/5.jpg","1","","","","","","","","","","","","","","","","","","","","","","","","",""
"742","","image-button-response","122","612145","0.0-121.0-0.0","A3KK5FKG3L0Q66","img_art/5.jpg","3","","","","","","","","","","","","","","","","","","","","","","","","",""
"null","","html-keyboard-response","123","613647","0.0-122.0","A3KK5FKG3L0Q66","<p style=""font-size: 48px;"">+</p>","","","","","null","allTrialResponses","1500","1","11","img_art/5.jpg","50","I'm in love with the color choices the artist made. ","Molly,Gabriela,Amber,Jasmine,Emily,Erica","Very non-dynamic painting, dislike it.,-10,340,20","I am confused as to what this is supposed to be,6,140,20","Missing something,-5,200,20","Not sure what to say about this piece honestly. It's okay I guess.,0,340,20","Complete garbage. Looks like a kid drew it.,-50,40,20","positive colours; yellow calls attention,6,80,20","Erica","positive colours; yellow calls attention,6,80,20","Gabriela","I am confused as to what this is supposed to be,6,140,20","Jasmine","Not sure what to say about this piece honestly. It's okay I guess.,0,340,20","2"
"25259","","survey-text","124","638911","0.0-123.0-0.0","A3KK5FKG3L0Q66","","","","{""Q0"":""I can feel the pain the artist was trying to capture, I can sense the devastation. ""}","","","","","","","","","","","","","","","","","","","","","","",""
"2884.60000000149","","image-slider-response","125","641797","0.0-124.0","A3KK5FKG3L0Q66","","","","","36","","","","","","","","","","","","","","","","","","","","","",""
"null","","image-button-response","126","646800","0.0-125.0","A3KK5FKG3L0Q66","img_art/21.jpg","null","","","","","","","","","","","","","","","","","","","","","","","","",""
"2641","","image-button-response","127","649443","0.0-126.0","A3KK5FKG3L0Q66","img_art/21.jpg","3","","","","","","","","","","","","","","","","","","","","","","","","",""
"1976","","image-button-response","128","651422","0.0-127.0-0.0","A3KK5FKG3L0Q66","img_art/21.jpg","1","","","","","","","","","","","","","","","","","","","","","","","","",""
"557","","image-button-response","129","651980","0.0-128.0-0.0","A3KK5FKG3L0Q66","img_art/21.jpg","0","","","","","","","","","","","","","","","","","","","","","","","","",""
"null","","html-keyboard-response","130","652491","0.0-129.0","A3KK5FKG3L0Q66","<p style=""font-size: 48px;"">+</p>","","","","","null","allTrialResponses","500","1","12","img_art/21.jpg","36","I can feel the pain the artist was trying to capture, I can sense the devastation. ","Hailey,Gabriela,Meghan,Jasmine,Courtney,Erica","ocean and rocks at the beach,11,200,20","It makes me feel mellow or ""chill"". It makes me have a positive and calm mood,42,140,20","looks like a sunrise, great colors,40,220,20","The blues make me feel sadder as my mood is already not the best right now,-10,340,20","Another ship on fire.,-10,280,20","Relaxing and easy to look at,27,80,20","Jasmine","The blues make me feel sadder as my mood is already not the best right now,-10,340,20","Gabriela","It makes me feel mellow or ""chill"". It makes me have a positive and calm mood,42,140,20","Hailey","ocean and rocks at the beach,11,200,20","2"
"15083","","survey-text","131","667580","0.0-130.0-0.0","A3KK5FKG3L0Q66","","","","{""Q0"":""Less is more. The colors are a little too muted and blend in too much for me.""}","","","","","","","","","","","","","","","","","","","","","","",""
"2437.699999999255","","image-slider-response","132","670020","0.0-131.0","A3KK5FKG3L0Q66","","","","","-40","","","","","","","","","","","","","","","","","","","","","",""
"null","","image-button-response","133","675024","0.0-132.0","A3KK5FKG3L0Q66","img_art/28.jpg","null","","","","","","","","","","","","","","","","","","","","","","","","",""
"1241","","image-button-response","134","676268","0.0-133.0","A3KK5FKG3L0Q66","img_art/28.jpg","2","","","","","","","","","","","","","","","","","","","","","","","","",""
"2427","","image-button-response","135","678699","0.0-134.0-0.0","A3KK5FKG3L0Q66","img_art/28.jpg","3","","","","","","","","","","","","","","","","","","","","","","","","",""
"3236","","image-button-response","136","681940","0.0-135.0-0.0","A3KK5FKG3L0Q66","img_art/28.jpg","0","","","","","","","","","","","","","","","","","","","","","","","","",""
"null","","html-keyboard-response","137","683443","0.0-136.0","A3KK5FKG3L0Q66","<p style=""font-size: 48px;"">+</p>","","","","","null","allTrialResponses","1500","1","13","img_art/28.jpg","-40","Less is more. The colors are a little too muted and blend in too much for me.","Hailey,Gabriela,Alyssa,Jasmine,Maria,Sophia","an old woman in a wheelchair. sad,-35,200,20","The brown and green colors used look dull and unappealing,-30,140,20","Not a fan of the bleak and dreary colors,-10,160,20","Colors too dull for me,-10,340,20","I want to like it, but I'm not really sure what to make of it,2,120,20","I think this may have to do with humpty dumpty?,-7,280,20","Alyssa","Not a fan of the bleak and dreary colors,-10,160,20","Jasmine","Colors too dull for me,-10,340,20","Hailey","an old woman in a wheelchair. sad,-35,200,20","2"
"14517","","survey-text","138","697967","0.0-137.0-0.0","A3KK5FKG3L0Q66","","","","{""Q0"":""Seems like a peaceful small town. I would have gone with a different color palette. ""}","","","","","","","","","","","","","","","","","","","","","","",""
"6298.89999999851","","image-slider-response","139","704268","0.0-138.0","A3KK5FKG3L0Q66","","","","","5","","","","","","","","","","","","","","","","","","","","","",""
"null","","image-button-response","140","709273","0.0-139.0","A3KK5FKG3L0Q66","img_art/26.jpg","null","","","","","","","","","","","","","","","","","","","","","","","","",""
"5467","","image-button-response","141","714743","0.0-140.0","A3KK5FKG3L0Q66","img_art/26.jpg","1","","","","","","","","","","","","","","","","","","","","","","","","",""
"603","","image-button-response","142","715349","0.0-141.0-0.0","A3KK5FKG3L0Q66","img_art/26.jpg","3","","","","","","","","","","","","","","","","","","","","","","","","",""
"2028","","image-button-response","143","717379","0.0-142.0-0.0","A3KK5FKG3L0Q66","img_art/26.jpg","2","","","","","","","","","","","","","","","","","","","","","","","","",""
"null","","html-keyboard-response","144","717881","0.0-143.0","A3KK5FKG3L0Q66","<p style=""font-size: 48px;"">+</p>","","","","","null","allTrialResponses","500","1","14","img_art/26.jpg","5","Seems like a peaceful small town. I would have gone with a different color palette. ","Hailey,Kelly,Alyssa,Jasmine,Autumn,Brittany","bedroom in the outdoors. warm,9,200,20","Very subdued, but wouldn't give it a 2nd notice.,4,220,20","Its pretty.And a nice use of water colors.,25,160,20","This seems like a quiet painting,11,340,20","Murky, messy, kid like.,-45,340,20","It looks boring and too rough.,-9,40,20","Kelly","Very subdued, but wouldn't give it a 2nd notice.,4,220,20","Jasmine","This seems like a quiet painting,11,340,20","Alyssa","Its pretty.And a nice use of water colors.,25,160,20","2"
"17968","","survey-text","145","735856","0.0-144.0-0.0","A3KK5FKG3L0Q66","","","","{""Q0"":""Seems vintage in style and something my grandmother would have hung up.""}","","","","","","","","","","","","","","","","","","","","","","",""
"3538.10000000149","","image-slider-response","146","739399","0.0-145.0","A3KK5FKG3L0Q66","","","","","12","","","","","","","","","","","","","","","","","","","","","",""
"null","","image-button-response","147","744406","0.0-146.0","A3KK5FKG3L0Q66","img_art/14.jpg","null","","","","","","","","","","","","","","","","","","","","","","","","",""
"672","","image-button-response","148","745082","0.0-147.0","A3KK5FKG3L0Q66","img_art/14.jpg","0","","","","","","","","","","","","","","","","","","","","","","","","",""
"2413","","image-button-response","149","747497","0.0-148.0-0.0","A3KK5FKG3L0Q66","img_art/14.jpg","2","","","","","","","","","","","","","","","","","","","","","","","","",""
"706","","image-button-response","150","748206","0.0-149.0-0.0","A3KK5FKG3L0Q66","img_art/14.jpg","3","","","","","","","","","","","","","","","","","","","","","","","","",""
"null","","html-keyboard-response","151","749208","0.0-150.0","A3KK5FKG3L0Q66","<p style=""font-size: 48px;"">+</p>","","","","","null","allTrialResponses","1000","1","15","img_art/14.jpg","12","Seems vintage in style and something my grandmother would have hung up.","Savannah,Kelly,Alyssa,Jasmine,Cynthia,Alicia","Again. This is pretty neutral, leaning dislike.,-18,200,20","Its cute, but not my favorite.,8,220,20","Beautiful tree,the use of water colors makes it soothing to look at,37,160,20","The colors are nice and it reminds me of a shrub or tree,10,340,20","unsure and dull feeling,-1,320,20","ok, gloomy though.,12,120,20","Savannah","Again. This is pretty neutral, leaning dislike.,-18,200,20","Alyssa","Beautiful tree,the use of water colors makes it soothing to look at,37,160,20","Jasmine","The colors are nice and it reminds me of a shrub or tree,10,340,20","2"
"3091","","survey-text","152","752307","0.0-151.0-0.0","A3KK5FKG3L0Q66","","","","{""Q0"":""course""}","","","","","","","","","","","","","","","","","","","","","","",""
"8058","","survey-text","153","760366","0.0-152.0-0.0","A3KK5FKG3L0Q66","","","","{""Q0"":""The textures make me feel uncomfortable.""}","","","","","","","","","","","","","","","","","","","","","","",""
"2617.5","","image-slider-response","154","762988","0.0-153.0","A3KK5FKG3L0Q66","","","","","-50","","","","","","","","","","","","","","","","","","","","","",""
"null","","image-button-response","155","767992","0.0-154.0","A3KK5FKG3L0Q66","img_art/7.jpg","null","","","","","","","","","","","","","","","","","","","","","","","","",""
"1218","","image-button-response","156","769214","0.0-155.0","A3KK5FKG3L0Q66","img_art/7.jpg","5","","","","","","","","","","","","","","","","","","","","","","","","",""
"1220","","image-button-response","157","770438","0.0-156.0-0.0","A3KK5FKG3L0Q66","img_art/7.jpg","2","","","","","","","","","","","","","","","","","","","","","","","","",""
"656","","image-button-response","158","771098","0.0-157.0-0.0","A3KK5FKG3L0Q66","img_art/7.jpg","0","","","","","","","","","","","","","","","","","","","","","","","","",""
"null","","html-keyboard-response","159","771599","0.0-158.0","A3KK5FKG3L0Q66","<p style=""font-size: 48px;"">+</p>","","","","","null","allTrialResponses","500","1","16","img_art/7.jpg","-50","The textures make me feel uncomfortable.","Savannah,Taylor,Alyssa,Jasmine,Kaylee,Caroline","More saturated color, even more interpretations to have.,44,200,20","It makes me think of new archaeology discoveries,15,340,20","It looks like someone took a picture of a muddy ground and called it art.,-41,160,20","It just reminds me of dirt,-10,340,20","some rocks on a mars?,7,200,20","Looks like dirt on the ground. Makes me feel unclean,-37,100,20","Caroline","Looks like dirt on the ground. Makes me feel unclean,-37,100,20","Alyssa","It looks like someone took a picture of a muddy ground and called it art.,-41,160,20","Savannah","More saturated color, even more interpretations to have.,44,200,20","2"
"22854","","survey-text","160","794461","0.0-159.0-0.0","A3KK5FKG3L0Q66","","","","{""Q0"":""I like the overall spooky feeling. The ghost in the background is eerie.""}","","","","","","","","","","","","","","","","","","","","","","",""
"3444","","image-slider-response","161","797908","0.0-160.0","A3KK5FKG3L0Q66","","","","","50","","","","","","","","","","","","","","","","","","","","","",""
"null","","image-button-response","162","802913","0.0-161.0","A3KK5FKG3L0Q66","img_art/18.jpg","null","","","","","","","","","","","","","","","","","","","","","","","","",""
"514","","image-button-response","163","803430","0.0-162.0","A3KK5FKG3L0Q66","img_art/18.jpg","1","","","","","","","","","","","","","","","","","","","","","","","","",""
"1872","","image-button-response","164","805305","0.0-163.0-0.0","A3KK5FKG3L0Q66","img_art/18.jpg","3","","","","","","","","","","","","","","","","","","","","","","","","",""
"2100","","image-button-response","165","807409","0.0-164.0-0.0","A3KK5FKG3L0Q66","img_art/18.jpg","5","","","","","","","","","","","","","","","","","","","","","","","","",""
"null","","html-keyboard-response","166","808911","0.0-165.0","A3KK5FKG3L0Q66","<p style=""font-size: 48px;"">+</p>","","","","","null","allTrialResponses","1500","1","17","img_art/18.jpg","50","I like the overall spooky feeling. The ghost in the background is eerie.","Savannah,Shannon,Alyssa,Kaitlin,Cheyenne,Caroline","Accents make this piece.,21,200,20","I think its supposed to be a boat and the boat looks kind of interesting to me.,10,220,20","There are alot of elements to this painting and a good mix of colors,32,160,20","I really like this one - there seems to be a story behind it,32,60,20","Too abstract to me,-30,200,20","I think of the ocean and a boat tossed about on the waves. In the upper left is a figure. It is pleasant,30,100,20","Shannon","I think its supposed to be a boat and the boat looks kind of interesting to me.,10,220,20","Kaitlin","I really like this one - there seems to be a story behind it,32,60,20","Caroline","I think of the ocean and a boat tossed about on the waves. In the upper left is a figure. It is pleasant,30,100,20","2"
"17302","","survey-text","167","826220","0.0-166.0-0.0","A3KK5FKG3L0Q66","","","","{""Q0"":""Personally, I love the dark aesthetics. The hint of blue stands out.""}","","","","","","","","","","","","","","","","","","","","","","",""
"2236.599999997765","","image-slider-response","168","828459","0.0-167.0","A3KK5FKG3L0Q66","","","","","50","","","","","","","","","","","","","","","","","","","","","",""
"null","","image-button-response","169","833463","0.0-168.0","A3KK5FKG3L0Q66","img_art/15.jpg","null","","","","","","","","","","","","","","","","","","","","","","","","",""
"536","","image-button-response","170","834000","0.0-169.0","A3KK5FKG3L0Q66","img_art/15.jpg","4","","","","","","","","","","","","","","","","","","","","","","","","",""
"5443","","image-button-response","171","839445","0.0-170.0-0.0","A3KK5FKG3L0Q66","img_art/15.jpg","2","","","","","","","","","","","","","","","","","","","","","","","","",""
"1711","","image-button-response","172","841161","0.0-171.0-0.0","A3KK5FKG3L0Q66","img_art/15.jpg","5","","","","","","","","","","","","","","","","","","","","","","","","",""
"null","","html-keyboard-response","173","842168","0.0-172.0","A3KK5FKG3L0Q66","<p style=""font-size: 48px;"">+</p>","","","","","null","allTrialResponses","1000","1","18","img_art/15.jpg","50","Personally, I love the dark aesthetics. The hint of blue stands out.","Claire,Shannon,Jessica,Kaitlin,Crystal,Caroline","it's alright but a little cluttered,14,260,20","Not enough colors to make it interesting and doesn't look like anything is happening.,-20,220,20","I think it's trying to execute a cool idea, but unfortunately it doesn't appeal,5,400,20","This one seems a bit frightening,-19,60,20","The blotted black spots create a nice contrast between the brush strokes within the center and sides. I like it.,41,300,20","Makes me think of a bush and flowers and spring and happy warm times,25,100,20","Crystal","The blotted black spots create a nice contrast between the brush strokes within the center and sides. I like it.,41,300,20","Jessica","I think it's trying to execute a cool idea, but unfortunately it doesn't appeal,5,400,20","Caroline","Makes me think of a bush and flowers and spring and happy warm times,25,100,20","2"
"12318","","survey-text","174","854490","0.0-173.0-0.0","A3KK5FKG3L0Q66","","","","{""Q0"":""This painting feels like a weird dream I've been in before.""}","","","","","","","","","","","","","","","","","","","","","","",""
"2477.699999999255","","image-slider-response","175","856970","0.0-174.0","A3KK5FKG3L0Q66","","","","","-9","","","","","","","","","","","","","","","","","","","","","",""
"null","","image-button-response","176","861973","0.0-175.0","A3KK5FKG3L0Q66","img_art/11.jpg","null","","","","","","","","","","","","","","","","","","","","","","","","",""
"2098","","image-button-response","177","864075","0.0-176.0","A3KK5FKG3L0Q66","img_art/11.jpg","2","","","","","","","","","","","","","","","","","","","","","","","","",""
"585","","image-button-response","178","864664","0.0-177.0-0.0","A3KK5FKG3L0Q66","img_art/11.jpg","3","","","","","","","","","","","","","","","","","","","","","","","","",""
"1330","","image-button-response","179","865995","0.0-178.0-0.0","A3KK5FKG3L0Q66","img_art/11.jpg","4","","","","","","","","","","","","","","","","","","","","","","","","",""
"null","","html-keyboard-response","180","866498","0.0-179.0","A3KK5FKG3L0Q66","<p style=""font-size: 48px;"">+</p>","","","","","null","allTrialResponses","500","1","19","img_art/11.jpg","-9","This painting feels like a weird dream I've been in before.","Caitlin,Nicole,Jessica,Destiny,Crystal,Caroline","Busy, busy oceanside city.,-10,80,20","Those vertical strokes are to die for and I love these colors !!!,50,20,20","This looks cool, and definitely comes to life in a way,36,400,20","life is a highway,12,360,20","Enjoyed the lines representing different paths that encompass different entities,20,300,20","Makes me think of far away places and traveling. Makes me feel like wandering,20,100,20","Jessica","This looks cool, and definitely comes to life in a way,36,400,20","Destiny","life is a highway,12,360,20","Crystal","Enjoyed the lines representing different paths that encompass different entities,20,300,20","2"
"18391","","survey-text","181","884897","0.0-180.0-0.0","A3KK5FKG3L0Q66","","","","{""Q0"":""The colors are a little too saturated. Are those pin up women in the middle?""}","","","","","","","","","","","","","","","","","","","","","","",""
"2135.60000000149","","image-slider-response","182","887035","0.0-181.0","A3KK5FKG3L0Q66","","","","","14","","","","","","","","","","","","","","","","","","","","","",""
"null","","image-button-response","183","892038","0.0-182.0","A3KK5FKG3L0Q66","img_art/23.jpg","null","","","","","","","","","","","","","","","","","","","","","","","","",""
"876","","image-button-response","184","892915","0.0-183.0","A3KK5FKG3L0Q66","img_art/23.jpg","3","","","","","","","","","","","","","","","","","","","","","","","","",""
"2442","","image-button-response","185","895360","0.0-184.0-0.0","A3KK5FKG3L0Q66","img_art/23.jpg","4","","","","","","","","","","","","","","","","","","","","","","","","",""
"1984","","image-button-response","186","897347","0.0-185.0-0.0","A3KK5FKG3L0Q66","img_art/23.jpg","5","","","","","","","","","","","","","","","","","","","","","","","","",""
"null","","html-keyboard-response","187","898850","0.0-186.0","A3KK5FKG3L0Q66","<p style=""font-size: 48px;"">+</p>","","","","","null","allTrialResponses","1500","1","20","img_art/23.jpg","14","The colors are a little too saturated. Are those pin up women in the middle?","Madison,Cassandra,Jessica,Destiny,Crystal,Makayla","Looks celebratory and joyful! However, the photograph does not do the original work's colors justice.,27,60,20","I had a very neutral feeling to this,no feelings at all.,1,120,20","This is very cool!,24,400,20","This looks like the cover art for a scene band,-29,360,20","I love the funky colors accompanied by perhaps dancing silhouettes. I love the white against the chaotic surroundings.,50,300,20","Reminds me of disco/70's, not my favorite design,-12,80,20","Destiny","This looks like the cover art for a scene band,-29,360,20","Crystal","I love the funky colors accompanied by perhaps dancing silhouettes. I love the white against the chaotic surroundings.,50,300,20","Makayla","Reminds me of disco/70's, not my favorite design,-12,80,20","2"
"2398","","survey-text","188","901258","0.0-187.0-0.0","A3KK5FKG3L0Q66","","","","{""Q0"":""we""}","","","","","","","","","","","","","","","","","","","","","","",""
"10262","","survey-text","189","911522","0.0-188.0-0.0","A3KK5FKG3L0Q66","","","","{""Q0"":""The brush strokes in this are calming to look at!""}","","","","","","","","","","","","","","","","","","","","","","",""
"2619.699999999255","","image-slider-response","190","914143","0.0-189.0","A3KK5FKG3L0Q66","","","","","34","","","","","","","","","","","","","","","","","","","","","",""
"null","","image-button-response","191","919147","0.0-190.0","A3KK5FKG3L0Q66","img_art/30.jpg","null","","","","","","","","","","","","","","","","","","","","","","","","",""
"539","","image-button-response","192","919687","0.0-191.0","A3KK5FKG3L0Q66","img_art/30.jpg","4","","","","","","","","","","","","","","","","","","","","","","","","",""
"3147","","image-button-response","193","922836","0.0-192.0-0.0","A3KK5FKG3L0Q66","img_art/30.jpg","0","","","","","","","","","","","","","","","","","","","","","","","","",""
"2342","","image-button-response","194","925183","0.0-193.0-0.0","A3KK5FKG3L0Q66","img_art/30.jpg","2","","","","","","","","","","","","","","","","","","","","","","","","",""
"null","","html-keyboard-response","195","925686","0.0-194.0","A3KK5FKG3L0Q66","<p style=""font-size: 48px;"">+</p>","","","","","null","allTrialResponses","500","1","21","img_art/30.jpg","34","The brush strokes in this are calming to look at!","Mackenzie,Gabrielle,Catherine,Destiny,Crystal,Makayla","I like the forefront design.,10,20,20","looks very childish, like your kid did it,-33,160,20","connection, Everything is connected even in contrast.,42,160,20","literally stupid I made this with as seen on tv products when I was 7,-42,360,20","An interesting design but don't like the colors. I value the time and effort put into it, but not a huge fan.,10,300,20","I feel nothing towards,-1,80,20","Crystal","An interesting design but don't like the colors. I value the time and effort put into it, but not a huge fan.,10,300,20","Mackenzie","I like the forefront design.,10,20,20","Catherine","connection, Everything is connected even in contrast.,42,160,20","2"
"20714","","survey-text","196","946407","0.0-195.0-0.0","A3KK5FKG3L0Q66","","","","{""Q0"":""The color choice could have been different. It feels like it's too yellow / sepia toned.""}","","","","","","","","","","","","","","","","","","","","","","",""
"2126.800000000745","","image-slider-response","197","948537","0.0-196.0","A3KK5FKG3L0Q66","","","","","-11","","","","","","","","","","","","","","","","","","","","","",""
"null","","image-button-response","198","953542","0.0-197.0","A3KK5FKG3L0Q66","img_art/4.jpg","null","","","","","","","","","","","","","","","","","","","","","","","","",""
"293","","image-button-response","199","953839","0.0-198.0","A3KK5FKG3L0Q66","img_art/4.jpg","0","","","","","","","","","","","","","","","","","","","","","","","","",""
"5801","","image-button-response","200","959645","0.0-199.0-0.0","A3KK5FKG3L0Q66","img_art/4.jpg","3","","","","","","","","","","","","","","","","","","","","","","","","",""
"723","","image-button-response","201","960369","0.0-200.0-0.0","A3KK5FKG3L0Q66","img_art/4.jpg","1","","","","","","","","","","","","","","","","","","","","","","","","",""
"null","","html-keyboard-response","202","960871","0.0-201.0","A3KK5FKG3L0Q66","<p style=""font-size: 48px;"">+</p>","","","","","null","allTrialResponses","500","1","22","img_art/4.jpg","-11","The color choice could have been different. It feels like it's too yellow / sepia toned.","Mackenzie,Emma,Catherine,Kayla,Crystal,Stephanie","I don't enjoy the colors, or texture, it seems like mustard,-23,20,20","Interesting but maybe a little creepy,0,60,20","Hearts, family connected. They are standing on a narrow base and could fall to pieces at anytime.,40,160,20","It's okay, I guess. Nothing much either way.,5,180,20","Looks like finger nails from the Guinness world record book.,-30,300,20","It looks like a hand someone scribbled over,-30,300,20","Mackenzie","I don't enjoy the colors, or texture, it seems like mustard,-23,20,20","Kayla","It's okay, I guess. Nothing much either way.,5,180,20","Emma","Interesting but maybe a little creepy,0,60,20","2"
"14931","","survey-text","203","975808","0.0-202.0-0.0","A3KK5FKG3L0Q66","","","","{""Q0"":""Very nice contrast between the green and black! Love the old style.""}","","","","","","","","","","","","","","","","","","","","","","",""
"2292","","image-slider-response","204","978102","0.0-203.0","A3KK5FKG3L0Q66","","","","","35","","","","","","","","","","","","","","","","","","","","","",""
"null","","image-button-response","205","983104","0.0-204.0","A3KK5FKG3L0Q66","img_art/25.jpg","null","","","","","","","","","","","","","","","","","","","","","","","","",""
"1069","","image-button-response","206","984178","0.0-205.0","A3KK5FKG3L0Q66","img_art/25.jpg","4","","","","","","","","","","","","","","","","","","","","","","","","",""
"2164","","image-button-response","207","986344","0.0-206.0-0.0","A3KK5FKG3L0Q66","img_art/25.jpg","2","","","","","","","","","","","","","","","","","","","","","","","","",""
"2134","","image-button-response","208","988480","0.0-207.0-0.0","A3KK5FKG3L0Q66","img_art/25.jpg","0","","","","","","","","","","","","","","","","","","","","","","","","",""
"null","","html-keyboard-response","209","988984","0.0-208.0","A3KK5FKG3L0Q66","<p style=""font-size: 48px;"">+</p>","","","","","null","allTrialResponses","500","1","23","img_art/25.jpg","35","Very nice contrast between the green and black! Love the old style.","Mackenzie,Emma,Miranda,Kayla,Michaela,Elizabeth","Very nice color contrast and design.,40,20,20","Like the colors and the figure,30,60,20","This looks cool but I don't really care for it. Some sort or religious figure?,16,320,20","Ghosts are NOT my thing.,-13,180,20","It looks like people worshipping a statue,33,260,20","Love the color hues and the texture it creates,50,20,20","Michaela","It looks like people worshipping a statue,33,260,20","Miranda","This looks cool but I don't really care for it. Some sort or religious figure?,16,320,20","Mackenzie","Very nice color contrast and design.,40,20,20","2"
"13537","","survey-text","210","1002527","0.0-209.0-0.0","A3KK5FKG3L0Q66","","","","{""Q0"":""The closer I look the more it gives me a headache.""}","","","","","","","","","","","","","","","","","","","","","","",""
"2844.5","","image-slider-response","211","1005373","0.0-210.0","A3KK5FKG3L0Q66","","","","","-50","","","","","","","","","","","","","","","","","","","","","",""
"null","","image-button-response","212","1010377","0.0-211.0","A3KK5FKG3L0Q66","img_art/9.jpg","null","","","","","","","","","","","","","","","","","","","","","","","","",""
"1994","","image-button-response","213","1012375","0.0-212.0","A3KK5FKG3L0Q66","img_art/9.jpg","5","","","","","","","","","","","","","","","","","","","","","","","","",""
"553","","image-button-response","214","1012931","0.0-213.0-0.0","A3KK5FKG3L0Q66","img_art/9.jpg","2","","","","","","","","","","","","","","","","","","","","","","","","",""
"2691","","image-button-response","215","1015625","0.0-214.0-0.0","A3KK5FKG3L0Q66","img_art/9.jpg","0","","","","","","","","","","","","","","","","","","","","","","","","",""
"null","","html-keyboard-response","216","1017127","0.0-215.0","A3KK5FKG3L0Q66","<p style=""font-size: 48px;"">+</p>","","","","","null","allTrialResponses","1500","1","24","img_art/9.jpg","-50","The closer I look the more it gives me a headache.","Mackenzie,Isabella,Miranda,Kaitlyn,Michaela,Chelsea","I enjoy the design, but the colors look waxy,-7,20,20","Angry beast mouth,-37,280,20","It looks like someone gave a kid a coloring book page but the colors are soothing and look put together and elegant,27,320,20","Focal point is interesting,2,80,20","The colors remind me of peacocks,24,260,20","I don't like the obvious lines of colored pencil on the border.,-24,180,20","Chelsea","I don't like the obvious lines of colored pencil on the border.,-24,180,20","Miranda","It looks like someone gave a kid a coloring book page but the colors are soothing and look put together and elegant,27,320,20","Mackenzie","I enjoy the design, but the colors look waxy,-7,20,20","2"
"16933","","survey-text","217","1034067","0.0-216.0-0.0","A3KK5FKG3L0Q66","","","","{""Q0"":""A tragic accident on the side of a road. Sad.""}","","","","","","","","","","","","","","","","","","","","","","",""
"2130.400000002235","","image-slider-response","218","1036202","0.0-217.0","A3KK5FKG3L0Q66","","","","","15","","","","","","","","","","","","","","","","","","","","","",""
"null","","image-button-response","219","1041205","0.0-218.0","A3KK5FKG3L0Q66","img_art/20.jpg","null","","","","","","","","","","","","","","","","","","","","","","","","",""
"1365","","image-button-response","220","1042573","0.0-219.0","A3KK5FKG3L0Q66","img_art/20.jpg","2","","","","","","","","","","","","","","","","","","","","","","","","",""
"1670","","image-button-response","221","1044247","0.0-220.0-0.0","A3KK5FKG3L0Q66","img_art/20.jpg","1","","","","","","","","","","","","","","","","","","","","","","","","",""
"1261","","image-button-response","222","1045512","0.0-221.0-0.0","A3KK5FKG3L0Q66","img_art/20.jpg","5","","","","","","","","","","","","","","","","","","","","","","","","",""
"null","","html-keyboard-response","223","1046515","0.0-222.0","A3KK5FKG3L0Q66","<p style=""font-size: 48px;"">+</p>","","","","","null","allTrialResponses","1000","1","25","img_art/20.jpg","15","A tragic accident on the side of a road. Sad.","Mackenzie,Hannah,Miranda,Morgan,Brooke,Chelsea","Shapes are fun to interpret,21,20,20","Reminds me of the Southwest; i.e. New Mexico or Arizona. It's interesting.,12,240,20","A painting within a painting, the inner painting looks like a car crash with a semi truck.,21,320,20","The beach and industry.,12,380,20","Dinosaur skill and some dark shadow above,-30,60,20","It is abstract but it looks neat.,15,180,20","Miranda","A painting within a painting, the inner painting looks like a car crash with a semi truck.,21,320,20","Hannah","Reminds me of the Southwest; i.e. New Mexico or Arizona. It's interesting.,12,240,20","Chelsea","It is abstract but it looks neat.,15,180,20","2"
"2123","","survey-text","224","1048647","0.0-223.0-0.0","A3KK5FKG3L0Q66","","","","{""Q0"":""table""}","","","","","","","","","","","","","","","","","","","","","","",""
"16863","","survey-text","225","1065512","0.0-224.0-0.0","A3KK5FKG3L0Q66","","","","{""Q0"":""Creepy images like this are the best. The teddy bear has a very creepy expression! ""}","","","","","","","","","","","","","","","","","","","","","","",""
"3233.300000000745","","image-slider-response","226","1068747","0.0-225.0","A3KK5FKG3L0Q66","","","","","35","","","","","","","","","","","","","","","","","","","","","",""
"null","","image-button-response","227","1073752","0.0-226.0","A3KK5FKG3L0Q66","img_art/16.jpg","null","","","","","","","","","","","","","","","","","","","","","","","","",""
"779","","image-button-response","228","1074536","0.0-227.0","A3KK5FKG3L0Q66","img_art/16.jpg","1","","","","","","","","","","","","","","","","","","","","","","","","",""
"1440","","image-button-response","229","1075979","0.0-228.0-0.0","A3KK5FKG3L0Q66","img_art/16.jpg","4","","","","","","","","","","","","","","","","","","","","","","","","",""
"2605","","image-button-response","230","1078589","0.0-229.0-0.0","A3KK5FKG3L0Q66","img_art/16.jpg","5","","","","","","","","","","","","","","","","","","","","","","","","",""
"null","","html-keyboard-response","231","1079591","0.0-230.0","A3KK5FKG3L0Q66","<p style=""font-size: 48px;"">+</p>","","","","","null","allTrialResponses","1000","1","26","img_art/16.jpg","35","Creepy images like this are the best. The teddy bear has a very creepy expression! ","Jennifer,Hannah,Miranda,Heather,Jacqueline,Chelsea","Very creepy, it makes me feel uneasy,-31,380,20","This is weird and a little creepy.,6,240,20","This looks like it was made by an art student filled with angst,-30,320,20","lol i dont know how i feel about this.,1,260,20","Seems very twisted and dark.,-35,300,20","I wouldn't hang it up on my wall but I like the colors of the bear.,25,180,20","Hannah","This is weird and a little creepy.,6,240,20","Jacqueline","Seems very twisted and dark.,-35,300,20","Chelsea","I wouldn't hang it up on my wall but I like the colors of the bear.,25,180,20","2"
"10952","","survey-text","232","1090551","0.0-231.0-0.0","A3KK5FKG3L0Q66","","","","{""Q0"":""Not a fan of the color palette chosen.""}","","","","","","","","","","","","","","","","","","","","","","",""
"4377.89999999851","","image-slider-response","233","1094930","0.0-232.0","A3KK5FKG3L0Q66","","","","","-14","","","","","","","","","","","","","","","","","","","","","",""
"null","","image-button-response","234","1099933","0.0-233.0","A3KK5FKG3L0Q66","img_art/22.jpg","null","","","","","","","","","","","","","","","","","","","","","","","","",""
"2582","","image-button-response","235","1102518","0.0-234.0","A3KK5FKG3L0Q66","img_art/22.jpg","4","","","","","","","","","","","","","","","","","","","","","","","","",""
"2656","","image-button-response","236","1105178","0.0-235.0-0.0","A3KK5FKG3L0Q66","img_art/22.jpg","5","","","","","","","","","","","","","","","","","","","","","","","","",""
"5580","","image-button-response","237","1110762","0.0-236.0-0.0","A3KK5FKG3L0Q66","img_art/22.jpg","2","","","","","","","","","","","","","","","","","","","","","","","","",""
"null","","html-keyboard-response","238","1111766","0.0-237.0","A3KK5FKG3L0Q66","<p style=""font-size: 48px;"">+</p>","","","","","null","allTrialResponses","1000","1","27","img_art/22.jpg","-14","Not a fan of the color palette chosen.","Jamie,Hannah,Katelyn,Brianna,Jacqueline,Chelsea","Like the mix of warm and cool colors,15,320,20","This one would work in the right frame. It's nice.,20,240,20","I usually dont like blurry pieces but the colors are amazing in this,14,100,20","Like the black key and the rainbow color theme.,31,20,20","I feel like I've seen this one already.,-9,300,20","The colors clash, and I don't know what is happening.,-23,180,20","Jacqueline","I feel like I've seen this one already.,-9,300,20","Chelsea","The colors clash, and I don't know what is happening.,-23,180,20","Katelyn","I usually dont like blurry pieces but the colors are amazing in this,14,100,20","2"
"12620","","survey-text","239","1124395","0.0-238.0-0.0","A3KK5FKG3L0Q66","","","","{""Q0"":""I love the simplicity to this photo. Sometimes less is more. ""}","","","","","","","","","","","","","","","","","","","","","","",""
"2701.89999999851","","image-slider-response","240","1127100","0.0-239.0","A3KK5FKG3L0Q66","","","","","43","","","","","","","","","","","","","","","","","","","","","",""
"null","","image-button-response","241","1132104","0.0-240.0","A3KK5FKG3L0Q66","img_art/6.jpg","null","","","","","","","","","","","","","","","","","","","","","","","","",""
"2370","","image-button-response","242","1134478","0.0-241.0","A3KK5FKG3L0Q66","img_art/6.jpg","4","","","","","","","","","","","","","","","","","","","","","","","","",""
"2573","","image-button-response","243","1137054","0.0-242.0-0.0","A3KK5FKG3L0Q66","img_art/6.jpg","0","","","","","","","","","","","","","","","","","","","","","","","","",""
"779","","image-button-response","244","1137837","0.0-243.0-0.0","A3KK5FKG3L0Q66","img_art/6.jpg","3","","","","","","","","","","","","","","","","","","","","","","","","",""
"null","","html-keyboard-response","245","1138838","0.0-244.0","A3KK5FKG3L0Q66","<p style=""font-size: 48px;"">+</p>","","","","","null","allTrialResponses","1000","1","28","img_art/6.jpg","43","I love the simplicity to this photo. Sometimes less is more. ","Shelby,Alexa,Katelyn,Erika,Jacqueline,Chelsea","I dont feel much of a responce or connection to this one,0,240,20","Too basic for me,-20,40,20","Nothing grabs at me here,-11,100,20","Lonesome in nature,13,100,20","It's a bit bland, but looks like a bird standing.,11,300,20","It looks like one tall ugly bird.,-43,180,20","Jacqueline","It's a bit bland, but looks like a bird standing.,11,300,20","Shelby","I dont feel much of a responce or connection to this one,0,240,20","Erika","Lonesome in nature,13,100,20","2"
"14605","","survey-text","246","1153451","0.0-245.0-0.0","A3KK5FKG3L0Q66","","","","{""Q0"":""Appears to be a little blurry unless that was the intention. Seems like rain?""}","","","","","","","","","","","","","","","","","","","","","","",""
"3278.2999999970198","","image-slider-response","247","1156731","0.0-246.0","A3KK5FKG3L0Q66","","","","","7","","","","","","","","","","","","","","","","","","","","","",""
"null","","image-button-response","248","1161734","0.0-247.0","A3KK5FKG3L0Q66","img_art/13.jpg","null","","","","","","","","","","","","","","","","","","","","","","","","",""
"1312","","image-button-response","249","1163049","0.0-248.0","A3KK5FKG3L0Q66","img_art/13.jpg","0","","","","","","","","","","","","","","","","","","","","","","","","",""
"3195","","image-button-response","250","1166245","0.0-249.0-0.0","A3KK5FKG3L0Q66","img_art/13.jpg","4","","","","","","","","","","","","","","","","","","","","","","","","",""
"1810","","image-button-response","251","1168059","0.0-250.0-0.0","A3KK5FKG3L0Q66","img_art/13.jpg","1","","","","","","","","","","","","","","","","","","","","","","","","",""
"null","","html-keyboard-response","252","1169063","0.0-251.0","A3KK5FKG3L0Q66","<p style=""font-size: 48px;"">+</p>","","","","","null","allTrialResponses","1000","1","29","img_art/13.jpg","7","Appears to be a little blurry unless that was the intention. Seems like rain?","Shelby,Amy,Sabrina,Erika,Jacqueline,Christina","Doesnt really provoke an emotional responce,0,240,20","I recognize the beauty of this but FOR ME its large degree of abstraction diminishes my emotional interaction.,-10,220,20","I love the edgy nature,50,120,20","Gorgeous contrast and color choice, very pleasing,50,100,20","Seems a little cold but I like the neuron looking splatters.,10,300,20","i like the colors but it looks like something that would hang in a hotel,18,240,20","Shelby","Doesnt really provoke an emotional responce,0,240,20","Jacqueline","Seems a little cold but I like the neuron looking splatters.,10,300,20","Amy","I recognize the beauty of this but FOR ME its large degree of abstraction diminishes my emotional interaction.,-10,220,20","2"
"17715","","survey-text","253","1186786","0.0-252.0-0.0","A3KK5FKG3L0Q66","","","","{""Q0"":""The first thing I see is a guitar. Very interesting concept overall.""}","","","","","","","","","","","","","","","","","","","","","","",""
"2330.10000000149","","image-slider-response","254","1189120","0.0-253.0","A3KK5FKG3L0Q66","","","","","34","","","","","","","","","","","","","","","","","","","","","",""
"null","","image-button-response","255","1194123","0.0-254.0","A3KK5FKG3L0Q66","img_art/10.jpg","null","","","","","","","","","","","","","","","","","","","","","","","","",""
"657","","image-button-response","256","1194783","0.0-255.0","A3KK5FKG3L0Q66","img_art/10.jpg","4","","","","","","","","","","","","","","","","","","","","","","","","",""
"1354","","image-button-response","257","1196141","0.0-256.0-0.0","A3KK5FKG3L0Q66","img_art/10.jpg","5","","","","","","","","","","","","","","","","","","","","","","","","",""
"466","","image-button-response","258","1196609","0.0-257.0-0.0","A3KK5FKG3L0Q66","img_art/10.jpg","1","","","","","","","","","","","","","","","","","","","","","","","","",""
"null","","html-keyboard-response","259","1198110","0.0-258.0","A3KK5FKG3L0Q66","<p style=""font-size: 48px;"">+</p>","","","","","null","allTrialResponses","1500","1","30","img_art/10.jpg","34","The first thing I see is a guitar. Very interesting concept overall.","Shelby,Amy,Chloe,Mikayla,Jacqueline,Olivia","Love the monotonal texture,20,240,20","Highly abstract and yet the shapes and colors provide an emotional accessibility for me.,20,220,20","Don't like the colorblock but the lines are nice,-20,220,20","Kinda creepy not my favorite,-26,300,20","Seems more harmonic with the strokes and colors.,31,300,20","feeling the turmoil and ride,12,40,20","Jacqueline","Seems more harmonic with the strokes and colors.,31,300,20","Olivia","feeling the turmoil and ride,12,40,20","Amy","Highly abstract and yet the shapes and colors provide an emotional accessibility for me.,20,220,20","2"
"2572","","image-button-response_instructions","260","1200691","0.0-259.0","A3KK5FKG3L0Q66","","0","instructions","","","","","","","","","","","","","","","","","","","","","","","",""
"804","","image-button-response","261","1201509","0.0-260.0","A3KK5FKG3L0Q66","","0","","","","","","","","","","","","","","","","","","","","","","","","",""
