"rt","url","trial_type","trial_index","time_elapsed","internal_node_id","participant_id","stimulus","button_pressed","Name","responses","response","key_press","variableName","fixationTime","condition","trial","photo","subjectRating","subjectResponse","agentsNames","agent_1_Response","agent_2_Response","agent_3_Response","agent_4_Response","agent_5_Response","agent_6_Response","kept_1_name","kept_1_response","kept_2_name","kept_2_response","kept_3_name","kept_3_response","errorCounter"
"25107","external_page_harvard.html","external-html","0","26059","0.0-0.0","A3MVVJHNQESGP4","","","","","","","","","","","","","","","","","","","","","","","","","","",""
"1961","","image-button-response","1","28023","0.0-1.0","A3MVVJHNQESGP4","","0","","","","","","","","","","","","","","","","","","","","","","","","",""
"7527","","image-button-response","2","35559","0.0-2.0-0.0","A3MVVJHNQESGP4","","1","phone","","","","","","","","","","","","","","","","","","","","","","","",""
"5497","","survey-text","3","41059","0.0-3.0-0.0","A3MVVJHNQESGP4","","","","{""Q0"":""A3MVVJHNQESGP4""}","","","","","","","","","","","","","","","","","","","","","","",""
"101131","","image-button-response_instructions","4","142193","0.0-4.0","A3MVVJHNQESGP4","","0","instructions","","","","","","","","","","","","","","","","","","","","","","","",""
"28750","","image-button-response_instructions","5","170946","0.0-5.0","A3MVVJHNQESGP4","img_art/ins/popularity/ins1.png","0","instructions","","","","","","","","","","","","","","","","","","","","","","","",""
"47133","","image-button-response_instructions","6","218081","0.0-6.0","A3MVVJHNQESGP4","img_art/ins/popularity/ins2.png","0","instructions","","","","","","","","","","","","","","","","","","","","","","","",""
"44505","","image-button-response_instructions","7","262589","0.0-7.0","A3MVVJHNQESGP4","img_art/ins/popularity/ins2Extreme.png","0","instructions","","","","","","","","","","","","","","","","","","","","","","","",""
"13386","","image-button-response_instructions","8","275979","0.0-8.0","A3MVVJHNQESGP4","img_art/ins/popularity/ins3KEEPpop.PNG","0","instructions","","","","","","","","","","","","","","","","","","","","","","","",""
"28710","","image-button-response_instructions","9","304692","0.0-9.0","A3MVVJHNQESGP4","img_art/ins/popularity/ins3ANamepop.PNG","0","instructions","","","","","","","","","","","","","","","","","","","","","","","",""
"8003","","image-button-response_instructions","10","312698","0.0-10.0","A3MVVJHNQESGP4","img_art/ins/popularity/ins3ARatingpop.png","0","instructions","","","","","","","","","","","","","","","","","","","","","","","",""
"14344","","image-button-response_instructions","11","327043","0.0-11.0","A3MVVJHNQESGP4","img_art/ins/popularity/ins3ATextpop.png","0","instructions","","","","","","","","","","","","","","","","","","","","","","","",""
"13390","","image-button-response_instructions","12","340434","0.0-12.0","A3MVVJHNQESGP4","img_art/ins/popularity/ins3ALikespop.png","0","instructions","","","","","","","","","","","","","","","","","","","","","","","",""
"31754","","image-button-response_instructions","13","372190","0.0-13.0","A3MVVJHNQESGP4","img_art/ins/popularity/ins3KEEPpop.PNG","0","instructions","","","","","","","","","","","","","","","","","","","","","","","",""
"16475","","image-button-response_instructions","14","388667","0.0-14.0","A3MVVJHNQESGP4","img_art/ins/popularity/ins3_5RED.png","0","instructions","","","","","","","","","","","","","","","","","","","","","","","",""
"12510","","image-button-response_instructions","15","401178","0.0-15.0","A3MVVJHNQESGP4","img_art/ins/popularity/ins3KEEPpop.PNG","0","instructions","","","","","","","","","","","","","","","","","","","","","","","",""
"17823","","image-button-response_instructions","16","419003","0.0-16.0","A3MVVJHNQESGP4","img_art/ins/popularity/ins4KEEPpop.PNG","0","instructions","","","","","","","","","","","","","","","","","","","","","","","",""
"4478","","image-button-response_instructions","17","423484","0.0-17.0","A3MVVJHNQESGP4","img_art/ins/popularity/ins5KEEPpop.PNG","0","instructions","","","","","","","","","","","","","","","","","","","","","","","",""
"3075","","image-button-response_instructions","18","426562","0.0-18.0","A3MVVJHNQESGP4","","0","instructions","","","","","","","","","","","","","","","","","","","","","","","",""
"14036","","survey-text","19","440627","0.0-19.0-0.0","A3MVVJHNQESGP4","","","","{""Q0"":""BUT""}","","","","","","","","","","","","","","","","","","","","","","",""
"12040","","survey-text","20","461891","0.0-19.1-0.1","A3MVVJHNQESGP4","","","","{""Q0"":""but""}","","","","","","","","","","","","","","","","","","","","","","",""
"17951","","survey-text","21","479846","0.0-20.0-0.0","A3MVVJHNQESGP4","","","","{""Q0"":""Classic""}","","","","","","","","","","","","","","","","","","","","","","",""
"2999.89999999851","","image-slider-response","22","482851","0.0-21.0","A3MVVJHNQESGP4","","","","","25","","","","","","","","","","","","","","","","","","","","","",""
"4985","","image-button-response","23","487857","0.0-22.0","A3MVVJHNQESGP4","img_art/ins/1.jpg","5","","","","","","","","","","","","","","","","","","","","","","","","",""
"2087","","image-button-response","24","489946","0.0-23.0","A3MVVJHNQESGP4","img_art/ins/1.jpg","2","","","","","","","","","","","","","","","","","","","","","","","","",""
"1893","","image-button-response","25","491843","0.0-24.0-0.0","A3MVVJHNQESGP4","img_art/ins/1.jpg","2","","","","","","","","","","","","","","","","","","","","","","","","",""
"805","","image-button-response","26","499651","0.0-24.1-0.1","A3MVVJHNQESGP4","img_art/ins/1.jpg","3","","","","","","","","","","","","","","","","","","","","","","","","",""
"1972","","image-button-response","27","501626","0.0-25.0-0.0","A3MVVJHNQESGP4","img_art/ins/1.jpg","2","","","","","","","","","","","","","","","","","","","","","","","","",""
"851","","image-button-response","28","506276","0.0-25.1-0.1","A3MVVJHNQESGP4","img_art/ins/1.jpg","5","","","","","","","","","","","","","","","","","","","","","","","","",""
"null","","html-keyboard-response","29","506781","0.0-26.0","A3MVVJHNQESGP4","<p style=""font-size: 48px;"">+</p>","","","","","null","allTrialResponses","500","1","-2","img_art/ins/1.jpg","25","Classic","Adam,Alex,Ben,Carl,Daniel,Jack","Seems like doodles,-20,20,20","very creative work.,36,40,20","This color reminds me of poo,-46,60,20","very calming artwork,42,80,20","It looks like a murder scene.,-48,100,20","I like the sophisticated brushwork,40,120,20","Ben","This color reminds me of poo,-46,60,20","Carl","very calming artwork,42,80,20","Jack","I like the sophisticated brushwork,40,120,20","5"
"5258","","survey-text","30","512058","0.0-27.0-0.0","A3MVVJHNQESGP4","","","","{""Q0"":""Classic""}","","","","","","","","","","","","","","","","","","","","","","",""
"3644","","image-slider-response","31","515704","0.0-28.0","A3MVVJHNQESGP4","","","","","27","","","","","","","","","","","","","","","","","","","","","",""
"null","","image-button-response","32","521403","0.0-29.0","A3MVVJHNQESGP4","img_art/ins/2.jpg","null","","","","","","","","","","","","","","","","","","","","","","","","",""
"11395","","image-button-response","33","532802","0.0-30.0","A3MVVJHNQESGP4","img_art/ins/2.jpg","2","","","","","","","","","","","","","","","","","","","","","","","","",""
"2221","","image-button-response","34","535026","0.0-31.0-0.0","A3MVVJHNQESGP4","img_art/ins/2.jpg","5","","","","","","","","","","","","","","","","","","","","","","","","",""
"1236","","image-button-response","35","536266","0.0-32.0-0.0","A3MVVJHNQESGP4","img_art/ins/2.jpg","1","","","","","","","","","","","","","","","","","","","","","","","","",""
"null","","html-keyboard-response","36","537769","0.0-33.0","A3MVVJHNQESGP4","<p style=""font-size: 48px;"">+</p>","","","","","null","allTrialResponses","1500","1","-1","img_art/ins/2.jpg","27","Classic","Kyle,James,Ben,Carl,John,Jack","Idk, it is just annoying,-32,180,20","looks too angry,-50,140,20","meaningless painting,-45,60,20","I can feel the artist's passion in it,45,80,20","love the texture of paint,48,160,20","I would never be able to compose a sophisticated pallete like this,48,120,20","Ben","meaningless painting,-45,60,20","Jack","I would never be able to compose a sophisticated pallete like this,48,120,20","James","looks too angry,-50,140,20","5"
"3397","","survey-text","37","541171","0.0-34.0-0.0","A3MVVJHNQESGP4","","","","{""Q0"":""Classic""}","","","","","","","","","","","","","","","","","","","","","","",""
"2836.800000000745","","image-slider-response","38","544011","0.0-35.0","A3MVVJHNQESGP4","","","","","37","","","","","","","","","","","","","","","","","","","","","",""
"2597","","image-button-response","39","549278","0.0-36.0","A3MVVJHNQESGP4","img_art/ins/3.jpg","5","","","","","","","","","","","","","","","","","","","","","","","","",""
"12466","","image-button-response","40","561747","0.0-37.0","A3MVVJHNQESGP4","img_art/ins/3.jpg","2","","","","","","","","","","","","","","","","","","","","","","","","",""
"828","","image-button-response","41","562580","0.0-38.0-0.0","A3MVVJHNQESGP4","img_art/ins/3.jpg","1","","","","","","","","","","","","","","","","","","","","","","","","",""
"907","","image-button-response","42","563493","0.0-39.0-0.0","A3MVVJHNQESGP4","img_art/ins/3.jpg","4","","","","","","","","","","","","","","","","","","","","","","","","",""
"null","","html-keyboard-response","43","564498","0.0-40.0","A3MVVJHNQESGP4","<p style=""font-size: 48px;"">+</p>","","","","","null","allTrialResponses","1000","1","0","img_art/ins/3.jpg","37","Classic","Sam,James,Ben,Mike,Ron,Jack","I can feel a rainy day from this painting,18,240,20","My worst nightmare,-42,140,20","This thing gives me anxiety,-41,60,20","enjoy the different shades of blue,22,200,20","It looks depressing,-26,220,20","I feel connected to the artist,40,120,20","Ben","This thing gives me anxiety,-41,60,20","James","My worst nightmare,-42,140,20","Ron","It looks depressing,-26,220,20","5"
"11676","","image-button-response_instructions","44","576187","0.0-41.0","A3MVVJHNQESGP4","","0","instructions","","","","","","","","","","","","","","","","","","","","","","","",""
"3943","","survey-likert","45","580132","0.0-42.0-0.0","A3MVVJHNQESGP4","","","","{""Q0"":"""",""Q1"":"""",""Q2"":""""}","","","","","","","","","","","","","","","","","","","","","","",""
"19959","","survey-likert","46","601316","0.0-42.1-0.1","A3MVVJHNQESGP4","","","","{""Q0"":"""",""Q1"":1,""Q2"":1}","","","","","","","","","","","","","","","","","","","","","","",""
"3573","","survey-likert","47","605883","0.0-42.2-0.2","A3MVVJHNQESGP4","","","","{""Q0"":"""",""Q1"":0,""Q2"":0}","","","","","","","","","","","","","","","","","","","","","","",""
"1686","","survey-likert","48","608836","0.0-42.3-0.3","A3MVVJHNQESGP4","","","","{""Q0"":"""",""Q1"":1,""Q2"":""""}","","","","","","","","","","","","","","","","","","","","","","",""
"6070","","survey-likert","49","625347","0.0-42.4-0.4","A3MVVJHNQESGP4","","","","{""Q0"":"""",""Q1"":0,""Q2"":1}","","","","","","","","","","","","","","","","","","","","","","",""
"6496","","survey-text","50","631866","0.0-43.0-0.0","A3MVVJHNQESGP4","","","","{""Q0"":""rock""}","","","","","","","","","","","","","","","","","","","","","","",""
"3166","","survey-text","51","635034","0.0-44.0-0.0","A3MVVJHNQESGP4","","","","{""Q0"":""Classic""}","","","","","","","","","","","","","","","","","","","","","","",""
"2356.699999999255","","image-slider-response","52","637395","0.0-45.0","A3MVVJHNQESGP4","","","","","34","","","","","","","","","","","","","","","","","","","","","",""
"4020","","image-button-response","53","642432","0.0-46.0","A3MVVJHNQESGP4","img_art/1.jpg","1","","","","","","","","","","","","","","","","","","","","","","","","",""
"11773","","image-button-response","54","654211","0.0-47.0","A3MVVJHNQESGP4","img_art/1.jpg","5","","","","","","","","","","","","","","","","","","","","","","","","",""
"1013","","image-button-response","55","655227","0.0-48.0-0.0","A3MVVJHNQESGP4","img_art/1.jpg","1","","","","","","","","","","","","","","","","","","","","","","","","",""
"548","","image-button-response","56","655779","0.0-49.0-0.0","A3MVVJHNQESGP4","img_art/1.jpg","0","","","","","","","","","","","","","","","","","","","","","","","","",""
"null","","html-keyboard-response","57","657284","0.0-50.0","A3MVVJHNQESGP4","<p style=""font-size: 48px;"">+</p>","","","","","null","allTrialResponses","1500","1","1","img_art/1.jpg","34","Classic","Alejandro,Elijah,Cody,Vincent,Benjamin,Caleb","Interesting color scheme but to bled to me,11,80,20","Makes me feel confused,-6,80,20","Pretty, nice use of color,40,180,20","I love the detail and colors like a beautiful autumn day,35,360,20","Really like all of the colors and how they mesh well.,27,260,20","Its simply okay.,3,40,20","Caleb","Its simply okay.,3,40,20","Elijah","Makes me feel confused,-6,80,20","Alejandro","Interesting color scheme but to bled to me,11,80,20","9"
"13719","","survey-text","58","671027","0.0-51.0-0.0","A3MVVJHNQESGP4","","","","{""Q0"":""Genuine""}","","","","","","","","","","","","","","","","","","","","","","",""
"4131.800000000745","","image-slider-response","59","675162","0.0-52.0","A3MVVJHNQESGP4","","","","","42","","","","","","","","","","","","","","","","","","","","","",""
"4517","","image-button-response","60","680180","0.0-53.0","A3MVVJHNQESGP4","img_art/13.jpg","5","","","","","","","","","","","","","","","","","","","","","","","","",""
"540","","image-button-response","61","680723","0.0-54.0","A3MVVJHNQESGP4","img_art/13.jpg","2","","","","","","","","","","","","","","","","","","","","","","","","",""
"1006","","image-button-response","62","681734","0.0-55.0-0.0","A3MVVJHNQESGP4","img_art/13.jpg","4","","","","","","","","","","","","","","","","","","","","","","","","",""
"482","","image-button-response","63","682220","0.0-56.0-0.0","A3MVVJHNQESGP4","img_art/13.jpg","5","","","","","","","","","","","","","","","","","","","","","","","","",""
"null","","html-keyboard-response","64","683285","0.0-57.0","A3MVVJHNQESGP4","<p style=""font-size: 48px;"">+</p>","","","","","null","allTrialResponses","1000","1","2","img_art/13.jpg","42","Genuine","Alejandro,Elijah,Jesse,David,Spencer,Caleb","Reminiscent of Jackson Pollock and gives me a feeling of chaotic satisfaction,50,80,20","Makes me feel nice and calm,18,80,20","Really like this. Its like looking out a window into a beautiful storm,39,80,20","I like the color coordination between the foreground and background.,10,340,20","Like it a lot, reminds me of rainy day on glass,43,120,20","Lots of depth and character.,30,40,20","Jesse","Really like this. Its like looking out a window into a beautiful storm,39,80,20","Spencer","Like it a lot, reminds me of rainy day on glass,43,120,20","Caleb","Lots of depth and character.,30,40,20","9"
"19466","","survey-text","65","702762","0.0-58.0-0.0","A3MVVJHNQESGP4","","","","{""Q0"":""Great""}","","","","","","","","","","","","","","","","","","","","","","",""
"17469","","survey-text","66","724876","0.0-58.1-0.1","A3MVVJHNQESGP4","","","","{""Q0"":""Lovely""}","","","","","","","","","","","","","","","","","","","","","","",""
"3043.39999999851","","image-slider-response","67","727923","0.0-59.0","A3MVVJHNQESGP4","","","","","36","","","","","","","","","","","","","","","","","","","","","",""
"null","","image-button-response","68","733299","0.0-60.0","A3MVVJHNQESGP4","img_art/30.jpg","null","","","","","","","","","","","","","","","","","","","","","","","","",""
"8890","","image-button-response","69","742195","0.0-61.0","A3MVVJHNQESGP4","img_art/30.jpg","5","","","","","","","","","","","","","","","","","","","","","","","","",""
"501","","image-button-response","70","742699","0.0-62.0-0.0","A3MVVJHNQESGP4","img_art/30.jpg","1","","","","","","","","","","","","","","","","","","","","","","","","",""
"259","","image-button-response","71","742963","0.0-63.0-0.0","A3MVVJHNQESGP4","img_art/30.jpg","0","","","","","","","","","","","","","","","","","","","","","","","","",""
"null","","html-keyboard-response","72","743467","0.0-64.0","A3MVVJHNQESGP4","<p style=""font-size: 48px;"">+</p>","","","","","null","allTrialResponses","500","1","3","img_art/30.jpg","36","Lovely","Devon,Alexander,Jesse,Sean,Spencer,Caleb","the different roads to take in life,10,400,20","Sleek eel in the abstract ocean.,30,120,20","I do like the multi-dimensional aspect of this piece,10,80,20","the colors look nice,19,40,20","Interesting, almost an underworld of plant life,11,120,20","Colors are nice but it just seems too simple.,-26,40,20","Caleb","Colors are nice but it just seems too simple.,-26,40,20","Alexander","Sleek eel in the abstract ocean.,30,120,20","Devon","the different roads to take in life,10,400,20","9"
"2993","","survey-text","73","746483","0.0-65.0-0.0","A3MVVJHNQESGP4","","","","{""Q0"":""Lovely""}","","","","","","","","","","","","","","","","","","","","","","",""
"2757.300000000745","","image-slider-response","74","749244","0.0-66.0","A3MVVJHNQESGP4","","","","","37","","","","","","","","","","","","","","","","","","","","","",""
"2081","","image-button-response","75","754297","0.0-67.0","A3MVVJHNQESGP4","img_art/26.jpg","0","","","","","","","","","","","","","","","","","","","","","","","","",""
"16580","","image-button-response","76","770883","0.0-68.0","A3MVVJHNQESGP4","img_art/26.jpg","1","","","","","","","","","","","","","","","","","","","","","","","","",""
"293","","image-button-response","77","771180","0.0-69.0-0.0","A3MVVJHNQESGP4","img_art/26.jpg","0","","","","","","","","","","","","","","","","","","","","","","","","",""
"508","","image-button-response","78","771692","0.0-70.0-0.0","A3MVVJHNQESGP4","img_art/26.jpg","4","","","","","","","","","","","","","","","","","","","","","","","","",""
"null","","html-keyboard-response","79","772195","0.0-71.0","A3MVVJHNQESGP4","<p style=""font-size: 48px;"">+</p>","","","","","null","allTrialResponses","500","1","4","img_art/26.jpg","37","Lovely","Devon,Alexander,Garrett,Joseph,Aaron,Caleb","i can feel the warmth,12,400,20","Confusing park picture.,8,120,20","I like that it looks like an actual picture and isn't just random colors.,25,180,20","Looks like the suburbs. I live in those.,13,220,20","It looks like a watercolor I did when I was 6.,-30,20,20","Appears childish and unfinished.,-20,40,20","Alexander","Confusing park picture.,8,120,20","Devon","i can feel the warmth,12,400,20","Aaron","It looks like a watercolor I did when I was 6.,-30,20,20","9"
"10943","","survey-text","80","783147","0.0-72.0-0.0","A3MVVJHNQESGP4","","","","{""Q0"":""Lovely""}","","","","","","","","","","","","","","","","","","","","","","",""
"2531.10000000149","","image-slider-response","81","785683","0.0-73.0","A3MVVJHNQESGP4","","","","","32","","","","","","","","","","","","","","","","","","","","","",""
"1094","","image-button-response","82","791299","0.0-74.0","A3MVVJHNQESGP4","img_art/3.jpg","2","","","","","","","","","","","","","","","","","","","","","","","","",""
"2739","","image-button-response","83","794044","0.0-75.0","A3MVVJHNQESGP4","img_art/3.jpg","5","","","","","","","","","","","","","","","","","","","","","","","","",""
"826","","image-button-response","84","794876","0.0-76.0-0.0","A3MVVJHNQESGP4","img_art/3.jpg","1","","","","","","","","","","","","","","","","","","","","","","","","",""
"291","","image-button-response","85","795171","0.0-77.0-0.0","A3MVVJHNQESGP4","img_art/3.jpg","2","","","","","","","","","","","","","","","","","","","","","","","","",""
"null","","html-keyboard-response","86","796189","0.0-78.0","A3MVVJHNQESGP4","<p style=""font-size: 48px;"">+</p>","","","","","null","allTrialResponses","1000","1","5","img_art/3.jpg","32","Lovely","Devon,Alexander,Isaac,Andrew,Aaron,Hunter","good choice of color,12,400,20","Somewhere between a child's art and a poorly drawn battle map.,8,120,20","It looks like scribbles.,-40,280,20","It doesn't make me think of art,-20,160,20","Definition of mediocre abstract art,-12,20,20","strong color, interesting negative shapes,21,240,20","Hunter","strong color, interesting negative shapes,21,240,20","Alexander","Somewhere between a child's art and a poorly drawn battle map.,8,120,20","Isaac","It looks like scribbles.,-40,280,20","9"
"15435","","survey-text","87","811731","0.0-79.0-0.0","A3MVVJHNQESGP4","","","","{""Q0"":""sky""}","","","","","","","","","","","","","","","","","","","","","","",""
"3781","","survey-text","88","815515","0.0-80.0-0.0","A3MVVJHNQESGP4","","","","{""Q0"":""Lovely""}","","","","","","","","","","","","","","","","","","","","","","",""
"2491.89999999851","","image-slider-response","89","818011","0.0-81.0","A3MVVJHNQESGP4","","","","","23","","","","","","","","","","","","","","","","","","","","","",""
"1073","","image-button-response","90","823287","0.0-82.0","A3MVVJHNQESGP4","img_art/16.jpg","4","","","","","","","","","","","","","","","","","","","","","","","","",""
"3150","","image-button-response","91","826443","0.0-83.0","A3MVVJHNQESGP4","img_art/16.jpg","5","","","","","","","","","","","","","","","","","","","","","","","","",""
"334","","image-button-response","92","826780","0.0-84.0-0.0","A3MVVJHNQESGP4","img_art/16.jpg","4","","","","","","","","","","","","","","","","","","","","","","","","",""
"722","","image-button-response","93","827507","0.0-85.0-0.0","A3MVVJHNQESGP4","img_art/16.jpg","1","","","","","","","","","","","","","","","","","","","","","","","","",""
"null","","html-keyboard-response","94","829309","0.0-86.0","A3MVVJHNQESGP4","<p style=""font-size: 48px;"">+</p>","","","","","null","allTrialResponses","1000","1","6","img_art/16.jpg","23","Lovely","Carlos,Alexander,Isaac,Jeffrey,Malik,Hunter","Why is that bear there? It looks like it would be gross to touch. The texture bothers me.,-20,80,20","Strange and bleak.,-20,120,20","I wouldn't hang it up on my wall but I like the colors of the bear.,25,280,20","Teddy bear calls positive emotional response but then I get worried about what is about to happen,18,40,20","Very emotional,23,40,20","so close to feeling intentional,-4,240,20","Hunter","so close to feeling intentional,-4,240,20","Malik","Very emotional,23,40,20","Alexander","Strange and bleak.,-20,120,20","9"
"7908","","survey-text","95","837242","0.0-87.0-0.0","A3MVVJHNQESGP4","","","","{""Q0"":""Lovely""}","","","","","","","","","","","","","","","","","","","","","","",""
"2270.2999999970198","","image-slider-response","96","839514","0.0-88.0","A3MVVJHNQESGP4","","","","","21","","","","","","","","","","","","","","","","","","","","","",""
"1013","","image-button-response","97","845290","0.0-89.0","A3MVVJHNQESGP4","img_art/12.jpg","4","","","","","","","","","","","","","","","","","","","","","","","","",""
"10876","","image-button-response","98","856171","0.0-90.0","A3MVVJHNQESGP4","img_art/12.jpg","5","","","","","","","","","","","","","","","","","","","","","","","","",""
"357","","image-button-response","99","856530","0.0-91.0-0.0","A3MVVJHNQESGP4","img_art/12.jpg","4","","","","","","","","","","","","","","","","","","","","","","","","",""
"1022","","image-button-response","100","857554","0.0-92.0-0.0","A3MVVJHNQESGP4","img_art/12.jpg","1","","","","","","","","","","","","","","","","","","","","","","","","",""
"null","","html-keyboard-response","101","858061","0.0-93.0","A3MVVJHNQESGP4","<p style=""font-size: 48px;"">+</p>","","","","","null","allTrialResponses","500","1","7","img_art/12.jpg","21","Lovely","Christian,Alexander,Kenneth,Jesus,Malik,Hunter","so many different available interpretations for this, would love to closer.,24,140,20","Ugly color combinations, no focus.,-25,120,20","It's pretty, I find it interesting to look at.,10,300,20","I like the color scheme.,10,100,20","I don't like it, but I appreciate the effort and technique,11,40,20","reminds me of a dixie cup,3,240,20","Hunter","reminds me of a dixie cup,3,240,20","Malik","I don't like it, but I appreciate the effort and technique,11,40,20","Alexander","Ugly color combinations, no focus.,-25,120,20","9"
"11186","","survey-text","102","869258","0.0-94.0-0.0","A3MVVJHNQESGP4","","","","{""Q0"":""Lovely""}","","","","","","","","","","","","","","","","","","","","","","",""
"2660.300000000745","","image-slider-response","103","871922","0.0-95.0","A3MVVJHNQESGP4","","","","","44","","","","","","","","","","","","","","","","","","","","","",""
"null","","image-button-response","104","877292","0.0-96.0","A3MVVJHNQESGP4","img_art/21.jpg","null","","","","","","","","","","","","","","","","","","","","","","","","",""
"20096","","image-button-response","105","897395","0.0-97.0","A3MVVJHNQESGP4","img_art/21.jpg","4","","","","","","","","","","","","","","","","","","","","","","","","",""
"350","","image-button-response","106","897747","0.0-98.0-0.0","A3MVVJHNQESGP4","img_art/21.jpg","5","","","","","","","","","","","","","","","","","","","","","","","","",""
"662","","image-button-response","107","898410","0.0-99.0-0.0","A3MVVJHNQESGP4","img_art/21.jpg","2","","","","","","","","","","","","","","","","","","","","","","","","",""
"null","","html-keyboard-response","108","900292","0.0-100.0","A3MVVJHNQESGP4","<p style=""font-size: 48px;"">+</p>","","","","","null","allTrialResponses","1500","1","8","img_art/21.jpg","44","Lovely","Jack,Alexander,John,James,Malik,Hunter","beautiful. reminds me of a storm brewing over sea. i love the white dots.,45,320,20","Survivable storm on the open sea.,27,120,20","I like the colors that were used and the stark contrast between the two sides,25,120,20","Don't really lean either way.,1,380,20","Indistinct, but beautiful hues,10,40,20","feels like a harbor scene,11,240,20","Malik","Indistinct, but beautiful hues,10,40,20","Hunter","feels like a harbor scene,11,240,20","John","I like the colors that were used and the stark contrast between the two sides,25,120,20","9"
"31574","","survey-text","109","931882","0.0-101.0-0.0","A3MVVJHNQESGP4","","","","{""Q0"":""Lovely""}","","","","","","","","","","","","","","","","","","","","","","",""
"2421.60000000149","","image-slider-response","110","934306","0.0-102.0","A3MVVJHNQESGP4","","","","","34","","","","","","","","","","","","","","","","","","","","","",""
"1325","","image-button-response","111","939309","0.0-103.0","A3MVVJHNQESGP4","img_art/17.jpg","4","","","","","","","","","","","","","","","","","","","","","","","","",""
"281","","image-button-response","112","939594","0.0-104.0","A3MVVJHNQESGP4","img_art/17.jpg","5","","","","","","","","","","","","","","","","","","","","","","","","",""
"914","","image-button-response","113","940510","0.0-105.0-0.0","A3MVVJHNQESGP4","img_art/17.jpg","2","","","","","","","","","","","","","","","","","","","","","","","","",""
"168","","image-button-response","114","940682","0.0-106.0-0.0","A3MVVJHNQESGP4","img_art/17.jpg","1","","","","","","","","","","","","","","","","","","","","","","","","",""
"null","","html-keyboard-response","115","942284","0.0-107.0","A3MVVJHNQESGP4","<p style=""font-size: 48px;"">+</p>","","","","","null","allTrialResponses","1500","1","9","img_art/17.jpg","34","Lovely","Adam,Nathan,John,Gregory,Malik,Hunter","Very washed out.,-10,40,20","It's alright, nothing I particularly like but it's just fine,-10,200,20","It gorgeous and i love how the tree is almost 3 dimensional.So many elements to it.,50,120,20","Looks like some fantasy tree. Nice,30,220,20","I love vague, dreamlike styles,50,40,20","impressive attention to subtleties,15,240,20","Hunter","impressive attention to subtleties,15,240,20","John","It gorgeous and i love how the tree is almost 3 dimensional.So many elements to it.,50,120,20","Nathan","It's alright, nothing I particularly like but it's just fine,-10,200,20","9"
"14862","","survey-text","116","957178","0.0-108.0-0.0","A3MVVJHNQESGP4","","","","{""Q0"":""TEEJFZDZXS""}","","","","","","","","","","","","","","","","","","","","","","",""
"4070.39999999851","","image-slider-response","117","961251","0.0-109.0","A3MVVJHNQESGP4","","","","","32","","","","","","","","","","","","","","","","","","","","","",""
"null","","image-button-response","118","966284","0.0-110.0","A3MVVJHNQESGP4","img_art/5.jpg","null","","","","","","","","","","","","","","","","","","","","","","","","",""
"4829","","image-button-response","119","971114","0.0-111.0","A3MVVJHNQESGP4","img_art/5.jpg","4","","","","","","","","","","","","","","","","","","","","","","","","",""
"310","","image-button-response","120","971428","0.0-112.0-0.0","A3MVVJHNQESGP4","img_art/5.jpg","5","","","","","","","","","","","","","","","","","","","","","","","","",""
"540","","image-button-response","121","971971","0.0-113.0-0.0","A3MVVJHNQESGP4","img_art/5.jpg","2","","","","","","","","","","","","","","","","","","","","","","","","",""
"null","","html-keyboard-response","122","972975","0.0-114.0","A3MVVJHNQESGP4","<p style=""font-size: 48px;"">+</p>","","","","","null","allTrialResponses","1000","1","10","img_art/5.jpg","32","TEEJFZDZXS","Mitchell,Nathan,John,Thomas,Jeremy,Hunter","Building remnants in the sand.,1,180,20","Not a fan of the themes,-30,200,20","It has a sense of vague familiarity that i like.Like a stick starting a fire at a campsite.,30,120,20","I'm confused by what I am looking at,-3,220,20","I don't hate it but I can't relate to it,1,60,20","strong appeal in contrast,27,240,20","Jeremy","I don't hate it but I can't relate to it,1,60,20","Hunter","strong appeal in contrast,27,240,20","John","It has a sense of vague familiarity that i like.Like a stick starting a fire at a campsite.,30,120,20","9"
"6899","","survey-text","123","979938","0.0-115.0-0.0","A3MVVJHNQESGP4","","","","{""Q0"":""our""}","","","","","","","","","","","","","","","","","","","","","","",""
"16086","","survey-text","124","996026","0.0-116.0-0.0","A3MVVJHNQESGP4","","","","{""Q0"":""Authentic""}","","","","","","","","","","","","","","","","","","","","","","",""
"3341","","image-slider-response","125","999370","0.0-117.0","A3MVVJHNQESGP4","","","","","16","","","","","","","","","","","","","","","","","","","","","",""
"null","","image-button-response","126","1004373","0.0-118.0","A3MVVJHNQESGP4","img_art/20.jpg","null","","","","","","","","","","","","","","","","","","","","","","","","",""
"1860","","image-button-response","127","1006235","0.0-119.0","A3MVVJHNQESGP4","img_art/20.jpg","4","","","","","","","","","","","","","","","","","","","","","","","","",""
"414","","image-button-response","128","1006651","0.0-120.0-0.0","A3MVVJHNQESGP4","img_art/20.jpg","5","","","","","","","","","","","","","","","","","","","","","","","","",""
"669","","image-button-response","129","1007322","0.0-121.0-0.0","A3MVVJHNQESGP4","img_art/20.jpg","2","","","","","","","","","","","","","","","","","","","","","","","","",""
"null","","html-keyboard-response","130","1009285","0.0-122.0","A3MVVJHNQESGP4","<p style=""font-size: 48px;"">+</p>","","","","","null","allTrialResponses","1500","1","11","img_art/20.jpg","16","Authentic","Derek,Taylor,John,Blake,Jeremy,Hunter","I like the calming mood of this painting,35,360,20","Not bad for all the southwestern people.,15,200,20","Its interesting.It almost seems like a painting of a landscape,14,120,20","reminds me of a dead animal in the west. ugly,-25,280,20","scared. makes me feel alone or abandoned,-11,60,20","feels underdeveloped,-11,240,20","Jeremy","scared. makes me feel alone or abandoned,-11,60,20","Hunter","feels underdeveloped,-11,240,20","John","Its interesting.It almost seems like a painting of a landscape,14,120,20","9"
"3349","","survey-text","131","1012642","0.0-123.0-0.0","A3MVVJHNQESGP4","","","","{""Q0"":""Authentic""}","","","","","","","","","","","","","","","","","","","","","","",""
"2637.89999999851","","image-slider-response","132","1015282","0.0-124.0","A3MVVJHNQESGP4","","","","","40","","","","","","","","","","","","","","","","","","","","","",""
"4502","","image-button-response","133","1020285","0.0-125.0","A3MVVJHNQESGP4","img_art/6.jpg","5","","","","","","","","","","","","","","","","","","","","","","","","",""
"497","","image-button-response","134","1020786","0.0-126.0","A3MVVJHNQESGP4","img_art/6.jpg","4","","","","","","","","","","","","","","","","","","","","","","","","",""
"285","","image-button-response","135","1021074","0.0-127.0-0.0","A3MVVJHNQESGP4","img_art/6.jpg","5","","","","","","","","","","","","","","","","","","","","","","","","",""
"581","","image-button-response","136","1021658","0.0-128.0-0.0","A3MVVJHNQESGP4","img_art/6.jpg","2","","","","","","","","","","","","","","","","","","","","","","","","",""
"null","","html-keyboard-response","137","1023163","0.0-129.0","A3MVVJHNQESGP4","<p style=""font-size: 48px;"">+</p>","","","","","null","allTrialResponses","1500","1","12","img_art/6.jpg","40","Authentic","Ryan,Jacob,John,Christopher,Jeremy,Hunter","Makes me feel lonely,-22,380,20","Is this a leaf?,4,340,20","It makes me stop and think about what the artist is trying to say.It creates a feeling of solitude and tranqulity,30,120,20","it's interesting but I don't love it,10,160,20","Kind of boring. I don't care for many abstracts,1,60,20","composition is engaging,28,240,20","Jeremy","Kind of boring. I don't care for many abstracts,1,60,20","Hunter","composition is engaging,28,240,20","John","It makes me stop and think about what the artist is trying to say.It creates a feeling of solitude and tranqulity,30,120,20","9"
"3450","","survey-text","138","1026626","0.0-130.0-0.0","A3MVVJHNQESGP4","","","","{""Q0"":""Authentic""}","","","","","","","","","","","","","","","","","","","","","","",""
"2926.2999999970198","","image-slider-response","139","1029554","0.0-131.0","A3MVVJHNQESGP4","","","","","41","","","","","","","","","","","","","","","","","","","","","",""
"4078","","image-button-response","140","1034561","0.0-132.0","A3MVVJHNQESGP4","img_art/2.jpg","4","","","","","","","","","","","","","","","","","","","","","","","","",""
"535","","image-button-response","141","1035098","0.0-133.0","A3MVVJHNQESGP4","img_art/2.jpg","4","","","","","","","","","","","","","","","","","","","","","","","","",""
"317","","image-button-response","142","1035418","0.0-134.0-0.0","A3MVVJHNQESGP4","img_art/2.jpg","5","","","","","","","","","","","","","","","","","","","","","","","","",""
"549","","image-button-response","143","1035970","0.0-135.0-0.0","A3MVVJHNQESGP4","img_art/2.jpg","2","","","","","","","","","","","","","","","","","","","","","","","","",""
"null","","html-keyboard-response","144","1036471","0.0-136.0","A3MVVJHNQESGP4","<p style=""font-size: 48px;"">+</p>","","","","","null","allTrialResponses","500","1","13","img_art/2.jpg","41","Authentic","Marcus,Lucas,John,Devin,Jeremy,Hunter","Only like the blues and teals in this. The rest is unappealing.,-15,60,20","Colorful, curious.,20,380,20","Its meh. Doesnt illicit any strong feelings in me,1,120,20","I don't really like this style,-5,380,20","Unhappy. I do not like it,-5,60,20","appealing colors,4,240,20","Jeremy","Unhappy. I do not like it,-5,60,20","Hunter","appealing colors,4,240,20","John","Its meh. Doesnt illicit any strong feelings in me,1,120,20","9"
"3677","","survey-text","145","1040154","0.0-137.0-0.0","A3MVVJHNQESGP4","","","","{""Q0"":""Authentic""}","","","","","","","","","","","","","","","","","","","","","","",""
"2837.699999999255","","image-slider-response","146","1042994","0.0-138.0","A3MVVJHNQESGP4","","","","","35","","","","","","","","","","","","","","","","","","","","","",""
"4693","","image-button-response","147","1047997","0.0-139.0","A3MVVJHNQESGP4","img_art/28.jpg","3","","","","","","","","","","","","","","","","","","","","","","","","",""
"193","","image-button-response","148","1048194","0.0-140.0","A3MVVJHNQESGP4","img_art/28.jpg","3","","","","","","","","","","","","","","","","","","","","","","","","",""
"14","","image-button-response","149","1048210","0.0-141.0-0.0","A3MVVJHNQESGP4","img_art/28.jpg","3","","","","","","","","","","","","","","","","","","","","","","","","",""
"703","","image-button-response","150","1051842","0.0-141.1-0.1","A3MVVJHNQESGP4","img_art/28.jpg","1","","","","","","","","","","","","","","","","","","","","","","","","",""
"398","","image-button-response","151","1052242","0.0-142.0-0.0","A3MVVJHNQESGP4","img_art/28.jpg","2","","","","","","","","","","","","","","","","","","","","","","","","",""
"null","","html-keyboard-response","152","1054293","0.0-143.0","A3MVVJHNQESGP4","<p style=""font-size: 48px;"">+</p>","","","","","null","allTrialResponses","1500","1","14","img_art/28.jpg","35","Authentic","Dylan,Steven,John,Grant,Jeremy,Hunter","Boring, looks like it belongs in a coffee shop,-20,40,20","It's a bike that was left abandoned by someone who doesnt care for it,1,160,20","Not a fan of the bleak and dreary colors,-10,120,20","The darker colors make this unnerving.,40,200,20","I just don't like it. It makes no sense to me,1,60,20","reminds me of kandinsky,14,240,20","Grant","The darker colors make this unnerving.,40,200,20","Steven","It's a bike that was left abandoned by someone who doesnt care for it,1,160,20","John","Not a fan of the bleak and dreary colors,-10,120,20","11"
"3244","","survey-text","153","1057546","0.0-144.0-0.0","A3MVVJHNQESGP4","","","","{""Q0"":""Authentic""}","","","","","","","","","","","","","","","","","","","","","","",""
"2301.900000002235","","image-slider-response","154","1059849","0.0-145.0","A3MVVJHNQESGP4","","","","","28","","","","","","","","","","","","","","","","","","","","","",""
"918","","image-button-response","155","1064855","0.0-146.0","A3MVVJHNQESGP4","img_art/8.jpg","4","","","","","","","","","","","","","","","","","","","","","","","","",""
"472","","image-button-response","156","1065330","0.0-147.0","A3MVVJHNQESGP4","img_art/8.jpg","4","","","","","","","","","","","","","","","","","","","","","","","","",""
"333","","image-button-response","157","1065666","0.0-148.0-0.0","A3MVVJHNQESGP4","img_art/8.jpg","5","","","","","","","","","","","","","","","","","","","","","","","","",""
"767","","image-button-response","158","1066435","0.0-149.0-0.0","A3MVVJHNQESGP4","img_art/8.jpg","2","","","","","","","","","","","","","","","","","","","","","","","","",""
"null","","html-keyboard-response","159","1067438","0.0-150.0","A3MVVJHNQESGP4","<p style=""font-size: 48px;"">+</p>","","","","","null","allTrialResponses","1000","1","15","img_art/8.jpg","28","Authentic","Michael,Steven,John,Grant,Stephen,Zachary","It is interesting to look at. Abstract but ordered.,9,140,20","very nice, i love what's going on here,21,160,20","I like how the more you like at it there are more things to discover.Very creative.,33,120,20","The stylized faces remind me of German expressionism in a very good way.,40,200,20","Has nice depth to it.,12,140,20","I like all of the faces that can be found in this piece. Interesting.,35,400,20","Stephen","Has nice depth to it.,12,140,20","Zachary","I like all of the faces that can be found in this piece. Interesting.,35,400,20","John","I like how the more you like at it there are more things to discover.Very creative.,33,120,20","11"
"9227","","survey-text","160","1076674","0.0-151.0-0.0","A3MVVJHNQESGP4","","","","{""Q0"":""course""}","","","","","","","","","","","","","","","","","","","","","","",""
"2990","","survey-text","161","1079666","0.0-152.0-0.0","A3MVVJHNQESGP4","","","","{""Q0"":""Authentic""}","","","","","","","","","","","","","","","","","","","","","","",""
"2357.699999999255","","image-slider-response","162","1082026","0.0-153.0","A3MVVJHNQESGP4","","","","","39","","","","","","","","","","","","","","","","","","","","","",""
"3998","","image-button-response","163","1087030","0.0-154.0","A3MVVJHNQESGP4","img_art/25.jpg","4","","","","","","","","","","","","","","","","","","","","","","","","",""
"593","","image-button-response","164","1087626","0.0-155.0","A3MVVJHNQESGP4","img_art/25.jpg","4","","","","","","","","","","","","","","","","","","","","","","","","",""
"391","","image-button-response","165","1088019","0.0-156.0-0.0","A3MVVJHNQESGP4","img_art/25.jpg","5","","","","","","","","","","","","","","","","","","","","","","","","",""
"555","","image-button-response","166","1088578","0.0-157.0-0.0","A3MVVJHNQESGP4","img_art/25.jpg","2","","","","","","","","","","","","","","","","","","","","","","","","",""
"null","","html-keyboard-response","167","1089080","0.0-158.0","A3MVVJHNQESGP4","<p style=""font-size: 48px;"">+</p>","","","","","null","allTrialResponses","500","1","16","img_art/25.jpg","39","Authentic","Dustin,Richard,John,Adrian,Stephen,Zachary","Reminds me of ancient civilization art. I like the aqua color; soothing to me.,1,20,20","interesting pattern and color choice, kind of unusual,2,340,20","Dark silhouette against the murky background Illicites an ominous feeling. Don't really like it.,-20,120,20","This piece makes me think of oppression and fighting it. Makes me feel calm, sad and strong.,11,60,20","It's nice but nothing special.,7,140,20","I like the green color, but the combination of green and a person with a long neck reminds me of aliens,-27,400,20","Stephen","It's nice but nothing special.,7,140,20","Zachary","I like the green color, but the combination of green and a person with a long neck reminds me of aliens,-27,400,20","John","Dark silhouette against the murky background Illicites an ominous feeling. Don't really like it.,-20,120,20","11"
"3762","","survey-text","168","1092866","0.0-159.0-0.0","A3MVVJHNQESGP4","","","","{""Q0"":""Authentic""}","","","","","","","","","","","","","","","","","","","","","","",""
"2286.199999999255","","image-slider-response","169","1095154","0.0-160.0","A3MVVJHNQESGP4","","","","","28","","","","","","","","","","","","","","","","","","","","","",""
"null","","image-button-response","170","1100318","0.0-161.0","A3MVVJHNQESGP4","img_art/22.jpg","null","","","","","","","","","","","","","","","","","","","","","","","","",""
"3049","","image-button-response","171","1103370","0.0-162.0","A3MVVJHNQESGP4","img_art/22.jpg","4","","","","","","","","","","","","","","","","","","","","","","","","",""
"278","","image-button-response","172","1103650","0.0-163.0-0.0","A3MVVJHNQESGP4","img_art/22.jpg","5","","","","","","","","","","","","","","","","","","","","","","","","",""
"542","","image-button-response","173","1104194","0.0-164.0-0.0","A3MVVJHNQESGP4","img_art/22.jpg","2","","","","","","","","","","","","","","","","","","","","","","","","",""
"null","","html-keyboard-response","174","1104696","0.0-165.0","A3MVVJHNQESGP4","<p style=""font-size: 48px;"">+</p>","","","","","null","allTrialResponses","500","1","17","img_art/22.jpg","28","Authentic","Tristan,Tyler,John,Jose,Stephen,Zachary","I appreciate the shapes but the abundance of primary colors make it seem garrish.,-10,300,20","Like the colors, and the even blur. The more I look, the more a story forms. A very narrative image.,18,320,20","Its okay,it doesnt make me feel any sort of strong emotion,1,120,20","Cool squares but what's the circle?,38,200,20","Didn't illicit any reaction,1,140,20","I like the vivid colors.,11,400,20","Stephen","Didn't illicit any reaction,1,140,20","Zachary","I like the vivid colors.,11,400,20","John","Its okay,it doesnt make me feel any sort of strong emotion,1,120,20","11"
"2914","","survey-text","175","1107618","0.0-166.0-0.0","A3MVVJHNQESGP4","","","","{""Q0"":""Authentic""}","","","","","","","","","","","","","","","","","","","","","","",""
"4093.900000002235","","image-slider-response","176","1111714","0.0-167.0","A3MVVJHNQESGP4","","","","","39","","","","","","","","","","","","","","","","","","","","","",""
"4541","","image-button-response","177","1116734","0.0-168.0","A3MVVJHNQESGP4","img_art/14.jpg","4","","","","","","","","","","","","","","","","","","","","","","","","",""
"449","","image-button-response","178","1117186","0.0-169.0","A3MVVJHNQESGP4","img_art/14.jpg","4","","","","","","","","","","","","","","","","","","","","","","","","",""
"349","","image-button-response","179","1117538","0.0-170.0-0.0","A3MVVJHNQESGP4","img_art/14.jpg","5","","","","","","","","","","","","","","","","","","","","","","","","",""
"636","","image-button-response","180","1118178","0.0-171.0-0.0","A3MVVJHNQESGP4","img_art/14.jpg","0","","","","","","","","","","","","","","","","","","","","","","","","",""
"null","","html-keyboard-response","181","1119684","0.0-172.0","A3MVVJHNQESGP4","<p style=""font-size: 48px;"">+</p>","","","","","null","allTrialResponses","1500","1","18","img_art/14.jpg","39","Authentic","Mark,Matthew,John,Robert,Stephen,Zachary","Cute little plant.,15,80,20","I like the color tone, it's kind of disturbing.,35,120,20","Beautiful tree,the use of water colors makes it soothing to look at,37,120,20","Late Winter when things are just starting to bloom.,21,360,20","I'm a fan of the background.,13,140,20","Did not evoke much feeling except confusion. I am not sure what to make of this one.,-20,400,20","Stephen","I'm a fan of the background.,13,140,20","Zachary","Did not evoke much feeling except confusion. I am not sure what to make of this one.,-20,400,20","Mark","Cute little plant.,15,80,20","11"
"3569","","survey-text","182","1123266","0.0-173.0-0.0","A3MVVJHNQESGP4","","","","{""Q0"":""Authentic""}","","","","","","","","","","","","","","","","","","","","","","",""
"2590.199999999255","","image-slider-response","183","1125858","0.0-174.0","A3MVVJHNQESGP4","","","","","36","","","","","","","","","","","","","","","","","","","","","",""
"null","","image-button-response","184","1131291","0.0-175.0","A3MVVJHNQESGP4","img_art/24.jpg","null","","","","","","","","","","","","","","","","","","","","","","","","",""
"1410","","image-button-response","185","1132706","0.0-176.0","A3MVVJHNQESGP4","img_art/24.jpg","4","","","","","","","","","","","","","","","","","","","","","","","","",""
"358","","image-button-response","186","1133066","0.0-177.0-0.0","A3MVVJHNQESGP4","img_art/24.jpg","5","","","","","","","","","","","","","","","","","","","","","","","","",""
"646","","image-button-response","187","1133714","0.0-178.0-0.0","A3MVVJHNQESGP4","img_art/24.jpg","2","","","","","","","","","","","","","","","","","","","","","","","","",""
"null","","html-keyboard-response","188","1134217","0.0-179.0","A3MVVJHNQESGP4","<p style=""font-size: 48px;"">+</p>","","","","","null","allTrialResponses","500","1","19","img_art/24.jpg","36","Authentic","Mark,Travis,Corey,Luis,Stephen,Zachary","Waterfall, and I love the coloring.,48,80,20","I like it...looks like a waterfall.,11,260,20","peaceful and serene but Im not the biggest landscape fan,4,260,20","Love the natural vibe,50,400,20","I like how the colors mix in this one.,20,140,20","Looks like a beautiful stream rolling through terrain of rocks and flowers.,43,400,20","Stephen","I like how the colors mix in this one.,20,140,20","Zachary","Looks like a beautiful stream rolling through terrain of rocks and flowers.,43,400,20","Corey","peaceful and serene but Im not the biggest landscape fan,4,260,20","11"
"20397","","survey-text","189","1154634","0.0-180.0-0.0","A3MVVJHNQESGP4","","","","{""Q0"":""beautiful""}","","","","","","","","","","","","","","","","","","","","","","",""
"2933.599999997765","","image-slider-response","190","1157570","0.0-181.0","A3MVVJHNQESGP4","","","","","26","","","","","","","","","","","","","","","","","","","","","",""
"4703","","image-button-response","191","1162573","0.0-182.0","A3MVVJHNQESGP4","img_art/7.jpg","4","","","","","","","","","","","","","","","","","","","","","","","","",""
"731","","image-button-response","192","1163306","0.0-183.0","A3MVVJHNQESGP4","img_art/7.jpg","3","","","","","","","","","","","","","","","","","","","","","","","","",""
"263","","image-button-response","193","1163570","0.0-184.0-0.0","A3MVVJHNQESGP4","img_art/7.jpg","4","","","","","","","","","","","","","","","","","","","","","","","","",""
"293","","image-button-response","194","1163867","0.0-185.0-0.0","A3MVVJHNQESGP4","img_art/7.jpg","5","","","","","","","","","","","","","","","","","","","","","","","","",""
"null","","html-keyboard-response","195","1165753","0.0-186.0","A3MVVJHNQESGP4","<p style=""font-size: 48px;"">+</p>","","","","","null","allTrialResponses","1500","1","20","img_art/7.jpg","26","beautiful","Evan,Jared,Corey,Trevor,Stephen,Zachary","I feel confused, am I looking at a painting or a close up picture of some sort of fly stone?,-19,140,20","it looks like a dog ran through some wet cement,-22,400,20","looks like a close up of irritated skin under a microscope,-49,260,20","looks like the surface of the moon,-28,280,20","Nice realistic feel but nothing stands out.,4,140,20","Looks like a desert or another planet. While the color choices are narrow, it's still interesting because it is very natural.,12,400,20","Trevor","looks like the surface of the moon,-28,280,20","Stephen","Nice realistic feel but nothing stands out.,4,140,20","Zachary","Looks like a desert or another planet. While the color choices are narrow, it's still interesting because it is very natural.,12,400,20","11"
"3995","","survey-text","196","1169770","0.0-187.0-0.0","A3MVVJHNQESGP4","","","","{""Q0"":""we""}","","","","","","","","","","","","","","","","","","","","","","",""
"2863","","survey-text","197","1172635","0.0-188.0-0.0","A3MVVJHNQESGP4","","","","{""Q0"":""beautiful""}","","","","","","","","","","","","","","","","","","","","","","",""
"3446.10000000149","","image-slider-response","198","1176083","0.0-189.0","A3MVVJHNQESGP4","","","","","33","","","","","","","","","","","","","","","","","","","","","",""
"null","","image-button-response","199","1181287","0.0-190.0","A3MVVJHNQESGP4","img_art/18.jpg","null","","","","","","","","","","","","","","","","","","","","","","","","",""
"3190","","image-button-response","200","1184482","0.0-191.0","A3MVVJHNQESGP4","img_art/18.jpg","4","","","","","","","","","","","","","","","","","","","","","","","","",""
"302","","image-button-response","201","1184787","0.0-192.0-0.0","A3MVVJHNQESGP4","img_art/18.jpg","5","","","","","","","","","","","","","","","","","","","","","","","","",""
"581","","image-button-response","202","1185371","0.0-193.0-0.0","A3MVVJHNQESGP4","img_art/18.jpg","2","","","","","","","","","","","","","","","","","","","","","","","","",""
"null","","html-keyboard-response","203","1187288","0.0-194.0","A3MVVJHNQESGP4","<p style=""font-size: 48px;"">+</p>","","","","","null","allTrialResponses","1000","1","21","img_art/18.jpg","33","beautiful","Kevin,Paul,Tanner,Trevor,Stephen,Zachary","Pirate ship in stormy seas before it sank.,11,320,20","It doesn't look like much, the colors are dark and it doesn't really make me feel anything.,-2,300,20","pegssus going into battle,25,180,20","it looks dreary and not uplifting,-10,280,20","Too abstract to me,-30,140,20","This one seems rather ghoulish to me.,-41,400,20","Stephen","Too abstract to me,-30,140,20","Zachary","This one seems rather ghoulish to me.,-41,400,20","Tanner","pegssus going into battle,25,180,20","11"
"7753","","survey-text","204","1195059","0.0-195.0-0.0","A3MVVJHNQESGP4","","","","{""Q0"":""beautiful""}","","","","","","","","","","","","","","","","","","","","","","",""
"3853.199999999255","","image-slider-response","205","1198914","0.0-196.0","A3MVVJHNQESGP4","","","","","36","","","","","","","","","","","","","","","","","","","","","",""
"3965","","image-button-response","206","1203926","0.0-197.0","A3MVVJHNQESGP4","img_art/9.jpg","4","","","","","","","","","","","","","","","","","","","","","","","","",""
"617","","image-button-response","207","1204546","0.0-198.0","A3MVVJHNQESGP4","img_art/9.jpg","4","","","","","","","","","","","","","","","","","","","","","","","","",""
"502","","image-button-response","208","1205050","0.0-199.0-0.0","A3MVVJHNQESGP4","img_art/9.jpg","5","","","","","","","","","","","","","","","","","","","","","","","","",""
"1412","","image-button-response","209","1206466","0.0-200.0-0.0","A3MVVJHNQESGP4","img_art/9.jpg","2","","","","","","","","","","","","","","","","","","","","","","","","",""
"null","","html-keyboard-response","210","1206969","0.0-201.0","A3MVVJHNQESGP4","<p style=""font-size: 48px;"">+</p>","","","","","null","allTrialResponses","500","1","22","img_art/9.jpg","36","beautiful","Joshua,Antonio,Tanner,Daniel,Stephen,Zachary","Someone lying in bed?  Don't care for it.,-14,240,20","Stirs up emotions of watching someone sleep which is relaxing,11,220,20","sleep, calm, safe,12,180,20","A troubled painter was influenced by anger and mad at the woman in the middle, color not bad,-32,320,20","Too much going on, don't know what the focus is,-11,140,20","It looks like a lady taking a peaceful nap on a blanket in the grass.,41,400,20","Stephen","Too much going on, don't know what the focus is,-11,140,20","Zachary","It looks like a lady taking a peaceful nap on a blanket in the grass.,41,400,20","Tanner","sleep, calm, safe,12,180,20","11"
"3859","","survey-text","211","1210833","0.0-202.0-0.0","A3MVVJHNQESGP4","","","","{""Q0"":""beautiful""}","","","","","","","","","","","","","","","","","","","","","","",""
"2133.89999999851","","image-slider-response","212","1212969","0.0-203.0","A3MVVJHNQESGP4","","","","","32","","","","","","","","","","","","","","","","","","","","","",""
"null","","image-button-response","213","1218294","0.0-204.0","A3MVVJHNQESGP4","img_art/4.jpg","null","","","","","","","","","","","","","","","","","","","","","","","","",""
"7298","","image-button-response","214","1225594","0.0-205.0","A3MVVJHNQESGP4","img_art/4.jpg","4","","","","","","","","","","","","","","","","","","","","","","","","",""
"438","","image-button-response","215","1226036","0.0-206.0-0.0","A3MVVJHNQESGP4","img_art/4.jpg","5","","","","","","","","","","","","","","","","","","","","","","","","",""
"642","","image-button-response","216","1226682","0.0-207.0-0.0","A3MVVJHNQESGP4","img_art/4.jpg","2","","","","","","","","","","","","","","","","","","","","","","","","",""
"null","","html-keyboard-response","217","1228306","0.0-208.0","A3MVVJHNQESGP4","<p style=""font-size: 48px;"">+</p>","","","","","null","allTrialResponses","1500","1","23","img_art/4.jpg","32","beautiful","Nathaniel,Isaiah,Tanner,Shane,Stephen,Zachary","Boring and tasteless. Almost reminds me of when an art gallery called a banana 'art',-42,220,20","The sickly looking colors make me feel very uncomfortable.,-35,300,20","stresses me out, uncomfortable,-18,180,20","Looks like a creative hand,45,80,20","Just doesn't look nice.,-40,140,20","Not a huge fan of the color story, but it reminds me of a child finger-painting.,12,400,20","Stephen","Just doesn't look nice.,-40,140,20","Zachary","Not a huge fan of the color story, but it reminds me of a child finger-painting.,12,400,20","Tanner","stresses me out, uncomfortable,-18,180,20","11"
"11729","","survey-text","218","1240089","0.0-209.0-0.0","A3MVVJHNQESGP4","","","","{""Q0"":""beautiful""}","","","","","","","","","","","","","","","","","","","","","","",""
"4301.699999999255","","image-slider-response","219","1244393","0.0-210.0","A3MVVJHNQESGP4","","","","","30","","","","","","","","","","","","","","","","","","","","","",""
"null","","image-button-response","220","1249398","0.0-211.0","A3MVVJHNQESGP4","img_art/10.jpg","null","","","","","","","","","","","","","","","","","","","","","","","","",""
"785","","image-button-response","221","1250186","0.0-212.0","A3MVVJHNQESGP4","img_art/10.jpg","4","","","","","","","","","","","","","","","","","","","","","","","","",""
"350","","image-button-response","222","1250538","0.0-213.0-0.0","A3MVVJHNQESGP4","img_art/10.jpg","5","","","","","","","","","","","","","","","","","","","","","","","","",""
"797","","image-button-response","223","1251338","0.0-214.0-0.0","A3MVVJHNQESGP4","img_art/10.jpg","2","","","","","","","","","","","","","","","","","","","","","","","","",""
"null","","html-keyboard-response","224","1252341","0.0-215.0","A3MVVJHNQESGP4","<p style=""font-size: 48px;"">+</p>","","","","","null","allTrialResponses","1000","1","24","img_art/10.jpg","30","beautiful","Bryan,Patrick,Tanner,Mason,Stephen,Zachary","First impression was musical instrument then, because of the gray colors, death.,5,400,20","I don't like the colors,-20,280,20","music, serenity, love,33,180,20","It's art. (for some),7,100,20","Very nice painting, would like it more with different color choice.,6,140,20","Reminds me of a terrarium with cacti inside. It reminds me of home.,27,400,20","Stephen","Very nice painting, would like it more with different color choice.,6,140,20","Zachary","Reminds me of a terrarium with cacti inside. It reminds me of home.,27,400,20","Tanner","music, serenity, love,33,180,20","11"
"3287","","survey-text","225","1255642","0.0-216.0-0.0","A3MVVJHNQESGP4","","","","{""Q0"":""beautiful""}","","","","","","","","","","","","","","","","","","","","","","",""
"3300.5","","image-slider-response","226","1258945","0.0-217.0","A3MVVJHNQESGP4","","","","","30","","","","","","","","","","","","","","","","","","","","","",""
"null","","image-button-response","227","1264291","0.0-218.0","A3MVVJHNQESGP4","img_art/23.jpg","null","","","","","","","","","","","","","","","","","","","","","","","","",""
"2242","","image-button-response","228","1266538","0.0-219.0","A3MVVJHNQESGP4","img_art/23.jpg","4","","","","","","","","","","","","","","","","","","","","","","","","",""
"333","","image-button-response","229","1266874","0.0-220.0-0.0","A3MVVJHNQESGP4","img_art/23.jpg","5","","","","","","","","","","","","","","","","","","","","","","","","",""
"780","","image-button-response","230","1267659","0.0-221.0-0.0","A3MVVJHNQESGP4","img_art/23.jpg","2","","","","","","","","","","","","","","","","","","","","","","","","",""
"null","","html-keyboard-response","231","1269287","0.0-222.0","A3MVVJHNQESGP4","<p style=""font-size: 48px;"">+</p>","","","","","null","allTrialResponses","1000","1","25","img_art/23.jpg","30","beautiful","Cole,Ian,Tanner,William,Stephen,Zachary","White in the middle look like people dancing naked,19,200,20","It's very colorful and different, the white looks like people dancing,26,260,20","fsiries, happy, spiritual,16,180,20","enjoy the colors,23,380,20","Solid colors but the white throws it off for me.,4,140,20","Vivid colors and the white in the middle looks like people dancing.,31,400,20","Stephen","Solid colors but the white throws it off for me.,4,140,20","Zachary","Vivid colors and the white in the middle looks like people dancing.,31,400,20","Tanner","fsiries, happy, spiritual,16,180,20","11"
"12182","","survey-text","232","1281481","0.0-223.0-0.0","A3MVVJHNQESGP4","","","","{""Q0"":""table""}","","","","","","","","","","","","","","","","","","","","","","",""
"4574","","survey-text","233","1286057","0.0-224.0-0.0","A3MVVJHNQESGP4","","","","{""Q0"":""beautiful""}","","","","","","","","","","","","","","","","","","","","","","",""
"2886.10000000149","","image-slider-response","234","1288946","0.0-225.0","A3MVVJHNQESGP4","","","","","33","","","","","","","","","","","","","","","","","","","","","",""
"null","","image-button-response","235","1294289","0.0-226.0","A3MVVJHNQESGP4","img_art/15.jpg","null","","","","","","","","","","","","","","","","","","","","","","","","",""
"2188","","image-button-response","236","1296482","0.0-227.0","A3MVVJHNQESGP4","img_art/15.jpg","4","","","","","","","","","","","","","","","","","","","","","","","","",""
"373","","image-button-response","237","1296858","0.0-228.0-0.0","A3MVVJHNQESGP4","img_art/15.jpg","5","","","","","","","","","","","","","","","","","","","","","","","","",""
"782","","image-button-response","238","1297642","0.0-229.0-0.0","A3MVVJHNQESGP4","img_art/15.jpg","2","","","","","","","","","","","","","","","","","","","","","","","","",""
"null","","html-keyboard-response","239","1298644","0.0-230.0","A3MVVJHNQESGP4","<p style=""font-size: 48px;"">+</p>","","","","","null","allTrialResponses","1000","1","26","img_art/15.jpg","33","beautiful","Juan,Gabriel,Tanner,Jason,Stephen,Zachary","I don't even know what's going on here. Again, this is too abstract.,-21,260,20","i kinda like this one but wouldnt buy it for myself,17,160,20","darkness, hatred, fear,-29,180,20","Simplicity of colors is nice,11,20,20","I like how the black and blue clash.,14,140,20","Reminds me of blue birds in a tree at night. I love nature.,40,400,20","Stephen","I like how the black and blue clash.,14,140,20","Zachary","Reminds me of blue birds in a tree at night. I love nature.,40,400,20","Tanner","darkness, hatred, fear,-29,180,20","11"
"3019","","survey-text","240","1301682","0.0-231.0-0.0","A3MVVJHNQESGP4","","","","{""Q0"":""beautiful""}","","","","","","","","","","","","","","","","","","","","","","",""
"2933.800000000745","","image-slider-response","241","1304618","0.0-232.0","A3MVVJHNQESGP4","","","","","40","","","","","","","","","","","","","","","","","","","","","",""
"2774","","image-button-response","242","1309625","0.0-233.0","A3MVVJHNQESGP4","img_art/11.jpg","4","","","","","","","","","","","","","","","","","","","","","","","","",""
"407","","image-button-response","243","1310035","0.0-234.0","A3MVVJHNQESGP4","img_art/11.jpg","4","","","","","","","","","","","","","","","","","","","","","","","","",""
"76","","image-button-response","244","1310114","0.0-235.0-0.0","A3MVVJHNQESGP4","img_art/11.jpg","4","","","","","","","","","","","","","","","","","","","","","","","","",""
"806","","image-button-response","245","1314050","0.0-235.1-0.1","A3MVVJHNQESGP4","img_art/11.jpg","5","","","","","","","","","","","","","","","","","","","","","","","","",""
"734","","image-button-response","246","1314786","0.0-236.0-0.0","A3MVVJHNQESGP4","img_art/11.jpg","2","","","","","","","","","","","","","","","","","","","","","","","","",""
"null","","html-keyboard-response","247","1315787","0.0-237.0","A3MVVJHNQESGP4","<p style=""font-size: 48px;"">+</p>","","","","","null","allTrialResponses","1000","1","27","img_art/11.jpg","40","beautiful","Jake,Alexis,Tanner,Dakota,Stephen,Zachary","This is very unappealing.,-11,360,20","This photo makes me feel bleak,-16,140,20","small town, friendly. calm,35,180,20","i think of beatnik music and dark piano lounges,25,280,20","Very good use of colors,44,140,20","Makes me think of a futuristic scene of vehicles flying in the sky in a city.,36,400,20","Stephen","Very good use of colors,44,140,20","Zachary","Makes me think of a futuristic scene of vehicles flying in the sky in a city.,36,400,20","Tanner","small town, friendly. calm,35,180,20","13"
"2554","","survey-text","248","1318361","0.0-238.0-0.0","A3MVVJHNQESGP4","","","","{""Q0"":""beautiful""}","","","","","","","","","","","","","","","","","","","","","","",""
"2326.300000000745","","image-slider-response","249","1320689","0.0-239.0","A3MVVJHNQESGP4","","","","","30","","","","","","","","","","","","","","","","","","","","","",""
"1230","","image-button-response","250","1325695","0.0-240.0","A3MVVJHNQESGP4","img_art/19.jpg","4","","","","","","","","","","","","","","","","","","","","","","","","",""
"480","","image-button-response","251","1326178","0.0-241.0","A3MVVJHNQESGP4","img_art/19.jpg","4","","","","","","","","","","","","","","","","","","","","","","","","",""
"335","","image-button-response","252","1326515","0.0-242.0-0.0","A3MVVJHNQESGP4","img_art/19.jpg","5","","","","","","","","","","","","","","","","","","","","","","","","",""
"989","","image-button-response","253","1327507","0.0-243.0-0.0","A3MVVJHNQESGP4","img_art/19.jpg","3","","","","","","","","","","","","","","","","","","","","","","","","",""
"null","","html-keyboard-response","254","1328010","0.0-244.0","A3MVVJHNQESGP4","<p style=""font-size: 48px;"">+</p>","","","","","null","allTrialResponses","500","1","28","img_art/19.jpg","30","beautiful","Kyle,Bryce,Tanner,Justin,Stephen,Zachary","Just stirred a negative reaction. Don't really like it perhaps because of the structure?,-8,340,20","Very pretty and colorful.,23,20,20","city, stress of urbanism, slightly panicked,2,180,20","It looks too much of a rough sketch. Don't really enjoy looking at it.,-9,280,20","Solid use of colors but wished it looked more realistic.,12,140,20","Reminds me of a busy town. Chaotic in nature.,-11,400,20","Stephen","Solid use of colors but wished it looked more realistic.,12,140,20","Zachary","Reminds me of a busy town. Chaotic in nature.,-11,400,20","Justin","It looks too much of a rough sketch. Don't really enjoy looking at it.,-9,280,20","13"
"2671","","survey-text","255","1330690","0.0-245.0-0.0","A3MVVJHNQESGP4","","","","{""Q0"":""beautiful""}","","","","","","","","","","","","","","","","","","","","","","",""
"2053.60000000149","","image-slider-response","256","1332746","0.0-246.0","A3MVVJHNQESGP4","","","","","30","","","","","","","","","","","","","","","","","","","","","",""
"2389","","image-button-response","257","1337750","0.0-247.0","A3MVVJHNQESGP4","img_art/29.jpg","4","","","","","","","","","","","","","","","","","","","","","","","","",""
"784","","image-button-response","258","1338538","0.0-248.0","A3MVVJHNQESGP4","img_art/29.jpg","4","","","","","","","","","","","","","","","","","","","","","","","","",""
"693","","image-button-response","259","1339234","0.0-249.0-0.0","A3MVVJHNQESGP4","img_art/29.jpg","5","","","","","","","","","","","","","","","","","","","","","","","","",""
"710","","image-button-response","260","1339947","0.0-250.0-0.0","A3MVVJHNQESGP4","img_art/29.jpg","2","","","","","","","","","","","","","","","","","","","","","","","","",""
"null","","html-keyboard-response","261","1340950","0.0-251.0","A3MVVJHNQESGP4","<p style=""font-size: 48px;"">+</p>","","","","","null","allTrialResponses","1000","1","29","img_art/29.jpg","30","beautiful","Jonathan,Colton,Nicholas,Justin,Stephen,Zachary","This one feels scary in a good way,30,140,20","interesting, but I wouldn't put it on my wall,8,220,20","I love this things almost hidden in it like paint brush and other details,50,240,20","It looks likes there's a lot going on, but they don't fit together.,2,280,20","Really enjoy everything about this one.,50,140,20","It looks like someone did not like their art and drew an x over it.,-32,400,20","Stephen","Really enjoy everything about this one.,50,140,20","Zachary","It looks like someone did not like their art and drew an x over it.,-32,400,20","Nicholas","I love this things almost hidden in it like paint brush and other details,50,240,20","13"
"2429","","survey-text","262","1343386","0.0-252.0-0.0","A3MVVJHNQESGP4","","","","{""Q0"":""beautiful""}","","","","","","","","","","","","","","","","","","","","","","",""
"1974.1000000014901","","image-slider-response","263","1345361","0.0-253.0","A3MVVJHNQESGP4","","","","","37","","","","","","","","","","","","","","","","","","","","","",""
"4455","","image-button-response","264","1350364","0.0-254.0","A3MVVJHNQESGP4","img_art/27.jpg","4","","","","","","","","","","","","","","","","","","","","","","","","",""
"2802","","image-button-response","265","1353171","0.0-255.0","A3MVVJHNQESGP4","img_art/27.jpg","4","","","","","","","","","","","","","","","","","","","","","","","","",""
"821","","image-button-response","266","1353995","0.0-256.0-0.0","A3MVVJHNQESGP4","img_art/27.jpg","5","","","","","","","","","","","","","","","","","","","","","","","","",""
"596","","image-button-response","267","1354594","0.0-257.0-0.0","A3MVVJHNQESGP4","img_art/27.jpg","3","","","","","","","","","","","","","","","","","","","","","","","","",""
"null","","html-keyboard-response","268","1355596","0.0-258.0","A3MVVJHNQESGP4","<p style=""font-size: 48px;"">+</p>","","","","","null","allTrialResponses","1000","1","30","img_art/27.jpg","37","beautiful","Charles,Austin,Nicholas,Logan,Stephen,Zachary","Nothing stands out,-23,100,20","Like the abstractness of this picture,20,240,20","I like all it has going but i wouldnt put it in my house unless my child did it,25,240,20","demon vs angel brawl over lemon lime sprite,-10,360,20","This one does nothing for me.,2,140,20","Color story is boring in nature, and I feel nothing but boredom from this piece.,-20,400,20","Stephen","This one does nothing for me.,2,140,20","Zachary","Color story is boring in nature, and I feel nothing but boredom from this piece.,-20,400,20","Logan","demon vs angel brawl over lemon lime sprite,-10,360,20","13"
"5644","","image-button-response_instructions","269","1361258","0.0-259.0","A3MVVJHNQESGP4","","0","instructions","","","","","","","","","","","","","","","","","","","","","","","",""
"1074","","image-button-response","270","1362338","0.0-260.0","A3MVVJHNQESGP4","","0","","","","","","","","","","","","","","","","","","","","","","","","",""
