"rt","url","trial_type","trial_index","time_elapsed","internal_node_id","participant_id","stimulus","button_pressed","Name","responses","response","key_press","variableName","fixationTime","condition","trial","photo","subjectRating","subjectResponse","agentsNames","agent_1_Response","agent_2_Response","agent_3_Response","agent_4_Response","agent_5_Response","agent_6_Response","kept_1_name","kept_1_response","kept_2_name","kept_2_response","kept_3_name","kept_3_response","errorCounter"
"20579","external_page_harvard.html","external-html","0","20643","0.0-0.0","A3MYPYBVHX7FQ2","","","","","","","","","","","","","","","","","","","","","","","","","","",""
"2572","","image-button-response","1","23217","0.0-1.0","A3MYPYBVHX7FQ2","","0","","","","","","","","","","","","","","","","","","","","","","","","",""
"5984","","image-button-response","2","29205","0.0-2.0-0.0","A3MYPYBVHX7FQ2","","1","phone","","","","","","","","","","","","","","","","","","","","","","","",""
"8098","","survey-text","3","37305","0.0-3.0-0.0","A3MYPYBVHX7FQ2","","","","{""Q0"":""A3MYPYBVHX7FQ2""}","","","","","","","","","","","","","","","","","","","","","","",""
"24436","","image-button-response_instructions","4","61743","0.0-4.0","A3MYPYBVHX7FQ2","","0","instructions","","","","","","","","","","","","","","","","","","","","","","","",""
"15671","","image-button-response_instructions","5","77415","0.0-5.0","A3MYPYBVHX7FQ2","img_art/ins/popularity/ins1.png","0","instructions","","","","","","","","","","","","","","","","","","","","","","","",""
"6129","","image-button-response_instructions","6","83546","0.0-6.0","A3MYPYBVHX7FQ2","img_art/ins/popularity/ins2.png","0","instructions","","","","","","","","","","","","","","","","","","","","","","","",""
"8524","","image-button-response_instructions","7","92071","0.0-7.0","A3MYPYBVHX7FQ2","img_art/ins/popularity/ins2Extreme.png","0","instructions","","","","","","","","","","","","","","","","","","","","","","","",""
"9177","","image-button-response_instructions","8","101249","0.0-8.0","A3MYPYBVHX7FQ2","img_art/ins/popularity/ins3KEEPpop.PNG","0","instructions","","","","","","","","","","","","","","","","","","","","","","","",""
"6318","","image-button-response_instructions","9","107568","0.0-9.0","A3MYPYBVHX7FQ2","img_art/ins/popularity/ins3ANamepop.PNG","0","instructions","","","","","","","","","","","","","","","","","","","","","","","",""
"4230","","image-button-response_instructions","10","111798","0.0-10.0","A3MYPYBVHX7FQ2","img_art/ins/popularity/ins3ARatingpop.png","0","instructions","","","","","","","","","","","","","","","","","","","","","","","",""
"7066","","image-button-response_instructions","11","118866","0.0-11.0","A3MYPYBVHX7FQ2","img_art/ins/popularity/ins3ATextpop.png","0","instructions","","","","","","","","","","","","","","","","","","","","","","","",""
"4497","","image-button-response_instructions","12","123364","0.0-12.0","A3MYPYBVHX7FQ2","img_art/ins/popularity/ins3ALikespop.png","0","instructions","","","","","","","","","","","","","","","","","","","","","","","",""
"29084","","image-button-response_instructions","13","152450","0.0-13.0","A3MYPYBVHX7FQ2","img_art/ins/popularity/ins3KEEPpop.PNG","0","instructions","","","","","","","","","","","","","","","","","","","","","","","",""
"20087","","image-button-response_instructions","14","172539","0.0-14.0","A3MYPYBVHX7FQ2","img_art/ins/popularity/ins3_5RED.png","0","instructions","","","","","","","","","","","","","","","","","","","","","","","",""
"40070","","image-button-response_instructions","15","212609","0.0-15.0","A3MYPYBVHX7FQ2","img_art/ins/popularity/ins3KEEPpop.PNG","0","instructions","","","","","","","","","","","","","","","","","","","","","","","",""
"7334","","image-button-response_instructions","16","219944","0.0-16.0","A3MYPYBVHX7FQ2","img_art/ins/popularity/ins4KEEPpop.PNG","0","instructions","","","","","","","","","","","","","","","","","","","","","","","",""
"9217","","image-button-response_instructions","17","229162","0.0-17.0","A3MYPYBVHX7FQ2","img_art/ins/popularity/ins5KEEPpop.PNG","0","instructions","","","","","","","","","","","","","","","","","","","","","","","",""
"1954","","image-button-response_instructions","18","231117","0.0-18.0","A3MYPYBVHX7FQ2","","0","instructions","","","","","","","","","","","","","","","","","","","","","","","",""
"8770","","survey-text","19","239911","0.0-19.0-0.0","A3MYPYBVHX7FQ2","","","","{""Q0"":""but""}","","","","","","","","","","","","","","","","","","","","","","",""
"10815","","survey-text","20","250727","0.0-20.0-0.0","A3MYPYBVHX7FQ2","","","","{""Q0"":""It's colorful, I like it.""}","","","","","","","","","","","","","","","","","","","","","","",""
"10864.39999999851","","image-slider-response","21","261594","0.0-21.0","A3MYPYBVHX7FQ2","","","","","11","","","","","","","","","","","","","","","","","","","","","",""
"null","","image-button-response","22","266598","0.0-22.0","A3MYPYBVHX7FQ2","img_art/ins/1.jpg","null","","","","","","","","","","","","","","","","","","","","","","","","",""
"8592","","image-button-response","23","275194","0.0-23.0","A3MYPYBVHX7FQ2","img_art/ins/1.jpg","5","","","","","","","","","","","","","","","","","","","","","","","","",""
"4789","","image-button-response","24","279986","0.0-24.0-0.0","A3MYPYBVHX7FQ2","img_art/ins/1.jpg","1","","","","","","","","","","","","","","","","","","","","","","","","",""
"1368","","image-button-response","25","281357","0.0-25.0-0.0","A3MYPYBVHX7FQ2","img_art/ins/1.jpg","3","","","","","","","","","","","","","","","","","","","","","","","","",""
"null","","html-keyboard-response","26","282361","0.0-26.0","A3MYPYBVHX7FQ2","<p style=""font-size: 48px;"">+</p>","","","","","null","allTrialResponses","1000","1","-2","img_art/ins/1.jpg","11","It's colorful, I like it.","Adam,Alex,Ben,Carl,Daniel,Jack","Seems like doodles,-20,20,20","very creative work.,36,40,20","This color reminds me of poo,-46,60,20","very calming artwork,42,80,20","It looks like a murder scene.,-48,100,20","I like the sophisticated brushwork,40,120,20","Jack","I like the sophisticated brushwork,40,120,20","Alex","very creative work.,36,40,20","Carl","very calming artwork,42,80,20","0"
"16946","","survey-text","27","299312","0.0-27.0-0.0","A3MYPYBVHX7FQ2","","","","{""Q0"":""I love the red in this, it puts me in a good mood.""}","","","","","","","","","","","","","","","","","","","","","","",""
"4513.10000000149","","image-slider-response","28","303826","0.0-28.0","A3MYPYBVHX7FQ2","","","","","35","","","","","","","","","","","","","","","","","","","","","",""
"null","","image-button-response","29","308831","0.0-29.0","A3MYPYBVHX7FQ2","img_art/ins/2.jpg","null","","","","","","","","","","","","","","","","","","","","","","","","",""
"1832","","image-button-response","30","310665","0.0-30.0","A3MYPYBVHX7FQ2","img_art/ins/2.jpg","3","","","","","","","","","","","","","","","","","","","","","","","","",""
"1748","","image-button-response","31","312415","0.0-31.0-0.0","A3MYPYBVHX7FQ2","img_art/ins/2.jpg","4","","","","","","","","","","","","","","","","","","","","","","","","",""
"7672","","image-button-response","32","320089","0.0-32.0-0.0","A3MYPYBVHX7FQ2","img_art/ins/2.jpg","1","","","","","","","","","","","","","","","","","","","","","","","","",""
"null","","html-keyboard-response","33","321091","0.0-33.0","A3MYPYBVHX7FQ2","<p style=""font-size: 48px;"">+</p>","","","","","null","allTrialResponses","1000","1","-1","img_art/ins/2.jpg","35","I love the red in this, it puts me in a good mood.","James,Alex,Kyle,Carl,John,Jack","looks too angry,-50,140,20","I like the blocks of color arrangements,30,40,20","Idk, it is just annoying,-32,180,20","I can feel the artist's passion in it,45,80,20","love the texture of paint,48,160,20","I would never be able to compose a sophisticated pallete like this,48,120,20","Carl","I can feel the artist's passion in it,45,80,20","John","love the texture of paint,48,160,20","Alex","I like the blocks of color arrangements,30,40,20","0"
"12717","","survey-text","34","333811","0.0-34.0-0.0","A3MYPYBVHX7FQ2","","","","{""Q0"":""This makes me feel a little cold.""}","","","","","","","","","","","","","","","","","","","","","","",""
"6444.19999999553","","image-slider-response","35","340257","0.0-35.0","A3MYPYBVHX7FQ2","","","","","22","","","","","","","","","","","","","","","","","","","","","",""
"4765","","image-button-response","36","345261","0.0-36.0","A3MYPYBVHX7FQ2","img_art/ins/3.jpg","1","","","","","","","","","","","","","","","","","","","","","","","","",""
"636","","image-button-response","37","345899","0.0-37.0","A3MYPYBVHX7FQ2","img_art/ins/3.jpg","1","","","","","","","","","","","","","","","","","","","","","","","","",""
"3016","","image-button-response","38","348917","0.0-38.0-0.0","A3MYPYBVHX7FQ2","img_art/ins/3.jpg","4","","","","","","","","","","","","","","","","","","","","","","","","",""
"2510","","image-button-response","39","351431","0.0-39.0-0.0","A3MYPYBVHX7FQ2","img_art/ins/3.jpg","5","","","","","","","","","","","","","","","","","","","","","","","","",""
"null","","html-keyboard-response","40","351933","0.0-40.0","A3MYPYBVHX7FQ2","<p style=""font-size: 48px;"">+</p>","","","","","null","allTrialResponses","500","1","0","img_art/ins/3.jpg","22","This makes me feel a little cold.","Mike,Alex,Ron,Carl,John,Sam","enjoy the different shades of blue,22,200,20","calming blue is very nice,36,40,20","It looks depressing,-26,220,20","It's an alright work,15,80,20","I like the overlapping of brushes,41,160,20","I can feel a rainy day from this painting,18,240,20","Alex","calming blue is very nice,36,40,20","John","I like the overlapping of brushes,41,160,20","Sam","I can feel a rainy day from this painting,18,240,20","0"
"14052","","image-button-response_instructions","41","365993","0.0-41.0","A3MYPYBVHX7FQ2","","0","instructions","","","","","","","","","","","","","","","","","","","","","","","",""
"9708","","survey-likert","42","375702","0.0-42.0-0.0","A3MYPYBVHX7FQ2","","","","{""Q0"":"""",""Q1"":0,""Q2"":1}","","","","","","","","","","","","","","","","","","","","","","",""
"7766","","survey-text","43","383473","0.0-43.0-0.0","A3MYPYBVHX7FQ2","","","","{""Q0"":""rock""}","","","","","","","","","","","","","","","","","","","","","","",""
"8976","","survey-text","44","392450","0.0-44.0-0.0","A3MYPYBVHX7FQ2","","","","{""Q0"":""It feels very cozy""}","","","","","","","","","","","","","","","","","","","","","","",""
"5113.20000000298","","image-slider-response","45","397565","0.0-45.0","A3MYPYBVHX7FQ2","","","","","19","","","","","","","","","","","","","","","","","","","","","",""
"null","","image-button-response","46","402594","0.0-46.0","A3MYPYBVHX7FQ2","img_art/27.jpg","null","","","","","","","","","","","","","","","","","","","","","","","","",""
"4930","","image-button-response","47","407527","0.0-47.0","A3MYPYBVHX7FQ2","img_art/27.jpg","2","","","","","","","","","","","","","","","","","","","","","","","","",""
"3923","","image-button-response","48","411452","0.0-48.0-0.0","A3MYPYBVHX7FQ2","img_art/27.jpg","1","","","","","","","","","","","","","","","","","","","","","","","","",""
"18690","","image-button-response","49","430144","0.0-49.0-0.0","A3MYPYBVHX7FQ2","img_art/27.jpg","4","","","","","","","","","","","","","","","","","","","","","","","","",""
"null","","html-keyboard-response","50","431146","0.0-50.0","A3MYPYBVHX7FQ2","<p style=""font-size: 48px;"">+</p>","","","","","null","allTrialResponses","1000","1","1","img_art/27.jpg","19","It feels very cozy","Aaron,Shane,Alexis,Alejandro,Justin,Alexander","It looks like when my little sister took magic markers to the wall.,-11,20,20","Makes me feel warm inside,21,80,20","I like hoe it looks like a fall day in a city,45,140,20","Muddied and directionless. Like someone dragged a brush across the paper for the sake of doing something.,-50,80,20","The colors are put together in an interesting way.,-9,280,20","Messy field of various plants.,-5,120,20","Alexis","I like hoe it looks like a fall day in a city,45,140,20","Shane","Makes me feel warm inside,21,80,20","Justin","The colors are put together in an interesting way.,-9,280,20","0"
"14594","","survey-text","51","445750","0.0-51.0-0.0","A3MYPYBVHX7FQ2","","","","{""Q0"":""Reminds me of Halloween""}","","","","","","","","","","","","","","","","","","","","","","",""
"3514.7000000029802","","image-slider-response","52","449266","0.0-52.0","A3MYPYBVHX7FQ2","","","","","20","","","","","","","","","","","","","","","","","","","","","",""
"2410","","image-button-response","53","454269","0.0-53.0","A3MYPYBVHX7FQ2","img_art/14.jpg","0","","","","","","","","","","","","","","","","","","","","","","","","",""
"422","","image-button-response","54","454696","0.0-54.0","A3MYPYBVHX7FQ2","img_art/14.jpg","1","","","","","","","","","","","","","","","","","","","","","","","","",""
"4246","","image-button-response","55","458945","0.0-55.0-0.0","A3MYPYBVHX7FQ2","img_art/14.jpg","4","","","","","","","","","","","","","","","","","","","","","","","","",""
"8288","","image-button-response","56","467234","0.0-56.0-0.0","A3MYPYBVHX7FQ2","img_art/14.jpg","5","","","","","","","","","","","","","","","","","","","","","","","","",""
"null","","html-keyboard-response","57","468237","0.0-57.0","A3MYPYBVHX7FQ2","<p style=""font-size: 48px;"">+</p>","","","","","null","allTrialResponses","1000","1","2","img_art/14.jpg","20","Reminds me of Halloween","Lucas,Shane,Alexis,Michael,Justin,Edward","In my opinion it's spectacular.,35,380,20","Feels like a camp fire among friends,22,80,20","It looks like a table centerpiece,-22,140,20","Looks like there is some skill but also at the same time parts look unskilled.,-16,140,20","The colors are good and the design is intriguing.,15,280,20","I just really like light and wispy things,33,60,20","Shane","Feels like a camp fire among friends,22,80,20","Justin","The colors are good and the design is intriguing.,15,280,20","Edward","I just really like light and wispy things,33,60,20","0"
"13268","","survey-text","58","481512","0.0-58.0-0.0","A3MYPYBVHX7FQ2","","","","{""Q0"":""I love the geometry and color""}","","","","","","","","","","","","","","","","","","","","","","",""
"3443.7000000029802","","image-slider-response","59","484957","0.0-59.0","A3MYPYBVHX7FQ2","","","","","30","","","","","","","","","","","","","","","","","","","","","",""
"2852","","image-button-response","60","489961","0.0-60.0","A3MYPYBVHX7FQ2","img_art/19.jpg","1","","","","","","","","","","","","","","","","","","","","","","","","",""
"543","","image-button-response","61","490506","0.0-61.0","A3MYPYBVHX7FQ2","img_art/19.jpg","3","","","","","","","","","","","","","","","","","","","","","","","","",""
"11790","","image-button-response","62","502298","0.0-62.0-0.0","A3MYPYBVHX7FQ2","img_art/19.jpg","1","","","","","","","","","","","","","","","","","","","","","","","","",""
"6335","","image-button-response","63","508636","0.0-63.0-0.0","A3MYPYBVHX7FQ2","img_art/19.jpg","2","","","","","","","","","","","","","","","","","","","","","","","","",""
"null","","html-keyboard-response","64","510137","0.0-64.0","A3MYPYBVHX7FQ2","<p style=""font-size: 48px;"">+</p>","","","","","null","allTrialResponses","1500","1","3","img_art/19.jpg","30","I love the geometry and color","Kenneth,Shane,Nathan,Jeffrey,Justin,Edward","TOo much brown.,-24,300,20","A day in a small city,45,80,20","It looks like as if it were portraying a village that was polluted? I don't like the theme anyway,-21,200,20","very lively and colourful,21,40,20","It looks too much of a rough sketch. Don't really enjoy looking at it.,-9,280,20","It's ok but it's nothing I would hang on my wall,11,60,20","Jeffrey","very lively and colourful,21,40,20","Shane","A day in a small city,45,80,20","Nathan","It looks like as if it were portraying a village that was polluted? I don't like the theme anyway,-21,200,20","0"
"12743","","survey-text","65","522886","0.0-65.0-0.0","A3MYPYBVHX7FQ2","","","","{""Q0"":""It looks like the world is melting""}","","","","","","","","","","","","","","","","","","","","","","",""
"2686.5","","image-slider-response","66","525574","0.0-66.0","A3MYPYBVHX7FQ2","","","","","-5","","","","","","","","","","","","","","","","","","","","","",""
"null","","image-button-response","67","530577","0.0-67.0","A3MYPYBVHX7FQ2","img_art/20.jpg","null","","","","","","","","","","","","","","","","","","","","","","","","",""
"686","","image-button-response","68","531266","0.0-68.0","A3MYPYBVHX7FQ2","img_art/20.jpg","0","","","","","","","","","","","","","","","","","","","","","","","","",""
"1566","","image-button-response","69","532834","0.0-69.0-0.0","A3MYPYBVHX7FQ2","img_art/20.jpg","0","","","","","","","","","","","","","","","","","","","","","","","","",""
"1221","","image-button-response","70","538866","0.0-69.1-0.1","A3MYPYBVHX7FQ2","img_art/20.jpg","0","","","","","","","","","","","","","","","","","","","","","","","","",""
"8661","","image-button-response","71","550333","0.0-69.2-0.2","A3MYPYBVHX7FQ2","img_art/20.jpg","4","","","","","","","","","","","","","","","","","","","","","","","","",""
"11300","","image-button-response","72","561635","0.0-70.0-0.0","A3MYPYBVHX7FQ2","img_art/20.jpg","2","","","","","","","","","","","","","","","","","","","","","","","","",""
"null","","html-keyboard-response","73","563138","0.0-71.0","A3MYPYBVHX7FQ2","<p style=""font-size: 48px;"">+</p>","","","","","null","allTrialResponses","1500","1","4","img_art/20.jpg","-5","It looks like the world is melting","Kyle,Shane,Nathan,Jeffrey,Paul,Taylor","This one is okay but I don't really care for it,5,340,20","Feels like a town destroyed,-19,80,20","Don't really like the subject it focuses on, however the color usage is great,-10,200,20","looks like an auto accident,-30,40,20","It looks like a junkyard and isn't appealing,-22,300,20","Not bad for all the southwestern people.,15,200,20","Kyle","This one is okay but I don't really care for it,5,340,20","Paul","It looks like a junkyard and isn't appealing,-22,300,20","Nathan","Don't really like the subject it focuses on, however the color usage is great,-10,200,20","4"
"11730","","survey-text","74","574876","0.0-72.0-0.0","A3MYPYBVHX7FQ2","","","","{""Q0"":""It looks like a space party""}","","","","","","","","","","","","","","","","","","","","","","",""
"4625.60000000149","","image-slider-response","75","579503","0.0-73.0","A3MYPYBVHX7FQ2","","","","","28","","","","","","","","","","","","","","","","","","","","","",""
"null","","image-button-response","76","584505","0.0-74.0","A3MYPYBVHX7FQ2","img_art/23.jpg","null","","","","","","","","","","","","","","","","","","","","","","","","",""
"3004","","image-button-response","77","587512","0.0-75.0","A3MYPYBVHX7FQ2","img_art/23.jpg","2","","","","","","","","","","","","","","","","","","","","","","","","",""
"2135","","image-button-response","78","589649","0.0-76.0-0.0","A3MYPYBVHX7FQ2","img_art/23.jpg","5","","","","","","","","","","","","","","","","","","","","","","","","",""
"6699","","image-button-response","79","596350","0.0-77.0-0.0","A3MYPYBVHX7FQ2","img_art/23.jpg","4","","","","","","","","","","","","","","","","","","","","","","","","",""
"null","","html-keyboard-response","80","597352","0.0-78.0","A3MYPYBVHX7FQ2","<p style=""font-size: 48px;"">+</p>","","","","","null","allTrialResponses","1000","1","5","img_art/23.jpg","28","It looks like a space party","Kyle,Benjamin,Nathan,Mason,Paul,Vincent","Mostly neutral but a bit too guady with the brash colors,-6,340,20","The background colors seem too dark and the middle images take away from it.,4,260,20","While I don't normally enjoy these color schemes all together, I kind of like this one,10,200,20","No reactions, childish.,-19,100,20","I like the sharp contrast of the white on the colorful background,27,300,20","Very happy , busy , free, and full of Hope,28,360,20","Nathan","While I don't normally enjoy these color schemes all together, I kind of like this one,10,200,20","Vincent","Very happy , busy , free, and full of Hope,28,360,20","Paul","I like the sharp contrast of the white on the colorful background,27,300,20","4"
"4540","","survey-text","81","601906","0.0-79.0-0.0","A3MYPYBVHX7FQ2","","","","{""Q0"":""sky""}","","","","","","","","","","","","","","","","","","","","","","",""
"10790","","survey-text","82","612698","0.0-80.0-0.0","A3MYPYBVHX7FQ2","","","","{""Q0"":""This reminds me of disco""}","","","","","","","","","","","","","","","","","","","","","","",""
"4800.39999999851","","image-slider-response","83","617500","0.0-81.0","A3MYPYBVHX7FQ2","","","","","9","","","","","","","","","","","","","","","","","","","","","",""
"null","","image-button-response","84","622503","0.0-82.0","A3MYPYBVHX7FQ2","img_art/30.jpg","null","","","","","","","","","","","","","","","","","","","","","","","","",""
"1342","","image-button-response","85","623847","0.0-83.0","A3MYPYBVHX7FQ2","img_art/30.jpg","1","","","","","","","","","","","","","","","","","","","","","","","","",""
"1397","","image-button-response","86","625249","0.0-84.0-0.0","A3MYPYBVHX7FQ2","img_art/30.jpg","5","","","","","","","","","","","","","","","","","","","","","","","","",""
"9127","","image-button-response","87","634378","0.0-85.0-0.0","A3MYPYBVHX7FQ2","img_art/30.jpg","4","","","","","","","","","","","","","","","","","","","","","","","","",""
"null","","html-keyboard-response","88","635380","0.0-86.0","A3MYPYBVHX7FQ2","<p style=""font-size: 48px;"">+</p>","","","","","null","allTrialResponses","1000","1","6","img_art/30.jpg","9","This reminds me of disco","Brandon,David,Nathan,Bradley,Paul,Vincent","Too abstract, looks like something I could paint,-50,320,20","I like how the strokes invokes a sense of fluidity.,20,340,20","It's okay. It should either have stuck to the grey-blue, or added more red. Seems unorganized (maybe that's the point?),-9,200,20","Hmmm. I think the artist is trying to direct me to a spreadsheet?  (s/s),-10,300,20","It looked like a random scribble but I can see a person's face in it now and I think it's clever,13,300,20","Personal , calming conservative signature business ideal.,32,360,20","David","I like how the strokes invokes a sense of fluidity.,20,340,20","Vincent","Personal , calming conservative signature business ideal.,32,360,20","Paul","It looked like a random scribble but I can see a person's face in it now and I think it's clever,13,300,20","4"
"17892","","survey-text","89","653278","0.0-87.0-0.0","A3MYPYBVHX7FQ2","","","","{""Q0"":""This is like a Lego build, it's cool""}","","","","","","","","","","","","","","","","","","","","","","",""
"4223.70000000298","","image-slider-response","90","657504","0.0-88.0","A3MYPYBVHX7FQ2","","","","","10","","","","","","","","","","","","","","","","","","","","","",""
"3545","","image-button-response","91","662506","0.0-89.0","A3MYPYBVHX7FQ2","img_art/8.jpg","1","","","","","","","","","","","","","","","","","","","","","","","","",""
"3150","","image-button-response","92","665662","0.0-90.0","A3MYPYBVHX7FQ2","img_art/8.jpg","2","","","","","","","","","","","","","","","","","","","","","","","","",""
"5137","","image-button-response","93","670802","0.0-91.0-0.0","A3MYPYBVHX7FQ2","img_art/8.jpg","4","","","","","","","","","","","","","","","","","","","","","","","","",""
"1825","","image-button-response","94","672630","0.0-92.0-0.0","A3MYPYBVHX7FQ2","img_art/8.jpg","3","","","","","","","","","","","","","","","","","","","","","","","","",""
"null","","html-keyboard-response","95","673632","0.0-93.0","A3MYPYBVHX7FQ2","<p style=""font-size: 48px;"">+</p>","","","","","null","allTrialResponses","1000","1","7","img_art/8.jpg","10","This is like a Lego build, it's cool","Garrett,David,Evan,Bryan,Paul,Vincent","I like that it looks like a city and the way the shapes and colors are put together,40,180,20","I like how the piece is showcasing emotion in relation to something.,25,340,20","I can't tell if this is supposed to portray just city life or a town crumbling,-5,140,20","Like the colors & the imagery - old city, native peoples maybe.,20,400,20","The faces in the upper left show agony and contrast with the geometric shapes too much,-31,300,20","This speaks volumes to me and is another favorite I'm sure by many,40,360,20","Evan","I can't tell if this is supposed to portray just city life or a town crumbling,-5,140,20","Paul","The faces in the upper left show agony and contrast with the geometric shapes too much,-31,300,20","Bryan","Like the colors & the imagery - old city, native peoples maybe.,20,400,20","4"
"17092","","survey-text","96","690727","0.0-94.0-0.0","A3MYPYBVHX7FQ2","","","","{""Q0"":""This looks like a simple bag, but cool flow""}","","","","","","","","","","","","","","","","","","","","","","",""
"3592.2000000029802","","image-slider-response","97","694321","0.0-95.0","A3MYPYBVHX7FQ2","","","","","5","","","","","","","","","","","","","","","","","","","","","",""
"3167","","image-button-response","98","699324","0.0-96.0","A3MYPYBVHX7FQ2","img_art/5.jpg","1","","","","","","","","","","","","","","","","","","","","","","","","",""
"1413","","image-button-response","99","700739","0.0-97.0","A3MYPYBVHX7FQ2","img_art/5.jpg","2","","","","","","","","","","","","","","","","","","","","","","","","",""
"850","","image-button-response","100","701591","0.0-98.0-0.0","A3MYPYBVHX7FQ2","img_art/5.jpg","1","","","","","","","","","","","","","","","","","","","","","","","","",""
"4689","","image-button-response","101","706282","0.0-99.0-0.0","A3MYPYBVHX7FQ2","img_art/5.jpg","4","","","","","","","","","","","","","","","","","","","","","","","","",""
"null","","html-keyboard-response","102","707284","0.0-100.0","A3MYPYBVHX7FQ2","<p style=""font-size: 48px;"">+</p>","","","","","null","allTrialResponses","1000","1","8","img_art/5.jpg","5","This looks like a simple bag, but cool flow","Angel,Peter,Evan,Bryan,Paul,Elijah","I see a sign advising me to be cautious.,-20,180,20","Bright and sunny,19,320,20","I am confused as to what I am seeing is it a handbag, duck foot, bell?,-18,140,20","Looks like a yellow plastic trash bag.,-42,400,20","I like how simple it is and the pink brushstrokes are nice,27,300,20","Makes me feel weird,-16,80,20","Evan","I am confused as to what I am seeing is it a handbag, duck foot, bell?,-18,140,20","Peter","Bright and sunny,19,320,20","Paul","I like how simple it is and the pink brushstrokes are nice,27,300,20","4"
"18648","","survey-text","103","725942","0.0-101.0-0.0","A3MYPYBVHX7FQ2","","","","{""Q0"":""This is kind of scary, like a scarecrow hand""}","","","","","","","","","","","","","","","","","","","","","","",""
"6518","","image-slider-response","104","732462","0.0-102.0","A3MYPYBVHX7FQ2","","","","","27","","","","","","","","","","","","","","","","","","","","","",""
"null","","image-button-response","105","737465","0.0-103.0","A3MYPYBVHX7FQ2","img_art/4.jpg","null","","","","","","","","","","","","","","","","","","","","","","","","",""
"2114","","image-button-response","106","739581","0.0-104.0","A3MYPYBVHX7FQ2","img_art/4.jpg","5","","","","","","","","","","","","","","","","","","","","","","","","",""
"6801","","image-button-response","107","746384","0.0-105.0-0.0","A3MYPYBVHX7FQ2","img_art/4.jpg","0","","","","","","","","","","","","","","","","","","","","","","","","",""
"1726","","image-button-response","108","748111","0.0-106.0-0.0","A3MYPYBVHX7FQ2","img_art/4.jpg","4","","","","","","","","","","","","","","","","","","","","","","","","",""
"null","","html-keyboard-response","109","749614","0.0-107.0","A3MYPYBVHX7FQ2","<p style=""font-size: 48px;"">+</p>","","","","","null","allTrialResponses","1500","1","9","img_art/4.jpg","27","This is kind of scary, like a scarecrow hand","Matthew,Peter,Evan,Jake,Paul,Jonathan","It looks like a hand.,25,120,20","Looks like poop on walks,-27,320,20","I'm disappointed that such a simple piece, with very little effort spent, could be grouped with other detailed pieces,-31,140,20","This is ugly in color and in terms of the shape on it.,-32,360,20","The dark yellow color makes me think of mustard, which I dislike,-27,300,20","Mcdonald's french fries :(,-40,140,20","Jonathan","Mcdonald's french fries :(,-40,140,20","Matthew","It looks like a hand.,25,120,20","Paul","The dark yellow color makes me think of mustard, which I dislike,-27,300,20","4"
"11810","","survey-text","110","761434","0.0-108.0-0.0","A3MYPYBVHX7FQ2","","","","{""Q0"":""This is really detailed and cool""}","","","","","","","","","","","","","","","","","","","","","","",""
"3530.39999999851","","image-slider-response","111","764966","0.0-109.0","A3MYPYBVHX7FQ2","","","","","33","","","","","","","","","","","","","","","","","","","","","",""
"null","","image-button-response","112","769969","0.0-110.0","A3MYPYBVHX7FQ2","img_art/10.jpg","null","","","","","","","","","","","","","","","","","","","","","","","","",""
"4383","","image-button-response","113","774354","0.0-111.0","A3MYPYBVHX7FQ2","img_art/10.jpg","1","","","","","","","","","","","","","","","","","","","","","","","","",""
"3183","","image-button-response","114","777540","0.0-112.0-0.0","A3MYPYBVHX7FQ2","img_art/10.jpg","0","","","","","","","","","","","","","","","","","","","","","","","","",""
"4428","","image-button-response","115","781969","0.0-113.0-0.0","A3MYPYBVHX7FQ2","img_art/10.jpg","5","","","","","","","","","","","","","","","","","","","","","","","","",""
"null","","html-keyboard-response","116","783471","0.0-114.0","A3MYPYBVHX7FQ2","<p style=""font-size: 48px;"">+</p>","","","","","null","allTrialResponses","1500","1","10","img_art/10.jpg","33","This is really detailed and cool","Matthew,Gregory,Derek,Bryce,Paul,Jonathan","AWESOME VIOLIN!`,26,120,20","Well done designs for being considered abstract,45,220,20","Cute and has a vintage feel to it,45,360,20","Kinda creepy not my favorite,-26,20,20","It doesn't look pleasing to the eye, it kind of looks like an animal but a dirty one,-38,300,20","Too much negative space makes it feel unfinished,-25,140,20","Gregory","Well done designs for being considered abstract,45,220,20","Matthew","AWESOME VIOLIN!`,26,120,20","Jonathan","Too much negative space makes it feel unfinished,-25,140,20","4"
"4167","","survey-text","117","787645","0.0-115.0-0.0","A3MYPYBVHX7FQ2","","","","{""Q0"":""our""}","","","","","","","","","","","","","","","","","","","","","","",""
"19633","","survey-text","118","807280","0.0-116.0-0.0","A3MYPYBVHX7FQ2","","","","{""Q0"":""It's drab, like a southwest color scheme""}","","","","","","","","","","","","","","","","","","","","","","",""
"4444.5","","image-slider-response","119","811726","0.0-117.0","A3MYPYBVHX7FQ2","","","","","-24","","","","","","","","","","","","","","","","","","","","","",""
"2521","","image-button-response","120","816729","0.0-118.0","A3MYPYBVHX7FQ2","img_art/28.jpg","1","","","","","","","","","","","","","","","","","","","","","","","","",""
"1096","","image-button-response","121","817828","0.0-119.0","A3MYPYBVHX7FQ2","img_art/28.jpg","1","","","","","","","","","","","","","","","","","","","","","","","","",""
"1670","","image-button-response","122","819500","0.0-120.0-0.0","A3MYPYBVHX7FQ2","img_art/28.jpg","5","","","","","","","","","","","","","","","","","","","","","","","","",""
"3135","","image-button-response","123","822637","0.0-121.0-0.0","A3MYPYBVHX7FQ2","img_art/28.jpg","3","","","","","","","","","","","","","","","","","","","","","","","","",""
"null","","html-keyboard-response","124","824138","0.0-122.0","A3MYPYBVHX7FQ2","<p style=""font-size: 48px;"">+</p>","","","","","null","allTrialResponses","1500","1","11","img_art/28.jpg","-24","It's drab, like a southwest color scheme","Matthew,Gregory,Carlos,Cody,Noah,Jonathan","Normally don't react well to abstract art, but it looks almost like something's there.,28,120,20","Gloomy colors and picture,5,220,20","Colors are pleasing, shapes are vaguely unpleasant. Kidneys at a smoky bar.,5,80,20","Don't love the colors,-10,180,20","I want to like it, but I'm not really sure what to make of it,2,260,20","The lack of color variance leaves it looking ugly even if I like the brush strokes,-10,140,20","Gregory","Gloomy colors and picture,5,220,20","Jonathan","The lack of color variance leaves it looking ugly even if I like the brush strokes,-10,140,20","Cody","Don't love the colors,-10,180,20","4"
"17692","","survey-text","125","841834","0.0-123.0-0.0","A3MYPYBVHX7FQ2","","","","{""Q0"":""It's like a light in the middle, pointing to a thought""}","","","","","","","","","","","","","","","","","","","","","","",""
"3372.89999999851","","image-slider-response","126","845208","0.0-124.0","A3MYPYBVHX7FQ2","","","","","21","","","","","","","","","","","","","","","","","","","","","",""
"null","","image-button-response","127","850210","0.0-125.0","A3MYPYBVHX7FQ2","img_art/9.jpg","null","","","","","","","","","","","","","","","","","","","","","","","","",""
"1885","","image-button-response","128","852098","0.0-126.0","A3MYPYBVHX7FQ2","img_art/9.jpg","2","","","","","","","","","","","","","","","","","","","","","","","","",""
"1930","","image-button-response","129","854030","0.0-127.0-0.0","A3MYPYBVHX7FQ2","img_art/9.jpg","5","","","","","","","","","","","","","","","","","","","","","","","","",""
"1716","","image-button-response","130","855748","0.0-128.0-0.0","A3MYPYBVHX7FQ2","img_art/9.jpg","4","","","","","","","","","","","","","","","","","","","","","","","","",""
"null","","html-keyboard-response","131","857249","0.0-129.0","A3MYPYBVHX7FQ2","<p style=""font-size: 48px;"">+</p>","","","","","null","allTrialResponses","1500","1","12","img_art/9.jpg","21","It's like a light in the middle, pointing to a thought","Brian,Gregory,Joseph,Cody,Colton,Jonathan","I don't like the framing of this one,-25,380,20","Mash up of colors and designs don't really go together,-5,220,20","It's nice. Peaceful. Calming.,11,220,20","Feels angry .....,-40,180,20","the colors are nice,6,220,20","It's peaceful and relaxing,24,140,20","Joseph","It's nice. Peaceful. Calming.,11,220,20","Jonathan","It's peaceful and relaxing,24,140,20","Colton","the colors are nice,6,220,20","4"
"14956","","survey-text","132","872214","0.0-130.0-0.0","A3MYPYBVHX7FQ2","","","","{""Q0"":""Looks like a prairie warzone, like a massacre""}","","","","","","","","","","","","","","","","","","","","","","",""
"4193","","image-slider-response","133","876408","0.0-131.0","A3MYPYBVHX7FQ2","","","","","-28","","","","","","","","","","","","","","","","","","","","","",""
"3728","","image-button-response","134","881411","0.0-132.0","A3MYPYBVHX7FQ2","img_art/7.jpg","4","","","","","","","","","","","","","","","","","","","","","","","","",""
"955","","image-button-response","135","882369","0.0-133.0","A3MYPYBVHX7FQ2","img_art/7.jpg","4","","","","","","","","","","","","","","","","","","","","","","","","",""
"3207","","image-button-response","136","885578","0.0-134.0-0.0","A3MYPYBVHX7FQ2","img_art/7.jpg","2","","","","","","","","","","","","","","","","","","","","","","","","",""
"3402","","image-button-response","137","888983","0.0-135.0-0.0","A3MYPYBVHX7FQ2","img_art/7.jpg","5","","","","","","","","","","","","","","","","","","","","","","","","",""
"null","","html-keyboard-response","138","889985","0.0-136.0","A3MYPYBVHX7FQ2","<p style=""font-size: 48px;"">+</p>","","","","","null","allTrialResponses","1000","1","13","img_art/7.jpg","-28","Looks like a prairie warzone, like a massacre","John,Nicholas,Joseph,Trevor,Colton,Jonathan","It looks like someone took a picture of a muddy ground and called it art.,-41,120,20","Makes me want to feel it,19,240,20","Dinosaur bones. Death.,-14,220,20","looks like the surface of the moon,-28,280,20","reminds me of a cave wall,-21,220,20","Looks like the surface of mars,29,140,20","Colton","reminds me of a cave wall,-21,220,20","Joseph","Dinosaur bones. Death.,-14,220,20","Jonathan","Looks like the surface of mars,29,140,20","4"
"19852","","survey-text","139","909841","0.0-137.0-0.0","A3MYPYBVHX7FQ2","","","","{""Q0"":""This makes me uncomfortable, like visual screaming""}","","","","","","","","","","","","","","","","","","","","","","",""
"4909.60000000149","","image-slider-response","140","914752","0.0-138.0","A3MYPYBVHX7FQ2","","","","","-39","","","","","","","","","","","","","","","","","","","","","",""
"null","","image-button-response","141","919755","0.0-139.0","A3MYPYBVHX7FQ2","img_art/3.jpg","null","","","","","","","","","","","","","","","","","","","","","","","","",""
"1729","","image-button-response","142","921485","0.0-140.0","A3MYPYBVHX7FQ2","img_art/3.jpg","5","","","","","","","","","","","","","","","","","","","","","","","","",""
"8868","","image-button-response","143","930355","0.0-141.0-0.0","A3MYPYBVHX7FQ2","img_art/3.jpg","0","","","","","","","","","","","","","","","","","","","","","","","","",""
"4555","","image-button-response","144","934912","0.0-142.0-0.0","A3MYPYBVHX7FQ2","img_art/3.jpg","2","","","","","","","","","","","","","","","","","","","","","","","","",""
"null","","html-keyboard-response","145","935913","0.0-143.0","A3MYPYBVHX7FQ2","<p style=""font-size: 48px;"">+</p>","","","","","null","allTrialResponses","1000","1","14","img_art/3.jpg","-39","This makes me uncomfortable, like visual screaming","Thomas,Austin,Joseph,Logan,Colton,Jonathan","Too messy and structure-less,-10,220,20","It doesn't invoke any excitement,-21,240,20","Really have no idea what I'm looking at.,1,220,20","im just getting more agitated and less appreciative of art. I have absolutely no scale to base on,-34,360,20","looks like a kid scribbled with crayon,-35,220,20","Something I'd paint when I'm mad. I feel that,20,140,20","Jonathan","Something I'd paint when I'm mad. I feel that,20,140,20","Thomas","Too messy and structure-less,-10,220,20","Joseph","Really have no idea what I'm looking at.,1,220,20","4"
"20345","","survey-text","146","956264","0.0-144.0-0.0","A3MYPYBVHX7FQ2","","","","{""Q0"":""It's like 3D color splash and I like the colors""}","","","","","","","","","","","","","","","","","","","","","","",""
"4082.5","","image-slider-response","147","960348","0.0-145.0","A3MYPYBVHX7FQ2","","","","","24","","","","","","","","","","","","","","","","","","","","","",""
"3507","","image-button-response","148","965351","0.0-146.0","A3MYPYBVHX7FQ2","img_art/13.jpg","1","","","","","","","","","","","","","","","","","","","","","","","","",""
"1523","","image-button-response","149","966876","0.0-147.0","A3MYPYBVHX7FQ2","img_art/13.jpg","1","","","","","","","","","","","","","","","","","","","","","","","","",""
"969","","image-button-response","150","967846","0.0-148.0-0.0","A3MYPYBVHX7FQ2","img_art/13.jpg","2","","","","","","","","","","","","","","","","","","","","","","","","",""
"2924","","image-button-response","151","970771","0.0-149.0-0.0","A3MYPYBVHX7FQ2","img_art/13.jpg","4","","","","","","","","","","","","","","","","","","","","","","","","",""
"null","","html-keyboard-response","152","971274","0.0-150.0","A3MYPYBVHX7FQ2","<p style=""font-size: 48px;"">+</p>","","","","","null","allTrialResponses","500","1","15","img_art/13.jpg","24","It's like 3D color splash and I like the colors","Thomas,Victor,Joseph,Eric,Spencer,Jonathan","Nothing about this stands out to me,-10,220,20","Great color balance. I like the splatter, and how the vertical lines go from sharper to more blended.,31,340,20","Pleasing, happy, rainy.,12,220,20","I love the style of this piece, but the color choice could've been more eye catching or calming.,40,100,20","Like it a lot, reminds me of rainy day on glass,43,120,20","It's pretty basic but it makes me feel like I'm looking at the ocean,30,140,20","Victor","Great color balance. I like the splatter, and how the vertical lines go from sharper to more blended.,31,340,20","Joseph","Pleasing, happy, rainy.,12,220,20","Spencer","Like it a lot, reminds me of rainy day on glass,43,120,20","4"
"4543","","survey-text","153","975834","0.0-151.0-0.0","A3MYPYBVHX7FQ2","","","","{""Q0"":""course""}","","","","","","","","","","","","","","","","","","","","","","",""
"15466","","survey-text","154","991302","0.0-152.0-0.0","A3MYPYBVHX7FQ2","","","","{""Q0"":""It's like part of it is burnt and part of it burning""}","","","","","","","","","","","","","","","","","","","","","","",""
"4728.5","","image-slider-response","155","996032","0.0-153.0","A3MYPYBVHX7FQ2","","","","","-8","","","","","","","","","","","","","","","","","","","","","",""
"null","","image-button-response","156","1001033","0.0-154.0","A3MYPYBVHX7FQ2","img_art/22.jpg","null","","","","","","","","","","","","","","","","","","","","","","","","",""
"1903","","image-button-response","157","1002939","0.0-155.0","A3MYPYBVHX7FQ2","img_art/22.jpg","5","","","","","","","","","","","","","","","","","","","","","","","","",""
"5012","","image-button-response","158","1007953","0.0-156.0-0.0","A3MYPYBVHX7FQ2","img_art/22.jpg","3","","","","","","","","","","","","","","","","","","","","","","","","",""
"2969","","image-button-response","159","1010925","0.0-157.0-0.0","A3MYPYBVHX7FQ2","img_art/22.jpg","4","","","","","","","","","","","","","","","","","","","","","","","","",""
"null","","html-keyboard-response","160","1011427","0.0-158.0","A3MYPYBVHX7FQ2","<p style=""font-size: 48px;"">+</p>","","","","","null","allTrialResponses","500","1","16","img_art/22.jpg","-8","It's like part of it is burnt and part of it burning","Jose,Victor,Joseph,Samuel,Spencer,Seth","Cool squares but what's the circle?,38,200,20","I don't really know why, I just like looking at it,10,340,20","I don't like that it looks like a person is there upside down.,-16,220,20","ball of light in 90s,8,400,20","Pretty colors but too blocky for me,-19,120,20","I think the colors are beautiful they remind me of a sunset.,13,60,20","Seth","I think the colors are beautiful they remind me of a sunset.,13,60,20","Samuel","ball of light in 90s,8,400,20","Spencer","Pretty colors but too blocky for me,-19,120,20","4"
"26955","","survey-text","161","1038393","0.0-159.0-0.0","A3MYPYBVHX7FQ2","","","","{""Q0"":""This is creepy like an insect colony""}","","","","","","","","","","","","","","","","","","","","","","",""
"4185.10000000149","","image-slider-response","162","1042580","0.0-160.0","A3MYPYBVHX7FQ2","","","","","-42","","","","","","","","","","","","","","","","","","","","","",""
"null","","image-button-response","163","1047583","0.0-161.0","A3MYPYBVHX7FQ2","img_art/15.jpg","null","","","","","","","","","","","","","","","","","","","","","","","","",""
"8399","","image-button-response","164","1055985","0.0-162.0","A3MYPYBVHX7FQ2","img_art/15.jpg","4","","","","","","","","","","","","","","","","","","","","","","","","",""
"1551","","image-button-response","165","1057538","0.0-163.0-0.0","A3MYPYBVHX7FQ2","img_art/15.jpg","3","","","","","","","","","","","","","","","","","","","","","","","","",""
"1150","","image-button-response","166","1058690","0.0-164.0-0.0","A3MYPYBVHX7FQ2","img_art/15.jpg","2","","","","","","","","","","","","","","","","","","","","","","","","",""
"null","","html-keyboard-response","167","1060193","0.0-165.0","A3MYPYBVHX7FQ2","<p style=""font-size: 48px;"">+</p>","","","","","null","allTrialResponses","1500","1","17","img_art/15.jpg","-42","This is creepy like an insect colony","Luke,Timothy,Jacob,Samuel,Spencer,Seth","it looks like trees but they are up to interpretation,16,20,20","This painting gives a calm vibe but no stronger emotions than that,10,240,20","I think it's trying to execute a cool idea, but unfortunately it doesn't appeal,5,340,20","Black reminds me of darkness,-18,400,20","Pretty, like in a field of poppies,19,120,20","There should be more space between the black marks. The black comes off harsh and the blue between the trees can barely be seen.,-21,60,20","Spencer","Pretty, like in a field of poppies,19,120,20","Samuel","Black reminds me of darkness,-18,400,20","Jacob","I think it's trying to execute a cool idea, but unfortunately it doesn't appeal,5,340,20","4"
"21022","","survey-text","168","1081225","0.0-166.0-0.0","A3MYPYBVHX7FQ2","","","","{""Q0"":""It's confusing in a bad way, it's uncomfortable to look at""}","","","","","","","","","","","","","","","","","","","","","","",""
"4406.0999999940395","","image-slider-response","169","1085633","0.0-167.0","A3MYPYBVHX7FQ2","","","","","-46","","","","","","","","","","","","","","","","","","","","","",""
"2111","","image-button-response","170","1090641","0.0-168.0","A3MYPYBVHX7FQ2","img_art/16.jpg","1","","","","","","","","","","","","","","","","","","","","","","","","",""
"384","","image-button-response","171","1091027","0.0-169.0","A3MYPYBVHX7FQ2","img_art/16.jpg","1","","","","","","","","","","","","","","","","","","","","","","","","",""
"10227","","image-button-response","172","1101257","0.0-170.0-0.0","A3MYPYBVHX7FQ2","img_art/16.jpg","4","","","","","","","","","","","","","","","","","","","","","","","","",""
"2363","","image-button-response","173","1103622","0.0-171.0-0.0","A3MYPYBVHX7FQ2","img_art/16.jpg","3","","","","","","","","","","","","","","","","","","","","","","","","",""
"null","","html-keyboard-response","174","1105124","0.0-172.0","A3MYPYBVHX7FQ2","<p style=""font-size: 48px;"">+</p>","","","","","null","allTrialResponses","1500","1","18","img_art/16.jpg","-46","It's confusing in a bad way, it's uncomfortable to look at","Travis,Chase,Jacob,Samuel,Spencer,Isaac","I like the teddy bear,but a neutral feeling,5,260,20","Seems very twisted and dark.,-35,120,20","Cool but the bear creeps me out?,8,340,20","childhood horror,3,400,20","Know it is a piece relating to children and gun violence. Sad,-30,120,20","I wouldn't hang it up on my wall but I like the colors of the bear.,25,280,20","Chase","Seems very twisted and dark.,-35,120,20","Spencer","Know it is a piece relating to children and gun violence. Sad,-30,120,20","Samuel","childhood horror,3,400,20","4"
"15647","","survey-text","175","1120780","0.0-173.0-0.0","A3MYPYBVHX7FQ2","","","","{""Q0"":""I love the color and theme, like a good horror story""}","","","","","","","","","","","","","","","","","","","","","","",""
"4468.79999999702","","image-slider-response","176","1125251","0.0-174.0","A3MYPYBVHX7FQ2","","","","","45","","","","","","","","","","","","","","","","","","","","","",""
"4444","","image-button-response","177","1130253","0.0-175.0","A3MYPYBVHX7FQ2","img_art/25.jpg","2","","","","","","","","","","","","","","","","","","","","","","","","",""
"1563","","image-button-response","178","1131818","0.0-176.0","A3MYPYBVHX7FQ2","img_art/25.jpg","2","","","","","","","","","","","","","","","","","","","","","","","","",""
"2325","","image-button-response","179","1134145","0.0-177.0-0.0","A3MYPYBVHX7FQ2","img_art/25.jpg","5","","","","","","","","","","","","","","","","","","","","","","","","",""
"10226","","image-button-response","180","1144373","0.0-178.0-0.0","A3MYPYBVHX7FQ2","img_art/25.jpg","3","","","","","","","","","","","","","","","","","","","","","","","","",""
"null","","html-keyboard-response","181","1144875","0.0-179.0","A3MYPYBVHX7FQ2","<p style=""font-size: 48px;"">+</p>","","","","","null","allTrialResponses","500","1","19","img_art/25.jpg","45","I love the color and theme, like a good horror story","Jordan,Chase,Andrew,Samuel,Spencer,Dakota","This is creepy and I dont like it,-28,160,20","Not particularly interesting for me. The green color is strange mixed with this.,-11,120,20","It makes me feel a little uneasy, but I like the painting,11,160,20","reminds me of burning man,18,400,20","I really like it, very simple, very tribal,38,120,20","I think of death,-28,280,20","Andrew","It makes me feel a little uneasy, but I like the painting,11,160,20","Dakota","I think of death,-28,280,20","Samuel","reminds me of burning man,18,400,20","4"
"15352","","survey-text","182","1160232","0.0-180.0-0.0","A3MYPYBVHX7FQ2","","","","{""Q0"":""It looks like a face, buried in the color""}","","","","","","","","","","","","","","","","","","","","","","",""
"3309.3000000044703","","image-slider-response","183","1163543","0.0-181.0","A3MYPYBVHX7FQ2","","","","","14","","","","","","","","","","","","","","","","","","","","","",""
"null","","image-button-response","184","1168547","0.0-182.0","A3MYPYBVHX7FQ2","img_art/2.jpg","null","","","","","","","","","","","","","","","","","","","","","","","","",""
"3654","","image-button-response","185","1172203","0.0-183.0","A3MYPYBVHX7FQ2","img_art/2.jpg","4","","","","","","","","","","","","","","","","","","","","","","","","",""
"2947","","image-button-response","186","1175151","0.0-184.0-0.0","A3MYPYBVHX7FQ2","img_art/2.jpg","3","","","","","","","","","","","","","","","","","","","","","","","","",""
"2323","","image-button-response","187","1177477","0.0-185.0-0.0","A3MYPYBVHX7FQ2","img_art/2.jpg","1","","","","","","","","","","","","","","","","","","","","","","","","",""
"null","","html-keyboard-response","188","1178979","0.0-186.0","A3MYPYBVHX7FQ2","<p style=""font-size: 48px;"">+</p>","","","","","null","allTrialResponses","1500","1","20","img_art/2.jpg","14","It looks like a face, buried in the color","Grant,Kevin,Andrew,Samuel,Cole,Dakota","The colors are entirely unappealing and very unpleasant to look at.,-20,200,20","That looks look a cartoon character of some kind.,11,320,20","Doesn't give me a reaction,10,160,20","i liked the bright colors,13,400,20","Childish smiley face,-19,200,20","active and kinetic- simplified,14,280,20","Cole","Childish smiley face,-19,200,20","Samuel","i liked the bright colors,13,400,20","Kevin","That looks look a cartoon character of some kind.,11,320,20","4"
"3605","","survey-text","189","1182604","0.0-187.0-0.0","A3MYPYBVHX7FQ2","","","","{""Q0"":""we""}","","","","","","","","","","","","","","","","","","","","","","",""
"24047","","survey-text","190","1206652","0.0-188.0-0.0","A3MYPYBVHX7FQ2","","","","{""Q0"":""It's a perfect autumn mood, I really like this""}","","","","","","","","","","","","","","","","","","","","","","",""
"2900.2000000029802","","image-slider-response","191","1209554","0.0-189.0","A3MYPYBVHX7FQ2","","","","","33","","","","","","","","","","","","","","","","","","","","","",""
"null","","image-button-response","192","1214557","0.0-190.0","A3MYPYBVHX7FQ2","img_art/1.jpg","null","","","","","","","","","","","","","","","","","","","","","","","","",""
"3159","","image-button-response","193","1217719","0.0-191.0","A3MYPYBVHX7FQ2","img_art/1.jpg","4","","","","","","","","","","","","","","","","","","","","","","","","",""
"2127","","image-button-response","194","1219847","0.0-192.0-0.0","A3MYPYBVHX7FQ2","img_art/1.jpg","3","","","","","","","","","","","","","","","","","","","","","","","","",""
"2498","","image-button-response","195","1222347","0.0-193.0-0.0","A3MYPYBVHX7FQ2","img_art/1.jpg","0","","","","","","","","","","","","","","","","","","","","","","","","",""
"null","","html-keyboard-response","196","1223849","0.0-194.0","A3MYPYBVHX7FQ2","<p style=""font-size: 48px;"">+</p>","","","","","null","allTrialResponses","1500","1","21","img_art/1.jpg","33","It's a perfect autumn mood, I really like this","Cameron,Kevin,Corey,Samuel,Cole,Adam","It's okay, colors remind me of autumn.,10,60,20","I cant make anything of this one.,-7,320,20","basic reminds me of something a school would have on the wall,-7,260,20","feels like there is meaning,9,400,20","I like the colors. But it doesnt look like anything,27,200,20","Messy mix of primary colors.,-10,40,20","Cole","I like the colors. But it doesnt look like anything,27,200,20","Samuel","feels like there is meaning,9,400,20","Cameron","It's okay, colors remind me of autumn.,10,60,20","4"
"29999","","survey-text","197","1253854","0.0-195.0-0.0","A3MYPYBVHX7FQ2","","","","{""Q0"":""It's so intricate, I can't make out everything but it's scary and awesome at the same time""}","","","","","","","","","","","","","","","","","","","","","","",""
"5179.39999999851","","image-slider-response","198","1259035","0.0-196.0","A3MYPYBVHX7FQ2","","","","","45","","","","","","","","","","","","","","","","","","","","","",""
"4484","","image-button-response","199","1264039","0.0-197.0","A3MYPYBVHX7FQ2","img_art/18.jpg","5","","","","","","","","","","","","","","","","","","","","","","","","",""
"1877","","image-button-response","200","1265919","0.0-198.0","A3MYPYBVHX7FQ2","img_art/18.jpg","3","","","","","","","","","","","","","","","","","","","","","","","","",""
"6150","","image-button-response","201","1272070","0.0-199.0-0.0","A3MYPYBVHX7FQ2","img_art/18.jpg","2","","","","","","","","","","","","","","","","","","","","","","","","",""
"1748","","image-button-response","202","1273820","0.0-200.0-0.0","A3MYPYBVHX7FQ2","img_art/18.jpg","5","","","","","","","","","","","","","","","","","","","","","","","","",""
"null","","html-keyboard-response","203","1275322","0.0-201.0","A3MYPYBVHX7FQ2","<p style=""font-size: 48px;"">+</p>","","","","","null","allTrialResponses","1500","1","22","img_art/18.jpg","45","It's so intricate, I can't make out everything but it's scary and awesome at the same time","Cameron,Marcus,Mitchell,Samuel,Cole,Brett","Don't like the color scheme. Or the theme.,-5,60,20","like the grays and contrast of the yellow. This piece feels a bit angry,10,60,20","Karma. being ruthless and all the time knowing the shit is gonna catch up with you.,10,180,20","death rides in life,-25,400,20","Two people fighting with one watching,17,200,20","Kind of weird in a confusing way,10,360,20","Samuel","death rides in life,-25,400,20","Mitchell","Karma. being ruthless and all the time knowing the shit is gonna catch up with you.,10,180,20","Brett","Kind of weird in a confusing way,10,360,20","4"
"21122","","survey-text","204","1296456","0.0-202.0-0.0","A3MYPYBVHX7FQ2","","","","{""Q0"":""It's like a busy tile, too much for my senses""}","","","","","","","","","","","","","","","","","","","","","","",""
"4690.10000000149","","image-slider-response","205","1301148","0.0-203.0","A3MYPYBVHX7FQ2","","","","","-27","","","","","","","","","","","","","","","","","","","","","",""
"null","","image-button-response","206","1306150","0.0-204.0","A3MYPYBVHX7FQ2","img_art/12.jpg","null","","","","","","","","","","","","","","","","","","","","","","","","",""
"389","","image-button-response","207","1306542","0.0-205.0","A3MYPYBVHX7FQ2","img_art/12.jpg","3","","","","","","","","","","","","","","","","","","","","","","","","",""
"4628","","image-button-response","208","1311171","0.0-206.0-0.0","A3MYPYBVHX7FQ2","img_art/12.jpg","1","","","","","","","","","","","","","","","","","","","","","","","","",""
"1448","","image-button-response","209","1312622","0.0-207.0-0.0","A3MYPYBVHX7FQ2","img_art/12.jpg","0","","","","","","","","","","","","","","","","","","","","","","","","",""
"null","","html-keyboard-response","210","1314124","0.0-208.0","A3MYPYBVHX7FQ2","<p style=""font-size: 48px;"">+</p>","","","","","null","allTrialResponses","1500","1","23","img_art/12.jpg","-27","It's like a busy tile, too much for my senses","Nathaniel,Dustin,Mitchell,Samuel,Hunter,Brett","Too many blocks. I can't see a purpose or a focal point,-44,220,20","Squares are rigid. I'm ambivalent.,1,20,20","confused. stages of a persons life from beginning positive to ending negative.,-10,180,20","feels cluttered,-11,400,20","reminds me of a dixie cup,3,240,20","Night and day, light and dark,35,360,20","Samuel","feels cluttered,-11,400,20","Dustin","Squares are rigid. I'm ambivalent.,1,20,20","Nathaniel","Too many blocks. I can't see a purpose or a focal point,-44,220,20","4"
"14834","","survey-text","211","1328967","0.0-209.0-0.0","A3MYPYBVHX7FQ2","","","","{""Q0"":""It's relaxing, like a spring day in the mountains""}","","","","","","","","","","","","","","","","","","","","","","",""
"3633.0999999940395","","image-slider-response","212","1332602","0.0-210.0","A3MYPYBVHX7FQ2","","","","","40","","","","","","","","","","","","","","","","","","","","","",""
"4618","","image-button-response","213","1337605","0.0-211.0","A3MYPYBVHX7FQ2","img_art/24.jpg","0","","","","","","","","","","","","","","","","","","","","","","","","",""
"4068","","image-button-response","214","1341675","0.0-212.0","A3MYPYBVHX7FQ2","img_art/24.jpg","0","","","","","","","","","","","","","","","","","","","","","","","","",""
"1511","","image-button-response","215","1343188","0.0-213.0-0.0","A3MYPYBVHX7FQ2","img_art/24.jpg","1","","","","","","","","","","","","","","","","","","","","","","","","",""
"5060","","image-button-response","216","1348250","0.0-214.0-0.0","A3MYPYBVHX7FQ2","img_art/24.jpg","5","","","","","","","","","","","","","","","","","","","","","","","","",""
"null","","html-keyboard-response","217","1348752","0.0-215.0","A3MYPYBVHX7FQ2","<p style=""font-size: 48px;"">+</p>","","","","","null","allTrialResponses","500","1","24","img_art/24.jpg","40","It's relaxing, like a spring day in the mountains","Nathaniel,Dustin,Luis,Samuel,Devon,Zachary","Feels surreal, in a way, and vibrant,37,220,20","I see a waterfall, which is relaxing and peaceful!  I like the blue coloring,30,20,20","Love the natural vibe,50,400,20","tranquility in the stream,34,400,20","Aww. I love the peace brought by this picture.,40,400,20","Looks like a beautiful stream rolling through terrain of rocks and flowers.,43,400,20","Nathaniel","Feels surreal, in a way, and vibrant,37,220,20","Dustin","I see a waterfall, which is relaxing and peaceful!  I like the blue coloring,30,20,20","Zachary","Looks like a beautiful stream rolling through terrain of rocks and flowers.,43,400,20","4"
"9599","","survey-text","218","1358359","0.0-216.0-0.0","A3MYPYBVHX7FQ2","","","","{""Q0"":""It makes me feel lonely""}","","","","","","","","","","","","","","","","","","","","","","",""
"4863.39999999851","","image-slider-response","219","1363224","0.0-217.0","A3MYPYBVHX7FQ2","","","","","-38","","","","","","","","","","","","","","","","","","","","","",""
"null","","image-button-response","220","1368228","0.0-218.0","A3MYPYBVHX7FQ2","img_art/6.jpg","null","","","","","","","","","","","","","","","","","","","","","","","","",""
"3107","","image-button-response","221","1371338","0.0-219.0","A3MYPYBVHX7FQ2","img_art/6.jpg","0","","","","","","","","","","","","","","","","","","","","","","","","",""
"9807","","image-button-response","222","1381147","0.0-220.0-0.0","A3MYPYBVHX7FQ2","img_art/6.jpg","1","","","","","","","","","","","","","","","","","","","","","","","","",""
"8996","","image-button-response","223","1390144","0.0-221.0-0.0","A3MYPYBVHX7FQ2","img_art/6.jpg","5","","","","","","","","","","","","","","","","","","","","","","","","",""
"null","","html-keyboard-response","224","1390647","0.0-222.0","A3MYPYBVHX7FQ2","<p style=""font-size: 48px;"">+</p>","","","","","null","allTrialResponses","500","1","25","img_art/6.jpg","-38","It makes me feel lonely","Nathaniel,Dustin,Tyler,Stephen,Joshua,Zachary","Not my favorite, but I like the empty vibe and the imagination it invokes. A skinny girl with long legs, perhaps, looking over a cliff,9,220,20","I like the warmth of the orange. But, I feel like it's a partial view. I'm frustrated I can't see the entirety.,-20,20,20","Is this the villain from Despicable Me?,29,320,20","Good painting but too simple to care about it for very long.,-15,140,20","Looks like a bird. It's fine.,7,240,20","Reminds me of a plant poking through the soil. It reminds me of new life.,31,400,20","Nathaniel","Not my favorite, but I like the empty vibe and the imagination it invokes. A skinny girl with long legs, perhaps, looking over a cliff,9,220,20","Dustin","I like the warmth of the orange. But, I feel like it's a partial view. I'm frustrated I can't see the entirety.,-20,20,20","Zachary","Reminds me of a plant poking through the soil. It reminds me of new life.,31,400,20","4"
"5519","","survey-text","225","1396185","0.0-223.0-0.0","A3MYPYBVHX7FQ2","","","","{""Q0"":""table""}","","","","","","","","","","","","","","","","","","","","","","",""
"30808","","survey-text","226","1426994","0.0-224.0-0.0","A3MYPYBVHX7FQ2","","","","{""Q0"":""It looks like the artist has painted their frustrations""}","","","","","","","","","","","","","","","","","","","","","","",""
"3452.2999999970198","","image-slider-response","227","1430449","0.0-225.0","A3MYPYBVHX7FQ2","","","","","14","","","","","","","","","","","","","","","","","","","","","",""
"null","","image-button-response","228","1435451","0.0-226.0","A3MYPYBVHX7FQ2","img_art/29.jpg","null","","","","","","","","","","","","","","","","","","","","","","","","",""
"15553","","image-button-response","229","1451006","0.0-227.0","A3MYPYBVHX7FQ2","img_art/29.jpg","3","","","","","","","","","","","","","","","","","","","","","","","","",""
"3728","","image-button-response","230","1454735","0.0-228.0-0.0","A3MYPYBVHX7FQ2","img_art/29.jpg","5","","","","","","","","","","","","","","","","","","","","","","","","",""
"8781","","image-button-response","231","1463518","0.0-229.0-0.0","A3MYPYBVHX7FQ2","img_art/29.jpg","2","","","","","","","","","","","","","","","","","","","","","","","","",""
"null","","html-keyboard-response","232","1464020","0.0-230.0","A3MYPYBVHX7FQ2","<p style=""font-size: 48px;"">+</p>","","","","","null","allTrialResponses","500","1","26","img_art/29.jpg","14","It looks like the artist has painted their frustrations","Nathaniel,Dustin,Blake,Malik,Gabriel,Zachary","Giant messy blob. Looks like it tries to be edgy, but fails.,-40,220,20","Don't get it! Too dark and random. Perhaps it was the start of something but the artist stopped and cancelled out the work.,-50,20,20","a hot fireplace with things to burn. warm,12,280,20","Feels like an abandoned dream,13,40,20","dont like this one,-20,160,20","It looks like someone did not like their art and drew an x over it.,-32,400,20","Malik","Feels like an abandoned dream,13,40,20","Zachary","It looks like someone did not like their art and drew an x over it.,-32,400,20","Blake","a hot fireplace with things to burn. warm,12,280,20","4"
"18219","","survey-text","233","1482245","0.0-231.0-0.0","A3MYPYBVHX7FQ2","","","","{""Q0"":""It looks like the aftermath of a great battle at sea""}","","","","","","","","","","","","","","","","","","","","","","",""
"3806.2000000029802","","image-slider-response","234","1486053","0.0-232.0","A3MYPYBVHX7FQ2","","","","","5","","","","","","","","","","","","","","","","","","","","","",""
"4508","","image-button-response","235","1491056","0.0-233.0","A3MYPYBVHX7FQ2","img_art/21.jpg","1","","","","","","","","","","","","","","","","","","","","","","","","",""
"1286","","image-button-response","236","1492345","0.0-234.0","A3MYPYBVHX7FQ2","img_art/21.jpg","2","","","","","","","","","","","","","","","","","","","","","","","","",""
"5129","","image-button-response","237","1497475","0.0-235.0-0.0","A3MYPYBVHX7FQ2","img_art/21.jpg","5","","","","","","","","","","","","","","","","","","","","","","","","",""
"3451","","image-button-response","238","1500929","0.0-236.0-0.0","A3MYPYBVHX7FQ2","img_art/21.jpg","4","","","","","","","","","","","","","","","","","","","","","","","","",""
"null","","html-keyboard-response","239","1501932","0.0-237.0","A3MYPYBVHX7FQ2","<p style=""font-size: 48px;"">+</p>","","","","","null","allTrialResponses","1000","1","27","img_art/21.jpg","5","It looks like the aftermath of a great battle at sea","Miguel,Ethan,Blake,Malik,Richard,Zachary","Amazing colors.,34,160,20","This is lovely. I like the mix of colors, the warn and cool slowly combining.,39,120,20","ocean and rocks at the beach,11,280,20","Indistinct, but beautiful hues,10,40,20","setting sun sky? nice colors and blending,14,340,20","Looks like a body of water during a sunset. I like this piece.,21,400,20","Blake","ocean and rocks at the beach,11,280,20","Zachary","Looks like a body of water during a sunset. I like this piece.,21,400,20","Richard","setting sun sky? nice colors and blending,14,340,20","4"
"13507","","survey-text","240","1515444","0.0-238.0-0.0","A3MYPYBVHX7FQ2","","","","{""Q0"":""It's like a complicated network""}","","","","","","","","","","","","","","","","","","","","","","",""
"3870.4000000059605","","image-slider-response","241","1519316","0.0-239.0","A3MYPYBVHX7FQ2","","","","","14","","","","","","","","","","","","","","","","","","","","","",""
"null","","image-button-response","242","1524319","0.0-240.0","A3MYPYBVHX7FQ2","img_art/11.jpg","null","","","","","","","","","","","","","","","","","","","","","","","","",""
"175","","image-button-response","243","1524497","0.0-241.0","A3MYPYBVHX7FQ2","img_art/11.jpg","2","","","","","","","","","","","","","","","","","","","","","","","","",""
"3665","","image-button-response","244","1528164","0.0-242.0-0.0","A3MYPYBVHX7FQ2","img_art/11.jpg","5","","","","","","","","","","","","","","","","","","","","","","","","",""
"9018","","image-button-response","245","1537184","0.0-243.0-0.0","A3MYPYBVHX7FQ2","img_art/11.jpg","0","","","","","","","","","","","","","","","","","","","","","","","","",""
"null","","html-keyboard-response","246","1538187","0.0-244.0","A3MYPYBVHX7FQ2","<p style=""font-size: 48px;"">+</p>","","","","","null","allTrialResponses","1000","1","28","img_art/11.jpg","14","It's like a complicated network","Devin,Christopher,Blake,Jared,Richard,Zachary","I like the vibe of the painting,-3,380,20","i like the gray tones with black lines and bits of color,23,160,20","a train going around the country,14,280,20","i like the colors and patters and waves,5,400,20","I like this one mostly a good combination of colors and light and dark,12,340,20","Makes me think of a futuristic scene of vehicles flying in the sky in a city.,36,400,20","Blake","a train going around the country,14,280,20","Zachary","Makes me think of a futuristic scene of vehicles flying in the sky in a city.,36,400,20","Devin","I like the vibe of the painting,-3,380,20","4"
"37744","","survey-text","247","1575937","0.0-245.0-0.0","A3MYPYBVHX7FQ2","","","","{""Q0"":""It's like an abstract picture of my ideal home""}","","","","","","","","","","","","","","","","","","","","","","",""
"3302.2999999970198","","image-slider-response","248","1579240","0.0-246.0","A3MYPYBVHX7FQ2","","","","","32","","","","","","","","","","","","","","","","","","","","","",""
"null","","image-button-response","249","1584683","0.0-247.0","A3MYPYBVHX7FQ2","img_art/26.jpg","null","","","","","","","","","","","","","","","","","","","","","","","","",""
"9364","","image-button-response","250","1594050","0.0-248.0","A3MYPYBVHX7FQ2","img_art/26.jpg","2","","","","","","","","","","","","","","","","","","","","","","","","",""
"3500","","image-button-response","251","1597551","0.0-249.0-0.0","A3MYPYBVHX7FQ2","img_art/26.jpg","5","","","","","","","","","","","","","","","","","","","","","","","","",""
"12089","","image-button-response","252","1609642","0.0-250.0-0.0","A3MYPYBVHX7FQ2","img_art/26.jpg","0","","","","","","","","","","","","","","","","","","","","","","","","",""
"null","","html-keyboard-response","253","1610644","0.0-251.0","A3MYPYBVHX7FQ2","<p style=""font-size: 48px;"">+</p>","","","","","null","allTrialResponses","1000","1","29","img_art/26.jpg","32","It's like an abstract picture of my ideal home","Devin,Patrick,Blake,William,James,Zachary","I like the shapes but needs more detail i think,3,380,20","I can somewhat city a city in this drawing,11,280,20","bedroom in the outdoors. warm,9,280,20","feels a tad old,30,380,20","This picture is ok; just a normal city,11,380,20","Pretty trees and bushes around fancy brown stones. I like the soft nature.,20,400,20","Blake","bedroom in the outdoors. warm,9,280,20","Zachary","Pretty trees and bushes around fancy brown stones. I like the soft nature.,20,400,20","Devin","I like the shapes but needs more detail i think,3,380,20","4"
"29700","","survey-text","254","1640357","0.0-252.0-0.0","A3MYPYBVHX7FQ2","","","","{""Q0"":""I like the feathered out detail, the flow of color""}","","","","","","","","","","","","","","","","","","","","","","",""
"3436.10000000149","","image-slider-response","255","1643794","0.0-253.0","A3MYPYBVHX7FQ2","","","","","33","","","","","","","","","","","","","","","","","","","","","",""
"null","","image-button-response","256","1648798","0.0-254.0","A3MYPYBVHX7FQ2","img_art/17.jpg","null","","","","","","","","","","","","","","","","","","","","","","","","",""
"736","","image-button-response","257","1649536","0.0-255.0","A3MYPYBVHX7FQ2","img_art/17.jpg","2","","","","","","","","","","","","","","","","","","","","","","","","",""
"3578","","image-button-response","258","1653116","0.0-256.0-0.0","A3MYPYBVHX7FQ2","img_art/17.jpg","5","","","","","","","","","","","","","","","","","","","","","","","","",""
"6078","","image-button-response","259","1659196","0.0-257.0-0.0","A3MYPYBVHX7FQ2","img_art/17.jpg","0","","","","","","","","","","","","","","","","","","","","","","","","",""
"null","","html-keyboard-response","260","1660699","0.0-258.0","A3MYPYBVHX7FQ2","<p style=""font-size: 48px;"">+</p>","","","","","null","allTrialResponses","1500","1","30","img_art/17.jpg","33","I like the feathered out detail, the flow of color","Devin,Charles,Blake,Shawn,Juan,Zachary","So expressive and wonderful wow!,17,380,20","I like the trees, but the doors less so,19,100,20","soft and warm light colors are relaxing,12,280,20","Pretty but a little cheesy,-10,100,20","I want to know more about this picture and where it leads if you could get inside it.,27,260,20","Reminds me of a beautiful tree growing in a courtyard. I like the light and airy technique used.,34,400,20","Blake","soft and warm light colors are relaxing,12,280,20","Zachary","Reminds me of a beautiful tree growing in a courtyard. I like the light and airy technique used.,34,400,20","Devin","So expressive and wonderful wow!,17,380,20","4"
"4560","","image-button-response_instructions","261","1665268","0.0-259.0","A3MYPYBVHX7FQ2","","0","instructions","","","","","","","","","","","","","","","","","","","","","","","",""
"1452","","image-button-response","262","1666726","0.0-260.0","A3MYPYBVHX7FQ2","","0","","","","","","","","","","","","","","","","","","","","","","","","",""
