"rt","url","trial_type","trial_index","time_elapsed","internal_node_id","participant_id","stimulus","button_pressed","Name","responses","response","key_press","variableName","fixationTime","condition","trial","photo","subjectRating","subjectResponse","agentsNames","agent_1_Response","agent_2_Response","agent_3_Response","agent_4_Response","agent_5_Response","agent_6_Response","kept_1_name","kept_1_response","kept_2_name","kept_2_response","kept_3_name","kept_3_response","errorCounter"
"38254","external_page_harvard.html","external-html","0","38339","0.0-0.0","A3O7X46E3REM7I","","","","","","","","","","","","","","","","","","","","","","","","","","",""
"1170","","image-button-response","1","39510","0.0-1.0","A3O7X46E3REM7I","","0","","","","","","","","","","","","","","","","","","","","","","","","",""
"2183","","image-button-response","2","41697","0.0-2.0-0.0","A3O7X46E3REM7I","","1","phone","","","","","","","","","","","","","","","","","","","","","","","",""
"5329","","survey-text","3","47027","0.0-3.0-0.0","A3O7X46E3REM7I","","","","{""Q0"":""A3O7X46E3REM7I""}","","","","","","","","","","","","","","","","","","","","","","",""
"1952","","image-button-response_instructions","4","48981","0.0-4.0","A3O7X46E3REM7I","","0","instructions","","","","","","","","","","","","","","","","","","","","","","","",""
"9549","","image-button-response_instructions","5","58531","0.0-5.0","A3O7X46E3REM7I","img_art/ins/popularity/ins1.png","0","instructions","","","","","","","","","","","","","","","","","","","","","","","",""
"4108","","image-button-response_instructions","6","62640","0.0-6.0","A3O7X46E3REM7I","img_art/ins/popularity/ins2.png","0","instructions","","","","","","","","","","","","","","","","","","","","","","","",""
"13149","","image-button-response_instructions","7","75791","0.0-7.0","A3O7X46E3REM7I","img_art/ins/popularity/ins2Extreme.png","0","instructions","","","","","","","","","","","","","","","","","","","","","","","",""
"5713","","image-button-response_instructions","8","81505","0.0-8.0","A3O7X46E3REM7I","img_art/ins/popularity/ins3KEEPpop.PNG","0","instructions","","","","","","","","","","","","","","","","","","","","","","","",""
"10429","","image-button-response_instructions","9","91934","0.0-9.0","A3O7X46E3REM7I","img_art/ins/popularity/ins3ANamepop.PNG","0","instructions","","","","","","","","","","","","","","","","","","","","","","","",""
"3320","","image-button-response_instructions","10","95254","0.0-10.0","A3O7X46E3REM7I","img_art/ins/popularity/ins3ARatingpop.png","0","instructions","","","","","","","","","","","","","","","","","","","","","","","",""
"5338","","image-button-response_instructions","11","100593","0.0-11.0","A3O7X46E3REM7I","img_art/ins/popularity/ins3ATextpop.png","0","instructions","","","","","","","","","","","","","","","","","","","","","","","",""
"10678","","image-button-response_instructions","12","111273","0.0-12.0","A3O7X46E3REM7I","img_art/ins/popularity/ins3ALikespop.png","0","instructions","","","","","","","","","","","","","","","","","","","","","","","",""
"244861","","image-button-response_instructions","13","356135","0.0-13.0","A3O7X46E3REM7I","img_art/ins/popularity/ins3KEEPpop.PNG","0","instructions","","","","","","","","","","","","","","","","","","","","","","","",""
"25723","","image-button-response_instructions","14","381859","0.0-14.0","A3O7X46E3REM7I","img_art/ins/popularity/ins3_5RED.png","0","instructions","","","","","","","","","","","","","","","","","","","","","","","",""
"5873","","image-button-response_instructions","15","387733","0.0-15.0","A3O7X46E3REM7I","img_art/ins/popularity/ins3KEEPpop.PNG","0","instructions","","","","","","","","","","","","","","","","","","","","","","","",""
"9912","","image-button-response_instructions","16","397646","0.0-16.0","A3O7X46E3REM7I","img_art/ins/popularity/ins4KEEPpop.PNG","0","instructions","","","","","","","","","","","","","","","","","","","","","","","",""
"7180","","image-button-response_instructions","17","404827","0.0-17.0","A3O7X46E3REM7I","img_art/ins/popularity/ins5KEEPpop.PNG","0","instructions","","","","","","","","","","","","","","","","","","","","","","","",""
"8693","","image-button-response_instructions","18","413521","0.0-18.0","A3O7X46E3REM7I","","0","instructions","","","","","","","","","","","","","","","","","","","","","","","",""
"5149","","survey-text","19","418694","0.0-19.0-0.0","A3O7X46E3REM7I","","","","{""Q0"":""but""}","","","","","","","","","","","","","","","","","","","","","","",""
"10893","","survey-text","20","429588","0.0-20.0-0.0","A3O7X46E3REM7I","","","","{""Q0"":""I like the colors.""}","","","","","","","","","","","","","","","","","","","","","","",""
"3379.2000000476837","","image-slider-response","21","432970","0.0-21.0","A3O7X46E3REM7I","","","","","15","","","","","","","","","","","","","","","","","","","","","",""
"null","","image-button-response","22","437973","0.0-22.0","A3O7X46E3REM7I","img_art/ins/1.jpg","null","","","","","","","","","","","","","","","","","","","","","","","","",""
"6227","","image-button-response","23","444202","0.0-23.0","A3O7X46E3REM7I","img_art/ins/1.jpg","3","","","","","","","","","","","","","","","","","","","","","","","","",""
"8114","","image-button-response","24","452318","0.0-24.0-0.0","A3O7X46E3REM7I","img_art/ins/1.jpg","5","","","","","","","","","","","","","","","","","","","","","","","","",""
"1560","","image-button-response","25","453879","0.0-25.0-0.0","A3O7X46E3REM7I","img_art/ins/1.jpg","1","","","","","","","","","","","","","","","","","","","","","","","","",""
"null","","html-keyboard-response","26","454882","0.0-26.0","A3O7X46E3REM7I","<p style=""font-size: 48px;"">+</p>","","","","","null","allTrialResponses","1000","1","-2","img_art/ins/1.jpg","15","I like the colors.","Adam,Alex,Ben,Carl,Daniel,Jack","Seems like doodles,-20,20,20","very creative work.,36,40,20","This color reminds me of poo,-46,60,20","very calming artwork,42,80,20","It looks like a murder scene.,-48,100,20","I like the sophisticated brushwork,40,120,20","Carl","very calming artwork,42,80,20","Jack","I like the sophisticated brushwork,40,120,20","Alex","very creative work.,36,40,20","0"
"12743","","survey-text","27","467628","0.0-27.0-0.0","A3O7X46E3REM7I","","","","{""Q0"":""It makes me stop to think.""}","","","","","","","","","","","","","","","","","","","","","","",""
"2164.5999999046326","","image-slider-response","28","469795","0.0-28.0","A3O7X46E3REM7I","","","","","7","","","","","","","","","","","","","","","","","","","","","",""
"4193","","image-button-response","29","474797","0.0-29.0","A3O7X46E3REM7I","img_art/ins/2.jpg","1","","","","","","","","","","","","","","","","","","","","","","","","",""
"2484","","image-button-response","30","477282","0.0-30.0","A3O7X46E3REM7I","img_art/ins/2.jpg","3","","","","","","","","","","","","","","","","","","","","","","","","",""
"1832","","image-button-response","31","479115","0.0-31.0-0.0","A3O7X46E3REM7I","img_art/ins/2.jpg","4","","","","","","","","","","","","","","","","","","","","","","","","",""
"4188","","image-button-response","32","483306","0.0-32.0-0.0","A3O7X46E3REM7I","img_art/ins/2.jpg","1","","","","","","","","","","","","","","","","","","","","","","","","",""
"null","","html-keyboard-response","33","483808","0.0-33.0","A3O7X46E3REM7I","<p style=""font-size: 48px;"">+</p>","","","","","null","allTrialResponses","500","1","-1","img_art/ins/2.jpg","7","It makes me stop to think.","James,Alex,Kyle,Carl,John,Jack","looks too angry,-50,140,20","I like the blocks of color arrangements,30,40,20","Idk, it is just annoying,-32,180,20","I can feel the artist's passion in it,45,80,20","love the texture of paint,48,160,20","I would never be able to compose a sophisticated pallete like this,48,120,20","Carl","I can feel the artist's passion in it,45,80,20","John","love the texture of paint,48,160,20","Alex","I like the blocks of color arrangements,30,40,20","0"
"16230","","survey-text","34","500040","0.0-34.0-0.0","A3O7X46E3REM7I","","","","{""Q0"":""I like the color coordination""}","","","","","","","","","","","","","","","","","","","","","","",""
"2531.2999999523163","","image-slider-response","35","502573","0.0-35.0","A3O7X46E3REM7I","","","","","34","","","","","","","","","","","","","","","","","","","","","",""
"4458","","image-button-response","36","507575","0.0-36.0","A3O7X46E3REM7I","img_art/ins/3.jpg","1","","","","","","","","","","","","","","","","","","","","","","","","",""
"951","","image-button-response","37","508528","0.0-37.0","A3O7X46E3REM7I","img_art/ins/3.jpg","1","","","","","","","","","","","","","","","","","","","","","","","","",""
"3915","","image-button-response","38","512445","0.0-38.0-0.0","A3O7X46E3REM7I","img_art/ins/3.jpg","0","","","","","","","","","","","","","","","","","","","","","","","","",""
"387","","image-button-response","39","512834","0.0-39.0-0.0","A3O7X46E3REM7I","img_art/ins/3.jpg","0","","","","","","","","","","","","","","","","","","","","","","","","",""
"10914","","image-button-response","40","528883","0.0-39.1-0.1","A3O7X46E3REM7I","img_art/ins/3.jpg","4","","","","","","","","","","","","","","","","","","","","","","","","",""
"null","","html-keyboard-response","41","529385","0.0-40.0","A3O7X46E3REM7I","<p style=""font-size: 48px;"">+</p>","","","","","null","allTrialResponses","500","1","0","img_art/ins/3.jpg","34","I like the color coordination","Mike,Alex,Ron,Carl,John,Sam","enjoy the different shades of blue,22,200,20","calming blue is very nice,36,40,20","It looks depressing,-26,220,20","It's an alright work,15,80,20","I like the overlapping of brushes,41,160,20","I can feel a rainy day from this painting,18,240,20","Alex","calming blue is very nice,36,40,20","Mike","enjoy the different shades of blue,22,200,20","John","I like the overlapping of brushes,41,160,20","2"
"7117","","image-button-response_instructions","42","536505","0.0-41.0","A3O7X46E3REM7I","","0","instructions","","","","","","","","","","","","","","","","","","","","","","","",""
"12259","","survey-likert","43","548765","0.0-42.0-0.0","A3O7X46E3REM7I","","","","{""Q0"":"""",""Q1"":0,""Q2"":1}","","","","","","","","","","","","","","","","","","","","","","",""
"4550","","survey-text","44","553320","0.0-43.0-0.0","A3O7X46E3REM7I","","","","{""Q0"":""rock""}","","","","","","","","","","","","","","","","","","","","","","",""
"16548","","survey-text","45","569871","0.0-44.0-0.0","A3O7X46E3REM7I","","","","{""Q0"":""It seems really simple.""}","","","","","","","","","","","","","","","","","","","","","","",""
"3009.9000000953674","","image-slider-response","46","572883","0.0-45.0","A3O7X46E3REM7I","","","","","-11","","","","","","","","","","","","","","","","","","","","","",""
"4737","","image-button-response","47","577903","0.0-46.0","A3O7X46E3REM7I","img_art/3.jpg","1","","","","","","","","","","","","","","","","","","","","","","","","",""
"7874","","image-button-response","48","585779","0.0-47.0","A3O7X46E3REM7I","img_art/3.jpg","4","","","","","","","","","","","","","","","","","","","","","","","","",""
"4469","","image-button-response","49","590248","0.0-48.0-0.0","A3O7X46E3REM7I","img_art/3.jpg","1","","","","","","","","","","","","","","","","","","","","","","","","",""
"6883","","image-button-response","50","597132","0.0-49.0-0.0","A3O7X46E3REM7I","img_art/3.jpg","5","","","","","","","","","","","","","","","","","","","","","","","","",""
"null","","html-keyboard-response","51","597634","0.0-50.0","A3O7X46E3REM7I","<p style=""font-size: 48px;"">+</p>","","","","","null","allTrialResponses","500","1","1","img_art/3.jpg","-11","It seems really simple.","Jose,Aaron,William,Hunter,Joshua,Brett","Too much red! Reminds me of blood. I hate blood.,-34,200,20","Definition of mediocre abstract art,-12,20,20","makes me think of anger,-33,380,20","strong color, interesting negative shapes,21,240,20","Looks like a Basquiat but just not my cup of tea.,-29,240,20","Confusion and mayhem,-10,360,20","Joshua","Looks like a Basquiat but just not my cup of tea.,-29,240,20","Aaron","Definition of mediocre abstract art,-12,20,20","Brett","Confusion and mayhem,-10,360,20","2"
"13913","","survey-text","52","611550","0.0-51.0-0.0","A3O7X46E3REM7I","","","","{""Q0"":""It reminds me of old times.""}","","","","","","","","","","","","","","","","","","","","","","",""
"2171.4000000953674","","image-slider-response","53","613724","0.0-52.0","A3O7X46E3REM7I","","","","","19","","","","","","","","","","","","","","","","","","","","","",""
"2892","","image-button-response","54","618727","0.0-53.0","A3O7X46E3REM7I","img_art/11.jpg","1","","","","","","","","","","","","","","","","","","","","","","","","",""
"3395","","image-button-response","55","622124","0.0-54.0","A3O7X46E3REM7I","img_art/11.jpg","3","","","","","","","","","","","","","","","","","","","","","","","","",""
"1555","","image-button-response","56","623681","0.0-55.0-0.0","A3O7X46E3REM7I","img_art/11.jpg","4","","","","","","","","","","","","","","","","","","","","","","","","",""
"3499","","image-button-response","57","627182","0.0-56.0-0.0","A3O7X46E3REM7I","img_art/11.jpg","1","","","","","","","","","","","","","","","","","","","","","","","","",""
"null","","html-keyboard-response","58","627684","0.0-57.0","A3O7X46E3REM7I","<p style=""font-size: 48px;"">+</p>","","","","","null","allTrialResponses","500","1","2","img_art/11.jpg","19","It reminds me of old times.","Derek,Aaron,Jorge,Travis,Joshua,Brett","There's a lot going on in this painting but it is pleasing and neat looking,31,360,20","It makes me think of a coastal sea town.,50,20,20","Sad but hopeful,43,180,20","I liked it it looked like an roller coasters at an amusment park.,16,260,20","Is interesting. Wouldn't bother me to have this hanging where I'd see it every day.,11,240,20","This looks like a busy highway system along a suburban background,40,360,20","Travis","I liked it it looked like an roller coasters at an amusment park.,16,260,20","Joshua","Is interesting. Wouldn't bother me to have this hanging where I'd see it every day.,11,240,20","Aaron","It makes me think of a coastal sea town.,50,20,20","2"
"11376","","survey-text","59","639064","0.0-58.0-0.0","A3O7X46E3REM7I","","","","{""Q0"":""I like the colors.""}","","","","","","","","","","","","","","","","","","","","","","",""
"1329.0999999046326","","image-slider-response","60","640395","0.0-59.0","A3O7X46E3REM7I","","","","","12","","","","","","","","","","","","","","","","","","","","","",""
"4699","","image-button-response","61","645399","0.0-60.0","A3O7X46E3REM7I","img_art/9.jpg","2","","","","","","","","","","","","","","","","","","","","","","","","",""
"5795","","image-button-response","62","651196","0.0-61.0","A3O7X46E3REM7I","img_art/9.jpg","0","","","","","","","","","","","","","","","","","","","","","","","","",""
"4953","","image-button-response","63","656150","0.0-62.0-0.0","A3O7X46E3REM7I","img_art/9.jpg","4","","","","","","","","","","","","","","","","","","","","","","","","",""
"3091","","image-button-response","64","659243","0.0-63.0-0.0","A3O7X46E3REM7I","img_art/9.jpg","5","","","","","","","","","","","","","","","","","","","","","","","","",""
"null","","html-keyboard-response","65","659746","0.0-64.0","A3O7X46E3REM7I","<p style=""font-size: 48px;"">+</p>","","","","","null","allTrialResponses","500","1","3","img_art/9.jpg","12","I like the colors.","Trevor,Aaron,Isaiah,Travis,Joshua,Gabriel","nice colors but it looks like it's from the 80s,10,280,20","It looks like a child's crayon drawing.,-10,20,20","The piece of art makes me happy, it reminds me of a lively carnival.,15,300,20","Stuipid looking...dumb,-48,260,20","Someone lying in bed?  Don't care for it.,-14,240,20","i like the colors but not the composition,-17,160,20","Trevor","nice colors but it looks like it's from the 80s,10,280,20","Joshua","Someone lying in bed?  Don't care for it.,-14,240,20","Gabriel","i like the colors but not the composition,-17,160,20","2"
"24894","","survey-text","66","684642","0.0-65.0-0.0","A3O7X46E3REM7I","","","","{""Q0"":""Makes me think of a bad dream I had.""}","","","","","","","","","","","","","","","","","","","","","","",""
"4935","","image-slider-response","67","689579","0.0-66.0","A3O7X46E3REM7I","","","","","15","","","","","","","","","","","","","","","","","","","","","",""
"4717","","image-button-response","68","694582","0.0-67.0","A3O7X46E3REM7I","img_art/25.jpg","5","","","","","","","","","","","","","","","","","","","","","","","","",""
"4697","","image-button-response","69","699280","0.0-68.0","A3O7X46E3REM7I","img_art/25.jpg","4","","","","","","","","","","","","","","","","","","","","","","","","",""
"1902","","image-button-response","70","701184","0.0-69.0-0.0","A3O7X46E3REM7I","img_art/25.jpg","0","","","","","","","","","","","","","","","","","","","","","","","","",""
"5501","","image-button-response","71","706686","0.0-70.0-0.0","A3O7X46E3REM7I","img_art/25.jpg","5","","","","","","","","","","","","","","","","","","","","","","","","",""
"null","","html-keyboard-response","72","707688","0.0-71.0","A3O7X46E3REM7I","<p style=""font-size: 48px;"">+</p>","","","","","null","allTrialResponses","1000","1","4","img_art/25.jpg","15","Makes me think of a bad dream I had.","Trevor,Charles,James,Bryan,Joshua,Gabriel","nice colors and it looks like a native work,32,280,20","Cult-like, which to me makes it kind of creepy,-21,100,20","This would definitely be hanging in my bedroom in my house,50,380,20","Scary. Something out of a Stephen King book/movie.,-31,400,20","Looks like a voodoo figure in a New Orleans cemetery at night.,-5,240,20","quite unnerving,-15,160,20","Joshua","Looks like a voodoo figure in a New Orleans cemetery at night.,-5,240,20","Trevor","nice colors and it looks like a native work,32,280,20","Gabriel","quite unnerving,-15,160,20","2"
"13135","","survey-text","73","720826","0.0-72.0-0.0","A3O7X46E3REM7I","","","","{""Q0"":""I really like this one.""}","","","","","","","","","","","","","","","","","","","","","","",""
"2058.7999999523163","","image-slider-response","74","722887","0.0-73.0","A3O7X46E3REM7I","","","","","40","","","","","","","","","","","","","","","","","","","","","",""
"null","","image-button-response","75","727889","0.0-74.0","A3O7X46E3REM7I","img_art/13.jpg","null","","","","","","","","","","","","","","","","","","","","","","","","",""
"245038","","image-button-response","76","972928","0.0-75.0","A3O7X46E3REM7I","img_art/13.jpg","2","","","","","","","","","","","","","","","","","","","","","","","","",""
"3336","","image-button-response","77","976266","0.0-76.0-0.0","A3O7X46E3REM7I","img_art/13.jpg","1","","","","","","","","","","","","","","","","","","","","","","","","",""
"4394","","image-button-response","78","980662","0.0-77.0-0.0","A3O7X46E3REM7I","img_art/13.jpg","3","","","","","","","","","","","","","","","","","","","","","","","","",""
"null","","html-keyboard-response","79","981164","0.0-78.0","A3O7X46E3REM7I","<p style=""font-size: 48px;"">+</p>","","","","","null","allTrialResponses","500","1","5","img_art/13.jpg","40","I really like this one.","Trevor,Joseph,Alexander,Nicholas,Joshua,Gabriel","i like the colors but it looks like something that would hang in a hotel,18,280,20","Pleasing, happy, rainy.,12,220,20","Seeing the world through different lenses.,15,120,20","Nice colors. beautiful blue,50,240,20","Like this a lot and would hang in my house.,27,240,20","its like the ocean,24,160,20","Alexander","Seeing the world through different lenses.,15,120,20","Joseph","Pleasing, happy, rainy.,12,220,20","Nicholas","Nice colors. beautiful blue,50,240,20","2"
"4834","","survey-text","80","986004","0.0-79.0-0.0","A3O7X46E3REM7I","","","","{""Q0"":""sky""}","","","","","","","","","","","","","","","","","","","","","","",""
"13065","","survey-text","81","999071","0.0-80.0-0.0","A3O7X46E3REM7I","","","","{""Q0"":""I really love this art.""}","","","","","","","","","","","","","","","","","","","","","","",""
"2703","","image-slider-response","82","1001776","0.0-81.0","A3O7X46E3REM7I","","","","","44","","","","","","","","","","","","","","","","","","","","","",""
"null","","image-button-response","83","1006779","0.0-82.0","A3O7X46E3REM7I","img_art/16.jpg","null","","","","","","","","","","","","","","","","","","","","","","","","",""
"3975","","image-button-response","84","1010756","0.0-83.0","A3O7X46E3REM7I","img_art/16.jpg","4","","","","","","","","","","","","","","","","","","","","","","","","",""
"2439","","image-button-response","85","1013197","0.0-84.0-0.0","A3O7X46E3REM7I","img_art/16.jpg","1","","","","","","","","","","","","","","","","","","","","","","","","",""
"1191","","image-button-response","86","1014391","0.0-85.0-0.0","A3O7X46E3REM7I","img_art/16.jpg","2","","","","","","","","","","","","","","","","","","","","","","","","",""
"null","","html-keyboard-response","87","1015392","0.0-86.0","A3O7X46E3REM7I","<p style=""font-size: 48px;"">+</p>","","","","","null","allTrialResponses","1000","1","6","img_art/16.jpg","44","I really love this art.","Alejandro,Joseph,Alexander,Nicholas,Timothy,Juan","Garble and nonsense,-50,80,20","Looks upsetting. Like it's actually graphic violence but you can't tell.,-24,220,20","Strange and bleak.,-20,120,20","Creepy teddybear,-50,240,20","This feels like images of a painful childhood,-50,240,20","This is too bizarre.,-39,260,20","Timothy","This feels like images of a painful childhood,-50,240,20","Joseph","Looks upsetting. Like it's actually graphic violence but you can't tell.,-24,220,20","Alexander","Strange and bleak.,-20,120,20","2"
"25069","","survey-text","88","1040464","0.0-87.0-0.0","A3O7X46E3REM7I","","","","{""Q0"":""Reminds me of Thors hammer.""}","","","","","","","","","","","","","","","","","","","","","","",""
"2620.100000143051","","image-slider-response","89","1043086","0.0-88.0","A3O7X46E3REM7I","","","","","43","","","","","","","","","","","","","","","","","","","","","",""
"null","","image-button-response","90","1048089","0.0-89.0","A3O7X46E3REM7I","img_art/5.jpg","null","","","","","","","","","","","","","","","","","","","","","","","","",""
"1300","","image-button-response","91","1049390","0.0-90.0","A3O7X46E3REM7I","img_art/5.jpg","4","","","","","","","","","","","","","","","","","","","","","","","","",""
"656","","image-button-response","92","1050048","0.0-91.0-0.0","A3O7X46E3REM7I","img_art/5.jpg","3","","","","","","","","","","","","","","","","","","","","","","","","",""
"3089","","image-button-response","93","1053138","0.0-92.0-0.0","A3O7X46E3REM7I","img_art/5.jpg","1","","","","","","","","","","","","","","","","","","","","","","","","",""
"null","","html-keyboard-response","94","1054140","0.0-93.0","A3O7X46E3REM7I","<p style=""font-size: 48px;"">+</p>","","","","","null","allTrialResponses","1000","1","7","img_art/5.jpg","43","Reminds me of Thors hammer.","Vincent,Joseph,Alexander,Justin,Timothy,Chase","It speaks volumes to some. It's also a conversational piece. And very different ideas,34,360,20","I like that the pyramid is putting off a beacon of light.,11,220,20","Dull pyramid that says nothing.,7,120,20","Although it's very simple, there's something about the colors that really draws the eye.,11,280,20","This feels joyful,39,240,20","Seems very basic and uninteresting.,-15,120,20","Timothy","This feels joyful,39,240,20","Justin","Although it's very simple, there's something about the colors that really draws the eye.,11,280,20","Joseph","I like that the pyramid is putting off a beacon of light.,11,220,20","2"
"25098","","survey-text","95","1079241","0.0-94.0-0.0","A3O7X46E3REM7I","","","","{""Q0"":""A war-torn town.""}","","","","","","","","","","","","","","","","","","","","","","",""
"2067.4000000953674","","image-slider-response","96","1081311","0.0-95.0","A3O7X46E3REM7I","","","","","23","","","","","","","","","","","","","","","","","","","","","",""
"null","","image-button-response","97","1086314","0.0-96.0","A3O7X46E3REM7I","img_art/20.jpg","null","","","","","","","","","","","","","","","","","","","","","","","","",""
"1522","","image-button-response","98","1087838","0.0-97.0","A3O7X46E3REM7I","img_art/20.jpg","4","","","","","","","","","","","","","","","","","","","","","","","","",""
"599","","image-button-response","99","1088439","0.0-98.0-0.0","A3O7X46E3REM7I","img_art/20.jpg","3","","","","","","","","","","","","","","","","","","","","","","","","",""
"1881","","image-button-response","100","1090322","0.0-99.0-0.0","A3O7X46E3REM7I","img_art/20.jpg","1","","","","","","","","","","","","","","","","","","","","","","","","",""
"null","","html-keyboard-response","101","1091824","0.0-100.0","A3O7X46E3REM7I","<p style=""font-size: 48px;"">+</p>","","","","","null","allTrialResponses","1500","1","8","img_art/20.jpg","23","A war-torn town.","Lucas,Joseph,Benjamin,Justin,Timothy,Devin","Phenomenal painting of building.,25,380,20","Something fell over and is burning, but it's kinda dope, you know?,14,220,20","Bold strokes and colors.,6,260,20","The colors and the scene depicted is interesting.,13,280,20","Makes me think if a car crash or some sort of disaster,-20,240,20","Looks somewhat dark and emotional,-10,380,20","Timothy","Makes me think if a car crash or some sort of disaster,-20,240,20","Justin","The colors and the scene depicted is interesting.,13,280,20","Joseph","Something fell over and is burning, but it's kinda dope, you know?,14,220,20","2"
"26805","","survey-text","102","1118633","0.0-101.0-0.0","A3O7X46E3REM7I","","","","{""Q0"":""I am reminded of a fiesta.""}","","","","","","","","","","","","","","","","","","","","","","",""
"1918.9000000953674","","image-slider-response","103","1120554","0.0-102.0","A3O7X46E3REM7I","","","","","21","","","","","","","","","","","","","","","","","","","","","",""
"null","","image-button-response","104","1125556","0.0-103.0","A3O7X46E3REM7I","img_art/23.jpg","null","","","","","","","","","","","","","","","","","","","","","","","","",""
"1311","","image-button-response","105","1126868","0.0-104.0","A3O7X46E3REM7I","img_art/23.jpg","2","","","","","","","","","","","","","","","","","","","","","","","","",""
"2858","","image-button-response","106","1129728","0.0-105.0-0.0","A3O7X46E3REM7I","img_art/23.jpg","0","","","","","","","","","","","","","","","","","","","","","","","","",""
"3448","","image-button-response","107","1133178","0.0-106.0-0.0","A3O7X46E3REM7I","img_art/23.jpg","3","","","","","","","","","","","","","","","","","","","","","","","","",""
"null","","html-keyboard-response","108","1134680","0.0-107.0","A3O7X46E3REM7I","<p style=""font-size: 48px;"">+</p>","","","","","null","allTrialResponses","1500","1","9","img_art/23.jpg","21","I am reminded of a fiesta.","Thomas,Joseph,Ian,Justin,Timothy,Tristan","Beautiful. Very detailed and colorful. I enjoy looking at it.,50,220,20","Like a wound that has been sutured. Pain, but also healing.,5,220,20","It's very colorful and different, the white looks like people dancing,26,260,20","The white paint through the middle really draws the eye.,30,280,20","This feels so energized, i love it,50,240,20","So exciting and full of the night.,20,300,20","Ian","It's very colorful and different, the white looks like people dancing,26,260,20","Thomas","Beautiful. Very detailed and colorful. I enjoy looking at it.,50,220,20","Justin","The white paint through the middle really draws the eye.,30,280,20","2"
"23909","","survey-text","109","1158593","0.0-108.0-0.0","A3O7X46E3REM7I","","","","{""Q0"":""It feels lonely.""}","","","","","","","","","","","","","","","","","","","","","","",""
"3009.800000190735","","image-slider-response","110","1161604","0.0-109.0","A3O7X46E3REM7I","","","","","18","","","","","","","","","","","","","","","","","","","","","",""
"null","","image-button-response","111","1166606","0.0-110.0","A3O7X46E3REM7I","img_art/6.jpg","null","","","","","","","","","","","","","","","","","","","","","","","","",""
"873","","image-button-response","112","1167481","0.0-111.0","A3O7X46E3REM7I","img_art/6.jpg","1","","","","","","","","","","","","","","","","","","","","","","","","",""
"810","","image-button-response","113","1168293","0.0-112.0-0.0","A3O7X46E3REM7I","img_art/6.jpg","0","","","","","","","","","","","","","","","","","","","","","","","","",""
"3832","","image-button-response","114","1172128","0.0-113.0-0.0","A3O7X46E3REM7I","img_art/6.jpg","3","","","","","","","","","","","","","","","","","","","","","","","","",""
"null","","html-keyboard-response","115","1173630","0.0-114.0","A3O7X46E3REM7I","<p style=""font-size: 48px;"">+</p>","","","","","null","allTrialResponses","1500","1","10","img_art/6.jpg","18","It feels lonely.","Thomas,Isaac,Ian,Justin,Jordan,Jack","I like the color and the gradient,10,220,20","It looks like one tall ugly bird.,-43,280,20","It's slightly unnerving to look at, it looks a little creepy/eerie,-16,260,20","It's alright. I imagined the peach from James and the Giant Peach.,1,280,20","This picture is weird,-6,160,20","I like the bottom half, but not the top,-7,320,20","Isaac","It looks like one tall ugly bird.,-43,280,20","Thomas","I like the color and the gradient,10,220,20","Justin","It's alright. I imagined the peach from James and the Giant Peach.,1,280,20","2"
"4094","","survey-text","116","1177729","0.0-115.0-0.0","A3O7X46E3REM7I","","","","{""Q0"":""our""}","","","","","","","","","","","","","","","","","","","","","","",""
"17065","","survey-text","117","1194798","0.0-116.0-0.0","A3O7X46E3REM7I","","","","{""Q0"":""This is a beautiful piece.""}","","","","","","","","","","","","","","","","","","","","","","",""
"2318.5","","image-slider-response","118","1197118","0.0-117.0","A3O7X46E3REM7I","","","","","36","","","","","","","","","","","","","","","","","","","","","",""
"null","","image-button-response","119","1202121","0.0-118.0","A3O7X46E3REM7I","img_art/26.jpg","null","","","","","","","","","","","","","","","","","","","","","","","","",""
"14931","","image-button-response","120","1217053","0.0-119.0","A3O7X46E3REM7I","img_art/26.jpg","5","","","","","","","","","","","","","","","","","","","","","","","","",""
"2569","","image-button-response","121","1219624","0.0-120.0-0.0","A3O7X46E3REM7I","img_art/26.jpg","2","","","","","","","","","","","","","","","","","","","","","","","","",""
"526","","image-button-response","122","1220152","0.0-121.0-0.0","A3O7X46E3REM7I","img_art/26.jpg","1","","","","","","","","","","","","","","","","","","","","","","","","",""
"null","","html-keyboard-response","123","1221670","0.0-122.0","A3O7X46E3REM7I","<p style=""font-size: 48px;"">+</p>","","","","","null","allTrialResponses","1500","1","11","img_art/26.jpg","36","This is a beautiful piece.","Thomas,Isaac,Jeremy,Justin,Mitchell,Peter","It feels almost unfinished, but I like the color palette,9,220,20","I wish it were more pastel but I think it is relaxing to look at.,30,280,20","somewhat happy, like being outside on a nice day,30,60,20","It looks boring and too rough.,-9,280,20","Incomplete, The artist painted his impression of somthing he was thinking of,0,180,20","Reminds me of a European street, I desire to walk in this picture,28,320,20","Peter","Reminds me of a European street, I desire to walk in this picture,28,320,20","Jeremy","somewhat happy, like being outside on a nice day,30,60,20","Isaac","I wish it were more pastel but I think it is relaxing to look at.,30,280,20","2"
"32132","","survey-text","124","1253806","0.0-123.0-0.0","A3O7X46E3REM7I","","","","{""Q0"":""Nice blocks of life.""}","","","","","","","","","","","","","","","","","","","","","","",""
"3346.7000000476837","","image-slider-response","125","1257154","0.0-124.0","A3O7X46E3REM7I","","","","","20","","","","","","","","","","","","","","","","","","","","","",""
"null","","image-button-response","126","1262157","0.0-125.0","A3O7X46E3REM7I","img_art/12.jpg","null","","","","","","","","","","","","","","","","","","","","","","","","",""
"8419","","image-button-response","127","1270578","0.0-126.0","A3O7X46E3REM7I","img_art/12.jpg","5","","","","","","","","","","","","","","","","","","","","","","","","",""
"4295","","image-button-response","128","1274874","0.0-127.0-0.0","A3O7X46E3REM7I","img_art/12.jpg","3","","","","","","","","","","","","","","","","","","","","","","","","",""
"1464","","image-button-response","129","1276340","0.0-128.0-0.0","A3O7X46E3REM7I","img_art/12.jpg","0","","","","","","","","","","","","","","","","","","","","","","","","",""
"null","","html-keyboard-response","130","1277842","0.0-129.0","A3O7X46E3REM7I","<p style=""font-size: 48px;"">+</p>","","","","","null","allTrialResponses","1500","1","12","img_art/12.jpg","20","Nice blocks of life.","Luis,Isaac,Jeremy,Brian,Bradley,Peter","I like the fact it shares both light and edgy,32,400,20","I like the gradient of little color on the top to colorful on the bottom.,24,280,20","do not like it. Seems too busy,-10,60,20","this is pretty, but I wouldn't hang it on my wall.,15,380,20","Good technique. It's just not my thing.,2,300,20","Reminds me Early 2000's decor, don't favor it,-10,320,20","Peter","Reminds me Early 2000's decor, don't favor it,-10,320,20","Brian","this is pretty, but I wouldn't hang it on my wall.,15,380,20","Luis","I like the fact it shares both light and edgy,32,400,20","2"
"11008","","survey-text","131","1288853","0.0-130.0-0.0","A3O7X46E3REM7I","","","","{""Q0"":""I like the mix of colors.""}","","","","","","","","","","","","","","","","","","","","","","",""
"2836.9000000953674","","image-slider-response","132","1291691","0.0-131.0","A3O7X46E3REM7I","","","","","40","","","","","","","","","","","","","","","","","","","","","",""
"null","","image-button-response","133","1296694","0.0-132.0","A3O7X46E3REM7I","img_art/2.jpg","null","","","","","","","","","","","","","","","","","","","","","","","","",""
"4931","","image-button-response","134","1301626","0.0-133.0","A3O7X46E3REM7I","img_art/2.jpg","3","","","","","","","","","","","","","","","","","","","","","","","","",""
"343","","image-button-response","135","1301971","0.0-134.0-0.0","A3O7X46E3REM7I","img_art/2.jpg","4","","","","","","","","","","","","","","","","","","","","","","","","",""
"694","","image-button-response","136","1302667","0.0-135.0-0.0","A3O7X46E3REM7I","img_art/2.jpg","0","","","","","","","","","","","","","","","","","","","","","","","","",""
"null","","html-keyboard-response","137","1303669","0.0-136.0","A3O7X46E3REM7I","<p style=""font-size: 48px;"">+</p>","","","","","null","allTrialResponses","1000","1","13","img_art/2.jpg","40","I like the mix of colors.","Luis,David,Ethan,Brian,Brendan,Peter","I dont like the expression of this,-19,400,20","I feel that its too abstract for me to understand what I'm looking at.,-15,340,20","This looks like a professional abstract drawing. I like the shapes.,7,120,20","I like how it looks like a cute smiling face,43,380,20","its ugly af to be honest,-50,340,20","I don't feel indifferent,4,320,20","Brian","I like how it looks like a cute smiling face,43,380,20","Brendan","its ugly af to be honest,-50,340,20","Luis","I dont like the expression of this,-19,400,20","2"
"14387","","survey-text","138","1318060","0.0-137.0-0.0","A3O7X46E3REM7I","","","","{""Q0"":""Reminds me of life.""}","","","","","","","","","","","","","","","","","","","","","","",""
"2126.2999999523163","","image-slider-response","139","1320188","0.0-138.0","A3O7X46E3REM7I","","","","","28","","","","","","","","","","","","","","","","","","","","","",""
"null","","image-button-response","140","1325191","0.0-139.0","A3O7X46E3REM7I","img_art/15.jpg","null","","","","","","","","","","","","","","","","","","","","","","","","",""
"2536","","image-button-response","141","1327729","0.0-140.0","A3O7X46E3REM7I","img_art/15.jpg","1","","","","","","","","","","","","","","","","","","","","","","","","",""
"2035","","image-button-response","142","1329766","0.0-141.0-0.0","A3O7X46E3REM7I","img_art/15.jpg","4","","","","","","","","","","","","","","","","","","","","","","","","",""
"2541","","image-button-response","143","1332309","0.0-142.0-0.0","A3O7X46E3REM7I","img_art/15.jpg","3","","","","","","","","","","","","","","","","","","","","","","","","",""
"null","","html-keyboard-response","144","1332812","0.0-143.0","A3O7X46E3REM7I","<p style=""font-size: 48px;"">+</p>","","","","","null","allTrialResponses","500","1","14","img_art/15.jpg","28","Reminds me of life.","Luis,Mason,Dustin,Brian,Brendan,Cole","Extreme darkness and sadness,-30,400,20","It's ok, it makes me think. That's something I guess.,8,100,20","Too much black. I see weeds or dead/dying flowers.,-40,20,20","This is simply too ""old-school"",-27,380,20","some trees in the forest,15,340,20","It reminds me of when you look up into a tree,21,200,20","Mason","It's ok, it makes me think. That's something I guess.,8,100,20","Brendan","some trees in the forest,15,340,20","Brian","This is simply too ""old-school"",-27,380,20","2"
"21651","","survey-text","145","1354467","0.0-144.0-0.0","A3O7X46E3REM7I","","","","{""Q0"":""It reminds me of mushroom clouds.""}","","","","","","","","","","","","","","","","","","","","","","",""
"2244.7000000476837","","image-slider-response","146","1356715","0.0-145.0","A3O7X46E3REM7I","","","","","-19","","","","","","","","","","","","","","","","","","","","","",""
"null","","image-button-response","147","1361718","0.0-146.0","A3O7X46E3REM7I","img_art/21.jpg","null","","","","","","","","","","","","","","","","","","","","","","","","",""
"1032","","image-button-response","148","1362751","0.0-147.0","A3O7X46E3REM7I","img_art/21.jpg","3","","","","","","","","","","","","","","","","","","","","","","","","",""
"1161","","image-button-response","149","1363914","0.0-148.0-0.0","A3O7X46E3REM7I","img_art/21.jpg","0","","","","","","","","","","","","","","","","","","","","","","","","",""
"1478","","image-button-response","150","1365393","0.0-149.0-0.0","A3O7X46E3REM7I","img_art/21.jpg","2","","","","","","","","","","","","","","","","","","","","","","","","",""
"null","","html-keyboard-response","151","1365895","0.0-150.0","A3O7X46E3REM7I","<p style=""font-size: 48px;"">+</p>","","","","","null","allTrialResponses","500","1","15","img_art/21.jpg","-19","It reminds me of mushroom clouds.","Kevin,Mason,Angel,Brian,Brendan,Nathan","Another ship on fire.,-10,320,20","Don't know why I like it, cant describe, maybe many landscapes?,47,100,20","This feels chaotic, like a battle or a storm.,-20,180,20","there's not enough fine detail in this one,-27,380,20","looks like a sea during some war,27,340,20","I like it. It's some of war-scene, bloodshed and battle on the left, field of dispair on the right, dark and rich,40,200,20","Brian","there's not enough fine detail in this one,-27,380,20","Kevin","Another ship on fire.,-10,320,20","Angel","This feels chaotic, like a battle or a storm.,-20,180,20","2"
"6099","","survey-text","152","1372001","0.0-151.0-0.0","A3O7X46E3REM7I","","","","{""Q0"":""course""}","","","","","","","","","","","","","","","","","","","","","","",""
"9976","","survey-text","153","1381980","0.0-152.0-0.0","A3O7X46E3REM7I","","","","{""Q0"":""I like the shapes.""}","","","","","","","","","","","","","","","","","","","","","","",""
"2586","","image-slider-response","154","1384568","0.0-153.0","A3O7X46E3REM7I","","","","","19","","","","","","","","","","","","","","","","","","","","","",""
"null","","image-button-response","155","1389570","0.0-154.0","A3O7X46E3REM7I","img_art/22.jpg","null","","","","","","","","","","","","","","","","","","","","","","","","",""
"1844","","image-button-response","156","1391416","0.0-155.0","A3O7X46E3REM7I","img_art/22.jpg","5","","","","","","","","","","","","","","","","","","","","","","","","",""
"628","","image-button-response","157","1392045","0.0-156.0-0.0","A3O7X46E3REM7I","img_art/22.jpg","0","","","","","","","","","","","","","","","","","","","","","","","","",""
"2396","","image-button-response","158","1394443","0.0-157.0-0.0","A3O7X46E3REM7I","img_art/22.jpg","4","","","","","","","","","","","","","","","","","","","","","","","","",""
"null","","html-keyboard-response","159","1395445","0.0-158.0","A3O7X46E3REM7I","<p style=""font-size: 48px;"">+</p>","","","","","null","allTrialResponses","1000","1","16","img_art/22.jpg","19","I like the shapes.","Kevin,Cameron,Angel,Brian,Colton,Sean","Looks hot where ever that is.,-8,320,20","Like this one, like a sunset,30,60,20","This piece gives off a cool vibe. Reminds me of being out in the city at night.,20,180,20","this is too generic,-27,380,20","I enjoy the colors used,24,220,20","my reaction is that the picture is confusion,-9,40,20","Sean","my reaction is that the picture is confusion,-9,40,20","Kevin","Looks hot where ever that is.,-8,320,20","Colton","I enjoy the colors used,24,220,20","2"
"12482","","survey-text","160","1407931","0.0-159.0-0.0","A3O7X46E3REM7I","","","","{""Q0"":""The river of life.""}","","","","","","","","","","","","","","","","","","","","","","",""
"3124","","image-slider-response","161","1411057","0.0-160.0","A3O7X46E3REM7I","","","","","41","","","","","","","","","","","","","","","","","","","","","",""
"null","","image-button-response","162","1416059","0.0-161.0","A3O7X46E3REM7I","img_art/24.jpg","null","","","","","","","","","","","","","","","","","","","","","","","","",""
"821","","image-button-response","163","1416882","0.0-162.0","A3O7X46E3REM7I","img_art/24.jpg","2","","","","","","","","","","","","","","","","","","","","","","","","",""
"570","","image-button-response","164","1417454","0.0-163.0-0.0","A3O7X46E3REM7I","img_art/24.jpg","0","","","","","","","","","","","","","","","","","","","","","","","","",""
"1911","","image-button-response","165","1419366","0.0-164.0-0.0","A3O7X46E3REM7I","img_art/24.jpg","3","","","","","","","","","","","","","","","","","","","","","","","","",""
"null","","html-keyboard-response","166","1419868","0.0-165.0","A3O7X46E3REM7I","<p style=""font-size: 48px;"">+</p>","","","","","null","allTrialResponses","500","1","17","img_art/24.jpg","41","The river of life.","Kevin,Shawn,Paul,Miguel,Colton,Sean","What a nice refreshing waterfall.,39,320,20","Pretty but cheesy,-15,100,20","It looks alive, like I can hear the water flowing,41,300,20","Very cute amateur piece.,18,160,20","reminds me of a beautiful waterfall,50,220,20","I like the waterfall,22,40,20","Paul","It looks alive, like I can hear the water flowing,41,300,20","Kevin","What a nice refreshing waterfall.,39,320,20","Miguel","Very cute amateur piece.,18,160,20","2"
"14887","","survey-text","167","1434758","0.0-166.0-0.0","A3O7X46E3REM7I","","","","{""Q0"":""This is really beautiful.""}","","","","","","","","","","","","","","","","","","","","","","",""
"3675.600000143051","","image-slider-response","168","1438436","0.0-167.0","A3O7X46E3REM7I","","","","","37","","","","","","","","","","","","","","","","","","","","","",""
"null","","image-button-response","169","1443438","0.0-168.0","A3O7X46E3REM7I","img_art/8.jpg","null","","","","","","","","","","","","","","","","","","","","","","","","",""
"3224","","image-button-response","170","1446664","0.0-169.0","A3O7X46E3REM7I","img_art/8.jpg","0","","","","","","","","","","","","","","","","","","","","","","","","",""
"2257","","image-button-response","171","1448922","0.0-170.0-0.0","A3O7X46E3REM7I","img_art/8.jpg","0","","","","","","","","","","","","","","","","","","","","","","","","",""
"2585","","image-button-response","172","1453702","0.0-170.1-0.1","A3O7X46E3REM7I","img_art/8.jpg","4","","","","","","","","","","","","","","","","","","","","","","","","",""
"1271","","image-button-response","173","1454975","0.0-171.0-0.0","A3O7X46E3REM7I","img_art/8.jpg","5","","","","","","","","","","","","","","","","","","","","","","","","",""
"null","","html-keyboard-response","174","1455977","0.0-172.0","A3O7X46E3REM7I","<p style=""font-size: 48px;"">+</p>","","","","","null","allTrialResponses","1000","1","18","img_art/8.jpg","37","This is really beautiful.","Kevin,Edward,Paul,Miguel,Jesse,Adam","Now that one is wild. Looks like maybe mother nature isnt happy.,28,320,20","It's too boxy for my taste,-10,60,20","The faces in the upper left show agony and contrast with the geometric shapes too much,-31,300,20","Well painted. Not my style.,27,160,20","I like the definition and the strong lines. It makes me think of someone watching over the world,24,80,20","Eclectic city with good mix of colors.,10,40,20","Kevin","Now that one is wild. Looks like maybe mother nature isnt happy.,28,320,20","Jesse","I like the definition and the strong lines. It makes me think of someone watching over the world,24,80,20","Adam","Eclectic city with good mix of colors.,10,40,20","4"
"19294","","survey-text","175","1475274","0.0-173.0-0.0","A3O7X46E3REM7I","","","","{""Q0"":""Lots of beach turtles.""}","","","","","","","","","","","","","","","","","","","","","","",""
"1953.3999998569489","","image-slider-response","176","1477229","0.0-174.0","A3O7X46E3REM7I","","","","","24","","","","","","","","","","","","","","","","","","","","","",""
"null","","image-button-response","177","1482231","0.0-175.0","A3O7X46E3REM7I","img_art/7.jpg","null","","","","","","","","","","","","","","","","","","","","","","","","",""
"15330","","image-button-response","178","1497563","0.0-176.0","A3O7X46E3REM7I","img_art/7.jpg","5","","","","","","","","","","","","","","","","","","","","","","","","",""
"1161","","image-button-response","179","1498725","0.0-177.0-0.0","A3O7X46E3REM7I","img_art/7.jpg","3","","","","","","","","","","","","","","","","","","","","","","","","",""
"6294","","image-button-response","180","1505021","0.0-178.0-0.0","A3O7X46E3REM7I","img_art/7.jpg","2","","","","","","","","","","","","","","","","","","","","","","","","",""
"null","","html-keyboard-response","181","1505533","0.0-179.0","A3O7X46E3REM7I","<p style=""font-size: 48px;"">+</p>","","","","","null","allTrialResponses","500","1","19","img_art/7.jpg","24","Lots of beach turtles.","Kevin,Carlos,Noah,Jared,Jesse,Adam","That a desert floor,16,320,20","The dried bottom of a puddle in July.,-41,80,20","elicits no real response,0,260,20","it looks like a dog ran through some wet cement,-22,400,20","Makes me think of the beach which makes me happy,14,80,20","I like the earth tones here,5,40,20","Adam","I like the earth tones here,5,40,20","Jared","it looks like a dog ran through some wet cement,-22,400,20","Noah","elicits no real response,0,260,20","4"
"16077","","survey-text","182","1521613","0.0-180.0-0.0","A3O7X46E3REM7I","","","","{""Q0"":""Snakes on the island.""}","","","","","","","","","","","","","","","","","","","","","","",""
"2587.4000000953674","","image-slider-response","183","1524202","0.0-181.0","A3O7X46E3REM7I","","","","","15","","","","","","","","","","","","","","","","","","","","","",""
"null","","image-button-response","184","1529204","0.0-182.0","A3O7X46E3REM7I","img_art/30.jpg","null","","","","","","","","","","","","","","","","","","","","","","","","",""
"1475","","image-button-response","185","1530681","0.0-183.0","A3O7X46E3REM7I","img_art/30.jpg","2","","","","","","","","","","","","","","","","","","","","","","","","",""
"969","","image-button-response","186","1531650","0.0-184.0-0.0","A3O7X46E3REM7I","img_art/30.jpg","3","","","","","","","","","","","","","","","","","","","","","","","","",""
"656","","image-button-response","187","1532309","0.0-185.0-0.0","A3O7X46E3REM7I","img_art/30.jpg","5","","","","","","","","","","","","","","","","","","","","","","","","",""
"null","","html-keyboard-response","188","1533811","0.0-186.0","A3O7X46E3REM7I","<p style=""font-size: 48px;"">+</p>","","","","","null","allTrialResponses","1500","1","20","img_art/30.jpg","15","Snakes on the island.","Mark,Stephen,Noah,Jared,Logan,Adam","It feels like graffiti and the dark colors do nothing for the mood.,-5,80,20","A bit too dark for my liking,-10,140,20","uplifted and yet calmed,15,260,20","i dont like how the colors are mixed,-6,400,20","literally stupid I made this with as seen on tv products when I was 7,-42,360,20","Dislike the contrast here.,-5,40,20","Noah","uplifted and yet calmed,15,260,20","Jared","i dont like how the colors are mixed,-6,400,20","Adam","Dislike the contrast here.,-5,40,20","4"
"3425","","survey-text","189","1537243","0.0-187.0-0.0","A3O7X46E3REM7I","","","","{""Q0"":""we""}","","","","","","","","","","","","","","","","","","","","","","",""
"26788","","survey-text","190","1564032","0.0-188.0-0.0","A3O7X46E3REM7I","","","","{""Q0"":""This seems luxurious.""}","","","","","","","","","","","","","","","","","","","","","","",""
"3480.5","","image-slider-response","191","1567515","0.0-189.0","A3O7X46E3REM7I","","","","","37","","","","","","","","","","","","","","","","","","","","","",""
"null","","image-button-response","192","1572517","0.0-190.0","A3O7X46E3REM7I","img_art/4.jpg","null","","","","","","","","","","","","","","","","","","","","","","","","",""
"970","","image-button-response","193","1573489","0.0-191.0","A3O7X46E3REM7I","img_art/4.jpg","1","","","","","","","","","","","","","","","","","","","","","","","","",""
"387","","image-button-response","194","1573877","0.0-192.0-0.0","A3O7X46E3REM7I","img_art/4.jpg","2","","","","","","","","","","","","","","","","","","","","","","","","",""
"1704","","image-button-response","195","1575583","0.0-193.0-0.0","A3O7X46E3REM7I","img_art/4.jpg","3","","","","","","","","","","","","","","","","","","","","","","","","",""
"null","","html-keyboard-response","196","1576586","0.0-194.0","A3O7X46E3REM7I","<p style=""font-size: 48px;"">+</p>","","","","","null","allTrialResponses","1000","1","21","img_art/4.jpg","37","This seems luxurious.","Elijah,Malik,Noah,Jared,Caleb,Adam","Looks like a hand, not very impressed,-22,80,20","Reminds me of late night frustrated paintings of my own made of coffee,12,40,20","no strong feelings about this one,2,260,20","it looks like a deformed hand,-9,400,20","Colors are horrendous, look like bodily fluids have been smeared.,-50,40,20","McDonald's French Fries.,-10,40,20","Malik","Reminds me of late night frustrated paintings of my own made of coffee,12,40,20","Noah","no strong feelings about this one,2,260,20","Jared","it looks like a deformed hand,-9,400,20","4"
"15956","","survey-text","197","1592545","0.0-195.0-0.0","A3O7X46E3REM7I","","","","{""Q0"":""The modern times.""}","","","","","","","","","","","","","","","","","","","","","","",""
"2808","","image-slider-response","198","1595355","0.0-196.0","A3O7X46E3REM7I","","","","","27","","","","","","","","","","","","","","","","","","","","","",""
"null","","image-button-response","199","1600358","0.0-197.0","A3O7X46E3REM7I","img_art/17.jpg","null","","","","","","","","","","","","","","","","","","","","","","","","",""
"1513","","image-button-response","200","1601872","0.0-198.0","A3O7X46E3REM7I","img_art/17.jpg","0","","","","","","","","","","","","","","","","","","","","","","","","",""
"608","","image-button-response","201","1602482","0.0-199.0-0.0","A3O7X46E3REM7I","img_art/17.jpg","5","","","","","","","","","","","","","","","","","","","","","","","","",""
"488","","image-button-response","202","1602972","0.0-200.0-0.0","A3O7X46E3REM7I","img_art/17.jpg","4","","","","","","","","","","","","","","","","","","","","","","","","",""
"null","","html-keyboard-response","203","1603973","0.0-201.0","A3O7X46E3REM7I","<p style=""font-size: 48px;"">+</p>","","","","","null","allTrialResponses","1000","1","22","img_art/17.jpg","27","The modern times.","Nathaniel,Malik,Noah,Jared,Adrian,Kenneth","I like the artistic sketching pattern.,24,220,20","I love vague, dreamlike styles,50,40,20","feel close to nature,30,260,20","the colors, the arch and the wall,15,400,20","Pretty composition and I like the colors.,20,60,20","I really like this, especially the tree.,23,300,20","Nathaniel","I like the artistic sketching pattern.,24,220,20","Kenneth","I really like this, especially the tree.,23,300,20","Adrian","Pretty composition and I like the colors.,20,60,20","4"
"18836","","survey-text","204","1622813","0.0-202.0-0.0","A3O7X46E3REM7I","","","","{""Q0"":""The meaning of life.""}","","","","","","","","","","","","","","","","","","","","","","",""
"2481.9000000953674","","image-slider-response","205","1625297","0.0-203.0","A3O7X46E3REM7I","","","","","6","","","","","","","","","","","","","","","","","","","","","",""
"null","","image-button-response","206","1630299","0.0-204.0","A3O7X46E3REM7I","img_art/27.jpg","null","","","","","","","","","","","","","","","","","","","","","","","","",""
"749","","image-button-response","207","1631050","0.0-205.0","A3O7X46E3REM7I","img_art/27.jpg","3","","","","","","","","","","","","","","","","","","","","","","","","",""
"877","","image-button-response","208","1631929","0.0-206.0-0.0","A3O7X46E3REM7I","img_art/27.jpg","2","","","","","","","","","","","","","","","","","","","","","","","","",""
"1575","","image-button-response","209","1633506","0.0-207.0-0.0","A3O7X46E3REM7I","img_art/27.jpg","1","","","","","","","","","","","","","","","","","","","","","","","","",""
"null","","html-keyboard-response","210","1634007","0.0-208.0","A3O7X46E3REM7I","<p style=""font-size: 48px;"">+</p>","","","","","null","allTrialResponses","500","1","23","img_art/27.jpg","6","The meaning of life.","Nathaniel,Gregory,Steven,Jason,Adrian,Kenneth","Looks like a splash of different colors and designs without purpose,-44,220,20","Don't like the mix of green with the warmer colors,-15,220,20","two warring cities, separated by a small desert,50,160,20","The variation of orange is nice,9,20,20","Looks like my niece's doodles.,-50,60,20","The green stick drawings or whatever they are ruin it for me.,-23,300,20","Jason","The variation of orange is nice,9,20,20","Steven","two warring cities, separated by a small desert,50,160,20","Gregory","Don't like the mix of green with the warmer colors,-15,220,20","4"
"33488","","survey-text","211","1667501","0.0-209.0-0.0","A3O7X46E3REM7I","","","","{""Q0"":""Sports is very vital.""}","","","","","","","","","","","","","","","","","","","","","","",""
"2367.5","","image-slider-response","212","1669870","0.0-210.0","A3O7X46E3REM7I","","","","","20","","","","","","","","","","","","","","","","","","","","","",""
"null","","image-button-response","213","1674873","0.0-211.0","A3O7X46E3REM7I","img_art/1.jpg","null","","","","","","","","","","","","","","","","","","","","","","","","",""
"532","","image-button-response","214","1675407","0.0-212.0","A3O7X46E3REM7I","img_art/1.jpg","5","","","","","","","","","","","","","","","","","","","","","","","","",""
"526","","image-button-response","215","1675936","0.0-213.0-0.0","A3O7X46E3REM7I","img_art/1.jpg","3","","","","","","","","","","","","","","","","","","","","","","","","",""
"1048","","image-button-response","216","1676987","0.0-214.0-0.0","A3O7X46E3REM7I","img_art/1.jpg","2","","","","","","","","","","","","","","","","","","","","","","","","",""
"null","","html-keyboard-response","217","1677989","0.0-215.0","A3O7X46E3REM7I","<p style=""font-size: 48px;"">+</p>","","","","","null","allTrialResponses","1000","1","24","img_art/1.jpg","20","Sports is very vital.","Antonio,Gregory,Steven,Jason,Andrew,Matthew","Felt nothing in response to this painting,3,220,20","Looks like just a bunch of colors with no real point,-5,220,20","It's fine, but its like something you'd see in the restroom of a cheap restaurant,10,160,20","Interesting blend of colors,9,20,20","Makes me think of a bad thunderstorm,11,160,20","More passable, colorful, abstract.,13,120,20","Matthew","More passable, colorful, abstract.,13,120,20","Jason","Interesting blend of colors,9,20,20","Steven","It's fine, but its like something you'd see in the restroom of a cheap restaurant,10,160,20","4"
"31417","","survey-text","218","1709410","0.0-216.0-0.0","A3O7X46E3REM7I","","","","{""Q0"":""A weekend of painting.""}","","","","","","","","","","","","","","","","","","","","","","",""
"2179.2999999523163","","image-slider-response","219","1711591","0.0-217.0","A3O7X46E3REM7I","","","","","34","","","","","","","","","","","","","","","","","","","","","",""
"null","","image-button-response","220","1716594","0.0-218.0","A3O7X46E3REM7I","img_art/29.jpg","null","","","","","","","","","","","","","","","","","","","","","","","","",""
"1113","","image-button-response","221","1717710","0.0-219.0","A3O7X46E3REM7I","img_art/29.jpg","5","","","","","","","","","","","","","","","","","","","","","","","","",""
"536","","image-button-response","222","1718248","0.0-220.0-0.0","A3O7X46E3REM7I","img_art/29.jpg","4","","","","","","","","","","","","","","","","","","","","","","","","",""
"920","","image-button-response","223","1719170","0.0-221.0-0.0","A3O7X46E3REM7I","img_art/29.jpg","0","","","","","","","","","","","","","","","","","","","","","","","","",""
"null","","html-keyboard-response","224","1720172","0.0-222.0","A3O7X46E3REM7I","<p style=""font-size: 48px;"">+</p>","","","","","null","allTrialResponses","1000","1","25","img_art/29.jpg","34","A weekend of painting.","Austin,Jeffrey,Steven,Jason,Richard,Matthew","Has a haunting feel to it,22,240,20","Looks like an accident more than an art to me,-26,40,20","Yeah, I don't know. It's clearly a situation where art is the reject of something more,-27,160,20","I do not like the red x present in the picture,-6,20,20","it's OK, no clue to what's going on but good use of light and dark,4,340,20","It that an actual PAINTBUSH! Love it.,50,120,20","Matthew","It that an actual PAINTBUSH! Love it.,50,120,20","Richard","it's OK, no clue to what's going on but good use of light and dark,4,340,20","Austin","Has a haunting feel to it,22,240,20","4"
"5090","","survey-text","225","1725271","0.0-223.0-0.0","A3O7X46E3REM7I","","","","{""Q0"":""table""}","","","","","","","","","","","","","","","","","","","","","","",""
"17281","","survey-text","226","1742553","0.0-224.0-0.0","A3O7X46E3REM7I","","","","{""Q0"":""Beautiful fun times.""}","","","","","","","","","","","","","","","","","","","","","","",""
"3729.899999856949","","image-slider-response","227","1746285","0.0-225.0","A3O7X46E3REM7I","","","","","34","","","","","","","","","","","","","","","","","","","","","",""
"null","","image-button-response","228","1751287","0.0-226.0","A3O7X46E3REM7I","img_art/19.jpg","null","","","","","","","","","","","","","","","","","","","","","","","","",""
"3554","","image-button-response","229","1754844","0.0-227.0","A3O7X46E3REM7I","img_art/19.jpg","2","","","","","","","","","","","","","","","","","","","","","","","","",""
"959","","image-button-response","230","1755805","0.0-228.0-0.0","A3O7X46E3REM7I","img_art/19.jpg","0","","","","","","","","","","","","","","","","","","","","","","","","",""
"994","","image-button-response","231","1756800","0.0-229.0-0.0","A3O7X46E3REM7I","img_art/19.jpg","3","","","","","","","","","","","","","","","","","","","","","","","","",""
"null","","html-keyboard-response","232","1758302","0.0-230.0","A3O7X46E3REM7I","<p style=""font-size: 48px;"">+</p>","","","","","null","allTrialResponses","1500","1","26","img_art/19.jpg","34","Beautiful fun times.","Austin,Brandon,Eric,Jacob,Richard,Matthew","Like the painting strokes,39,240,20","Not a fan of the blobbiness,-22,320,20","I like the color and the mix of sketches along with paint.,30,100,20","Vibrant and colorful,13,340,20","not professional looking but not bad either,13,340,20","someone at the beach maybe?,27,120,20","Eric","I like the color and the mix of sketches along with paint.,30,100,20","Austin","Like the painting strokes,39,240,20","Jacob","Vibrant and colorful,13,340,20","4"
"8806","","survey-text","233","1767112","0.0-231.0-0.0","A3O7X46E3REM7I","","","","{""Q0"":""The edge of life.""}","","","","","","","","","","","","","","","","","","","","","","",""
"3557.600000143051","","image-slider-response","234","1770672","0.0-232.0","A3O7X46E3REM7I","","","","","-15","","","","","","","","","","","","","","","","","","","","","",""
"null","","image-button-response","235","1775675","0.0-233.0","A3O7X46E3REM7I","img_art/28.jpg","null","","","","","","","","","","","","","","","","","","","","","","","","",""
"517","","image-button-response","236","1776193","0.0-234.0","A3O7X46E3REM7I","img_art/28.jpg","2","","","","","","","","","","","","","","","","","","","","","","","","",""
"653","","image-button-response","237","1776847","0.0-235.0-0.0","A3O7X46E3REM7I","img_art/28.jpg","0","","","","","","","","","","","","","","","","","","","","","","","","",""
"1602","","image-button-response","238","1778452","0.0-236.0-0.0","A3O7X46E3REM7I","img_art/28.jpg","5","","","","","","","","","","","","","","","","","","","","","","","","",""
"null","","html-keyboard-response","239","1779954","0.0-237.0","A3O7X46E3REM7I","<p style=""font-size: 48px;"">+</p>","","","","","null","allTrialResponses","1500","1","27","img_art/28.jpg","-15","The edge of life.","Austin,Jesus,Eric,Jacob,Christian,Victor","Not really exciting,23,240,20","The muted tones aren't my favorite.,-10,100,20","I enjoy the colors.,25,100,20","I can't tell what's going on but it looks a little bit more lively at least,7,340,20","the color scheme is very well matched but i just didn't like it,-6,140,20","Almost looks like child's artwork, sloppy and chaotic,6,340,20","Eric","I enjoy the colors.,25,100,20","Austin","Not really exciting,23,240,20","Victor","Almost looks like child's artwork, sloppy and chaotic,6,340,20","4"
"14025","","survey-text","240","1793983","0.0-238.0-0.0","A3O7X46E3REM7I","","","","{""Q0"":""Trees in the wind.""}","","","","","","","","","","","","","","","","","","","","","","",""
"2077.399999856949","","image-slider-response","241","1796063","0.0-239.0","A3O7X46E3REM7I","","","","","11","","","","","","","","","","","","","","","","","","","","","",""
"null","","image-button-response","242","1801065","0.0-240.0","A3O7X46E3REM7I","img_art/14.jpg","null","","","","","","","","","","","","","","","","","","","","","","","","",""
"1816","","image-button-response","243","1802882","0.0-241.0","A3O7X46E3REM7I","img_art/14.jpg","3","","","","","","","","","","","","","","","","","","","","","","","","",""
"1372","","image-button-response","244","1804256","0.0-242.0-0.0","A3O7X46E3REM7I","img_art/14.jpg","5","","","","","","","","","","","","","","","","","","","","","","","","",""
"1195","","image-button-response","245","1805453","0.0-243.0-0.0","A3O7X46E3REM7I","img_art/14.jpg","0","","","","","","","","","","","","","","","","","","","","","","","","",""
"null","","html-keyboard-response","246","1806955","0.0-244.0","A3O7X46E3REM7I","<p style=""font-size: 48px;"">+</p>","","","","","null","allTrialResponses","1500","1","28","img_art/14.jpg","11","Trees in the wind.","Austin,Spencer,Eric,Corey,Daniel,Victor","Love the abstractness of this painting,39,240,20","I like the simplicity along with the colors,27,120,20","I'm imagining a flower bouquet with pretty colors which I like.,35,100,20","its okay. pretty bland but looks like nature,8,260,20","Baby's room palette with tree confusion in a more confused substrate.,-15,320,20","Meh. Pleasant to look at. Colors are nice,6,340,20","Corey","its okay. pretty bland but looks like nature,8,260,20","Victor","Meh. Pleasant to look at. Colors are nice,6,340,20","Austin","Love the abstractness of this painting,39,240,20","4"
"14038","","survey-text","247","1820999","0.0-245.0-0.0","A3O7X46E3REM7I","","","","{""Q0"":""A sailing ship.""}","","","","","","","","","","","","","","","","","","","","","","",""
"4103.400000095367","","image-slider-response","248","1825104","0.0-246.0","A3O7X46E3REM7I","","","","","9","","","","","","","","","","","","","","","","","","","","","",""
"null","","image-button-response","249","1830106","0.0-247.0","A3O7X46E3REM7I","img_art/10.jpg","null","","","","","","","","","","","","","","","","","","","","","","","","",""
"1384","","image-button-response","250","1831492","0.0-248.0","A3O7X46E3REM7I","img_art/10.jpg","4","","","","","","","","","","","","","","","","","","","","","","","","",""
"1843","","image-button-response","251","1833337","0.0-249.0-0.0","A3O7X46E3REM7I","img_art/10.jpg","2","","","","","","","","","","","","","","","","","","","","","","","","",""
"1170","","image-button-response","252","1834509","0.0-250.0-0.0","A3O7X46E3REM7I","img_art/10.jpg","1","","","","","","","","","","","","","","","","","","","","","","","","",""
"null","","html-keyboard-response","253","1835511","0.0-251.0","A3O7X46E3REM7I","<p style=""font-size: 48px;"">+</p>","","","","","null","allTrialResponses","1000","1","29","img_art/10.jpg","9","A sailing ship.","Austin,Tyler,Cody,Corey,Christopher,Victor","Has an air of mystery around it,39,240,20","In proper lighting I might enjoy this,11,320,20","Feels musical .....,40,180,20","I think this was going to be a guitar but then the artist got mad and gave up,-4,260,20","i like this, the mix of brush textures is cool,24,160,20","Looks like someone just smeared some paint and called it good. Do not like.,-6,340,20","Christopher","i like this, the mix of brush textures is cool,24,160,20","Cody","Feels musical .....,40,180,20","Tyler","In proper lighting I might enjoy this,11,320,20","4"
"15476","","survey-text","254","1850992","0.0-252.0-0.0","A3O7X46E3REM7I","","","","{""Q0"":""The big battleships.""}","","","","","","","","","","","","","","","","","","","","","","",""
"1895.5999999046326","","image-slider-response","255","1852889","0.0-253.0","A3O7X46E3REM7I","","","","","15","","","","","","","","","","","","","","","","","","","","","",""
"null","","image-button-response","256","1857893","0.0-254.0","A3O7X46E3REM7I","img_art/18.jpg","null","","","","","","","","","","","","","","","","","","","","","","","","",""
"3160","","image-button-response","257","1861054","0.0-255.0","A3O7X46E3REM7I","img_art/18.jpg","3","","","","","","","","","","","","","","","","","","","","","","","","",""
"1171","","image-button-response","258","1862227","0.0-256.0-0.0","A3O7X46E3REM7I","img_art/18.jpg","4","","","","","","","","","","","","","","","","","","","","","","","","",""
"810","","image-button-response","259","1863039","0.0-257.0-0.0","A3O7X46E3REM7I","img_art/18.jpg","5","","","","","","","","","","","","","","","","","","","","","","","","",""
"null","","html-keyboard-response","260","1863542","0.0-258.0","A3O7X46E3REM7I","<p style=""font-size: 48px;"">+</p>","","","","","null","allTrialResponses","500","1","30","img_art/18.jpg","15","The big battleships.","Jake,Tyler,Cody,Jonathan,Christopher,John","It looks grotesque and violent.,-50,360,20","Pleasant design and composition, unpleasant theme and focus.,-19,320,20","Vaguely creepy ........,-20,180,20","There's danger in this painting and it's awesome,40,140,20","this is kind of cool. I like the color scheme and the figure in the upper left is interesting,15,160,20","There are alot of elements to this painting and a good mix of colors,32,120,20","Jonathan","There's danger in this painting and it's awesome,40,140,20","Christopher","this is kind of cool. I like the color scheme and the figure in the upper left is interesting,15,160,20","John","There are alot of elements to this painting and a good mix of colors,32,120,20","4"
"7512","","image-button-response_instructions","261","1871058","0.0-259.0","A3O7X46E3REM7I","","0","instructions","","","","","","","","","","","","","","","","","","","","","","","",""
"9080","","image-button-response","262","1880143","0.0-260.0","A3O7X46E3REM7I","","0","","","","","","","","","","","","","","","","","","","","","","","","",""
