"rt","url","trial_type","trial_index","time_elapsed","internal_node_id","participant_id","stimulus","button_pressed","Name","responses","response","key_press","variableName","fixationTime","condition","trial","photo","subjectRating","subjectResponse","agentsNames","agent_1_Response","agent_2_Response","agent_3_Response","agent_4_Response","agent_5_Response","agent_6_Response","kept_1_name","kept_1_response","kept_2_name","kept_2_response","kept_3_name","kept_3_response","errorCounter"
"4955","external_page_harvard.html","external-html","0","5023","0.0-0.0","A3P3446JDIIKQY","","","","","","","","","","","","","","","","","","","","","","","","","","",""
"1988","","image-button-response","1","7012","0.0-1.0","A3P3446JDIIKQY","","1","","","","","","","","","","","","","","","","","","","","","","","","",""
"1952","","image-button-response","2","8972","0.0-2.0-0.0","A3P3446JDIIKQY","","1","phone","","","","","","","","","","","","","","","","","","","","","","","",""
"7047","","survey-text","3","16020","0.0-3.0-0.0","A3P3446JDIIKQY","","","","{""Q0"":""A3P3446JDIIKQY""}","","","","","","","","","","","","","","","","","","","","","","",""
"4758","","image-button-response_instructions","4","20780","0.0-4.0","A3P3446JDIIKQY","","0","instructions","","","","","","","","","","","","","","","","","","","","","","","",""
"8118","","image-button-response_instructions","5","28901","0.0-5.0","A3P3446JDIIKQY","img_art/ins/popularity/ins1.png","0","instructions","","","","","","","","","","","","","","","","","","","","","","","",""
"5246","","image-button-response_instructions","6","34148","0.0-6.0","A3P3446JDIIKQY","img_art/ins/popularity/ins2.png","0","instructions","","","","","","","","","","","","","","","","","","","","","","","",""
"403747","","image-button-response_instructions","7","437897","0.0-7.0","A3P3446JDIIKQY","img_art/ins/popularity/ins2Extreme.png","0","instructions","","","","","","","","","","","","","","","","","","","","","","","",""
"4646","","image-button-response_instructions","8","442544","0.0-8.0","A3P3446JDIIKQY","img_art/ins/popularity/ins3KEEPpop.PNG","0","instructions","","","","","","","","","","","","","","","","","","","","","","","",""
"3847","","image-button-response_instructions","9","446393","0.0-9.0","A3P3446JDIIKQY","img_art/ins/popularity/ins3ANamepop.PNG","0","instructions","","","","","","","","","","","","","","","","","","","","","","","",""
"3023","","image-button-response_instructions","10","449416","0.0-10.0","A3P3446JDIIKQY","img_art/ins/popularity/ins3ARatingpop.png","0","instructions","","","","","","","","","","","","","","","","","","","","","","","",""
"3055","","image-button-response_instructions","11","452472","0.0-11.0","A3P3446JDIIKQY","img_art/ins/popularity/ins3ATextpop.png","0","instructions","","","","","","","","","","","","","","","","","","","","","","","",""
"7911","","image-button-response_instructions","12","460384","0.0-12.0","A3P3446JDIIKQY","img_art/ins/popularity/ins3ALikespop.png","0","instructions","","","","","","","","","","","","","","","","","","","","","","","",""
"103292","","image-button-response_instructions","13","563677","0.0-13.0","A3P3446JDIIKQY","img_art/ins/popularity/ins3KEEPpop.PNG","0","instructions","","","","","","","","","","","","","","","","","","","","","","","",""
"4431","","image-button-response_instructions","14","568109","0.0-14.0","A3P3446JDIIKQY","img_art/ins/popularity/ins3_5RED.png","0","instructions","","","","","","","","","","","","","","","","","","","","","","","",""
"3127","","image-button-response_instructions","15","571237","0.0-15.0","A3P3446JDIIKQY","img_art/ins/popularity/ins3KEEPpop.PNG","0","instructions","","","","","","","","","","","","","","","","","","","","","","","",""
"2591","","image-button-response_instructions","16","573829","0.0-16.0","A3P3446JDIIKQY","img_art/ins/popularity/ins4KEEPpop.PNG","0","instructions","","","","","","","","","","","","","","","","","","","","","","","",""
"1647","","image-button-response_instructions","17","575477","0.0-17.0","A3P3446JDIIKQY","img_art/ins/popularity/ins5KEEPpop.PNG","0","instructions","","","","","","","","","","","","","","","","","","","","","","","",""
"1439","","image-button-response_instructions","18","576917","0.0-18.0","A3P3446JDIIKQY","","0","instructions","","","","","","","","","","","","","","","","","","","","","","","",""
"5735","","survey-text","19","582678","0.0-19.0-0.0","A3P3446JDIIKQY","","","","{""Q0"":""but""}","","","","","","","","","","","","","","","","","","","","","","",""
"7829","","survey-text","20","590509","0.0-20.0-0.0","A3P3446JDIIKQY","","","","{""Q0"":""Calming, relaxing""}","","","","","","","","","","","","","","","","","","","","","","",""
"3446","","image-slider-response","21","593957","0.0-21.0","A3P3446JDIIKQY","","","","","22","","","","","","","","","","","","","","","","","","","","","",""
"null","","image-button-response","22","598968","0.0-22.0","A3P3446JDIIKQY","img_art/ins/1.jpg","null","","","","","","","","","","","","","","","","","","","","","","","","",""
"4186","","image-button-response","23","603157","0.0-23.0","A3P3446JDIIKQY","img_art/ins/1.jpg","0","","","","","","","","","","","","","","","","","","","","","","","","",""
"3245","","image-button-response","24","606405","0.0-24.0-0.0","A3P3446JDIIKQY","img_art/ins/1.jpg","5","","","","","","","","","","","","","","","","","","","","","","","","",""
"628","","image-button-response","25","607037","0.0-25.0-0.0","A3P3446JDIIKQY","img_art/ins/1.jpg","4","","","","","","","","","","","","","","","","","","","","","","","","",""
"null","","html-keyboard-response","26","607553","0.0-26.0","A3P3446JDIIKQY","<p style=""font-size: 48px;"">+</p>","","","","","null","allTrialResponses","500","1","-2","img_art/ins/1.jpg","22","Calming, relaxing","Allison,Ashley,Beth,Dora,Erika,Jen","looks like a lot of things going on in the mist,20,20,20","I just don't get why these type of art would be popular,-32,40,20","This color reminds me of poo,-46,60,20","looks like what my niece in 3rd grade did this afternoon,-50,80,20","I like the sophisticated brushwork,40,100,20","It reminds me of a candy land dream I had,36,120,20","Allison","looks like a lot of things going on in the mist,20,20,20","Jen","It reminds me of a candy land dream I had,36,120,20","Erika","I like the sophisticated brushwork,40,100,20","0"
"4757","","survey-text","27","612316","0.0-27.0-0.0","A3P3446JDIIKQY","","","","{""Q0"":""Scrambled ""}","","","","","","","","","","","","","","","","","","","","","","",""
"2366.4000000953674","","image-slider-response","28","614685","0.0-28.0","A3P3446JDIIKQY","","","","","-34","","","","","","","","","","","","","","","","","","","","","",""
"null","","image-button-response","29","619688","0.0-29.0","A3P3446JDIIKQY","img_art/ins/2.jpg","null","","","","","","","","","","","","","","","","","","","","","","","","",""
"2434","","image-button-response","30","622124","0.0-30.0","A3P3446JDIIKQY","img_art/ins/2.jpg","2","","","","","","","","","","","","","","","","","","","","","","","","",""
"3734","","image-button-response","31","625861","0.0-31.0-0.0","A3P3446JDIIKQY","img_art/ins/2.jpg","3","","","","","","","","","","","","","","","","","","","","","","","","",""
"966","","image-button-response","32","626828","0.0-32.0-0.0","A3P3446JDIIKQY","img_art/ins/2.jpg","5","","","","","","","","","","","","","","","","","","","","","","","","",""
"null","","html-keyboard-response","33","628330","0.0-33.0","A3P3446JDIIKQY","<p style=""font-size: 48px;"">+</p>","","","","","null","allTrialResponses","1500","1","-1","img_art/ins/2.jpg","-34","Scrambled ","Allison,Kara,Katie,Jenna,Erika,Jen","I don't have strong feelings about this,10,20,20","I like the blocks of color arrangements,30,160,20","too much color!,-28,180,20","One of my pet peevs,-48,140,20","I would never be able to compose a sophisticated pallete like this,48,100,20","It reminds me of a fireplace,36,120,20","Katie","too much color!,-28,180,20","Jenna","One of my pet peevs,-48,140,20","Jen","It reminds me of a fireplace,36,120,20","0"
"8990","","survey-text","34","637324","0.0-34.0-0.0","A3P3446JDIIKQY","","","","{""Q0"":""Calming, soothing ""}","","","","","","","","","","","","","","","","","","","","","","",""
"2454.1999999284744","","image-slider-response","35","639780","0.0-35.0","A3P3446JDIIKQY","","","","","50","","","","","","","","","","","","","","","","","","","","","",""
"null","","image-button-response","36","644782","0.0-36.0","A3P3446JDIIKQY","img_art/ins/3.jpg","null","","","","","","","","","","","","","","","","","","","","","","","","",""
"572","","image-button-response","37","645356","0.0-37.0","A3P3446JDIIKQY","img_art/ins/3.jpg","4","","","","","","","","","","","","","","","","","","","","","","","","",""
"926","","image-button-response","38","646285","0.0-38.0-0.0","A3P3446JDIIKQY","img_art/ins/3.jpg","5","","","","","","","","","","","","","","","","","","","","","","","","",""
"4269","","image-button-response","39","650556","0.0-39.0-0.0","A3P3446JDIIKQY","img_art/ins/3.jpg","0","","","","","","","","","","","","","","","","","","","","","","","","",""
"null","","html-keyboard-response","40","651558","0.0-40.0","A3P3446JDIIKQY","<p style=""font-size: 48px;"">+</p>","","","","","null","allTrialResponses","1000","1","0","img_art/ins/3.jpg","50","Calming, soothing ","Rose,Leslie,Katie,Jenna,Mary,Jen","My daily routine, it's depressing,-20,240,20","It's an alright work,15,200,20","It looks depressing,-26,180,20","looks like a murder room,-35,140,20","I like the overlapping of brushes,41,220,20","I can feel a rainy day from this painting,18,120,20","Mary","I like the overlapping of brushes,41,220,20","Jen","I can feel a rainy day from this painting,18,120,20","Rose","My daily routine, it's depressing,-20,240,20","0"
"50918","","image-button-response_instructions","41","702483","0.0-41.0","A3P3446JDIIKQY","","0","instructions","","","","","","","","","","","","","","","","","","","","","","","",""
"13383","","survey-likert","42","715867","0.0-42.0-0.0","A3P3446JDIIKQY","","","","{""Q0"":"""",""Q1"":0,""Q2"":1}","","","","","","","","","","","","","","","","","","","","","","",""
"3081","","survey-text","43","718955","0.0-43.0-0.0","A3P3446JDIIKQY","","","","{""Q0"":""rock""}","","","","","","","","","","","","","","","","","","","","","","",""
"55422","","survey-text","44","774377","0.0-44.0-0.0","A3P3446JDIIKQY","","","","{""Q0"":""Jumbled, a little scary""}","","","","","","","","","","","","","","","","","","","","","","",""
"2262.2999999523163","","image-slider-response","45","776641","0.0-45.0","A3P3446JDIIKQY","","","","","4","","","","","","","","","","","","","","","","","","","","","",""
"2952","","image-button-response","46","781666","0.0-46.0","A3P3446JDIIKQY","img_art/20.jpg","0","","","","","","","","","","","","","","","","","","","","","","","","",""
"1628","","image-button-response","47","783298","0.0-47.0","A3P3446JDIIKQY","img_art/20.jpg","0","","","","","","","","","","","","","","","","","","","","","","","","",""
"9270","","image-button-response","48","792570","0.0-48.0-0.0","A3P3446JDIIKQY","img_art/20.jpg","1","","","","","","","","","","","","","","","","","","","","","","","","",""
"2190","","image-button-response","49","794762","0.0-49.0-0.0","A3P3446JDIIKQY","img_art/20.jpg","3","","","","","","","","","","","","","","","","","","","","","","","","",""
"null","","html-keyboard-response","50","795765","0.0-50.0","A3P3446JDIIKQY","<p style=""font-size: 48px;"">+</p>","","","","","null","allTrialResponses","1000","1","1","img_art/20.jpg","4","Jumbled, a little scary","Mariah,Julia,Heather,Emily,Angelica,Makayla","It feels like it ""almost"" several things.,-10,140,20","The colors are nice, and the shapes conjure the decay of the city in the face of natural entropy,19,40,20","make me feel like its a little country maybe a tractor and a skull head of a bull,1,260,20","Brings about an emotion response of dspair. Loose lines but yet has a cohesion.,8,40,20","It's too brash and loud and ugly.,-21,280,20","Little picturesque town that I would like to visit,19,80,20","Mariah","It feels like it ""almost"" several things.,-10,140,20","Julia","The colors are nice, and the shapes conjure the decay of the city in the face of natural entropy,19,40,20","Emily","Brings about an emotion response of dspair. Loose lines but yet has a cohesion.,8,40,20","0"
"23749","","survey-text","51","819521","0.0-51.0-0.0","A3P3446JDIIKQY","","","","{""Q0"":""It's calming, almost like a lot going on ""}","","","","","","","","","","","","","","","","","","","","","","",""
"27022.100000023842","","image-slider-response","52","846544","0.0-52.0","A3P3446JDIIKQY","","","","","27","","","","","","","","","","","","","","","","","","","","","",""
"null","","image-button-response","53","851546","0.0-53.0","A3P3446JDIIKQY","img_art/17.jpg","null","","","","","","","","","","","","","","","","","","","","","","","","",""
"51563","","image-button-response","54","903111","0.0-54.0","A3P3446JDIIKQY","img_art/17.jpg","5","","","","","","","","","","","","","","","","","","","","","","","","",""
"2694","","image-button-response","55","905807","0.0-55.0-0.0","A3P3446JDIIKQY","img_art/17.jpg","2","","","","","","","","","","","","","","","","","","","","","","","","",""
"1990","","image-button-response","56","907799","0.0-56.0-0.0","A3P3446JDIIKQY","img_art/17.jpg","0","","","","","","","","","","","","","","","","","","","","","","","","",""
"null","","html-keyboard-response","57","908801","0.0-57.0","A3P3446JDIIKQY","<p style=""font-size: 48px;"">+</p>","","","","","null","allTrialResponses","1000","1","2","img_art/17.jpg","27","It's calming, almost like a lot going on ","Mariah,Julia,Alicia,Emily,Cheyenne,Anna","It feels like nature overtaking civilization.,21,140,20","I'm not into paintings of trees,-18,40,20","Like this one, super creative, calming.,43,120,20","There is better structure and direction in this one.,19,40,20","I like the colorfulness.,17,200,20","it brings a clear picture to my minds eye:,45,300,20","Anna","it brings a clear picture to my minds eye:,45,300,20","Alicia","Like this one, super creative, calming.,43,120,20","Mariah","It feels like nature overtaking civilization.,21,140,20","0"
"77694","","survey-text","58","986501","0.0-58.0-0.0","A3P3446JDIIKQY","","","","{""Q0"":""Looks like the ocean during the sunset ""}","","","","","","","","","","","","","","","","","","","","","","",""
"2118","","image-slider-response","59","988621","0.0-59.0","A3P3446JDIIKQY","","","","","10","","","","","","","","","","","","","","","","","","","","","",""
"null","","image-button-response","60","993625","0.0-60.0","A3P3446JDIIKQY","img_art/21.jpg","null","","","","","","","","","","","","","","","","","","","","","","","","",""
"1627","","image-button-response","61","995254","0.0-61.0","A3P3446JDIIKQY","img_art/21.jpg","1","","","","","","","","","","","","","","","","","","","","","","","","",""
"4198","","image-button-response","62","999454","0.0-62.0-0.0","A3P3446JDIIKQY","img_art/21.jpg","5","","","","","","","","","","","","","","","","","","","","","","","","",""
"2557","","image-button-response","63","1002013","0.0-63.0-0.0","A3P3446JDIIKQY","img_art/21.jpg","3","","","","","","","","","","","","","","","","","","","","","","","","",""
"null","","html-keyboard-response","64","1003515","0.0-64.0","A3P3446JDIIKQY","<p style=""font-size: 48px;"">+</p>","","","","","null","allTrialResponses","1500","1","3","img_art/21.jpg","10","Looks like the ocean during the sunset ","Mariah,Amber,Alicia,Katherine,Abigail,Anna","Motion, the light marks in the lower right corner are very appealing.,15,140,20","sunset after the rain,49,200,20","Don't know why I like it, cant describe, maybe many landscapes?,47,120,20","I can't explain why this struck me as absolutely gorgeous. Like the clashing between 2 different worlds,43,120,20","Beautiful colors, remind me of my yoga studio,50,20,20","I love the colors and the differences between the left and right sides.,22,300,20","Amber","sunset after the rain,49,200,20","Anna","I love the colors and the differences between the left and right sides.,22,300,20","Katherine","I can't explain why this struck me as absolutely gorgeous. Like the clashing between 2 different worlds,43,120,20","0"
"38312","","survey-text","65","1041836","0.0-65.0-0.0","A3P3446JDIIKQY","","","","{""Q0"":""looks like flowers, calming. ""}","","","","","","","","","","","","","","","","","","","","","","",""
"7549.5","","image-slider-response","66","1049388","0.0-66.0","A3P3446JDIIKQY","","","","","0","","","","","","","","","","","","","","","","","","","","","",""
"null","","image-button-response","67","1054404","0.0-67.0","A3P3446JDIIKQY","img_art/14.jpg","null","","","","","","","","","","","","","","","","","","","","","","","","",""
"8813","","image-button-response","68","1063220","0.0-68.0","A3P3446JDIIKQY","img_art/14.jpg","0","","","","","","","","","","","","","","","","","","","","","","","","",""
"1013","","image-button-response","69","1064236","0.0-69.0-0.0","A3P3446JDIIKQY","img_art/14.jpg","1","","","","","","","","","","","","","","","","","","","","","","","","",""
"3230","","image-button-response","70","1067468","0.0-70.0-0.0","A3P3446JDIIKQY","img_art/14.jpg","0","","","","","","","","","","","","","","","","","","","","","","","","",""
"903","","image-button-response","71","1071307","0.0-70.1-0.1","A3P3446JDIIKQY","img_art/14.jpg","3","","","","","","","","","","","","","","","","","","","","","","","","",""
"null","","html-keyboard-response","72","1072821","0.0-71.0","A3P3446JDIIKQY","<p style=""font-size: 48px;"">+</p>","","","","","null","allTrialResponses","1500","1","4","img_art/14.jpg","0","looks like flowers, calming. ","Leslie,Amber,Kelsey,Katherine,Alyssa,Anna","This elicits no reaction in me.,0,380,20","Reminds me of the outdoors.,12,200,20","i like this one!,23,240,20","I don't like the color red,30,120,20","Beautiful tree,the use of water colors makes it soothing to look at,37,160,20","It reminds me of a tree in the desert.,15,300,20","Leslie","This elicits no reaction in me.,0,380,20","Amber","Reminds me of the outdoors.,12,200,20","Katherine","I don't like the color red,30,120,20","2"
"9422","","survey-text","73","1082251","0.0-72.0-0.0","A3P3446JDIIKQY","","","","{""Q0"":""I love this one, leaves me speechless""}","","","","","","","","","","","","","","","","","","","","","","",""
"2534.3000000715256","","image-slider-response","74","1084787","0.0-73.0","A3P3446JDIIKQY","","","","","50","","","","","","","","","","","","","","","","","","","","","",""
"null","","image-button-response","75","1090232","0.0-74.0","A3P3446JDIIKQY","img_art/13.jpg","null","","","","","","","","","","","","","","","","","","","","","","","","",""
"96407","","image-button-response","76","1186641","0.0-75.0","A3P3446JDIIKQY","img_art/13.jpg","3","","","","","","","","","","","","","","","","","","","","","","","","",""
"7366","","image-button-response","77","1194009","0.0-76.0-0.0","A3P3446JDIIKQY","img_art/13.jpg","1","","","","","","","","","","","","","","","","","","","","","","","","",""
"733","","image-button-response","78","1194745","0.0-77.0-0.0","A3P3446JDIIKQY","img_art/13.jpg","2","","","","","","","","","","","","","","","","","","","","","","","","",""
"null","","html-keyboard-response","79","1196258","0.0-78.0","A3P3446JDIIKQY","<p style=""font-size: 48px;"">+</p>","","","","","null","allTrialResponses","1500","1","5","img_art/13.jpg","50","I love this one, leaves me speechless","Leslie,Amber,Kristen,Katherine,Sophia,Rebecca","This elicits no reaction in me.,0,380,20","Reminds me of rain running down a window.,35,200,20","happy, serenity,30,280,20","Best color combo. i love this.,50,120,20","I like the colors used in this piece.,2,280,20","love the style but not very novel,9,100,20","Katherine","Best color combo. i love this.,50,120,20","Amber","Reminds me of rain running down a window.,35,200,20","Kristen","happy, serenity,30,280,20","2"
"90655","","survey-text","80","1286927","0.0-79.0-0.0","A3P3446JDIIKQY","","","","{""Q0"":""sky""}","","","","","","","","","","","","","","","","","","","","","","",""
"11030","","survey-text","81","1297959","0.0-80.0-0.0","A3P3446JDIIKQY","","","","{""Q0"":""Makes me feel like death""}","","","","","","","","","","","","","","","","","","","","","","",""
"2838.100000023842","","image-slider-response","82","1300799","0.0-81.0","A3P3446JDIIKQY","","","","","-20","","","","","","","","","","","","","","","","","","","","","",""
"null","","image-button-response","83","1305802","0.0-82.0","A3P3446JDIIKQY","img_art/18.jpg","null","","","","","","","","","","","","","","","","","","","","","","","","",""
"9626","","image-button-response","84","1315431","0.0-83.0","A3P3446JDIIKQY","img_art/18.jpg","2","","","","","","","","","","","","","","","","","","","","","","","","",""
"590","","image-button-response","85","1316023","0.0-84.0-0.0","A3P3446JDIIKQY","img_art/18.jpg","1","","","","","","","","","","","","","","","","","","","","","","","","",""
"573","","image-button-response","86","1316599","0.0-85.0-0.0","A3P3446JDIIKQY","img_art/18.jpg","0","","","","","","","","","","","","","","","","","","","","","","","","",""
"null","","html-keyboard-response","87","1317101","0.0-86.0","A3P3446JDIIKQY","<p style=""font-size: 48px;"">+</p>","","","","","null","allTrialResponses","500","1","6","img_art/18.jpg","-20","Makes me feel like death","Courtney,Amber,Kristen,Katherine,Gabriela,Sydney","Pirate ship in stormy seas before it sank.,11,280,20","ugly and lots of movement,-6,200,20","pegssus going into battle,25,280,20","Ok this is really badass. Like a warrior come to the last battle,50,120,20","It's possibly of a mermaid luring in a ship,15,140,20","I like the colors being used, but I don't like the chaos in the middle of it.,20,320,20","Kristen","pegssus going into battle,25,280,20","Amber","ugly and lots of movement,-6,200,20","Courtney","Pirate ship in stormy seas before it sank.,11,280,20","2"
"6506","","survey-text","88","1323615","0.0-87.0-0.0","A3P3446JDIIKQY","","","","{""Q0"":""Murder took place here ""}","","","","","","","","","","","","","","","","","","","","","","",""
"1966.2999999523163","","image-slider-response","89","1325583","0.0-88.0","A3P3446JDIIKQY","","","","","50","","","","","","","","","","","","","","","","","","","","","",""
"null","","image-button-response","90","1330601","0.0-89.0","A3P3446JDIIKQY","img_art/3.jpg","null","","","","","","","","","","","","","","","","","","","","","","","","",""
"1211","","image-button-response","91","1331815","0.0-90.0","A3P3446JDIIKQY","img_art/3.jpg","2","","","","","","","","","","","","","","","","","","","","","","","","",""
"8558","","image-button-response","92","1340375","0.0-91.0-0.0","A3P3446JDIIKQY","img_art/3.jpg","1","","","","","","","","","","","","","","","","","","","","","","","","",""
"1101","","image-button-response","93","1341479","0.0-92.0-0.0","A3P3446JDIIKQY","img_art/3.jpg","4","","","","","","","","","","","","","","","","","","","","","","","","",""
"null","","html-keyboard-response","94","1341980","0.0-93.0","A3P3446JDIIKQY","<p style=""font-size: 48px;"">+</p>","","","","","null","allTrialResponses","500","1","7","img_art/3.jpg","50","Murder took place here ","Courtney,Amber,Kristen,Brooke,Jennifer,Jamie","That just looks like a mess..,-18,280,20","seems to be a lot of angry scribble.,-20,200,20","anger, blood, death,-24,280,20","kid scribbled on the wall again,-35,60,20","This looks like something a child created in 5 minutes.,-50,380,20","Looks like somebody squirted ketchup everywhere,-40,320,20","Kristen","anger, blood, death,-24,280,20","Amber","seems to be a lot of angry scribble.,-20,200,20","Jennifer","This looks like something a child created in 5 minutes.,-50,380,20","2"
"10492","","survey-text","95","1352478","0.0-94.0-0.0","A3P3446JDIIKQY","","","","{""Q0"":""Calming alien piece ""}","","","","","","","","","","","","","","","","","","","","","","",""
"2182.2999999523163","","image-slider-response","96","1354662","0.0-95.0","A3P3446JDIIKQY","","","","","11","","","","","","","","","","","","","","","","","","","","","",""
"null","","image-button-response","97","1360239","0.0-96.0","A3P3446JDIIKQY","img_art/25.jpg","null","","","","","","","","","","","","","","","","","","","","","","","","",""
"51702","","image-button-response","98","1411950","0.0-97.0","A3P3446JDIIKQY","img_art/25.jpg","4","","","","","","","","","","","","","","","","","","","","","","","","",""
"3518","","image-button-response","99","1415469","0.0-98.0-0.0","A3P3446JDIIKQY","img_art/25.jpg","2","","","","","","","","","","","","","","","","","","","","","","","","",""
"774","","image-button-response","100","1416245","0.0-99.0-0.0","A3P3446JDIIKQY","img_art/25.jpg","1","","","","","","","","","","","","","","","","","","","","","","","","",""
"null","","html-keyboard-response","101","1416747","0.0-100.0","A3P3446JDIIKQY","<p style=""font-size: 48px;"">+</p>","","","","","null","allTrialResponses","500","1","8","img_art/25.jpg","11","Calming alien piece ","Allison,Amber,Kristen,Melissa,Jennifer,Maria","high contrast draws attention to the image, but I'm not sure what I'm seeing,-5,140,20","Regal. Reminds me of Egyptian art.,11,200,20","reminds me of the grim reaper,3,280,20","do not like that color of green,-11,240,20","Spooky, but in a good way. I like the green and black color palette.,42,380,20","I find it enjoyable - mainly because it is not art I ever expected to see,16,120,20","Jennifer","Spooky, but in a good way. I like the green and black color palette.,42,380,20","Kristen","reminds me of the grim reaper,3,280,20","Amber","Regal. Reminds me of Egyptian art.,11,200,20","2"
"7482","","survey-text","102","1424237","0.0-101.0-0.0","A3P3446JDIIKQY","","","","{""Q0"":""harmony""}","","","","","","","","","","","","","","","","","","","","","","",""
"1517.7000000476837","","image-slider-response","103","1425757","0.0-102.0","A3P3446JDIIKQY","","","","","11","","","","","","","","","","","","","","","","","","","","","",""
"null","","image-button-response","104","1430762","0.0-103.0","A3P3446JDIIKQY","img_art/9.jpg","null","","","","","","","","","","","","","","","","","","","","","","","","",""
"817","","image-button-response","105","1431581","0.0-104.0","A3P3446JDIIKQY","img_art/9.jpg","1","","","","","","","","","","","","","","","","","","","","","","","","",""
"2630","","image-button-response","106","1434213","0.0-105.0-0.0","A3P3446JDIIKQY","img_art/9.jpg","2","","","","","","","","","","","","","","","","","","","","","","","","",""
"1037","","image-button-response","107","1435253","0.0-106.0-0.0","A3P3446JDIIKQY","img_art/9.jpg","3","","","","","","","","","","","","","","","","","","","","","","","","",""
"null","","html-keyboard-response","108","1435755","0.0-107.0","A3P3446JDIIKQY","<p style=""font-size: 48px;"">+</p>","","","","","null","allTrialResponses","500","1","9","img_art/9.jpg","11","harmony","Monica,Amber,Kristen,Andrea,Jennifer,Autumn","I like the greens and blues around the sides and the person reclining in the center makes me feel relaxed,24,360,20","looks like sleeping beauty in a garden,10,200,20","sleep, calm, safe,12,280,20","Sleeping woman in a cave. Makes me feel safe.,20,240,20","This piece is very boring to look at.,-27,380,20","Abstract but not well made,-26,340,20","Amber","looks like sleeping beauty in a garden,10,200,20","Kristen","sleep, calm, safe,12,280,20","Andrea","Sleeping woman in a cave. Makes me feel safe.,20,240,20","2"
"16115","","survey-text","109","1451877","0.0-108.0-0.0","A3P3446JDIIKQY","","","","{""Q0"":""Unfinished by adult, fished by a child ""}","","","","","","","","","","","","","","","","","","","","","","",""
"1590.3999999761581","","image-slider-response","110","1453469","0.0-109.0","A3P3446JDIIKQY","","","","","-9","","","","","","","","","","","","","","","","","","","","","",""
"null","","image-button-response","111","1458478","0.0-110.0","A3P3446JDIIKQY","img_art/27.jpg","null","","","","","","","","","","","","","","","","","","","","","","","","",""
"4436","","image-button-response","112","1462917","0.0-111.0","A3P3446JDIIKQY","img_art/27.jpg","0","","","","","","","","","","","","","","","","","","","","","","","","",""
"1094","","image-button-response","113","1464013","0.0-112.0-0.0","A3P3446JDIIKQY","img_art/27.jpg","4","","","","","","","","","","","","","","","","","","","","","","","","",""
"646","","image-button-response","114","1464661","0.0-113.0-0.0","A3P3446JDIIKQY","img_art/27.jpg","3","","","","","","","","","","","","","","","","","","","","","","","","",""
"null","","html-keyboard-response","115","1465678","0.0-114.0","A3P3446JDIIKQY","<p style=""font-size: 48px;"">+</p>","","","","","null","allTrialResponses","1000","1","10","img_art/27.jpg","-9","Unfinished by adult, fished by a child ","Michaela,Amber,Kristen,Andrea,Hannah,Mary","It looks like a kid colored a picture and an adult added to it,19,260,20","I like the colors.,6,200,20","makes me think of fume clouds, low visibility,-28,280,20","I see a cathedral through the woods.,12,240,20","Reminds me of something I'd see in a gold frame from the Eighties.,-9,240,20","I like the layer upon layer of different mediums used here.,21,180,20","Michaela","It looks like a kid colored a picture and an adult added to it,19,260,20","Hannah","Reminds me of something I'd see in a gold frame from the Eighties.,-9,240,20","Andrea","I see a cathedral through the woods.,12,240,20","2"
"2969","","survey-text","116","1468660","0.0-115.0-0.0","A3P3446JDIIKQY","","","","{""Q0"":""our""}","","","","","","","","","","","","","","","","","","","","","","",""
"9838","","survey-text","117","1478500","0.0-116.0-0.0","A3P3446JDIIKQY","","","","{""Q0"":""I feel nothing on this. ""}","","","","","","","","","","","","","","","","","","","","","","",""
"2342.5","","image-slider-response","118","1480844","0.0-117.0","A3P3446JDIIKQY","","","","","-50","","","","","","","","","","","","","","","","","","","","","",""
"null","","image-button-response","119","1485861","0.0-118.0","A3P3446JDIIKQY","img_art/28.jpg","null","","","","","","","","","","","","","","","","","","","","","","","","",""
"6100","","image-button-response","120","1491964","0.0-119.0","A3P3446JDIIKQY","img_art/28.jpg","1","","","","","","","","","","","","","","","","","","","","","","","","",""
"814","","image-button-response","121","1492780","0.0-120.0-0.0","A3P3446JDIIKQY","img_art/28.jpg","5","","","","","","","","","","","","","","","","","","","","","","","","",""
"750","","image-button-response","122","1493532","0.0-121.0-0.0","A3P3446JDIIKQY","img_art/28.jpg","0","","","","","","","","","","","","","","","","","","","","","","","","",""
"null","","html-keyboard-response","123","1494033","0.0-122.0","A3P3446JDIIKQY","<p style=""font-size: 48px;"">+</p>","","","","","null","allTrialResponses","500","1","11","img_art/28.jpg","-50","I feel nothing on this. ","Michaela,Kaitlin,Cassidy,Andrea,Hannah,Mikayla","Salvador Dali called and he thinks this looks pretty good,27,260,20","i'm not too impressed with this one.,-10,60,20","Almost looks like child's artwork, sloppy and chaotic,6,140,20","It reminds me of the cantina in Star Wars.,37,240,20","The colors are drab and a little depressing.,-20,240,20","It gives me weird vibes.,-25,300,20","Kaitlin","i'm not too impressed with this one.,-10,60,20","Mikayla","It gives me weird vibes.,-25,300,20","Michaela","Salvador Dali called and he thinks this looks pretty good,27,260,20","2"
"128048","","survey-text","124","1622090","0.0-123.0-0.0","A3P3446JDIIKQY","","","","{""Q0"":""High strung ""}","","","","","","","","","","","","","","","","","","","","","","",""
"2502.5","","image-slider-response","125","1624594","0.0-124.0","A3P3446JDIIKQY","","","","","50","","","","","","","","","","","","","","","","","","","","","",""
"null","","image-button-response","126","1630238","0.0-125.0","A3P3446JDIIKQY","img_art/10.jpg","null","","","","","","","","","","","","","","","","","","","","","","","","",""
"80015","","image-button-response","127","1710257","0.0-126.0","A3P3446JDIIKQY","img_art/10.jpg","2","","","","","","","","","","","","","","","","","","","","","","","","",""
"766","","image-button-response","128","1711025","0.0-127.0-0.0","A3P3446JDIIKQY","img_art/10.jpg","0","","","","","","","","","","","","","","","","","","","","","","","","",""
"1182","","image-button-response","129","1712209","0.0-128.0-0.0","A3P3446JDIIKQY","img_art/10.jpg","4","","","","","","","","","","","","","","","","","","","","","","","","",""
"null","","html-keyboard-response","130","1713219","0.0-129.0","A3P3446JDIIKQY","<p style=""font-size: 48px;"">+</p>","","","","","null","allTrialResponses","1000","1","12","img_art/10.jpg","50","High strung ","Michaela,Kaitlin,Danielle,Marissa,Ashley,Mikayla","It looks like it's sinking but it could also be a view from above,40,260,20","awww... this looks very nice,32,60,20","Seems very lovecraftian, which I love that style,25,340,20","My immediate thought is WTF is this,-20,160,20","AWESOME VIOLIN!`,26,320,20","Kinda creepy not my favorite,-26,300,20","Danielle","Seems very lovecraftian, which I love that style,25,340,20","Michaela","It looks like it's sinking but it could also be a view from above,40,260,20","Ashley","AWESOME VIOLIN!`,26,320,20","2"
"11551","","survey-text","131","1724776","0.0-130.0-0.0","A3P3446JDIIKQY","","","","{""Q0"":""Jumbled, crowd of people ""}","","","","","","","","","","","","","","","","","","","","","","",""
"2726.2000000476837","","image-slider-response","132","1727504","0.0-131.0","A3P3446JDIIKQY","","","","","-22","","","","","","","","","","","","","","","","","","","","","",""
"null","","image-button-response","133","1732511","0.0-132.0","A3P3446JDIIKQY","img_art/23.jpg","null","","","","","","","","","","","","","","","","","","","","","","","","",""
"7287","","image-button-response","134","1739800","0.0-133.0","A3P3446JDIIKQY","img_art/23.jpg","5","","","","","","","","","","","","","","","","","","","","","","","","",""
"782","","image-button-response","135","1740584","0.0-134.0-0.0","A3P3446JDIIKQY","img_art/23.jpg","4","","","","","","","","","","","","","","","","","","","","","","","","",""
"486","","image-button-response","136","1741072","0.0-135.0-0.0","A3P3446JDIIKQY","img_art/23.jpg","3","","","","","","","","","","","","","","","","","","","","","","","","",""
"null","","html-keyboard-response","137","1742082","0.0-136.0","A3P3446JDIIKQY","<p style=""font-size: 48px;"">+</p>","","","","","null","allTrialResponses","1000","1","13","img_art/23.jpg","-22","Jumbled, crowd of people ","Michaela,Taylor,Danielle,Claire,Ashley,Chloe","This would make a great mural,37,260,20","The color contrast makes me happy,40,340,20","While I don't normally enjoy these color schemes all together, I kind of like this one,10,340,20","the pattern is pleasing to the eye,28,260,20","A line dance, it's really strinkingly beautiful.,50,320,20","Poster shop camp.,-40,220,20","Chloe","Poster shop camp.,-40,220,20","Ashley","A line dance, it's really strinkingly beautiful.,50,320,20","Claire","the pattern is pleasing to the eye,28,260,20","2"
"9534","","survey-text","138","1751624","0.0-137.0-0.0","A3P3446JDIIKQY","","","","{""Q0"":""No reaction, boring and messy""}","","","","","","","","","","","","","","","","","","","","","","",""
"2694.3000000715256","","image-slider-response","139","1754320","0.0-138.0","A3P3446JDIIKQY","","","","","-50","","","","","","","","","","","","","","","","","","","","","",""
"null","","image-button-response","140","1759326","0.0-139.0","A3P3446JDIIKQY","img_art/1.jpg","null","","","","","","","","","","","","","","","","","","","","","","","","",""
"2435","","image-button-response","141","1761763","0.0-140.0","A3P3446JDIIKQY","img_art/1.jpg","2","","","","","","","","","","","","","","","","","","","","","","","","",""
"2334","","image-button-response","142","1764099","0.0-141.0-0.0","A3P3446JDIIKQY","img_art/1.jpg","5","","","","","","","","","","","","","","","","","","","","","","","","",""
"2294","","image-button-response","143","1766395","0.0-142.0-0.0","A3P3446JDIIKQY","img_art/1.jpg","3","","","","","","","","","","","","","","","","","","","","","","","","",""
"null","","html-keyboard-response","144","1766896","0.0-143.0","A3P3446JDIIKQY","<p style=""font-size: 48px;"">+</p>","","","","","null","allTrialResponses","500","1","14","img_art/1.jpg","-50","No reaction, boring and messy","Bailey,Brittany,Sarah,Claire,Ashley,Chloe","A bit of a smokey mess, but it does have an air of mystery I like,7,360,20","It reminds me of a sunset I once saw.,16,40,20","it's boring despite all the colors,-2,180,20","the colors are nice,8,260,20","More passable, colorful, abstract.,13,320,20","Powerful colors.,31,220,20","Sarah","it's boring despite all the colors,-2,180,20","Chloe","Powerful colors.,31,220,20","Claire","the colors are nice,8,260,20","2"
"6514","","survey-text","145","1773418","0.0-144.0-0.0","A3P3446JDIIKQY","","","","{""Q0"":""I feel edgy with this""}","","","","","","","","","","","","","","","","","","","","","","",""
"2254.399999976158","","image-slider-response","146","1775674","0.0-145.0","A3P3446JDIIKQY","","","","","-50","","","","","","","","","","","","","","","","","","","","","",""
"null","","image-button-response","147","1780692","0.0-146.0","A3P3446JDIIKQY","img_art/30.jpg","null","","","","","","","","","","","","","","","","","","","","","","","","",""
"1652","","image-button-response","148","1782346","0.0-147.0","A3P3446JDIIKQY","img_art/30.jpg","0","","","","","","","","","","","","","","","","","","","","","","","","",""
"1479","","image-button-response","149","1783826","0.0-148.0-0.0","A3P3446JDIIKQY","img_art/30.jpg","0","","","","","","","","","","","","","","","","","","","","","","","","",""
"710","","image-button-response","150","1786938","0.0-148.1-0.1","A3P3446JDIIKQY","img_art/30.jpg","3","","","","","","","","","","","","","","","","","","","","","","","","",""
"2845","","image-button-response","151","1789786","0.0-149.0-0.0","A3P3446JDIIKQY","img_art/30.jpg","5","","","","","","","","","","","","","","","","","","","","","","","","",""
"null","","html-keyboard-response","152","1791303","0.0-150.0","A3P3446JDIIKQY","<p style=""font-size: 48px;"">+</p>","","","","","null","allTrialResponses","1500","1","15","img_art/30.jpg","-50","I feel edgy with this","Michelle,Kelly,Sarah,Claire,Kimberly,Chloe","Don't like it at all, looks like a someone smeared paint with their fingers,-25,280,20","The red helps it to pop.,13,220,20","looks simple, I can't see a lot of care going into this,-33,180,20","too segmented, looks sloppy,-37,260,20","looks like eels,-20,260,20","Muddy, sloppy, unprofessional,-44,220,20","Michelle","Don't like it at all, looks like a someone smeared paint with their fingers,-25,280,20","Claire","too segmented, looks sloppy,-37,260,20","Chloe","Muddy, sloppy, unprofessional,-44,220,20","4"
"3396","","survey-text","153","1794714","0.0-151.0-0.0","A3P3446JDIIKQY","","","","{""Q0"":""course""}","","","","","","","","","","","","","","","","","","","","","","",""
"9622","","survey-text","154","1804338","0.0-152.0-0.0","A3P3446JDIIKQY","","","","{""Q0"":""Looks like a busy city ""}","","","","","","","","","","","","","","","","","","","","","","",""
"2646.5","","image-slider-response","155","1806986","0.0-153.0","A3P3446JDIIKQY","","","","","1","","","","","","","","","","","","","","","","","","","","","",""
"null","","image-button-response","156","1812004","0.0-154.0","A3P3446JDIIKQY","img_art/26.jpg","null","","","","","","","","","","","","","","","","","","","","","","","","",""
"1964","","image-button-response","157","1813970","0.0-155.0","A3P3446JDIIKQY","img_art/26.jpg","0","","","","","","","","","","","","","","","","","","","","","","","","",""
"1342","","image-button-response","158","1815314","0.0-156.0-0.0","A3P3446JDIIKQY","img_art/26.jpg","4","","","","","","","","","","","","","","","","","","","","","","","","",""
"662","","image-button-response","159","1815978","0.0-157.0-0.0","A3P3446JDIIKQY","img_art/26.jpg","5","","","","","","","","","","","","","","","","","","","","","","","","",""
"null","","html-keyboard-response","160","1816990","0.0-158.0","A3P3446JDIIKQY","<p style=""font-size: 48px;"">+</p>","","","","","null","allTrialResponses","1000","1","16","img_art/26.jpg","1","Looks like a busy city ","Michelle,Sabrina,Samantha,Claire,Erika,Chloe","I can make out a street view and I am a fan of watercolors but still too boring,15,280,20","I dont see any expression,-29,120,20","I like the colors and trees. Seems cheap vintage retail store art but i love it anyways,50,140,20","very impressionistic,11,260,20","Feels like still life,-13,100,20","Not great use of space and brush strokes seem indistinct/accidental,-30,220,20","Michelle","I can make out a street view and I am a fan of watercolors but still too boring,15,280,20","Erika","Feels like still life,-13,100,20","Chloe","Not great use of space and brush strokes seem indistinct/accidental,-30,220,20","4"
"9961","","survey-text","161","1826958","0.0-159.0-0.0","A3P3446JDIIKQY","","","","{""Q0"":""Busy L Train in the city ""}","","","","","","","","","","","","","","","","","","","","","","",""
"2278.2999999523163","","image-slider-response","162","1829238","0.0-160.0","A3P3446JDIIKQY","","","","","50","","","","","","","","","","","","","","","","","","","","","",""
"null","","image-button-response","163","1834250","0.0-161.0","A3P3446JDIIKQY","img_art/11.jpg","null","","","","","","","","","","","","","","","","","","","","","","","","",""
"2842","","image-button-response","164","1837095","0.0-162.0","A3P3446JDIIKQY","img_art/11.jpg","3","","","","","","","","","","","","","","","","","","","","","","","","",""
"1254","","image-button-response","165","1838351","0.0-163.0-0.0","A3P3446JDIIKQY","img_art/11.jpg","4","","","","","","","","","","","","","","","","","","","","","","","","",""
"918","","image-button-response","166","1839270","0.0-164.0-0.0","A3P3446JDIIKQY","img_art/11.jpg","0","","","","","","","","","","","","","","","","","","","","","","","","",""
"null","","html-keyboard-response","167","1840283","0.0-165.0","A3P3446JDIIKQY","<p style=""font-size: 48px;"">+</p>","","","","","null","allTrialResponses","1000","1","17","img_art/11.jpg","50","Busy L Train in the city ","Michelle,Morgan,Haley,Catherine,Erika,Chloe","I think this is a city but I'm not sure, very abstract,18,280,20","Waves of signs.,15,380,20","Lovely. I could look at this for a really long time. I love the details and the composition.,40,220,20","Busy city life. transportation, anxiety.,10,160,20","I want to know which skyline the artist is depicting,26,100,20","Like the movement but not the background colors.,21,220,20","Catherine","Busy city life. transportation, anxiety.,10,160,20","Erika","I want to know which skyline the artist is depicting,26,100,20","Michelle","I think this is a city but I'm not sure, very abstract,18,280,20","4"
"10699","","survey-text","168","1850990","0.0-166.0-0.0","A3P3446JDIIKQY","","","","{""Q0"":""Looks like mustard or fries, can't decide which ""}","","","","","","","","","","","","","","","","","","","","","","",""
"2382.2000000476837","","image-slider-response","169","1853374","0.0-167.0","A3P3446JDIIKQY","","","","","50","","","","","","","","","","","","","","","","","","","","","",""
"null","","image-button-response","170","1858392","0.0-168.0","A3P3446JDIIKQY","img_art/4.jpg","null","","","","","","","","","","","","","","","","","","","","","","","","",""
"3276","","image-button-response","171","1861670","0.0-169.0","A3P3446JDIIKQY","img_art/4.jpg","4","","","","","","","","","","","","","","","","","","","","","","","","",""
"510","","image-button-response","172","1862183","0.0-170.0-0.0","A3P3446JDIIKQY","img_art/4.jpg","5","","","","","","","","","","","","","","","","","","","","","","","","",""
"652","","image-button-response","173","1862838","0.0-171.0-0.0","A3P3446JDIIKQY","img_art/4.jpg","2","","","","","","","","","","","","","","","","","","","","","","","","",""
"null","","html-keyboard-response","174","1864340","0.0-172.0","A3P3446JDIIKQY","<p style=""font-size: 48px;"">+</p>","","","","","null","allTrialResponses","1500","1","18","img_art/4.jpg","50","Looks like mustard or fries, can't decide which ","Michelle,Megan,Leah,Catherine,Erika,Jenna","Looks like more paint smearing but at least there is structure,-5,280,20","Better version of a 7 year old who got lucky,-23,200,20","To me just looking at paint scrawls,-41,360,20","Hearts, family connected. They are standing on a narrow base and could fall to pieces at anytime.,40,160,20","Reminds me of late night frustrated paintings of my own made of coffee,12,100,20","creepy, looks like a deformed hand, but the background is pretty,5,360,20","Erika","Reminds me of late night frustrated paintings of my own made of coffee,12,100,20","Jenna","creepy, looks like a deformed hand, but the background is pretty,5,360,20","Leah","To me just looking at paint scrawls,-41,360,20","4"
"7842","","survey-text","175","1872190","0.0-173.0-0.0","A3P3446JDIIKQY","","","","{""Q0"":""Busy downtown market ""}","","","","","","","","","","","","","","","","","","","","","","",""
"1782.2999999523163","","image-slider-response","176","1873974","0.0-174.0","A3P3446JDIIKQY","","","","","7","","","","","","","","","","","","","","","","","","","","","",""
"null","","image-button-response","177","1878976","0.0-175.0","A3P3446JDIIKQY","img_art/19.jpg","null","","","","","","","","","","","","","","","","","","","","","","","","",""
"5083","","image-button-response","178","1884062","0.0-176.0","A3P3446JDIIKQY","img_art/19.jpg","4","","","","","","","","","","","","","","","","","","","","","","","","",""
"750","","image-button-response","179","1884814","0.0-177.0-0.0","A3P3446JDIIKQY","img_art/19.jpg","3","","","","","","","","","","","","","","","","","","","","","","","","",""
"670","","image-button-response","180","1885485","0.0-178.0-0.0","A3P3446JDIIKQY","img_art/19.jpg","0","","","","","","","","","","","","","","","","","","","","","","","","",""
"null","","html-keyboard-response","181","1886001","0.0-179.0","A3P3446JDIIKQY","<p style=""font-size: 48px;"">+</p>","","","","","null","allTrialResponses","500","1","19","img_art/19.jpg","7","Busy downtown market ","Alexa,Christina,Leah,Alexandria,Erika,Jenna","It has a chaotic energy about it that draws me in,40,40,20","i like the colors and the way it looks like an actual scene,18,240,20","Very abstract but I like it, it's busy, lots of colors,43,360,20","it draws my eye and my mind fills in the spaces,14,80,20","Very dreamlike,26,100,20","love the muted colors and added sketchy lines. calming without being boring.,50,360,20","Erika","Very dreamlike,26,100,20","Alexandria","it draws my eye and my mind fills in the spaces,14,80,20","Alexa","It has a chaotic energy about it that draws me in,40,40,20","4"
"11516","","survey-text","182","1897525","0.0-180.0-0.0","A3P3446JDIIKQY","","","","{""Q0"":""Like someone \""X\""'d out the painting ""}","","","","","","","","","","","","","","","","","","","","","","",""
"2646.2999999523163","","image-slider-response","183","1900173","0.0-181.0","A3P3446JDIIKQY","","","","","-14","","","","","","","","","","","","","","","","","","","","","",""
"null","","image-button-response","184","1905189","0.0-182.0","A3P3446JDIIKQY","img_art/29.jpg","null","","","","","","","","","","","","","","","","","","","","","","","","",""
"902","","image-button-response","185","1906094","0.0-183.0","A3P3446JDIIKQY","img_art/29.jpg","2","","","","","","","","","","","","","","","","","","","","","","","","",""
"2126","","image-button-response","186","1908221","0.0-184.0-0.0","A3P3446JDIIKQY","img_art/29.jpg","4","","","","","","","","","","","","","","","","","","","","","","","","",""
"789","","image-button-response","187","1909013","0.0-185.0-0.0","A3P3446JDIIKQY","img_art/29.jpg","3","","","","","","","","","","","","","","","","","","","","","","","","",""
"null","","html-keyboard-response","188","1910017","0.0-186.0","A3P3446JDIIKQY","<p style=""font-size: 48px;"">+</p>","","","","","null","allTrialResponses","1000","1","20","img_art/29.jpg","-14","Like someone ""X""'d out the painting ","Alexa,Molly,Lauren,Alexandria,Erika,Crystal","Very wild and I like it,20,40,20","Looks kinda scary.,25,340,20","Don't really like the red x. It gives the impression that this a discarded piece.,-10,340,20","it is difficult to look at but you can't look away,-25,80,20","Feels like an abandoned dream,13,100,20","Reminiscent of Jackson Pollock with a hint of abstract structure with the bordering.,32,300,20","Lauren","Don't really like the red x. It gives the impression that this a discarded piece.,-10,340,20","Erika","Feels like an abandoned dream,13,100,20","Alexandria","it is difficult to look at but you can't look away,-25,80,20","4"
"3197","","survey-text","189","1913229","0.0-187.0-0.0","A3P3446JDIIKQY","","","","{""Q0"":""we""}","","","","","","","","","","","","","","","","","","","","","","",""
"8894","","survey-text","190","1922125","0.0-188.0-0.0","A3P3446JDIIKQY","","","","{""Q0"":""very 80's, debbie gibson""}","","","","","","","","","","","","","","","","","","","","","","",""
"1998.2000000476837","","image-slider-response","191","1924125","0.0-189.0","A3P3446JDIIKQY","","","","","50","","","","","","","","","","","","","","","","","","","","","",""
"null","","image-button-response","192","1929141","0.0-190.0","A3P3446JDIIKQY","img_art/5.jpg","null","","","","","","","","","","","","","","","","","","","","","","","","",""
"1237","","image-button-response","193","1930381","0.0-191.0","A3P3446JDIIKQY","img_art/5.jpg","4","","","","","","","","","","","","","","","","","","","","","","","","",""
"526","","image-button-response","194","1930909","0.0-192.0-0.0","A3P3446JDIIKQY","img_art/5.jpg","5","","","","","","","","","","","","","","","","","","","","","","","","",""
"510","","image-button-response","195","1931421","0.0-193.0-0.0","A3P3446JDIIKQY","img_art/5.jpg","3","","","","","","","","","","","","","","","","","","","","","","","","",""
"null","","html-keyboard-response","196","1932433","0.0-194.0","A3P3446JDIIKQY","<p style=""font-size: 48px;"">+</p>","","","","","null","allTrialResponses","1000","1","21","img_art/5.jpg","50","very 80's, debbie gibson","Madison,Diana,Lauren,Alexandria,Erika,Sara","Bright and luminous,31,60,20","I didn't care for this art piece. I wasn't sure about the color choice.,-15,380,20","I like the simplicity of the design, but I can't tell what the image is trying to depict.,10,340,20","no clear emotion,-16,80,20","Not sure what I'm looking at,-16,100,20","It looks random,-10,160,20","Erika","Not sure what I'm looking at,-16,100,20","Sara","It looks random,-10,160,20","Alexandria","no clear emotion,-16,80,20","4"
"10383","","survey-text","197","1942829","0.0-195.0-0.0","A3P3446JDIIKQY","","","","{""Q0"":""waterfall in Autumn ""}","","","","","","","","","","","","","","","","","","","","","","",""
"2510.2999999523163","","image-slider-response","198","1945340","0.0-196.0","A3P3446JDIIKQY","","","","","5","","","","","","","","","","","","","","","","","","","","","",""
"null","","image-button-response","199","1950344","0.0-197.0","A3P3446JDIIKQY","img_art/24.jpg","null","","","","","","","","","","","","","","","","","","","","","","","","",""
"651","","image-button-response","200","1950997","0.0-198.0","A3P3446JDIIKQY","img_art/24.jpg","5","","","","","","","","","","","","","","","","","","","","","","","","",""
"830","","image-button-response","201","1951829","0.0-199.0-0.0","A3P3446JDIIKQY","img_art/24.jpg","0","","","","","","","","","","","","","","","","","","","","","","","","",""
"1358","","image-button-response","202","1953189","0.0-200.0-0.0","A3P3446JDIIKQY","img_art/24.jpg","4","","","","","","","","","","","","","","","","","","","","","","","","",""
"null","","html-keyboard-response","203","1954231","0.0-201.0","A3P3446JDIIKQY","<p style=""font-size: 48px;"">+</p>","","","","","null","allTrialResponses","1000","1","22","img_art/24.jpg","5","waterfall in Autumn ","Kaylee,Kaitlyn,Erin,Alexandria,Erika,Sara","lovely forest vibes,36,200,20","I like the bright colors,16,80,20","Too literal, not abstract,-29,120,20","very colorful and intricate and makes me feel at peace,50,80,20","Very nice textures and subject,38,100,20","Beautiful scenic drawing with perfect color coordination,43,160,20","Sara","Beautiful scenic drawing with perfect color coordination,43,160,20","Kaylee","lovely forest vibes,36,200,20","Erika","Very nice textures and subject,38,100,20","4"
"26166","","survey-text","204","1980404","0.0-202.0-0.0","A3P3446JDIIKQY","","","","{""Q0"":""Lonely Dr. Seuss Tree ""}","","","","","","","","","","","","","","","","","","","","","","",""
"2182.2999999523163","","image-slider-response","205","1982588","0.0-203.0","A3P3446JDIIKQY","","","","","50","","","","","","","","","","","","","","","","","","","","","",""
"null","","image-button-response","206","1987606","0.0-204.0","A3P3446JDIIKQY","img_art/6.jpg","null","","","","","","","","","","","","","","","","","","","","","","","","",""
"699","","image-button-response","207","1988308","0.0-205.0","A3P3446JDIIKQY","img_art/6.jpg","2","","","","","","","","","","","","","","","","","","","","","","","","",""
"870","","image-button-response","208","1989180","0.0-206.0-0.0","A3P3446JDIIKQY","img_art/6.jpg","5","","","","","","","","","","","","","","","","","","","","","","","","",""
"589","","image-button-response","209","1989772","0.0-207.0-0.0","A3P3446JDIIKQY","img_art/6.jpg","3","","","","","","","","","","","","","","","","","","","","","","","","",""
"null","","html-keyboard-response","210","1991278","0.0-208.0","A3P3446JDIIKQY","<p style=""font-size: 48px;"">+</p>","","","","","null","allTrialResponses","1500","1","23","img_art/6.jpg","50","Lonely Dr. Seuss Tree ","Kaylee,Paige,Kylie,Angela,Erika,Sara","just an another tree on a desert?,9,200,20","Kind of boring. I don't care for many abstracts,1,60,20","Reminds me of feeling incomplete,1,300,20","I like the orange color, and I don't know why but I like this piece.,22,260,20","Lonesome in nature,13,100,20","It looks sad and scary at the same time,11,160,20","Kylie","Reminds me of feeling incomplete,1,300,20","Sara","It looks sad and scary at the same time,11,160,20","Angela","I like the orange color, and I don't know why but I like this piece.,22,260,20","4"
"136410","","survey-text","211","2127698","0.0-209.0-0.0","A3P3446JDIIKQY","","","","{""Q0"":""big city with big vibes ""}","","","","","","","","","","","","","","","","","","","","","","",""
"2110.2999999523163","","image-slider-response","212","2129810","0.0-210.0","A3P3446JDIIKQY","","","","","50","","","","","","","","","","","","","","","","","","","","","",""
"null","","image-button-response","213","2134822","0.0-211.0","A3P3446JDIIKQY","img_art/8.jpg","null","","","","","","","","","","","","","","","","","","","","","","","","",""
"54128","","image-button-response","214","2188953","0.0-212.0","A3P3446JDIIKQY","img_art/8.jpg","1","","","","","","","","","","","","","","","","","","","","","","","","",""
"461","","image-button-response","215","2189417","0.0-213.0-0.0","A3P3446JDIIKQY","img_art/8.jpg","2","","","","","","","","","","","","","","","","","","","","","","","","",""
"678","","image-button-response","216","2190097","0.0-214.0-0.0","A3P3446JDIIKQY","img_art/8.jpg","5","","","","","","","","","","","","","","","","","","","","","","","","",""
"null","","html-keyboard-response","217","2191602","0.0-215.0","A3P3446JDIIKQY","<p style=""font-size: 48px;"">+</p>","","","","","null","allTrialResponses","1500","1","24","img_art/8.jpg","50","big city with big vibes ","Sierra,Elizabeth,Kylie,Angela,Shannon,Sara","i love the colors, the church and the face,42,260,20","Very unique and different,31,20,20","Very abstract and seems symbolic,45,300,20","Like the colors and the energy, but the face feels jarring to me,13,260,20","I like that it looks like a city and the way the shapes and colors are put together,40,220,20","Very interesting use of blocks,21,160,20","Elizabeth","Very unique and different,31,20,20","Kylie","Very abstract and seems symbolic,45,300,20","Sara","Very interesting use of blocks,21,160,20","4"
"19701","","survey-text","218","2211313","0.0-216.0-0.0","A3P3446JDIIKQY","","","","{""Q0"":""looks like a city on the bottom, that's all I got for this""}","","","","","","","","","","","","","","","","","","","","","","",""
"2478","","image-slider-response","219","2213793","0.0-217.0","A3P3446JDIIKQY","","","","","-50","","","","","","","","","","","","","","","","","","","","","",""
"null","","image-button-response","220","2219235","0.0-218.0","A3P3446JDIIKQY","img_art/22.jpg","null","","","","","","","","","","","","","","","","","","","","","","","","",""
"20843","","image-button-response","221","2240080","0.0-219.0","A3P3446JDIIKQY","img_art/22.jpg","5","","","","","","","","","","","","","","","","","","","","","","","","",""
"734","","image-button-response","222","2240816","0.0-220.0-0.0","A3P3446JDIIKQY","img_art/22.jpg","2","","","","","","","","","","","","","","","","","","","","","","","","",""
"1478","","image-button-response","223","2242297","0.0-221.0-0.0","A3P3446JDIIKQY","img_art/22.jpg","3","","","","","","","","","","","","","","","","","","","","","","","","",""
"null","","html-keyboard-response","224","2242798","0.0-222.0","A3P3446JDIIKQY","<p style=""font-size: 48px;"">+</p>","","","","","null","allTrialResponses","500","1","25","img_art/22.jpg","-50","looks like a city on the bottom, that's all I got for this","Emma,Elizabeth,Kylie,Jessica,Margaret,Sara","Love the use of color,50,60,20","Great color palette,29,20,20","Climate change in a big city,35,300,20","I like the mixing of the primary colors.,8,400,20","i feel like this is a a basic art piece that a school would have on the wall,-24,100,20","Looks like a warm sunset to me i like it,42,160,20","Sara","Looks like a warm sunset to me i like it,42,160,20","Kylie","Climate change in a big city,35,300,20","Jessica","I like the mixing of the primary colors.,8,400,20","4"
"4256","","survey-text","225","2247072","0.0-223.0-0.0","A3P3446JDIIKQY","","","","{""Q0"":""table""}","","","","","","","","","","","","","","","","","","","","","","",""
"8439","","survey-text","226","2255512","0.0-224.0-0.0","A3P3446JDIIKQY","","","","{""Q0"":""Reminds me of Peppa Pig""}","","","","","","","","","","","","","","","","","","","","","","",""
"2494.1999999284744","","image-slider-response","227","2258008","0.0-225.0","A3P3446JDIIKQY","","","","","-50","","","","","","","","","","","","","","","","","","","","","",""
"null","","image-button-response","228","2263011","0.0-226.0","A3P3446JDIIKQY","img_art/2.jpg","null","","","","","","","","","","","","","","","","","","","","","","","","",""
"1106","","image-button-response","229","2264120","0.0-227.0","A3P3446JDIIKQY","img_art/2.jpg","0","","","","","","","","","","","","","","","","","","","","","","","","",""
"542","","image-button-response","230","2264664","0.0-228.0-0.0","A3P3446JDIIKQY","img_art/2.jpg","2","","","","","","","","","","","","","","","","","","","","","","","","",""
"677","","image-button-response","231","2265344","0.0-229.0-0.0","A3P3446JDIIKQY","img_art/2.jpg","3","","","","","","","","","","","","","","","","","","","","","","","","",""
"null","","html-keyboard-response","232","2266353","0.0-230.0","A3P3446JDIIKQY","<p style=""font-size: 48px;"">+</p>","","","","","null","allTrialResponses","1000","1","26","img_art/2.jpg","-50","Reminds me of Peppa Pig","Madeline,Kayla,Kylie,Jessica,Alexandra,Sara","I don't really like this style,-5,40,20","Different cultures. I like that it brings differences together.,4,180,20","Not very appealing,-5,300,20","I don't get the meaning of this piece either.,-13,400,20","This is ugly- too plain and busy at the same time,-9,60,20","Dark tone feels sad,-30,160,20","Madeline","I don't really like this style,-5,40,20","Kylie","Not very appealing,-5,300,20","Jessica","I don't get the meaning of this piece either.,-13,400,20","4"
"9077","","survey-text","233","2275440","0.0-231.0-0.0","A3P3446JDIIKQY","","","","{""Q0"":""Looks like an old jacket from the 80's""}","","","","","","","","","","","","","","","","","","","","","","",""
"1693.5","","image-slider-response","234","2277136","0.0-232.0","A3P3446JDIIKQY","","","","","-50","","","","","","","","","","","","","","","","","","","","","",""
"null","","image-button-response","235","2282142","0.0-233.0","A3P3446JDIIKQY","img_art/12.jpg","null","","","","","","","","","","","","","","","","","","","","","","","","",""
"1128","","image-button-response","236","2283272","0.0-234.0","A3P3446JDIIKQY","img_art/12.jpg","5","","","","","","","","","","","","","","","","","","","","","","","","",""
"542","","image-button-response","237","2283816","0.0-235.0-0.0","A3P3446JDIIKQY","img_art/12.jpg","4","","","","","","","","","","","","","","","","","","","","","","","","",""
"1637","","image-button-response","238","2285456","0.0-236.0-0.0","A3P3446JDIIKQY","img_art/12.jpg","1","","","","","","","","","","","","","","","","","","","","","","","","",""
"null","","html-keyboard-response","239","2287225","0.0-237.0","A3P3446JDIIKQY","<p style=""font-size: 48px;"">+</p>","","","","","null","allTrialResponses","1500","1","27","img_art/12.jpg","-50","Looks like an old jacket from the 80's","Madeline,Cynthia,Kylie,Jessica,Gabrielle,Breanna","Love the shapes here,12,40,20","Windows to a different story,6,320,20","Night and day, light and dark,35,300,20","I like this concept.,11,400,20","seems too dark on top and too common on the bottom,-19,160,20","It makes me feel confused,-15,380,20","Breanna","It makes me feel confused,-15,380,20","Gabrielle","seems too dark on top and too common on the bottom,-19,160,20","Cynthia","Windows to a different story,6,320,20","4"
"15509","","survey-text","240","2302751","0.0-238.0-0.0","A3P3446JDIIKQY","","","","{""Q0"":""simple, yet so confusing all at once ""}","","","","","","","","","","","","","","","","","","","","","","",""
"4814.100000023842","","image-slider-response","241","2307567","0.0-239.0","A3P3446JDIIKQY","","","","","29","","","","","","","","","","","","","","","","","","","","","",""
"null","","image-button-response","242","2313240","0.0-240.0","A3P3446JDIIKQY","img_art/16.jpg","null","","","","","","","","","","","","","","","","","","","","","","","","",""
"29712","","image-button-response","243","2342959","0.0-241.0","A3P3446JDIIKQY","img_art/16.jpg","0","","","","","","","","","","","","","","","","","","","","","","","","",""
"686","","image-button-response","244","2343647","0.0-242.0-0.0","A3P3446JDIIKQY","img_art/16.jpg","1","","","","","","","","","","","","","","","","","","","","","","","","",""
"1350","","image-button-response","245","2344999","0.0-243.0-0.0","A3P3446JDIIKQY","img_art/16.jpg","5","","","","","","","","","","","","","","","","","","","","","","","","",""
"null","","html-keyboard-response","246","2346509","0.0-244.0","A3P3446JDIIKQY","<p style=""font-size: 48px;"">+</p>","","","","","null","allTrialResponses","1500","1","28","img_art/16.jpg","29","simple, yet so confusing all at once ","Isabella,Cynthia,Katelyn,Caitlin,Gabrielle,Breanna","This looks chaotic,-25,280,20","Dreamy and chaotic,-9,320,20","I dont feel any real response,5,100,20","It is sick to put a teddy bear and a gun on the same piece of canvas.,-40,80,20","nonsense art, not really art,-44,160,20","The bear is terrifying,-50,380,20","Isabella","This looks chaotic,-25,280,20","Cynthia","Dreamy and chaotic,-9,320,20","Breanna","The bear is terrifying,-50,380,20","4"
"11654","","survey-text","247","2358174","0.0-245.0-0.0","A3P3446JDIIKQY","","","","{""Q0"":""Looks like something REALLY up close, like sandpaper ""}","","","","","","","","","","","","","","","","","","","","","","",""
"2366.3000000715256","","image-slider-response","248","2360542","0.0-246.0","A3P3446JDIIKQY","","","","","-50","","","","","","","","","","","","","","","","","","","","","",""
"null","","image-button-response","249","2365545","0.0-247.0","A3P3446JDIIKQY","img_art/7.jpg","null","","","","","","","","","","","","","","","","","","","","","","","","",""
"1748","","image-button-response","250","2367295","0.0-248.0","A3P3446JDIIKQY","img_art/7.jpg","3","","","","","","","","","","","","","","","","","","","","","","","","",""
"582","","image-button-response","251","2367879","0.0-249.0-0.0","A3P3446JDIIKQY","img_art/7.jpg","4","","","","","","","","","","","","","","","","","","","","","","","","",""
"726","","image-button-response","252","2368607","0.0-250.0-0.0","A3P3446JDIIKQY","img_art/7.jpg","0","","","","","","","","","","","","","","","","","","","","","","","","",""
"null","","html-keyboard-response","253","2370119","0.0-251.0","A3P3446JDIIKQY","<p style=""font-size: 48px;"">+</p>","","","","","null","allTrialResponses","1500","1","29","img_art/7.jpg","-50","Looks like something REALLY up close, like sandpaper ","Isabella,Cynthia,Amanda,Alexis,Laura,Breanna","Dessert like almost like dry land,4,280,20","time and change,1,320,20","I hate everything about this painting from the cors to it looking like a war,-50,180,20","Looks like bad wallpaper,-29,100,20","I feel thirsty - reminds me of desert sand,11,320,20","Not highly impressed,-5,380,20","Alexis","Looks like bad wallpaper,-29,100,20","Laura","I feel thirsty - reminds me of desert sand,11,320,20","Isabella","Dessert like almost like dry land,4,280,20","4"
"9732","","survey-text","254","2379862","0.0-252.0-0.0","A3P3446JDIIKQY","","","","{""Q0"":""I like this, dark and mysterious. ""}","","","","","","","","","","","","","","","","","","","","","","",""
"2086.5","","image-slider-response","255","2381950","0.0-253.0","A3P3446JDIIKQY","","","","","50","","","","","","","","","","","","","","","","","","","","","",""
"null","","image-button-response","256","2386953","0.0-254.0","A3P3446JDIIKQY","img_art/15.jpg","null","","","","","","","","","","","","","","","","","","","","","","","","",""
"2842","","image-button-response","257","2389798","0.0-255.0","A3P3446JDIIKQY","img_art/15.jpg","1","","","","","","","","","","","","","","","","","","","","","","","","",""
"4543","","image-button-response","258","2394343","0.0-256.0-0.0","A3P3446JDIIKQY","img_art/15.jpg","5","","","","","","","","","","","","","","","","","","","","","","","","",""
"588","","image-button-response","259","2394934","0.0-257.0-0.0","A3P3446JDIIKQY","img_art/15.jpg","2","","","","","","","","","","","","","","","","","","","","","","","","",""
"null","","html-keyboard-response","260","2396451","0.0-258.0","A3P3446JDIIKQY","<p style=""font-size: 48px;"">+</p>","","","","","null","allTrialResponses","1500","1","30","img_art/15.jpg","50","I like this, dark and mysterious. ","Isabella,Rachel,Kathryn,Alexis,Laura,Shelby","Too intense with the black dotting,-22,280,20","Reminds me of blue birds in a tree at night. I love nature.,40,80,20","This is looking at a forest from above. I can see water and some pathways throughout. Nature.,20,140,20","Not a fan of abstract, but the black is very striking,10,100,20","abrasive, rough, uneven,-31,320,20","This painting gives a calm vibe but no stronger emotions than that,10,240,20","Rachel","Reminds me of blue birds in a tree at night. I love nature.,40,80,20","Shelby","This painting gives a calm vibe but no stronger emotions than that,10,240,20","Kathryn","This is looking at a forest from above. I can see water and some pathways throughout. Nature.,20,140,20","4"
"3311","","image-button-response_instructions","261","2399774","0.0-259.0","A3P3446JDIIKQY","","0","instructions","","","","","","","","","","","","","","","","","","","","","","","",""
"1218","","image-button-response","262","2400998","0.0-260.0","A3P3446JDIIKQY","","0","","","","","","","","","","","","","","","","","","","","","","","","",""
