"rt","url","trial_type","trial_index","time_elapsed","internal_node_id","participant_id","stimulus","button_pressed","Name","responses","response","key_press","variableName","fixationTime","condition","trial","photo","subjectRating","subjectResponse","agentsNames","agent_1_Response","agent_2_Response","agent_3_Response","agent_4_Response","agent_5_Response","agent_6_Response","kept_1_name","kept_1_response","kept_2_name","kept_2_response","kept_3_name","kept_3_response","errorCounter"
"6234","external_page_harvard.html","external-html","0","6709","0.0-0.0","A3PN4G5WB9ZLIR","","","","","","","","","","","","","","","","","","","","","","","","","","",""
"1856","","image-button-response","1","8569","0.0-1.0","A3PN4G5WB9ZLIR","","1","","","","","","","","","","","","","","","","","","","","","","","","",""
"2838","","image-button-response","2","11425","0.0-2.0-0.0","A3PN4G5WB9ZLIR","","1","phone","","","","","","","","","","","","","","","","","","","","","","","",""
"8390","","survey-text","3","19822","0.0-3.0-0.0","A3PN4G5WB9ZLIR","","","","{""Q0"":""A3PN4G5WB9ZLIR""}","","","","","","","","","","","","","","","","","","","","","","",""
"8406","","image-button-response_instructions","4","28246","0.0-4.0","A3PN4G5WB9ZLIR","","0","instructions","","","","","","","","","","","","","","","","","","","","","","","",""
"13871","","image-button-response_instructions","5","42133","0.0-5.0","A3PN4G5WB9ZLIR","img_art/ins/popularity/ins1.png","0","instructions","","","","","","","","","","","","","","","","","","","","","","","",""
"6046","","image-button-response_instructions","6","48189","0.0-6.0","A3PN4G5WB9ZLIR","img_art/ins/popularity/ins2.png","0","instructions","","","","","","","","","","","","","","","","","","","","","","","",""
"7457","","image-button-response_instructions","7","55653","0.0-7.0","A3PN4G5WB9ZLIR","img_art/ins/popularity/ins2Extreme.png","0","instructions","","","","","","","","","","","","","","","","","","","","","","","",""
"24400","","image-button-response_instructions","8","80061","0.0-8.0","A3PN4G5WB9ZLIR","img_art/ins/popularity/ins3KEEPpop.PNG","0","instructions","","","","","","","","","","","","","","","","","","","","","","","",""
"3269","","image-button-response_instructions","9","83337","0.0-9.0","A3PN4G5WB9ZLIR","img_art/ins/popularity/ins3ANamepop.PNG","0","instructions","","","","","","","","","","","","","","","","","","","","","","","",""
"2481","","image-button-response_instructions","10","85823","0.0-10.0","A3PN4G5WB9ZLIR","img_art/ins/popularity/ins3ARatingpop.png","0","instructions","","","","","","","","","","","","","","","","","","","","","","","",""
"2966","","image-button-response_instructions","11","88798","0.0-11.0","A3PN4G5WB9ZLIR","img_art/ins/popularity/ins3ATextpop.png","0","instructions","","","","","","","","","","","","","","","","","","","","","","","",""
"10486","","image-button-response_instructions","12","99294","0.0-12.0","A3PN4G5WB9ZLIR","img_art/ins/popularity/ins3ALikespop.png","0","instructions","","","","","","","","","","","","","","","","","","","","","","","",""
"15830","","image-button-response_instructions","13","115135","0.0-13.0","A3PN4G5WB9ZLIR","img_art/ins/popularity/ins3KEEPpop.PNG","0","instructions","","","","","","","","","","","","","","","","","","","","","","","",""
"6139","","image-button-response_instructions","14","121282","0.0-14.0","A3PN4G5WB9ZLIR","img_art/ins/popularity/ins3_5RED.png","0","instructions","","","","","","","","","","","","","","","","","","","","","","","",""
"3958","","image-button-response_instructions","15","125246","0.0-15.0","A3PN4G5WB9ZLIR","img_art/ins/popularity/ins3KEEPpop.PNG","0","instructions","","","","","","","","","","","","","","","","","","","","","","","",""
"7951","","image-button-response_instructions","16","133205","0.0-16.0","A3PN4G5WB9ZLIR","img_art/ins/popularity/ins4KEEPpop.PNG","0","instructions","","","","","","","","","","","","","","","","","","","","","","","",""
"3841","","image-button-response_instructions","17","137054","0.0-17.0","A3PN4G5WB9ZLIR","img_art/ins/popularity/ins5KEEPpop.PNG","0","instructions","","","","","","","","","","","","","","","","","","","","","","","",""
"1159","","image-button-response_instructions","18","138221","0.0-18.0","A3PN4G5WB9ZLIR","","0","instructions","","","","","","","","","","","","","","","","","","","","","","","",""
"4964","","survey-text","19","143509","0.0-19.0-0.0","A3PN4G5WB9ZLIR","","","","{""Q0"":""but""}","","","","","","","","","","","","","","","","","","","","","","",""
"14242","","survey-text","20","157764","0.0-20.0-0.0","A3PN4G5WB9ZLIR","","","","{""Q0"":""I think this is ugly and chaotic.""}","","","","","","","","","","","","","","","","","","","","","","",""
"5412.199999928474","","image-slider-response","21","163198","0.0-21.0","A3PN4G5WB9ZLIR","","","","","-31","","","","","","","","","","","","","","","","","","","","","",""
"null","","image-button-response","22","168257","0.0-22.0","A3PN4G5WB9ZLIR","img_art/ins/1.jpg","null","","","","","","","","","","","","","","","","","","","","","","","","",""
"1444","","image-button-response","23","169721","0.0-23.0","A3PN4G5WB9ZLIR","img_art/ins/1.jpg","1","","","","","","","","","","","","","","","","","","","","","","","","",""
"5246","","image-button-response","24","174994","0.0-24.0-0.0","A3PN4G5WB9ZLIR","img_art/ins/1.jpg","2","","","","","","","","","","","","","","","","","","","","","","","","",""
"2276","","image-button-response","25","177307","0.0-25.0-0.0","A3PN4G5WB9ZLIR","img_art/ins/1.jpg","3","","","","","","","","","","","","","","","","","","","","","","","","",""
"null","","html-keyboard-response","26","178330","0.0-26.0","A3PN4G5WB9ZLIR","<p style=""font-size: 48px;"">+</p>","","","","","null","allTrialResponses","1000","1","-2","img_art/ins/1.jpg","-31","I think this is ugly and chaotic.","Allison,Ashley,Beth,Dora,Erika,Jen","looks like a lot of things going on in the mist,20,20,20","I just don't get why these type of art would be popular,-32,40,20","This color reminds me of poo,-46,60,20","looks like what my niece in 3rd grade did this afternoon,-50,80,20","I like the sophisticated brushwork,40,100,20","It reminds me of a candy land dream I had,36,120,20","Ashley","I just don't get why these type of art would be popular,-32,40,20","Beth","This color reminds me of poo,-46,60,20","Dora","looks like what my niece in 3rd grade did this afternoon,-50,80,20","0"
"14701","","survey-text","27","193108","0.0-27.0-0.0","A3PN4G5WB9ZLIR","","","","{""Q0"":""I don't like the colors or the choppy texture.""}","","","","","","","","","","","","","","","","","","","","","","",""
"4316.099999904633","","image-slider-response","28","197437","0.0-28.0","A3PN4G5WB9ZLIR","","","","","-31","","","","","","","","","","","","","","","","","","","","","",""
"null","","image-button-response","29","202488","0.0-29.0","A3PN4G5WB9ZLIR","img_art/ins/2.jpg","null","","","","","","","","","","","","","","","","","","","","","","","","",""
"5078","","image-button-response","30","207586","0.0-30.0","A3PN4G5WB9ZLIR","img_art/ins/2.jpg","3","","","","","","","","","","","","","","","","","","","","","","","","",""
"1773","","image-button-response","31","209384","0.0-31.0-0.0","A3PN4G5WB9ZLIR","img_art/ins/2.jpg","1","","","","","","","","","","","","","","","","","","","","","","","","",""
"893","","image-button-response","32","210301","0.0-32.0-0.0","A3PN4G5WB9ZLIR","img_art/ins/2.jpg","2","","","","","","","","","","","","","","","","","","","","","","","","",""
"null","","html-keyboard-response","33","210817","0.0-33.0","A3PN4G5WB9ZLIR","<p style=""font-size: 48px;"">+</p>","","","","","null","allTrialResponses","500","1","-1","img_art/ins/2.jpg","-31","I don't like the colors or the choppy texture.","Jenna,Ashley,Beth,Dora,Kara,Katie","One of my pet peevs,-48,140,20","Idk, it is just annoying,-32,40,20","meaningless painting,-45,60,20","looks too angry,-50,80,20","I like the blocks of color arrangements,30,160,20","too much color!,-28,180,20","Dora","looks too angry,-50,80,20","Ashley","Idk, it is just annoying,-32,40,20","Beth","meaningless painting,-45,60,20","0"
"13283","","survey-text","34","224160","0.0-34.0-0.0","A3PN4G5WB9ZLIR","","","","{""Q0"":""I like the icy feel and all the blues.""}","","","","","","","","","","","","","","","","","","","","","","",""
"5474","","image-slider-response","35","229650","0.0-35.0","A3PN4G5WB9ZLIR","","","","","26","","","","","","","","","","","","","","","","","","","","","",""
"null","","image-button-response","36","234699","0.0-36.0","A3PN4G5WB9ZLIR","img_art/ins/3.jpg","null","","","","","","","","","","","","","","","","","","","","","","","","",""
"2783","","image-button-response","37","237502","0.0-37.0","A3PN4G5WB9ZLIR","img_art/ins/3.jpg","4","","","","","","","","","","","","","","","","","","","","","","","","",""
"7685","","image-button-response","38","245211","0.0-38.0-0.0","A3PN4G5WB9ZLIR","img_art/ins/3.jpg","2","","","","","","","","","","","","","","","","","","","","","","","","",""
"1676","","image-button-response","39","246912","0.0-39.0-0.0","A3PN4G5WB9ZLIR","img_art/ins/3.jpg","1","","","","","","","","","","","","","","","","","","","","","","","","",""
"null","","html-keyboard-response","40","247427","0.0-40.0","A3PN4G5WB9ZLIR","<p style=""font-size: 48px;"">+</p>","","","","","null","allTrialResponses","500","1","0","img_art/ins/3.jpg","26","I like the icy feel and all the blues.","Leslie,Ashley,Beth,Dora,Mary,Rose","It's an alright work,15,200,20","It looks like a playground for bats,-36,40,20","This thing gives me anxiety,-41,60,20","My worst nightmare,-42,80,20","I like the overlapping of brushes,41,220,20","My daily routine, it's depressing,-20,240,20","Mary","I like the overlapping of brushes,41,220,20","Beth","This thing gives me anxiety,-41,60,20","Ashley","It looks like a playground for bats,-36,40,20","0"
"4375","","image-button-response_instructions","41","251856","0.0-41.0","A3PN4G5WB9ZLIR","","0","instructions","","","","","","","","","","","","","","","","","","","","","","","",""
"10541","","survey-likert","42","262415","0.0-42.0-0.0","A3PN4G5WB9ZLIR","","","","{""Q0"":"""",""Q1"":0,""Q2"":1}","","","","","","","","","","","","","","","","","","","","","","",""
"4046","","survey-text","43","266560","0.0-43.0-0.0","A3PN4G5WB9ZLIR","","","","{""Q0"":""rock""}","","","","","","","","","","","","","","","","","","","","","","",""
"14469","","survey-text","44","281042","0.0-44.0-0.0","A3PN4G5WB9ZLIR","","","","{""Q0"":""I like the serene desert feel.""}","","","","","","","","","","","","","","","","","","","","","","",""
"4622","","image-slider-response","45","285676","0.0-45.0","A3PN4G5WB9ZLIR","","","","","33","","","","","","","","","","","","","","","","","","","","","",""
"null","","image-button-response","46","291035","0.0-46.0","A3PN4G5WB9ZLIR","img_art/6.jpg","null","","","","","","","","","","","","","","","","","","","","","","","","",""
"3339","","image-button-response","47","294395","0.0-47.0","A3PN4G5WB9ZLIR","img_art/6.jpg","5","","","","","","","","","","","","","","","","","","","","","","","","",""
"1917","","image-button-response","48","296335","0.0-48.0-0.0","A3PN4G5WB9ZLIR","img_art/6.jpg","1","","","","","","","","","","","","","","","","","","","","","","","","",""
"728","","image-button-response","49","297087","0.0-49.0-0.0","A3PN4G5WB9ZLIR","img_art/6.jpg","0","","","","","","","","","","","","","","","","","","","","","","","","",""
"null","","html-keyboard-response","50","298612","0.0-50.0","A3PN4G5WB9ZLIR","<p style=""font-size: 48px;"">+</p>","","","","","null","allTrialResponses","1500","1","1","img_art/6.jpg","33","I like the serene desert feel.","Andrea,Kimberly,Katelyn,Miranda,Brooke,Gabrielle","So forlorn, and beauty amid desolation.,25,240,20","It's pretty dour,-10,260,20","Nothing grabs at me here,-11,100,20","It's slightly unnerving to look at, it looks a little creepy/eerie,-16,320,20","Kind of neat, but then that's a weird looking bird. too weird.,0,60,20","simplistic but reminds me of a crow in a field,-10,160,20","Gabrielle","simplistic but reminds me of a crow in a field,-10,160,20","Kimberly","It's pretty dour,-10,260,20","Andrea","So forlorn, and beauty amid desolation.,25,240,20","0"
"16323","","survey-text","51","315021","0.0-51.0-0.0","A3PN4G5WB9ZLIR","","","","{""Q0"":""This seems scattered and I'm not sure what it is.""}","","","","","","","","","","","","","","","","","","","","","","",""
"7730.700000047684","","image-slider-response","52","322765","0.0-52.0","A3PN4G5WB9ZLIR","","","","","6","","","","","","","","","","","","","","","","","","","","","",""
"null","","image-button-response","53","327798","0.0-53.0","A3PN4G5WB9ZLIR","img_art/14.jpg","null","","","","","","","","","","","","","","","","","","","","","","","","",""
"1624","","image-button-response","54","329440","0.0-54.0","A3PN4G5WB9ZLIR","img_art/14.jpg","1","","","","","","","","","","","","","","","","","","","","","","","","",""
"1113","","image-button-response","55","330578","0.0-55.0-0.0","A3PN4G5WB9ZLIR","img_art/14.jpg","4","","","","","","","","","","","","","","","","","","","","","","","","",""
"1036","","image-button-response","56","331642","0.0-56.0-0.0","A3PN4G5WB9ZLIR","img_art/14.jpg","2","","","","","","","","","","","","","","","","","","","","","","","","",""
"null","","html-keyboard-response","57","333171","0.0-57.0","A3PN4G5WB9ZLIR","<p style=""font-size: 48px;"">+</p>","","","","","null","allTrialResponses","1500","1","2","img_art/14.jpg","6","This seems scattered and I'm not sure what it is.","Andrea,Kimberly,Brittany,Megan,Katie,Gabrielle","Cute little plant.,15,240,20","In some ways it looks natural, but I'm just not feeling it,0,260,20","The colors are good and the design is intriguing.,15,40,20","Baby's room palette with tree confusion in a more confused substrate.,-15,200,20","It represents growth. I see a plant/tree growing out of the ground. I like the rainbow of color in the painting.,31,160,20","the colors are peaceful and nature colors, soft,37,160,20","Kimberly","In some ways it looks natural, but I'm just not feeling it,0,260,20","Katie","It represents growth. I see a plant/tree growing out of the ground. I like the rainbow of color in the painting.,31,160,20","Brittany","The colors are good and the design is intriguing.,15,40,20","0"
"12881","","survey-text","58","346135","0.0-58.0-0.0","A3PN4G5WB9ZLIR","","","","{""Q0"":""This looks barren and slightly creepy.""}","","","","","","","","","","","","","","","","","","","","","","",""
"3595","","image-slider-response","59","349744","0.0-59.0","A3PN4G5WB9ZLIR","","","","","-38","","","","","","","","","","","","","","","","","","","","","",""
"null","","image-button-response","60","354786","0.0-60.0","A3PN4G5WB9ZLIR","img_art/7.jpg","null","","","","","","","","","","","","","","","","","","","","","","","","",""
"3888","","image-button-response","61","358693","0.0-61.0","A3PN4G5WB9ZLIR","img_art/7.jpg","4","","","","","","","","","","","","","","","","","","","","","","","","",""
"1468","","image-button-response","62","360188","0.0-62.0-0.0","A3PN4G5WB9ZLIR","img_art/7.jpg","2","","","","","","","","","","","","","","","","","","","","","","","","",""
"997","","image-button-response","63","361210","0.0-63.0-0.0","A3PN4G5WB9ZLIR","img_art/7.jpg","0","","","","","","","","","","","","","","","","","","","","","","","","",""
"null","","html-keyboard-response","64","362734","0.0-64.0","A3PN4G5WB9ZLIR","<p style=""font-size: 48px;"">+</p>","","","","","null","allTrialResponses","1500","1","3","img_art/7.jpg","-38","This looks barren and slightly creepy.","Isabella,Kimberly,Brittany,Rachel,Katie,Marissa","Dessert like almost like dry land,4,280,20","Looks like a bad picture of a beach,-21,260,20","It looks like a wall, not really something I'd enjoy looking at.,-12,40,20","Looks like a desert or another planet. While the color choices are narrow, it's still interesting because it is very natural.,12,80,20","I see dryness, which is sad. Dirt, sand, the dessert. Barren dry lifeless,-30,160,20","I feel confused, am I looking at a painting or a close up picture of some sort of fly stone?,-19,160,20","Katie","I see dryness, which is sad. Dirt, sand, the dessert. Barren dry lifeless,-30,160,20","Brittany","It looks like a wall, not really something I'd enjoy looking at.,-12,40,20","Isabella","Dessert like almost like dry land,4,280,20","0"
"18035","","survey-text","65","380865","0.0-65.0-0.0","A3PN4G5WB9ZLIR","","","","{""Q0"":""This looks like someone just threw paint at a canvas.""}","","","","","","","","","","","","","","","","","","","","","","",""
"3809.8000000715256","","image-slider-response","66","384689","0.0-66.0","A3PN4G5WB9ZLIR","","","","","-15","","","","","","","","","","","","","","","","","","","","","",""
"null","","image-button-response","67","389728","0.0-67.0","A3PN4G5WB9ZLIR","img_art/29.jpg","null","","","","","","","","","","","","","","","","","","","","","","","","",""
"2236","","image-button-response","68","391984","0.0-68.0","A3PN4G5WB9ZLIR","img_art/29.jpg","4","","","","","","","","","","","","","","","","","","","","","","","","",""
"1128","","image-button-response","69","393148","0.0-69.0-0.0","A3PN4G5WB9ZLIR","img_art/29.jpg","1","","","","","","","","","","","","","","","","","","","","","","","","",""
"573","","image-button-response","70","393748","0.0-70.0-0.0","A3PN4G5WB9ZLIR","img_art/29.jpg","2","","","","","","","","","","","","","","","","","","","","","","","","",""
"null","","html-keyboard-response","71","394266","0.0-71.0","A3PN4G5WB9ZLIR","<p style=""font-size: 48px;"">+</p>","","","","","null","allTrialResponses","500","1","4","img_art/29.jpg","-15","This looks like someone just threw paint at a canvas.","Isabella,Allison,Brittany,Mariah,Katie,Destiny","Darkness and torment,-50,280,20","Flash is too strong. Dislike the colors,-5,140,20","It looks likes there's a lot going on, but they don't fit together.,2,40,20","It feels like looking through layers of frustration.,19,140,20","Don't get it! Too dark and random. Perhaps it was the start of something but the artist stopped and cancelled out the work.,-50,160,20","is this supposed to be edgy,-21,360,20","Katie","Don't get it! Too dark and random. Perhaps it was the start of something but the artist stopped and cancelled out the work.,-50,160,20","Allison","Flash is too strong. Dislike the colors,-5,140,20","Brittany","It looks likes there's a lot going on, but they don't fit together.,2,40,20","0"
"13971","","survey-text","72","408354","0.0-72.0-0.0","A3PN4G5WB9ZLIR","","","","{""Q0"":""This seems really sad and heavy.""}","","","","","","","","","","","","","","","","","","","","","","",""
"4226.800000071526","","image-slider-response","73","412596","0.0-73.0","A3PN4G5WB9ZLIR","","","","","-16","","","","","","","","","","","","","","","","","","","","","",""
"null","","image-button-response","74","417628","0.0-74.0","A3PN4G5WB9ZLIR","img_art/28.jpg","null","","","","","","","","","","","","","","","","","","","","","","","","",""
"182","","image-button-response","75","417831","0.0-75.0","A3PN4G5WB9ZLIR","img_art/28.jpg","2","","","","","","","","","","","","","","","","","","","","","","","","",""
"810","","image-button-response","76","418665","0.0-76.0-0.0","A3PN4G5WB9ZLIR","img_art/28.jpg","5","","","","","","","","","","","","","","","","","","","","","","","","",""
"627","","image-button-response","77","419319","0.0-77.0-0.0","A3PN4G5WB9ZLIR","img_art/28.jpg","1","","","","","","","","","","","","","","","","","","","","","","","","",""
"null","","html-keyboard-response","78","420839","0.0-78.0","A3PN4G5WB9ZLIR","<p style=""font-size: 48px;"">+</p>","","","","","null","allTrialResponses","1500","1","5","img_art/28.jpg","-16","This seems really sad and heavy.","Morgan,Allison,Brittany,Laura,Katie,Victoria","Apartment throw up.,-5,380,20","Dislike the colors.,-20,140,20","I don't like the colors or the design.,-20,40,20","musical, animated and happy with somber undertones,7,320,20","Like the muted pink colors. However, the mood is sad because of the blurriness,22,160,20","drab and dreary,-21,400,20","Brittany","I don't like the colors or the design.,-20,40,20","Victoria","drab and dreary,-21,400,20","Allison","Dislike the colors.,-20,140,20","0"
"3495","","survey-text","79","424555","0.0-79.0-0.0","A3PN4G5WB9ZLIR","","","","{""Q0"":""sky""}","","","","","","","","","","","","","","","","","","","","","","",""
"13134","","survey-text","80","437699","0.0-80.0-0.0","A3PN4G5WB9ZLIR","","","","{""Q0"":""This seems like a sloppy and cheerful watercolor.""}","","","","","","","","","","","","","","","","","","","","","","",""
"3602.2000000476837","","image-slider-response","81","441316","0.0-81.0","A3PN4G5WB9ZLIR","","","","","22","","","","","","","","","","","","","","","","","","","","","",""
"null","","image-button-response","82","446362","0.0-82.0","A3PN4G5WB9ZLIR","img_art/26.jpg","null","","","","","","","","","","","","","","","","","","","","","","","","",""
"5020","","image-button-response","83","451400","0.0-83.0","A3PN4G5WB9ZLIR","img_art/26.jpg","2","","","","","","","","","","","","","","","","","","","","","","","","",""
"1279","","image-button-response","84","452702","0.0-84.0-0.0","A3PN4G5WB9ZLIR","img_art/26.jpg","0","","","","","","","","","","","","","","","","","","","","","","","","",""
"1999","","image-button-response","85","454728","0.0-85.0-0.0","A3PN4G5WB9ZLIR","img_art/26.jpg","4","","","","","","","","","","","","","","","","","","","","","","","","",""
"null","","html-keyboard-response","86","455249","0.0-86.0","A3PN4G5WB9ZLIR","<p style=""font-size: 48px;"">+</p>","","","","","null","allTrialResponses","500","1","6","img_art/26.jpg","22","This seems like a sloppy and cheerful watercolor.","Julia,Allison,Brittany,Gabriela,Jasmine,Victoria","I'm not really into landscapes unless I have a personal connection to them,-21,40,20","pretty colors, but sketch style isn't for me,10,140,20","It looks boring and too rough.,-9,40,20","it makes me feel normal and calm, I like the busy city street,10,140,20","This seems like a quiet painting,11,340,20","feels a tad old,30,400,20","Brittany","It looks boring and too rough.,-9,40,20","Julia","I'm not really into landscapes unless I have a personal connection to them,-21,40,20","Jasmine","This seems like a quiet painting,11,340,20","0"
"14581","","survey-text","87","469940","0.0-87.0-0.0","A3PN4G5WB9ZLIR","","","","{""Q0"":""I like the colors and the waterfall.""}","","","","","","","","","","","","","","","","","","","","","","",""
"4120.399999976158","","image-slider-response","88","474076","0.0-88.0","A3PN4G5WB9ZLIR","","","","","31","","","","","","","","","","","","","","","","","","","","","",""
"4398","","image-button-response","89","479119","0.0-89.0","A3PN4G5WB9ZLIR","img_art/24.jpg","0","","","","","","","","","","","","","","","","","","","","","","","","",""
"724","","image-button-response","90","479867","0.0-90.0","A3PN4G5WB9ZLIR","img_art/24.jpg","4","","","","","","","","","","","","","","","","","","","","","","","","",""
"1712","","image-button-response","91","481600","0.0-91.0-0.0","A3PN4G5WB9ZLIR","img_art/24.jpg","0","","","","","","","","","","","","","","","","","","","","","","","","",""
"2640","","image-button-response","92","484266","0.0-92.0-0.0","A3PN4G5WB9ZLIR","img_art/24.jpg","3","","","","","","","","","","","","","","","","","","","","","","","","",""
"null","","html-keyboard-response","93","485787","0.0-93.0","A3PN4G5WB9ZLIR","<p style=""font-size: 48px;"">+</p>","","","","","null","allTrialResponses","1500","1","7","img_art/24.jpg","31","I like the colors and the waterfall.","Julia,Elizabeth,Brittany,Alexis,Jasmine,Cynthia","it's a nice stream, but I don't care for plain nature,-15,40,20","Evokes pleasant feelings,50,20,20","Nice colors, but doesn't do much for me.,1,40,20","Simple. Not too abstract. Love the different flower colors.,20,100,20","This one is nice because it reminds me of nature,18,340,20","Interested in visiting this place,18,320,20","Jasmine","This one is nice because it reminds me of nature,18,340,20","Julia","it's a nice stream, but I don't care for plain nature,-15,40,20","Alexis","Simple. Not too abstract. Love the different flower colors.,20,100,20","0"
"19117","","survey-text","94","505053","0.0-94.0-0.0","A3PN4G5WB9ZLIR","","","","{""Q0"":""I like the bold colors. It feels like a city sunset.""}","","","","","","","","","","","","","","","","","","","","","","",""
"4184.300000071526","","image-slider-response","95","509253","0.0-95.0","A3PN4G5WB9ZLIR","","","","","44","","","","","","","","","","","","","","","","","","","","","",""
"3207","","image-button-response","96","514293","0.0-96.0","A3PN4G5WB9ZLIR","img_art/22.jpg","2","","","","","","","","","","","","","","","","","","","","","","","","",""
"927","","image-button-response","97","515243","0.0-97.0","A3PN4G5WB9ZLIR","img_art/22.jpg","4","","","","","","","","","","","","","","","","","","","","","","","","",""
"1637","","image-button-response","98","516906","0.0-98.0-0.0","A3PN4G5WB9ZLIR","img_art/22.jpg","2","","","","","","","","","","","","","","","","","","","","","","","","",""
"5540","","image-button-response","99","522472","0.0-99.0-0.0","A3PN4G5WB9ZLIR","img_art/22.jpg","0","","","","","","","","","","","","","","","","","","","","","","","","",""
"null","","html-keyboard-response","100","523501","0.0-100.0","A3PN4G5WB9ZLIR","<p style=""font-size: 48px;"">+</p>","","","","","null","allTrialResponses","1000","1","8","img_art/22.jpg","44","I like the bold colors. It feels like a city sunset.","Julia,Lindsey,Claire,Alexis,Jasmine,Mary","this is too generic,-27,40,20","Too much contrasting colors makes me feel anxious. I don't like it.,-20,400,20","I enjoy the colors used,24,260,20","Don't like this type of abstract work,-39,100,20","I appreciate the artistic effort but it's not for me,0,340,20","I do not like the color combo. This piece is too much the same throughout.,-1,180,20","Jasmine","I appreciate the artistic effort but it's not for me,0,340,20","Claire","I enjoy the colors used,24,260,20","Julia","this is too generic,-27,40,20","0"
"13908","","survey-text","101","537548","0.0-101.0-0.0","A3PN4G5WB9ZLIR","","","","{""Q0"":""I'm not sure what this represents but I don't like it.""}","","","","","","","","","","","","","","","","","","","","","","",""
"3217.5999999046326","","image-slider-response","102","540780","0.0-102.0","A3PN4G5WB9ZLIR","","","","","-27","","","","","","","","","","","","","","","","","","","","","",""
"null","","image-button-response","103","545827","0.0-103.0","A3PN4G5WB9ZLIR","img_art/23.jpg","null","","","","","","","","","","","","","","","","","","","","","","","","",""
"811","","image-button-response","104","546674","0.0-104.0","A3PN4G5WB9ZLIR","img_art/23.jpg","4","","","","","","","","","","","","","","","","","","","","","","","","",""
"1681","","image-button-response","105","548380","0.0-105.0-0.0","A3PN4G5WB9ZLIR","img_art/23.jpg","5","","","","","","","","","","","","","","","","","","","","","","","","",""
"495","","image-button-response","106","548904","0.0-106.0-0.0","A3PN4G5WB9ZLIR","img_art/23.jpg","1","","","","","","","","","","","","","","","","","","","","","","","","",""
"null","","html-keyboard-response","107","550423","0.0-107.0","A3PN4G5WB9ZLIR","<p style=""font-size: 48px;"">+</p>","","","","","null","allTrialResponses","1500","1","9","img_art/23.jpg","-27","I'm not sure what this represents but I don't like it.","Julia,Danielle,Claire,Kylie,Jasmine,Cassandra","this looks like a pop rock album cover,-10,40,20","While I don't normally enjoy these color schemes all together, I kind of like this one,10,340,20","the pattern is pleasing to the eye,28,260,20","Universal celebration,40,300,20","Mostly neutral but a bit too guady with the brash colors,-6,340,20","I had a very neutral feeling to this,no feelings at all.,1,120,20","Jasmine","Mostly neutral but a bit too guady with the brash colors,-6,340,20","Cassandra","I had a very neutral feeling to this,no feelings at all.,1,120,20","Danielle","While I don't normally enjoy these color schemes all together, I kind of like this one,10,340,20","0"
"12331","","survey-text","108","562838","0.0-108.0-0.0","A3PN4G5WB9ZLIR","","","","{""Q0"":""This looks like a fancy bag of trash.""}","","","","","","","","","","","","","","","","","","","","","","",""
"4129.800000071526","","image-slider-response","109","566982","0.0-109.0","A3PN4G5WB9ZLIR","","","","","19","","","","","","","","","","","","","","","","","","","","","",""
"null","","image-button-response","110","572020","0.0-110.0","A3PN4G5WB9ZLIR","img_art/5.jpg","null","","","","","","","","","","","","","","","","","","","","","","","","",""
"860","","image-button-response","111","572890","0.0-111.0","A3PN4G5WB9ZLIR","img_art/5.jpg","3","","","","","","","","","","","","","","","","","","","","","","","","",""
"1455","","image-button-response","112","574370","0.0-112.0-0.0","A3PN4G5WB9ZLIR","img_art/5.jpg","4","","","","","","","","","","","","","","","","","","","","","","","","",""
"1476","","image-button-response","113","575869","0.0-113.0-0.0","A3PN4G5WB9ZLIR","img_art/5.jpg","2","","","","","","","","","","","","","","","","","","","","","","","","",""
"null","","html-keyboard-response","114","576887","0.0-114.0","A3PN4G5WB9ZLIR","<p style=""font-size: 48px;"">+</p>","","","","","null","allTrialResponses","1000","1","10","img_art/5.jpg","19","This looks like a fancy bag of trash.","Chloe,Danielle,Autumn,Shannon,Jasmine,Cassandra","Black stripe looks violent,-31,220,20","Not a fan of the themes,-30,340,20","Appealing but shapeless,24,340,20","I don't know what it's supposed to be and it looks ugly the way the colors are on the yellow cube.,-50,220,20","Not sure what to say about this piece honestly. It's okay I guess.,0,340,20","This was awful and it looked like someone took minimul effort with it... no time at all.,-49,120,20","Shannon","I don't know what it's supposed to be and it looks ugly the way the colors are on the yellow cube.,-50,220,20","Jasmine","Not sure what to say about this piece honestly. It's okay I guess.,0,340,20","Autumn","Appealing but shapeless,24,340,20","0"
"3940","","survey-text","115","581029","0.0-115.0-0.0","A3PN4G5WB9ZLIR","","","","{""Q0"":""our""}","","","","","","","","","","","","","","","","","","","","","","",""
"11485","","survey-text","116","592524","0.0-116.0-0.0","A3PN4G5WB9ZLIR","","","","{""Q0"":""Too choppy and the colors aren't for me.""}","","","","","","","","","","","","","","","","","","","","","","",""
"3105.100000023842","","image-slider-response","117","595644","0.0-117.0","A3PN4G5WB9ZLIR","","","","","-26","","","","","","","","","","","","","","","","","","","","","",""
"null","","image-button-response","118","600683","0.0-118.0","A3PN4G5WB9ZLIR","img_art/12.jpg","null","","","","","","","","","","","","","","","","","","","","","","","","",""
"777","","image-button-response","119","601482","0.0-119.0","A3PN4G5WB9ZLIR","img_art/12.jpg","4","","","","","","","","","","","","","","","","","","","","","","","","",""
"1438","","image-button-response","120","602944","0.0-120.0-0.0","A3PN4G5WB9ZLIR","img_art/12.jpg","1","","","","","","","","","","","","","","","","","","","","","","","","",""
"844","","image-button-response","121","603815","0.0-121.0-0.0","A3PN4G5WB9ZLIR","img_art/12.jpg","0","","","","","","","","","","","","","","","","","","","","","","","","",""
"null","","html-keyboard-response","122","605340","0.0-122.0","A3PN4G5WB9ZLIR","<p style=""font-size: 48px;"">+</p>","","","","","null","allTrialResponses","1500","1","11","img_art/12.jpg","-26","Too choppy and the colors aren't for me.","Nicole,Kaitlin,Autumn,Shannon,Jasmine,Sydney","I like all the squares and the colors but it feels too cluttered to me,20,20,20","too much - just overcrowded,-20,60,20","Good too basic.,18,340,20","This image doesn't have anything going on. The top half is really ugly, I kind of like the bottom a little.,-20,220,20","It's just not my style,-18,340,20","I don't like the dark black with the bright colors, but this as a whole is nice.,25,320,20","Jasmine","It's just not my style,-18,340,20","Kaitlin","too much - just overcrowded,-20,60,20","Nicole","I like all the squares and the colors but it feels too cluttered to me,20,20,20","0"
"11250","","survey-text","123","616734","0.0-123.0-0.0","A3PN4G5WB9ZLIR","","","","{""Q0"":""Creepy and I would never own this.""}","","","","","","","","","","","","","","","","","","","","","","",""
"3592.5","","image-slider-response","124","620341","0.0-124.0","A3PN4G5WB9ZLIR","","","","","-48","","","","","","","","","","","","","","","","","","","","","",""
"null","","image-button-response","125","625380","0.0-125.0","A3PN4G5WB9ZLIR","img_art/16.jpg","null","","","","","","","","","","","","","","","","","","","","","","","","",""
"2140","","image-button-response","126","627536","0.0-126.0","A3PN4G5WB9ZLIR","img_art/16.jpg","1","","","","","","","","","","","","","","","","","","","","","","","","",""
"809","","image-button-response","127","628373","0.0-127.0-0.0","A3PN4G5WB9ZLIR","img_art/16.jpg","5","","","","","","","","","","","","","","","","","","","","","","","","",""
"670","","image-button-response","128","629073","0.0-128.0-0.0","A3PN4G5WB9ZLIR","img_art/16.jpg","2","","","","","","","","","","","","","","","","","","","","","","","","",""
"null","","html-keyboard-response","129","630100","0.0-129.0","A3PN4G5WB9ZLIR","<p style=""font-size: 48px;"">+</p>","","","","","null","allTrialResponses","1000","1","12","img_art/16.jpg","-48","Creepy and I would never own this.","Nicole,Kaitlin,Emily,Madeline,Jasmine,Jordan","It's a little anxiety inducing in a good way,16,20,20","The teddy bear looks really scared,-30,60,20","Looks like a kid did itt and ti looks disturbing.,-45,40,20","That bear looks unfitting!,-8,40,20","I like it because it's quite different from the rest,23,340,20","Not interested at all,-15,20,20","Kaitlin","The teddy bear looks really scared,-30,60,20","Jordan","Not interested at all,-15,20,20","Emily","Looks like a kid did itt and ti looks disturbing.,-45,40,20","0"
"16201","","survey-text","130","646443","0.0-130.0-0.0","A3PN4G5WB9ZLIR","","","","{""Q0"":""I don't like the chaotic and sloppy look.""}","","","","","","","","","","","","","","","","","","","","","","",""
"3425.399999976158","","image-slider-response","131","649884","0.0-131.0","A3PN4G5WB9ZLIR","","","","","-37","","","","","","","","","","","","","","","","","","","","","",""
"null","","image-button-response","132","654927","0.0-132.0","A3PN4G5WB9ZLIR","img_art/19.jpg","null","","","","","","","","","","","","","","","","","","","","","","","","",""
"1013","","image-button-response","133","655959","0.0-133.0","A3PN4G5WB9ZLIR","img_art/19.jpg","2","","","","","","","","","","","","","","","","","","","","","","","","",""
"1747","","image-button-response","134","657730","0.0-134.0-0.0","A3PN4G5WB9ZLIR","img_art/19.jpg","4","","","","","","","","","","","","","","","","","","","","","","","","",""
"1171","","image-button-response","135","658928","0.0-135.0-0.0","A3PN4G5WB9ZLIR","img_art/19.jpg","1","","","","","","","","","","","","","","","","","","","","","","","","",""
"null","","html-keyboard-response","136","659945","0.0-136.0","A3PN4G5WB9ZLIR","<p style=""font-size: 48px;"">+</p>","","","","","null","allTrialResponses","1000","1","13","img_art/19.jpg","-37","I don't like the chaotic and sloppy look.","Molly,Kaitlin,Emily,Alexandria,Alexa,Jordan","I can see kind of beach and sea full of people and buildings.,25,340,20","this looks like a busy city lifestyle,24,60,20","Loks like an amature did it, Not pleasing.,-45,40,20","it draws my eye and my mind fills in the spaces,14,80,20","It has a chaotic energy about it that draws me in,40,40,20","I like it, I see someone walking his dog in the early morning time,23,20,20","Emily","Loks like an amature did it, Not pleasing.,-45,40,20","Alexa","It has a chaotic energy about it that draws me in,40,40,20","Kaitlin","this looks like a busy city lifestyle,24,60,20","0"
"19325","","survey-text","137","679468","0.0-137.0-0.0","A3PN4G5WB9ZLIR","","","","{""Q0"":""This looks like a nice picture underneath a paint spill.""}","","","","","","","","","","","","","","","","","","","","","","",""
"3097.7000000476837","","image-slider-response","138","682581","0.0-138.0","A3PN4G5WB9ZLIR","","","","","23","","","","","","","","","","","","","","","","","","","","","",""
"null","","image-button-response","139","687623","0.0-139.0","A3PN4G5WB9ZLIR","img_art/2.jpg","null","","","","","","","","","","","","","","","","","","","","","","","","",""
"1216","","image-button-response","140","688858","0.0-140.0","A3PN4G5WB9ZLIR","img_art/2.jpg","1","","","","","","","","","","","","","","","","","","","","","","","","",""
"446","","image-button-response","141","689328","0.0-141.0-0.0","A3PN4G5WB9ZLIR","img_art/2.jpg","2","","","","","","","","","","","","","","","","","","","","","","","","",""
"557","","image-button-response","142","689915","0.0-142.0-0.0","A3PN4G5WB9ZLIR","img_art/2.jpg","4","","","","","","","","","","","","","","","","","","","","","","","","",""
"null","","html-keyboard-response","143","690432","0.0-143.0","A3PN4G5WB9ZLIR","<p style=""font-size: 48px;"">+</p>","","","","","null","allTrialResponses","500","1","14","img_art/2.jpg","23","This looks like a nice picture underneath a paint spill.","Alicia,Kaitlin,Emily,Grace,Alexa,Brianna","retro, amateurish, not a fan of the colors together.,-10,120,20","another confusing piece of art,-12,60,20","Random colors and shapes mashed together. Nothing artistic, but better than some of the other ones.,-37,40,20","Like the colors but reminds me of a kids show done in cubism.,0,180,20","Not my favorite but I can see this being hung in a art museum,25,40,20","The only parts I like is the light blue, red and black. The green color isn't very flattering.,11,20,20","Kaitlin","another confusing piece of art,-12,60,20","Emily","Random colors and shapes mashed together. Nothing artistic, but better than some of the other ones.,-37,40,20","Alexa","Not my favorite but I can see this being hung in a art museum,25,40,20","0"
"15341","","survey-text","144","705936","0.0-144.0-0.0","A3PN4G5WB9ZLIR","","","","{""Q0"":""I like the pink in the middle, but it looks kind of childish.""}","","","","","","","","","","","","","","","","","","","","","","",""
"4048.8000000715256","","image-slider-response","145","709999","0.0-145.0","A3PN4G5WB9ZLIR","","","","","33","","","","","","","","","","","","","","","","","","","","","",""
"null","","image-button-response","146","715032","0.0-146.0","A3PN4G5WB9ZLIR","img_art/9.jpg","null","","","","","","","","","","","","","","","","","","","","","","","","",""
"758","","image-button-response","147","715812","0.0-147.0","A3PN4G5WB9ZLIR","img_art/9.jpg","4","","","","","","","","","","","","","","","","","","","","","","","","",""
"2682","","image-button-response","148","718515","0.0-148.0-0.0","A3PN4G5WB9ZLIR","img_art/9.jpg","1","","","","","","","","","","","","","","","","","","","","","","","","",""
"474","","image-button-response","149","719019","0.0-149.0-0.0","A3PN4G5WB9ZLIR","img_art/9.jpg","2","","","","","","","","","","","","","","","","","","","","","","","","",""
"null","","html-keyboard-response","150","719534","0.0-150.0","A3PN4G5WB9ZLIR","<p style=""font-size: 48px;"">+</p>","","","","","null","allTrialResponses","500","1","15","img_art/9.jpg","33","I like the pink in the middle, but it looks kind of childish.","Melissa,Kaitlin,Emily,Sabrina,Alexa,Bailey","strong focal point, appealing use of selective line,11,240,20","this looks to be a child nightmare,-10,60,20","Looks like a young child drew it.,-45,40,20","Calming and relaxing,42,120,20","It's wild and chaotic but also beautiful and has some kind of calming factor about it,20,40,20","Not very enticing. No real substance other than a lady laying down,-35,360,20","Alexa","It's wild and chaotic but also beautiful and has some kind of calming factor about it,20,40,20","Kaitlin","this looks to be a child nightmare,-10,60,20","Emily","Looks like a young child drew it.,-45,40,20","0"
"4613","","survey-text","151","724431","0.0-151.0-0.0","A3PN4G5WB9ZLIR","","","","{""Q0"":""course""}","","","","","","","","","","","","","","","","","","","","","","",""
"15428","","survey-text","152","739872","0.0-152.0-0.0","A3PN4G5WB9ZLIR","","","","{""Q0"":""This looks like a sad truck crash.""}","","","","","","","","","","","","","","","","","","","","","","",""
"5249","","image-slider-response","153","745135","0.0-153.0","A3PN4G5WB9ZLIR","","","","","-35","","","","","","","","","","","","","","","","","","","","","",""
"null","","image-button-response","154","750173","0.0-154.0","A3PN4G5WB9ZLIR","img_art/20.jpg","null","","","","","","","","","","","","","","","","","","","","","","","","",""
"131","","image-button-response","155","750322","0.0-155.0","A3PN4G5WB9ZLIR","img_art/20.jpg","0","","","","","","","","","","","","","","","","","","","","","","","","",""
"1084","","image-button-response","156","751428","0.0-156.0-0.0","A3PN4G5WB9ZLIR","img_art/20.jpg","1","","","","","","","","","","","","","","","","","","","","","","","","",""
"1366","","image-button-response","157","752820","0.0-157.0-0.0","A3PN4G5WB9ZLIR","img_art/20.jpg","2","","","","","","","","","","","","","","","","","","","","","","","","",""
"null","","html-keyboard-response","158","754336","0.0-158.0","A3PN4G5WB9ZLIR","<p style=""font-size: 48px;"">+</p>","","","","","null","allTrialResponses","1500","1","16","img_art/20.jpg","-35","This looks like a sad truck crash.","Paige,Kaitlin,Emily,Leslie,Alexa,Christina","scared. makes me feel alone or abandoned,-11,60,20","i can feel the intensity in this,11,60,20","Brings about an emotion response of dspair. Loose lines but yet has a cohesion.,8,40,20","This elicits no reaction in me.,0,380,20","I like the calming mood of this painting,35,40,20","it looks like a piccasso knock off,-23,240,20","Paige","scared. makes me feel alone or abandoned,-11,60,20","Kaitlin","i can feel the intensity in this,11,60,20","Emily","Brings about an emotion response of dspair. Loose lines but yet has a cohesion.,8,40,20","0"
"11579","","survey-text","159","766084","0.0-159.0-0.0","A3PN4G5WB9ZLIR","","","","{""Q0"":""I like the blend of fall colors.""}","","","","","","","","","","","","","","","","","","","","","","",""
"3264.7999999523163","","image-slider-response","160","769364","0.0-160.0","A3PN4G5WB9ZLIR","","","","","37","","","","","","","","","","","","","","","","","","","","","",""
"null","","image-button-response","161","774407","0.0-161.0","A3PN4G5WB9ZLIR","img_art/1.jpg","null","","","","","","","","","","","","","","","","","","","","","","","","",""
"3209","","image-button-response","162","777634","0.0-162.0","A3PN4G5WB9ZLIR","img_art/1.jpg","5","","","","","","","","","","","","","","","","","","","","","","","","",""
"1056","","image-button-response","163","778714","0.0-163.0-0.0","A3PN4G5WB9ZLIR","img_art/1.jpg","4","","","","","","","","","","","","","","","","","","","","","","","","",""
"2148","","image-button-response","164","780887","0.0-164.0-0.0","A3PN4G5WB9ZLIR","img_art/1.jpg","1","","","","","","","","","","","","","","","","","","","","","","","","",""
"null","","html-keyboard-response","165","781401","0.0-165.0","A3PN4G5WB9ZLIR","<p style=""font-size: 48px;"">+</p>","","","","","null","allTrialResponses","500","1","17","img_art/1.jpg","37","I like the blend of fall colors.","Paige,Kaitlin,Emily,Haley,Emma,Kristen","fearful. Makes me think of fire,-10,60,20","I see happiness from different aspects of life,31,60,20","Just a mess though a better mess than some others.,-11,40,20","Pleasant, but a tad too monochromatic in some areas for my taste,7,220,20","Pretty, nice use of color,40,60,20","river, fall, cozy, warm,12,280,20","Kristen","river, fall, cozy, warm,12,280,20","Emma","Pretty, nice use of color,40,60,20","Kaitlin","I see happiness from different aspects of life,31,60,20","0"
"16325","","survey-text","166","797956","0.0-166.0-0.0","A3PN4G5WB9ZLIR","","","","{""Q0"":""I really like the face that appears above the city.""}","","","","","","","","","","","","","","","","","","","","","","",""
"3187.100000023842","","image-slider-response","167","801157","0.0-167.0","A3PN4G5WB9ZLIR","","","","","50","","","","","","","","","","","","","","","","","","","","","",""
"null","","image-button-response","168","806191","0.0-168.0","A3PN4G5WB9ZLIR","img_art/8.jpg","null","","","","","","","","","","","","","","","","","","","","","","","","",""
"1910","","image-button-response","169","808123","0.0-169.0","A3PN4G5WB9ZLIR","img_art/8.jpg","5","","","","","","","","","","","","","","","","","","","","","","","","",""
"956","","image-button-response","170","809103","0.0-170.0-0.0","A3PN4G5WB9ZLIR","img_art/8.jpg","0","","","","","","","","","","","","","","","","","","","","","","","","",""
"768","","image-button-response","171","809896","0.0-171.0-0.0","A3PN4G5WB9ZLIR","img_art/8.jpg","1","","","","","","","","","","","","","","","","","","","","","","","","",""
"null","","html-keyboard-response","172","811411","0.0-172.0","A3PN4G5WB9ZLIR","<p style=""font-size: 48px;"">+</p>","","","","","null","allTrialResponses","1500","1","18","img_art/8.jpg","50","I really like the face that appears above the city.","Kelsey,Kaitlin,Diana,Sara,Emma,Kristen","i like all the different faces,19,240,20","wow - the colors were very well mixed,12,60,20","I don't care for the piece, but I appreciate the talent that it took to create it.,22,380,20","Very interesting use of blocks,21,160,20","Love the colors & block-style,50,60,20","mothe nature/godess, watching over you,21,280,20","Kristen","mothe nature/godess, watching over you,21,280,20","Kelsey","i like all the different faces,19,240,20","Kaitlin","wow - the colors were very well mixed,12,60,20","0"
"13047","","survey-text","173","824647","0.0-173.0-0.0","A3PN4G5WB9ZLIR","","","","{""Q0"":""Kind of looks like flower scribbles, but it's nice.""}","","","","","","","","","","","","","","","","","","","","","","",""
"3002.4000000953674","","image-slider-response","174","827664","0.0-174.0","A3PN4G5WB9ZLIR","","","","","38","","","","","","","","","","","","","","","","","","","","","",""
"null","","image-button-response","175","832708","0.0-175.0","A3PN4G5WB9ZLIR","img_art/15.jpg","null","","","","","","","","","","","","","","","","","","","","","","","","",""
"1564","","image-button-response","176","834293","0.0-176.0","A3PN4G5WB9ZLIR","img_art/15.jpg","4","","","","","","","","","","","","","","","","","","","","","","","","",""
"2185","","image-button-response","177","836498","0.0-177.0-0.0","A3PN4G5WB9ZLIR","img_art/15.jpg","1","","","","","","","","","","","","","","","","","","","","","","","","",""
"438","","image-button-response","178","836963","0.0-178.0-0.0","A3PN4G5WB9ZLIR","img_art/15.jpg","3","","","","","","","","","","","","","","","","","","","","","","","","",""
"null","","html-keyboard-response","179","838488","0.0-179.0","A3PN4G5WB9ZLIR","<p style=""font-size: 48px;"">+</p>","","","","","null","allTrialResponses","1500","1","19","img_art/15.jpg","38","Kind of looks like flower scribbles, but it's nice.","Kelsey,Kaitlin,Cheyenne,Savannah,Katherine,Kristen","i kinda like this one but wouldnt buy it for myself,17,240,20","This one seems a bit frightening,-19,60,20","I like how the black and blue clash.,14,200,20","Love the accent colors in this piece!,20,200,20","black dots too ant-like,-25,120,20","darkness, hatred, fear,-29,280,20","Katherine","black dots too ant-like,-25,120,20","Kaitlin","This one seems a bit frightening,-19,60,20","Savannah","Love the accent colors in this piece!,20,200,20","0"
"30643","","survey-text","180","869343","0.0-180.0-0.0","A3PN4G5WB9ZLIR","","","","{""Q0"":""I like all the blue shades, and the paint splattered.""}","","","","","","","","","","","","","","","","","","","","","","",""
"3055.399999976158","","image-slider-response","181","872414","0.0-181.0","A3PN4G5WB9ZLIR","","","","","44","","","","","","","","","","","","","","","","","","","","","",""
"null","","image-button-response","182","877446","0.0-182.0","A3PN4G5WB9ZLIR","img_art/13.jpg","null","","","","","","","","","","","","","","","","","","","","","","","","",""
"2638","","image-button-response","183","880107","0.0-183.0","A3PN4G5WB9ZLIR","img_art/13.jpg","4","","","","","","","","","","","","","","","","","","","","","","","","",""
"828","","image-button-response","184","880958","0.0-184.0-0.0","A3PN4G5WB9ZLIR","img_art/13.jpg","1","","","","","","","","","","","","","","","","","","","","","","","","",""
"556","","image-button-response","185","881543","0.0-185.0-0.0","A3PN4G5WB9ZLIR","img_art/13.jpg","2","","","","","","","","","","","","","","","","","","","","","","","","",""
"null","","html-keyboard-response","186","882057","0.0-186.0","A3PN4G5WB9ZLIR","<p style=""font-size: 48px;"">+</p>","","","","","null","allTrialResponses","500","1","20","img_art/13.jpg","44","I like all the blue shades, and the paint splattered.","Amy,Kaitlin,Michaela,Savannah,Katherine,Kayla","I recognize the beauty of this but FOR ME its large degree of abstraction diminishes my emotional interaction.,-10,220,20","I like this picture. The choice of colors are good,31,60,20","The colors are really pretty together,39,260,20","Lots of depth and character.,30,200,20","Best color combo. i love this.,50,120,20","Pleasing, happy, rainy.,12,180,20","Katherine","Best color combo. i love this.,50,120,20","Kaitlin","I like this picture. The choice of colors are good,31,60,20","Michaela","The colors are really pretty together,39,260,20","0"
"2478","","survey-text","187","884899","0.0-187.0-0.0","A3PN4G5WB9ZLIR","","","","{""Q0"":""we""}","","","","","","","","","","","","","","","","","","","","","","",""
"11965","","survey-text","188","896883","0.0-188.0-0.0","A3PN4G5WB9ZLIR","","","","{""Q0"":""I like the wispy tree look.""}","","","","","","","","","","","","","","","","","","","","","","",""
"3648.5","","image-slider-response","189","900546","0.0-189.0","A3PN4G5WB9ZLIR","","","","","37","","","","","","","","","","","","","","","","","","","","","",""
"4260","","image-button-response","190","905578","0.0-190.0","A3PN4G5WB9ZLIR","img_art/17.jpg","0","","","","","","","","","","","","","","","","","","","","","","","","",""
"1089","","image-button-response","191","906685","0.0-191.0","A3PN4G5WB9ZLIR","img_art/17.jpg","0","","","","","","","","","","","","","","","","","","","","","","","","",""
"573","","image-button-response","192","907279","0.0-192.0-0.0","A3PN4G5WB9ZLIR","img_art/17.jpg","3","","","","","","","","","","","","","","","","","","","","","","","","",""
"745","","image-button-response","193","908046","0.0-193.0-0.0","A3PN4G5WB9ZLIR","img_art/17.jpg","2","","","","","","","","","","","","","","","","","","","","","","","","",""
"null","","html-keyboard-response","194","909564","0.0-194.0","A3PN4G5WB9ZLIR","<p style=""font-size: 48px;"">+</p>","","","","","null","allTrialResponses","1500","1","21","img_art/17.jpg","37","I like the wispy tree look.","Chelsea,Kaitlin,Michaela,Breanna,Katherine,Meghan","The colors are soft.,32,180,20","i feel some sadness in this picture,25,60,20","I love how soft it is,35,260,20","Very cool, makes me feel calm,43,380,20","Looks like a weird blurry heaven again! I dig,32,120,20","pretty bland in coloring,1,220,20","Chelsea","The colors are soft.,32,180,20","Breanna","Very cool, makes me feel calm,43,380,20","Michaela","I love how soft it is,35,260,20","0"
"22012","","survey-text","195","931778","0.0-195.0-0.0","A3PN4G5WB9ZLIR","","","","{""Q0"":""All the red scribbles is not very appealing.""}","","","","","","","","","","","","","","","","","","","","","","",""
"3330.100000023842","","image-slider-response","196","935122","0.0-196.0","A3PN4G5WB9ZLIR","","","","","-32","","","","","","","","","","","","","","","","","","","","","",""
"null","","image-button-response","197","940172","0.0-197.0","A3PN4G5WB9ZLIR","img_art/3.jpg","null","","","","","","","","","","","","","","","","","","","","","","","","",""
"2891","","image-button-response","198","943082","0.0-198.0","A3PN4G5WB9ZLIR","img_art/3.jpg","4","","","","","","","","","","","","","","","","","","","","","","","","",""
"1151","","image-button-response","199","944255","0.0-199.0-0.0","A3PN4G5WB9ZLIR","img_art/3.jpg","0","","","","","","","","","","","","","","","","","","","","","","","","",""
"1752","","image-button-response","200","946033","0.0-200.0-0.0","A3PN4G5WB9ZLIR","img_art/3.jpg","2","","","","","","","","","","","","","","","","","","","","","","","","",""
"null","","html-keyboard-response","201","947545","0.0-201.0","A3PN4G5WB9ZLIR","<p style=""font-size: 48px;"">+</p>","","","","","null","allTrialResponses","1500","1","22","img_art/3.jpg","-32","All the red scribbles is not very appealing.","Chelsea,Mikayla,Michaela,Breanna,Jennifer,Erika","It looks like scribbles.,-40,180,20","Scary. Looks like blood.,-45,300,20","It looks like someone took a red sharpie and just scribbled angrily,-20,260,20","Somebody scribbled on a piece of paper,-35,380,20","This looks like something a child created in 5 minutes.,-50,380,20","Unaure what the artist  was doing, needs context,11,100,20","Jennifer","This looks like something a child created in 5 minutes.,-50,380,20","Chelsea","It looks like scribbles.,-40,180,20","Michaela","It looks like someone took a red sharpie and just scribbled angrily,-20,260,20","0"
"17483","","survey-text","202","965285","0.0-202.0-0.0","A3PN4G5WB9ZLIR","","","","{""Q0"":""I like the looks of this creepy serpent roller coaster.""}","","","","","","","","","","","","","","","","","","","","","","",""
"2938","","image-slider-response","203","968238","0.0-203.0","A3PN4G5WB9ZLIR","","","","","27","","","","","","","","","","","","","","","","","","","","","",""
"null","","image-button-response","204","973279","0.0-204.0","A3PN4G5WB9ZLIR","img_art/10.jpg","null","","","","","","","","","","","","","","","","","","","","","","","","",""
"2807","","image-button-response","205","976105","0.0-205.0","A3PN4G5WB9ZLIR","img_art/10.jpg","2","","","","","","","","","","","","","","","","","","","","","","","","",""
"2004","","image-button-response","206","978137","0.0-206.0-0.0","A3PN4G5WB9ZLIR","img_art/10.jpg","3","","","","","","","","","","","","","","","","","","","","","","","","",""
"1110","","image-button-response","207","979272","0.0-207.0-0.0","A3PN4G5WB9ZLIR","img_art/10.jpg","0","","","","","","","","","","","","","","","","","","","","","","","","",""
"null","","html-keyboard-response","208","980285","0.0-208.0","A3PN4G5WB9ZLIR","<p style=""font-size: 48px;"">+</p>","","","","","null","allTrialResponses","1000","1","23","img_art/10.jpg","27","I like the looks of this creepy serpent roller coaster.","Chelsea,Kaylee,Michaela,Vanessa,Jennifer,Kaitlyn","It looks intricate.,15,180,20","a blue whale on the sea,12,200,20","It looks like it's sinking but it could also be a view from above,40,260,20","It's interesting and my eyes keep being drawn to different parts of the picture.,11,380,20","I am neutral towards the artwork,1,380,20","Picture looks smudged,-7,80,20","Michaela","It looks like it's sinking but it could also be a view from above,40,260,20","Vanessa","It's interesting and my eyes keep being drawn to different parts of the picture.,11,380,20","Chelsea","It looks intricate.,15,180,20","0"
"12738","","survey-text","209","993252","0.0-209.0-0.0","A3PN4G5WB9ZLIR","","","","{""Q0"":""Looks like two storms meeting.""}","","","","","","","","","","","","","","","","","","","","","","",""
"3313.100000023842","","image-slider-response","210","996580","0.0-210.0","A3PN4G5WB9ZLIR","","","","","26","","","","","","","","","","","","","","","","","","","","","",""
"null","","image-button-response","211","1001623","0.0-211.0","A3PN4G5WB9ZLIR","img_art/21.jpg","null","","","","","","","","","","","","","","","","","","","","","","","","",""
"1527","","image-button-response","212","1003169","0.0-212.0","A3PN4G5WB9ZLIR","img_art/21.jpg","3","","","","","","","","","","","","","","","","","","","","","","","","",""
"774","","image-button-response","213","1003969","0.0-213.0-0.0","A3PN4G5WB9ZLIR","img_art/21.jpg","2","","","","","","","","","","","","","","","","","","","","","","","","",""
"580","","image-button-response","214","1004577","0.0-214.0-0.0","A3PN4G5WB9ZLIR","img_art/21.jpg","0","","","","","","","","","","","","","","","","","","","","","","","","",""
"null","","html-keyboard-response","215","1005098","0.0-215.0","A3PN4G5WB9ZLIR","<p style=""font-size: 48px;"">+</p>","","","","","null","allTrialResponses","500","1","24","img_art/21.jpg","26","Looks like two storms meeting.","Chelsea,Amber,Michaela,Vanessa,Michelle,Natalie","I like the colors. It looks dramatic.,5,180,20","sunset after the rain,49,200,20","I love how vague it is but how you can imagine a story anyway, like clouds,45,260,20","The colors and softness work together to make something that's lovely.,42,380,20","The colors are very nice. I like the dots because they remind me of pearls,5,280,20","my response to the picture is what is going on?,-13,400,20","Vanessa","The colors and softness work together to make something that's lovely.,42,380,20","Michaela","I love how vague it is but how you can imagine a story anyway, like clouds,45,260,20","Chelsea","I like the colors. It looks dramatic.,5,180,20","0"
"20881","","survey-text","216","1026232","0.0-216.0-0.0","A3PN4G5WB9ZLIR","","","","{""Q0"":""Looks like a sloppy uncoordinated piece.""}","","","","","","","","","","","","","","","","","","","","","","",""
"3375.5999999046326","","image-slider-response","217","1029622","0.0-217.0","A3PN4G5WB9ZLIR","","","","","-41","","","","","","","","","","","","","","","","","","","","","",""
"null","","image-button-response","218","1034661","0.0-218.0","A3PN4G5WB9ZLIR","img_art/4.jpg","null","","","","","","","","","","","","","","","","","","","","","","","","",""
"5737","","image-button-response","219","1040415","0.0-219.0","A3PN4G5WB9ZLIR","img_art/4.jpg","0","","","","","","","","","","","","","","","","","","","","","","","","",""
"1483","","image-button-response","220","1041922","0.0-220.0-0.0","A3PN4G5WB9ZLIR","img_art/4.jpg","2","","","","","","","","","","","","","","","","","","","","","","","","",""
"1445","","image-button-response","221","1043393","0.0-221.0-0.0","A3PN4G5WB9ZLIR","img_art/4.jpg","3","","","","","","","","","","","","","","","","","","","","","","","","",""
"null","","html-keyboard-response","222","1044418","0.0-222.0","A3PN4G5WB9ZLIR","<p style=""font-size: 48px;"">+</p>","","","","","null","allTrialResponses","1000","1","25","img_art/4.jpg","-41","Looks like a sloppy uncoordinated piece.","Chelsea,Hannah,Michaela,Vanessa,Rebecca,Jacqueline","The colors remind me of McDonalds.,-41,180,20","looks very rudimentary and too simple.,-14,240,20","It reminds me of something a kid would make for their parents,13,260,20","Again, this is too abstract and I really don't like the colors.,-21,380,20","no sorry i can't really understand,-18,100,20","It looks like smeared poop.,-27,300,20","Chelsea","The colors remind me of McDonalds.,-41,180,20","Michaela","It reminds me of something a kid would make for their parents,13,260,20","Vanessa","Again, this is too abstract and I really don't like the colors.,-21,380,20","0"
"3749","","survey-text","223","1048685","0.0-223.0-0.0","A3PN4G5WB9ZLIR","","","","{""Q0"":""table""}","","","","","","","","","","","","","","","","","","","","","","",""
"11876","","survey-text","224","1060574","0.0-224.0-0.0","A3PN4G5WB9ZLIR","","","","{""Q0"":""I like the stormy ocean vibes.""}","","","","","","","","","","","","","","","","","","","","","","",""
"2704.600000023842","","image-slider-response","225","1063292","0.0-225.0","A3PN4G5WB9ZLIR","","","","","49","","","","","","","","","","","","","","","","","","","","","",""
"null","","image-button-response","226","1068334","0.0-226.0","A3PN4G5WB9ZLIR","img_art/11.jpg","null","","","","","","","","","","","","","","","","","","","","","","","","",""
"2226","","image-button-response","227","1070577","0.0-227.0","A3PN4G5WB9ZLIR","img_art/11.jpg","3","","","","","","","","","","","","","","","","","","","","","","","","",""
"1160","","image-button-response","228","1071762","0.0-228.0-0.0","A3PN4G5WB9ZLIR","img_art/11.jpg","0","","","","","","","","","","","","","","","","","","","","","","","","",""
"580","","image-button-response","229","1072369","0.0-229.0-0.0","A3PN4G5WB9ZLIR","img_art/11.jpg","2","","","","","","","","","","","","","","","","","","","","","","","","",""
"null","","html-keyboard-response","230","1073389","0.0-230.0","A3PN4G5WB9ZLIR","<p style=""font-size: 48px;"">+</p>","","","","","null","allTrialResponses","1000","1","26","img_art/11.jpg","49","I like the stormy ocean vibes.","Chelsea,Erin,Michaela,Vanessa,Mackenzie,Caroline","I like the harsh black lines against a soft background.,27,180,20","Frank Lloyd Wright, music,24,120,20","Reminds me of a city and how chaotic it can be,22,260,20","It makes me think of a rainy day and I like the colors. Also like the wavy lines.,22,380,20","The different textures and colors make this pleasing to look at.,30,20,20","Makes me think of far away places and traveling. Makes me feel like wandering,20,100,20","Vanessa","It makes me think of a rainy day and I like the colors. Also like the wavy lines.,22,380,20","Chelsea","I like the harsh black lines against a soft background.,27,180,20","Michaela","Reminds me of a city and how chaotic it can be,22,260,20","0"
"18232","","survey-text","231","1091894","0.0-231.0-0.0","A3PN4G5WB9ZLIR","","","","{""Q0"":""Kind of creepy and cool at the same time.""}","","","","","","","","","","","","","","","","","","","","","","",""
"3960.2000000476837","","image-slider-response","232","1095869","0.0-232.0","A3PN4G5WB9ZLIR","","","","","26","","","","","","","","","","","","","","","","","","","","","",""
"null","","image-button-response","233","1100912","0.0-233.0","A3PN4G5WB9ZLIR","img_art/25.jpg","null","","","","","","","","","","","","","","","","","","","","","","","","",""
"3899","","image-button-response","234","1104834","0.0-234.0","A3PN4G5WB9ZLIR","img_art/25.jpg","4","","","","","","","","","","","","","","","","","","","","","","","","",""
"3011","","image-button-response","235","1107872","0.0-235.0-0.0","A3PN4G5WB9ZLIR","img_art/25.jpg","2","","","","","","","","","","","","","","","","","","","","","","","","",""
"1359","","image-button-response","236","1109255","0.0-236.0-0.0","A3PN4G5WB9ZLIR","img_art/25.jpg","0","","","","","","","","","","","","","","","","","","","","","","","","",""
"null","","html-keyboard-response","237","1109776","0.0-237.0","A3PN4G5WB9ZLIR","<p style=""font-size: 48px;"">+</p>","","","","","null","allTrialResponses","500","1","27","img_art/25.jpg","26","Kind of creepy and cool at the same time.","Chelsea,Tiffany,Michaela,Vanessa,Margaret,Kathryn","The color and image are unsettling.,-29,180,20","I feel little to no emotion looking at this painting.,0,360,20","It looks like people worshipping a statue,33,260,20","I don't like the color. I don't like the abstract-ness of it.,-22,380,20","love the color and the contrast of the black on teal,50,100,20","I feel uneasy. Like watching someone powerful ready to perform a ritual, but I don't know their intentions.,-10,140,20","Margaret","love the color and the contrast of the black on teal,50,100,20","Michaela","It looks like people worshipping a statue,33,260,20","Chelsea","The color and image are unsettling.,-29,180,20","0"
"21008","","survey-text","238","1131015","0.0-238.0-0.0","A3PN4G5WB9ZLIR","","","","{""Q0"":""This looks childish and not very thought out.""}","","","","","","","","","","","","","","","","","","","","","","",""
"3880.1999999284744","","image-slider-response","239","1134911","0.0-239.0","A3PN4G5WB9ZLIR","","","","","-26","","","","","","","","","","","","","","","","","","","","","",""
"null","","image-button-response","240","1139952","0.0-240.0","A3PN4G5WB9ZLIR","img_art/30.jpg","null","","","","","","","","","","","","","","","","","","","","","","","","",""
"2992","","image-button-response","241","1142963","0.0-241.0","A3PN4G5WB9ZLIR","img_art/30.jpg","3","","","","","","","","","","","","","","","","","","","","","","","","",""
"1832","","image-button-response","242","1144817","0.0-242.0-0.0","A3PN4G5WB9ZLIR","img_art/30.jpg","0","","","","","","","","","","","","","","","","","","","","","","","","",""
"1344","","image-button-response","243","1146188","0.0-243.0-0.0","A3PN4G5WB9ZLIR","img_art/30.jpg","2","","","","","","","","","","","","","","","","","","","","","","","","",""
"null","","html-keyboard-response","244","1147205","0.0-244.0","A3PN4G5WB9ZLIR","<p style=""font-size: 48px;"">+</p>","","","","","null","allTrialResponses","1000","1","28","img_art/30.jpg","-26","This looks childish and not very thought out.","Chelsea,Anna,Michaela,Sierra,Margaret,Samantha","It looks like it was painted in 5 minutes.,-32,180,20","It looks like a pretty but unremarkable painting in a doctors office,15,300,20","My son made me a painting that looked like this,26,260,20","i dont like how the colors are mixed,-6,260,20","I dont like the colors whatsoever,-15,100,20","Too much like childrens finger paint. I dont like the smear of blended colors,-50,140,20","Sierra","i dont like how the colors are mixed,-6,260,20","Chelsea","It looks like it was painted in 5 minutes.,-32,180,20","Michaela","My son made me a painting that looked like this,26,260,20","0"
"10806","","survey-text","245","1158255","0.0-245.0-0.0","A3PN4G5WB9ZLIR","","","","{""Q0"":""This looks like it had potential in the beginning.""}","","","","","","","","","","","","","","","","","","","","","","",""
"3289.3000000715256","","image-slider-response","246","1161559","0.0-246.0","A3PN4G5WB9ZLIR","","","","","-25","","","","","","","","","","","","","","","","","","","","","",""
"null","","image-button-response","247","1166601","0.0-247.0","A3PN4G5WB9ZLIR","img_art/18.jpg","null","","","","","","","","","","","","","","","","","","","","","","","","",""
"4974","","image-button-response","248","1171595","0.0-248.0","A3PN4G5WB9ZLIR","img_art/18.jpg","5","","","","","","","","","","","","","","","","","","","","","","","","",""
"1012","","image-button-response","249","1172623","0.0-249.0-0.0","A3PN4G5WB9ZLIR","img_art/18.jpg","0","","","","","","","","","","","","","","","","","","","","","","","","",""
"1086","","image-button-response","250","1173729","0.0-250.0-0.0","A3PN4G5WB9ZLIR","img_art/18.jpg","4","","","","","","","","","","","","","","","","","","","","","","","","",""
"null","","html-keyboard-response","251","1174249","0.0-251.0","A3PN4G5WB9ZLIR","<p style=""font-size: 48px;"">+</p>","","","","","null","allTrialResponses","500","1","29","img_art/18.jpg","-25","This looks like it had potential in the beginning.","Chelsea,Jamie,Michaela,Sierra,Lauren,Alyssa","I like the detail but I wouldn't hang this up on my wall.,14,180,20","Mash up of colors and don't see a grander picture,-10,320,20","Reminds me of the four horsemen of the apocalypse,29,260,20","it looks like people,9,260,20","I like how the image gives off an impression of bravery.,25,340,20","There are alot of elements to this painting and a good mix of colors,32,160,20","Alyssa","There are alot of elements to this painting and a good mix of colors,32,160,20","Chelsea","I like the detail but I wouldn't hang this up on my wall.,14,180,20","Lauren","I like how the image gives off an impression of bravery.,25,340,20","0"
"12426","","survey-text","252","1186784","0.0-252.0-0.0","A3PN4G5WB9ZLIR","","","","{""Q0"":""Not for me. I don't like the colors or the picture.""}","","","","","","","","","","","","","","","","","","","","","","",""
"2521.1999999284744","","image-slider-response","253","1189320","0.0-253.0","A3PN4G5WB9ZLIR","","","","","-39","","","","","","","","","","","","","","","","","","","","","",""
"null","","image-button-response","254","1194371","0.0-254.0","A3PN4G5WB9ZLIR","img_art/27.jpg","null","","","","","","","","","","","","","","","","","","","","","","","","",""
"1879","","image-button-response","255","1196269","0.0-255.0","A3PN4G5WB9ZLIR","img_art/27.jpg","3","","","","","","","","","","","","","","","","","","","","","","","","",""
"1255","","image-button-response","256","1197549","0.0-256.0-0.0","A3PN4G5WB9ZLIR","img_art/27.jpg","5","","","","","","","","","","","","","","","","","","","","","","","","",""
"934","","image-button-response","257","1198507","0.0-257.0-0.0","A3PN4G5WB9ZLIR","img_art/27.jpg","0","","","","","","","","","","","","","","","","","","","","","","","","",""
"null","","html-keyboard-response","258","1199530","0.0-258.0","A3PN4G5WB9ZLIR","<p style=""font-size: 48px;"">+</p>","","","","","null","allTrialResponses","1000","1","30","img_art/27.jpg","-39","Not for me. I don't like the colors or the picture.","Chelsea,Heather,Sophia,Amanda,Lauren,Alyssa","The green lines look like a child drew over a painting.,-36,180,20","looks like a garden in between two storms.,33,260,20","Yikes. I think I made this in kindergarten.,-20,280,20","I love the childish aspect to it,37,180,20","Not a fan of the green; gives off the impression that someone else drew on it.,-20,340,20","Looks as if a toddler painted it,-20,160,20","Amanda","I love the childish aspect to it,37,180,20","Alyssa","Looks as if a toddler painted it,-20,160,20","Chelsea","The green lines look like a child drew over a painting.,-36,180,20","0"
"6698","","image-button-response_instructions","259","1206327","0.0-259.0","A3PN4G5WB9ZLIR","","0","instructions","","","","","","","","","","","","","","","","","","","","","","","",""
"1215","","image-button-response","260","1207856","0.0-260.0","A3PN4G5WB9ZLIR","","0","","","","","","","","","","","","","","","","","","","","","","","","",""
