"rt","url","trial_type","trial_index","time_elapsed","internal_node_id","participant_id","stimulus","button_pressed","Name","responses","response","key_press","variableName","fixationTime","condition","trial","photo","subjectRating","subjectResponse","agentsNames","agent_1_Response","agent_2_Response","agent_3_Response","agent_4_Response","agent_5_Response","agent_6_Response","kept_1_name","kept_1_response","kept_2_name","kept_2_response","kept_3_name","kept_3_response","errorCounter"
"11882","external_page_harvard.html","external-html","0","11992","0.0-0.0","A3PQVDFT21IISU","","","","","","","","","","","","","","","","","","","","","","","","","","",""
"8396","","image-button-response","1","20391","0.0-1.0","A3PQVDFT21IISU","","1","","","","","","","","","","","","","","","","","","","","","","","","",""
"1194","","image-button-response","2","21590","0.0-2.0-0.0","A3PQVDFT21IISU","","1","phone","","","","","","","","","","","","","","","","","","","","","","","",""
"4327","","survey-text","3","25918","0.0-3.0-0.0","A3PQVDFT21IISU","","","","{""Q0"":""A3PQVDFT21IISU""}","","","","","","","","","","","","","","","","","","","","","","",""
"6703","","image-button-response_instructions","4","32623","0.0-4.0","A3PQVDFT21IISU","","0","instructions","","","","","","","","","","","","","","","","","","","","","","","",""
"9213","","image-button-response_instructions","5","41838","0.0-5.0","A3PQVDFT21IISU","img_art/ins/popularity/ins1.png","0","instructions","","","","","","","","","","","","","","","","","","","","","","","",""
"3015","","image-button-response_instructions","6","44854","0.0-6.0","A3PQVDFT21IISU","img_art/ins/popularity/ins2.png","0","instructions","","","","","","","","","","","","","","","","","","","","","","","",""
"6511","","image-button-response_instructions","7","51366","0.0-7.0","A3PQVDFT21IISU","img_art/ins/popularity/ins2Extreme.png","0","instructions","","","","","","","","","","","","","","","","","","","","","","","",""
"13151","","image-button-response_instructions","8","64519","0.0-8.0","A3PQVDFT21IISU","img_art/ins/popularity/ins3KEEPpop.PNG","0","instructions","","","","","","","","","","","","","","","","","","","","","","","",""
"3358","","image-button-response_instructions","9","67879","0.0-9.0","A3PQVDFT21IISU","img_art/ins/popularity/ins3ANamepop.PNG","0","instructions","","","","","","","","","","","","","","","","","","","","","","","",""
"1847","","image-button-response_instructions","10","69727","0.0-10.0","A3PQVDFT21IISU","img_art/ins/popularity/ins3ARatingpop.png","0","instructions","","","","","","","","","","","","","","","","","","","","","","","",""
"1311","","image-button-response_instructions","11","71038","0.0-11.0","A3PQVDFT21IISU","img_art/ins/popularity/ins3ATextpop.png","0","instructions","","","","","","","","","","","","","","","","","","","","","","","",""
"4735","","image-button-response_instructions","12","75775","0.0-12.0","A3PQVDFT21IISU","img_art/ins/popularity/ins3ALikespop.png","0","instructions","","","","","","","","","","","","","","","","","","","","","","","",""
"12503","","image-button-response_instructions","13","88278","0.0-13.0","A3PQVDFT21IISU","img_art/ins/popularity/ins3KEEPpop.PNG","0","instructions","","","","","","","","","","","","","","","","","","","","","","","",""
"4824","","image-button-response_instructions","14","93103","0.0-14.0","A3PQVDFT21IISU","img_art/ins/popularity/ins3_5RED.png","0","instructions","","","","","","","","","","","","","","","","","","","","","","","",""
"3614","","image-button-response_instructions","15","96719","0.0-15.0","A3PQVDFT21IISU","img_art/ins/popularity/ins3KEEPpop.PNG","0","instructions","","","","","","","","","","","","","","","","","","","","","","","",""
"5455","","image-button-response_instructions","16","102174","0.0-16.0","A3PQVDFT21IISU","img_art/ins/popularity/ins4KEEPpop.PNG","0","instructions","","","","","","","","","","","","","","","","","","","","","","","",""
"1832","","image-button-response_instructions","17","104007","0.0-17.0","A3PQVDFT21IISU","img_art/ins/popularity/ins5KEEPpop.PNG","0","instructions","","","","","","","","","","","","","","","","","","","","","","","",""
"1446","","image-button-response_instructions","18","105454","0.0-18.0","A3PQVDFT21IISU","","0","instructions","","","","","","","","","","","","","","","","","","","","","","","",""
"6992","","survey-text","19","112479","0.0-19.0-0.0","A3PQVDFT21IISU","","","","{""Q0"":""but""}","","","","","","","","","","","","","","","","","","","","","","",""
"12054","","survey-text","20","124535","0.0-20.0-0.0","A3PQVDFT21IISU","","","","{""Q0"":""messy and difficult to look at""}","","","","","","","","","","","","","","","","","","","","","","",""
"11437.799999952316","","image-slider-response","21","135975","0.0-21.0","A3PQVDFT21IISU","","","","","-40","","","","","","","","","","","","","","","","","","","","","",""
"null","","image-button-response","22","140983","0.0-22.0","A3PQVDFT21IISU","img_art/ins/1.jpg","null","","","","","","","","","","","","","","","","","","","","","","","","",""
"11068","","image-button-response","23","152056","0.0-23.0","A3PQVDFT21IISU","img_art/ins/1.jpg","1","","","","","","","","","","","","","","","","","","","","","","","","",""
"910","","image-button-response","24","152968","0.0-24.0-0.0","A3PQVDFT21IISU","img_art/ins/1.jpg","2","","","","","","","","","","","","","","","","","","","","","","","","",""
"7645","","image-button-response","25","160615","0.0-25.0-0.0","A3PQVDFT21IISU","img_art/ins/1.jpg","5","","","","","","","","","","","","","","","","","","","","","","","","",""
"null","","html-keyboard-response","26","161617","0.0-26.0","A3PQVDFT21IISU","<p style=""font-size: 48px;"">+</p>","","","","","null","allTrialResponses","1000","1","-2","img_art/ins/1.jpg","-40","messy and difficult to look at","Allison,Ashley,Beth,Dora,Erika,Jen","looks like a lot of things going on in the mist,20,20,20","I just don't get why these type of art would be popular,-32,40,20","This color reminds me of poo,-46,60,20","looks like what my niece in 3rd grade did this afternoon,-50,80,20","I like the sophisticated brushwork,40,100,20","It reminds me of a candy land dream I had,36,120,20","Ashley","I just don't get why these type of art would be popular,-32,40,20","Beth","This color reminds me of poo,-46,60,20","Jen","It reminds me of a candy land dream I had,36,120,20","0"
"7520","","survey-text","27","169142","0.0-27.0-0.0","A3PQVDFT21IISU","","","","{""Q0"":""bold and scary""}","","","","","","","","","","","","","","","","","","","","","","",""
"3062.5","","image-slider-response","28","172207","0.0-28.0","A3PQVDFT21IISU","","","","","-20","","","","","","","","","","","","","","","","","","","","","",""
"null","","image-button-response","29","177216","0.0-29.0","A3PQVDFT21IISU","img_art/ins/2.jpg","null","","","","","","","","","","","","","","","","","","","","","","","","",""
"2020","","image-button-response","30","179239","0.0-30.0","A3PQVDFT21IISU","img_art/ins/2.jpg","5","","","","","","","","","","","","","","","","","","","","","","","","",""
"9054","","image-button-response","31","188295","0.0-31.0-0.0","A3PQVDFT21IISU","img_art/ins/2.jpg","1","","","","","","","","","","","","","","","","","","","","","","","","",""
"1837","","image-button-response","32","190135","0.0-32.0-0.0","A3PQVDFT21IISU","img_art/ins/2.jpg","2","","","","","","","","","","","","","","","","","","","","","","","","",""
"null","","html-keyboard-response","33","191150","0.0-33.0","A3PQVDFT21IISU","<p style=""font-size: 48px;"">+</p>","","","","","null","allTrialResponses","1000","1","-1","img_art/ins/2.jpg","-20","bold and scary","Katie,Ashley,Beth,Jenna,Kara,Jen","too much color!,-28,180,20","Idk, it is just annoying,-32,40,20","meaningless painting,-45,60,20","One of my pet peevs,-48,140,20","I like the blocks of color arrangements,30,160,20","It reminds me of a fireplace,36,120,20","Jen","It reminds me of a fireplace,36,120,20","Ashley","Idk, it is just annoying,-32,40,20","Beth","meaningless painting,-45,60,20","0"
"10864","","survey-text","34","202022","0.0-34.0-0.0","A3PQVDFT21IISU","","","","{""Q0"":""reminds me of the cold, very icy""}","","","","","","","","","","","","","","","","","","","","","","",""
"10294.5","","image-slider-response","35","212319","0.0-35.0","A3PQVDFT21IISU","","","","","-26","","","","","","","","","","","","","","","","","","","","","",""
"null","","image-button-response","36","217327","0.0-36.0","A3PQVDFT21IISU","img_art/ins/3.jpg","null","","","","","","","","","","","","","","","","","","","","","","","","",""
"1813","","image-button-response","37","219143","0.0-37.0","A3PQVDFT21IISU","img_art/ins/3.jpg","0","","","","","","","","","","","","","","","","","","","","","","","","",""
"4758","","image-button-response","38","223903","0.0-38.0-0.0","A3PQVDFT21IISU","img_art/ins/3.jpg","5","","","","","","","","","","","","","","","","","","","","","","","","",""
"4879","","image-button-response","39","228783","0.0-39.0-0.0","A3PQVDFT21IISU","img_art/ins/3.jpg","0","","","","","","","","","","","","","","","","","","","","","","","","",""
"7495","","image-button-response","40","238975","0.0-39.1-0.1","A3PQVDFT21IISU","img_art/ins/3.jpg","3","","","","","","","","","","","","","","","","","","","","","","","","",""
"null","","html-keyboard-response","41","239478","0.0-40.0","A3PQVDFT21IISU","<p style=""font-size: 48px;"">+</p>","","","","","null","allTrialResponses","500","1","0","img_art/ins/3.jpg","-26","reminds me of the cold, very icy","Rose,Ashley,Beth,Leslie,Mary,Jen","My daily routine, it's depressing,-20,240,20","It looks like a playground for bats,-36,40,20","This thing gives me anxiety,-41,60,20","It's an alright work,15,200,20","I like the overlapping of brushes,41,220,20","I can feel a rainy day from this painting,18,120,20","Rose","My daily routine, it's depressing,-20,240,20","Jen","I can feel a rainy day from this painting,18,120,20","Leslie","It's an alright work,15,200,20","2"
"5006","","image-button-response_instructions","42","244495","0.0-41.0","A3PQVDFT21IISU","","0","instructions","","","","","","","","","","","","","","","","","","","","","","","",""
"9022","","survey-likert","43","253519","0.0-42.0-0.0","A3PQVDFT21IISU","","","","{""Q0"":"""",""Q1"":0,""Q2"":1}","","","","","","","","","","","","","","","","","","","","","","",""
"4218","","survey-text","44","257742","0.0-43.0-0.0","A3PQVDFT21IISU","","","","{""Q0"":""rock""}","","","","","","","","","","","","","","","","","","","","","","",""
"7919","","survey-text","45","265662","0.0-44.0-0.0","A3PQVDFT21IISU","","","","{""Q0"":""messy border""}","","","","","","","","","","","","","","","","","","","","","","",""
"5638.099999904633","","image-slider-response","46","271302","0.0-45.0","A3PQVDFT21IISU","","","","","-26","","","","","","","","","","","","","","","","","","","","","",""
"2676","","image-button-response","47","276332","0.0-46.0","A3PQVDFT21IISU","img_art/9.jpg","1","","","","","","","","","","","","","","","","","","","","","","","","",""
"927","","image-button-response","48","277262","0.0-47.0","A3PQVDFT21IISU","img_art/9.jpg","1","","","","","","","","","","","","","","","","","","","","","","","","",""
"6231","","image-button-response","49","283495","0.0-48.0-0.0","A3PQVDFT21IISU","img_art/9.jpg","3","","","","","","","","","","","","","","","","","","","","","","","","",""
"11869","","image-button-response","50","295366","0.0-49.0-0.0","A3PQVDFT21IISU","img_art/9.jpg","5","","","","","","","","","","","","","","","","","","","","","","","","",""
"null","","html-keyboard-response","51","296870","0.0-50.0","A3PQVDFT21IISU","<p style=""font-size: 48px;"">+</p>","","","","","null","allTrialResponses","1500","1","1","img_art/9.jpg","-26","messy border","Meghan,Samantha,Andrea,Jennifer,Mariah,Bailey","looks like someone resting,12,220,20","Some nice colors but i do not like it,-18,140,20","Sleeping woman in a cave. Makes me feel safe.,20,240,20","This piece is very boring to look at.,-27,380,20","Pleasant in all ways.,27,140,20","Not very enticing. No real substance other than a lady laying down,-35,360,20","Samantha","Some nice colors but i do not like it,-18,140,20","Jennifer","This piece is very boring to look at.,-27,380,20","Bailey","Not very enticing. No real substance other than a lady laying down,-35,360,20","2"
"10248","","survey-text","52","307135","0.0-51.0-0.0","A3PQVDFT21IISU","","","","{""Q0"":""not bad, but messy colors""}","","","","","","","","","","","","","","","","","","","","","","",""
"3366.0999999046326","","image-slider-response","53","310502","0.0-52.0","A3PQVDFT21IISU","","","","","3","","","","","","","","","","","","","","","","","","","","","",""
"null","","image-button-response","54","315505","0.0-53.0","A3PQVDFT21IISU","img_art/21.jpg","null","","","","","","","","","","","","","","","","","","","","","","","","",""
"3081","","image-button-response","55","318591","0.0-54.0","A3PQVDFT21IISU","img_art/21.jpg","1","","","","","","","","","","","","","","","","","","","","","","","","",""
"5942","","image-button-response","56","324535","0.0-55.0-0.0","A3PQVDFT21IISU","img_art/21.jpg","4","","","","","","","","","","","","","","","","","","","","","","","","",""
"1110","","image-button-response","57","325648","0.0-56.0-0.0","A3PQVDFT21IISU","img_art/21.jpg","5","","","","","","","","","","","","","","","","","","","","","","","","",""
"null","","html-keyboard-response","58","326150","0.0-57.0","A3PQVDFT21IISU","<p style=""font-size: 48px;"">+</p>","","","","","null","allTrialResponses","500","1","2","img_art/21.jpg","3","not bad, but messy colors","Breanna,Samantha,Alexis,Jennifer,Kristen,Bailey","Can't understand what it is,-27,380,20","Love the colors and the relationship between the light and storm,50,140,20","I love this. Reminds me of a coast. The colors flow beautifully,40,100,20","Bland, this painting is my least favorite,-20,380,20","calm, ship at sea, sunset,16,280,20","Looks like two ships on fire. Cool image.,12,360,20","Samantha","Love the colors and the relationship between the light and storm,50,140,20","Kristen","calm, ship at sea, sunset,16,280,20","Bailey","Looks like two ships on fire. Cool image.,12,360,20","2"
"9490","","survey-text","59","335655","0.0-58.0-0.0","A3PQVDFT21IISU","","","","{""Q0"":""busy, anxiety enducing""}","","","","","","","","","","","","","","","","","","","","","","",""
"4574.699999809265","","image-slider-response","60","340231","0.0-59.0","A3PQVDFT21IISU","","","","","-40","","","","","","","","","","","","","","","","","","","","","",""
"null","","image-button-response","61","345238","0.0-60.0","A3PQVDFT21IISU","img_art/19.jpg","null","","","","","","","","","","","","","","","","","","","","","","","","",""
"2804","","image-button-response","62","348047","0.0-61.0","A3PQVDFT21IISU","img_art/19.jpg","5","","","","","","","","","","","","","","","","","","","","","","","","",""
"2526","","image-button-response","63","350575","0.0-62.0-0.0","A3PQVDFT21IISU","img_art/19.jpg","4","","","","","","","","","","","","","","","","","","","","","","","","",""
"3166","","image-button-response","64","353744","0.0-63.0-0.0","A3PQVDFT21IISU","img_art/19.jpg","1","","","","","","","","","","","","","","","","","","","","","","","","",""
"null","","html-keyboard-response","65","355260","0.0-64.0","A3PQVDFT21IISU","<p style=""font-size: 48px;"">+</p>","","","","","null","allTrialResponses","1500","1","3","img_art/19.jpg","-40","busy, anxiety enducing","Kaitlyn,Samantha,Paige,Emily,Kristen,Bailey","The picture contains a lot of brown and weird drips,-4,80,20","Intersting but not for me,21,140,20","it's too busy for me. Makes me feel stressed.,1,60,20","Loks like an amature did it, Not pleasing.,-45,40,20","city, stress of urbanism, slightly panicked,2,280,20","Horrible. Squiggly lines everywhere.,-50,360,20","Bailey","Horrible. Squiggly lines everywhere.,-50,360,20","Kristen","city, stress of urbanism, slightly panicked,2,280,20","Samantha","Intersting but not for me,21,140,20","2"
"10082","","survey-text","66","365351","0.0-65.0-0.0","A3PQVDFT21IISU","","","","{""Q0"":""splatter work is art now?""}","","","","","","","","","","","","","","","","","","","","","","",""
"5934.400000095367","","image-slider-response","67","371286","0.0-66.0","A3PQVDFT21IISU","","","","","-45","","","","","","","","","","","","","","","","","","","","","",""
"3461","","image-button-response","68","376290","0.0-67.0","A3PQVDFT21IISU","img_art/13.jpg","5","","","","","","","","","","","","","","","","","","","","","","","","",""
"5836","","image-button-response","69","382135","0.0-68.0","A3PQVDFT21IISU","img_art/13.jpg","2","","","","","","","","","","","","","","","","","","","","","","","","",""
"2142","","image-button-response","70","384278","0.0-69.0-0.0","A3PQVDFT21IISU","img_art/13.jpg","5","","","","","","","","","","","","","","","","","","","","","","","","",""
"5917","","image-button-response","71","390198","0.0-70.0-0.0","A3PQVDFT21IISU","img_art/13.jpg","3","","","","","","","","","","","","","","","","","","","","","","","","",""
"null","","html-keyboard-response","72","390701","0.0-71.0","A3PQVDFT21IISU","<p style=""font-size: 48px;"">+</p>","","","","","null","allTrialResponses","500","1","4","img_art/13.jpg","-45","splatter work is art now?","Isabella,Samantha,Monica,Angelica,Kristen,Bailey","Rain drops on a window,35,280,20","Nice colors. beautiful blue,50,140,20","It's like any other splatter paint art piece, nothing special,1,360,20","It's too violent looking and there's too much contrast between the white/black.,-21,280,20","happy, serenity,30,280,20","Looks like an upclose dried set of water droplets. Boring.,-25,360,20","Monica","It's like any other splatter paint art piece, nothing special,1,360,20","Bailey","Looks like an upclose dried set of water droplets. Boring.,-25,360,20","Angelica","It's too violent looking and there's too much contrast between the white/black.,-21,280,20","2"
"10965","","survey-text","73","401670","0.0-72.0-0.0","A3PQVDFT21IISU","","","","{""Q0"":""babbling brook""}","","","","","","","","","","","","","","","","","","","","","","",""
"2614.0999999046326","","image-slider-response","74","404286","0.0-73.0","A3PQVDFT21IISU","","","","","26","","","","","","","","","","","","","","","","","","","","","",""
"null","","image-button-response","75","409305","0.0-74.0","A3PQVDFT21IISU","img_art/24.jpg","null","","","","","","","","","","","","","","","","","","","","","","","","",""
"2881","","image-button-response","76","412191","0.0-75.0","A3PQVDFT21IISU","img_art/24.jpg","2","","","","","","","","","","","","","","","","","","","","","","","","",""
"613","","image-button-response","77","412806","0.0-76.0-0.0","A3PQVDFT21IISU","img_art/24.jpg","1","","","","","","","","","","","","","","","","","","","","","","","","",""
"598","","image-button-response","78","413406","0.0-77.0-0.0","A3PQVDFT21IISU","img_art/24.jpg","0","","","","","","","","","","","","","","","","","","","","","","","","",""
"null","","html-keyboard-response","79","413908","0.0-78.0","A3PQVDFT21IISU","<p style=""font-size: 48px;"">+</p>","","","","","null","allTrialResponses","500","1","5","img_art/24.jpg","26","babbling brook","Alexandra,Gabriela,Monica,Angelica,Cassidy,Bailey","This reminds me of a creek or a river. It puts me a peace,42,60,20","I love how bold and vibrant the colors are,40,140,20","It looks alive, like I can hear the water flowing,41,360,20","This looks ugly and simple, as if done by a young person.,-2,280,20","I don't even know. It's just kind of meh,1,140,20","Feels surreal, in a way, and vibrant,37,360,20","Monica","It looks alive, like I can hear the water flowing,41,360,20","Gabriela","I love how bold and vibrant the colors are,40,140,20","Alexandra","This reminds me of a creek or a river. It puts me a peace,42,60,20","2"
"4109","","survey-text","80","418054","0.0-79.0-0.0","A3PQVDFT21IISU","","","","{""Q0"":""sky""}","","","","","","","","","","","","","","","","","","","","","","",""
"7775","","survey-text","81","425830","0.0-80.0-0.0","A3PQVDFT21IISU","","","","{""Q0"":""checkered and too busy""}","","","","","","","","","","","","","","","","","","","","","","",""
"3118.7999999523163","","image-slider-response","82","428951","0.0-81.0","A3PQVDFT21IISU","","","","","-33","","","","","","","","","","","","","","","","","","","","","",""
"null","","image-button-response","83","433954","0.0-82.0","A3PQVDFT21IISU","img_art/12.jpg","null","","","","","","","","","","","","","","","","","","","","","","","","",""
"1273","","image-button-response","84","435231","0.0-83.0","A3PQVDFT21IISU","img_art/12.jpg","5","","","","","","","","","","","","","","","","","","","","","","","","",""
"3086","","image-button-response","85","438319","0.0-84.0-0.0","A3PQVDFT21IISU","img_art/12.jpg","3","","","","","","","","","","","","","","","","","","","","","","","","",""
"6965","","image-button-response","86","445287","0.0-85.0-0.0","A3PQVDFT21IISU","img_art/12.jpg","0","","","","","","","","","","","","","","","","","","","","","","","","",""
"null","","html-keyboard-response","87","446289","0.0-86.0","A3PQVDFT21IISU","<p style=""font-size: 48px;"">+</p>","","","","","null","allTrialResponses","1000","1","6","img_art/12.jpg","-33","checkered and too busy","Alexandra,Gabriela,Monica,Margaret,Abigail,Leslie","I like the pattern of this picture, but the colors could be nicer,11,60,20","In my opinion, this photo has an old school vibe,22,140,20","Reminds me of collages we made in elementary school. I like the contrast of the colors from top to bottom,43,360,20","I like the bottom half and hate the top half,7,100,20","Made me uncomfortable, reminded me of the 90s,-9,20,20","This elicits no reaction in me.,0,380,20","Leslie","This elicits no reaction in me.,0,380,20","Margaret","I like the bottom half and hate the top half,7,100,20","Alexandra","I like the pattern of this picture, but the colors could be nicer,11,60,20","2"
"12422","","survey-text","88","458727","0.0-87.0-0.0","A3PQVDFT21IISU","","","","{""Q0"":""reminds me of a chorus line in NY""}","","","","","","","","","","","","","","","","","","","","","","",""
"4086.5999999046326","","image-slider-response","89","462815","0.0-88.0","A3PQVDFT21IISU","","","","","2","","","","","","","","","","","","","","","","","","","","","",""
"4735","","image-button-response","90","467818","0.0-89.0","A3PQVDFT21IISU","img_art/23.jpg","5","","","","","","","","","","","","","","","","","","","","","","","","",""
"649","","image-button-response","91","468471","0.0-90.0","A3PQVDFT21IISU","img_art/23.jpg","5","","","","","","","","","","","","","","","","","","","","","","","","",""
"3703","","image-button-response","92","472175","0.0-91.0-0.0","A3PQVDFT21IISU","img_art/23.jpg","1","","","","","","","","","","","","","","","","","","","","","","","","",""
"3565","","image-button-response","93","475743","0.0-92.0-0.0","A3PQVDFT21IISU","img_art/23.jpg","3","","","","","","","","","","","","","","","","","","","","","","","","",""
"null","","html-keyboard-response","94","477245","0.0-93.0","A3PQVDFT21IISU","<p style=""font-size: 48px;"">+</p>","","","","","null","allTrialResponses","1500","1","7","img_art/23.jpg","2","reminds me of a chorus line in NY","Alexandra,Mackenzie,Tiffany,Margaret,Erica,Leslie","This is my favorite of them all. I love the colors.,41,60,20","The usage of color is great, but not my style.,-15,20,20","I feel happy and a little excited. Like watching fireworks with family.,26,360,20","white reminds me of screamo music band tshirts when they have their name in the unreadable lettering,-9,100,20","Very energetic, seems like it is pulling me in,24,80,20","It reminds me of being in a crowded place.,-10,380,20","Leslie","It reminds me of being in a crowded place.,-10,380,20","Mackenzie","The usage of color is great, but not my style.,-15,20,20","Margaret","white reminds me of screamo music band tshirts when they have their name in the unreadable lettering,-9,100,20","2"
"8790","","survey-text","95","486047","0.0-94.0-0.0","A3PQVDFT21IISU","","","","{""Q0"":""is it a broom?""}","","","","","","","","","","","","","","","","","","","","","","",""
"2477.899999856949","","image-slider-response","96","488526","0.0-95.0","A3PQVDFT21IISU","","","","","-3","","","","","","","","","","","","","","","","","","","","","",""
"3423","","image-button-response","97","493530","0.0-96.0","A3PQVDFT21IISU","img_art/5.jpg","0","","","","","","","","","","","","","","","","","","","","","","","","",""
"474","","image-button-response","98","494007","0.0-97.0","A3PQVDFT21IISU","img_art/5.jpg","0","","","","","","","","","","","","","","","","","","","","","","","","",""
"2374","","image-button-response","99","496383","0.0-98.0-0.0","A3PQVDFT21IISU","img_art/5.jpg","5","","","","","","","","","","","","","","","","","","","","","","","","",""
"2606","","image-button-response","100","498991","0.0-99.0-0.0","A3PQVDFT21IISU","img_art/5.jpg","4","","","","","","","","","","","","","","","","","","","","","","","","",""
"null","","html-keyboard-response","101","500493","0.0-100.0","A3PQVDFT21IISU","<p style=""font-size: 48px;"">+</p>","","","","","null","allTrialResponses","1500","1","8","img_art/5.jpg","-3","is it a broom?","Morgan,Mackenzie,Jamie,Margaret,Jordan,Leslie","Dull pyramid that says nothing.,7,380,20","Overpowering colors.,-26,20,20","Don't really see it and yellow/pink don't go well together,-35,320,20","simple. love the color scheme,27,100,20","I dont really get anything from this,-25,20,20","This elicits no reaction in me.,0,380,20","Morgan","Dull pyramid that says nothing.,7,380,20","Leslie","This elicits no reaction in me.,0,380,20","Jordan","I dont really get anything from this,-25,20,20","2"
"10168","","survey-text","102","510670","0.0-101.0-0.0","A3PQVDFT21IISU","","","","{""Q0"":""musical, but broken""}","","","","","","","","","","","","","","","","","","","","","","",""
"2190.0999999046326","","image-slider-response","103","512862","0.0-102.0","A3PQVDFT21IISU","","","","","26","","","","","","","","","","","","","","","","","","","","","",""
"3430","","image-button-response","104","517877","0.0-103.0","A3PQVDFT21IISU","img_art/10.jpg","2","","","","","","","","","","","","","","","","","","","","","","","","",""
"605","","image-button-response","105","518487","0.0-104.0","A3PQVDFT21IISU","img_art/10.jpg","2","","","","","","","","","","","","","","","","","","","","","","","","",""
"3382","","image-button-response","106","521871","0.0-105.0-0.0","A3PQVDFT21IISU","img_art/10.jpg","5","","","","","","","","","","","","","","","","","","","","","","","","",""
"1918","","image-button-response","107","523791","0.0-106.0-0.0","A3PQVDFT21IISU","img_art/10.jpg","3","","","","","","","","","","","","","","","","","","","","","","","","",""
"null","","html-keyboard-response","108","524794","0.0-107.0","A3PQVDFT21IISU","<p style=""font-size: 48px;"">+</p>","","","","","null","allTrialResponses","1000","1","9","img_art/10.jpg","26","musical, but broken","Morgan,Maria,Claire,Caroline,Jordan,Leslie","Roller coaster on an island.,9,380,20","not sure what to make of this one,0,120,20","it looks very musical,24,260,20","This painting made me think of a guitar which made me think of music which envoked happy feelings.,28,100,20","I dont like it, there is too much going on,-19,20,20","I love the chaotic feel of the brush strokes.,35,380,20","Claire","it looks very musical,24,260,20","Leslie","I love the chaotic feel of the brush strokes.,35,380,20","Caroline","This painting made me think of a guitar which made me think of music which envoked happy feelings.,28,100,20","2"
"5994","","survey-text","109","530798","0.0-108.0-0.0","A3PQVDFT21IISU","","","","{""Q0"":""messy and childish""}","","","","","","","","","","","","","","","","","","","","","","",""
"3054.5","","image-slider-response","110","533854","0.0-109.0","A3PQVDFT21IISU","","","","","-45","","","","","","","","","","","","","","","","","","","","","",""
"2382","","image-button-response","111","538871","0.0-110.0","A3PQVDFT21IISU","img_art/2.jpg","0","","","","","","","","","","","","","","","","","","","","","","","","",""
"605","","image-button-response","112","539479","0.0-111.0","A3PQVDFT21IISU","img_art/2.jpg","0","","","","","","","","","","","","","","","","","","","","","","","","",""
"7411","","image-button-response","113","546891","0.0-112.0-0.0","A3PQVDFT21IISU","img_art/2.jpg","5","","","","","","","","","","","","","","","","","","","","","","","","",""
"1837","","image-button-response","114","548730","0.0-113.0-0.0","A3PQVDFT21IISU","img_art/2.jpg","2","","","","","","","","","","","","","","","","","","","","","","","","",""
"null","","html-keyboard-response","115","549732","0.0-114.0","A3PQVDFT21IISU","<p style=""font-size: 48px;"">+</p>","","","","","null","allTrialResponses","1000","1","10","img_art/2.jpg","-45","messy and childish","Brooke,Emma,Claire,Caroline,Michelle,Leslie","Ugly version of that park painting.,-31,60,20","Don't love the colors,-30,60,20","too blocky and don't like color combination,-32,260,20","Colors are drab and cause a sense of blandness,-28,100,20","Don't like the puke green color and also too abstact,-14,280,20","The colors are entirely unappealing and very unpleasant to look at.,-20,380,20","Brooke","Ugly version of that park painting.,-31,60,20","Leslie","The colors are entirely unappealing and very unpleasant to look at.,-20,380,20","Claire","too blocky and don't like color combination,-32,260,20","2"
"3864","","survey-text","116","553618","0.0-115.0-0.0","A3PQVDFT21IISU","","","","{""Q0"":""our""}","","","","","","","","","","","","","","","","","","","","","","",""
"12774","","survey-text","117","566394","0.0-116.0-0.0","A3PQVDFT21IISU","","","","{""Q0"":""bold and busy with that black, like a swarm of bugs!""}","","","","","","","","","","","","","","","","","","","","","","",""
"3094.800000190735","","image-slider-response","118","569490","0.0-117.0","A3PQVDFT21IISU","","","","","-48","","","","","","","","","","","","","","","","","","","","","",""
"4487","","image-button-response","119","574507","0.0-118.0","A3PQVDFT21IISU","img_art/15.jpg","4","","","","","","","","","","","","","","","","","","","","","","","","",""
"555","","image-button-response","120","575066","0.0-119.0","A3PQVDFT21IISU","img_art/15.jpg","4","","","","","","","","","","","","","","","","","","","","","","","","",""
"2423","","image-button-response","121","577491","0.0-120.0-0.0","A3PQVDFT21IISU","img_art/15.jpg","5","","","","","","","","","","","","","","","","","","","","","","","","",""
"8030","","image-button-response","122","585522","0.0-121.0-0.0","A3PQVDFT21IISU","img_art/15.jpg","2","","","","","","","","","","","","","","","","","","","","","","","","",""
"null","","html-keyboard-response","123","586535","0.0-122.0","A3PQVDFT21IISU","<p style=""font-size: 48px;"">+</p>","","","","","null","allTrialResponses","1000","1","11","img_art/15.jpg","-48","bold and busy with that black, like a swarm of bugs!","Brooke,Erika,Claire,Amber,Gabrielle,Leslie","This one reminds me of a postage stamp, but branches and leaves. Kind of fun.,15,60,20","I like the dense patterns and the splashes  of blue,38,100,20","it's alright but a little cluttered,14,260,20","Reminds me of blueberry bushes.,7,200,20","dark and provoking,-50,160,20","This elicits no reaction in me.,0,380,20","Gabrielle","dark and provoking,-50,160,20","Leslie","This elicits no reaction in me.,0,380,20","Claire","it's alright but a little cluttered,14,260,20","2"
"14576","","survey-text","124","601122","0.0-123.0-0.0","A3PQVDFT21IISU","","","","{""Q0"":""not a fan of this art style, bad, muted colors""}","","","","","","","","","","","","","","","","","","","","","","",""
"2246.5999999046326","","image-slider-response","125","603370","0.0-124.0","A3PQVDFT21IISU","","","","","-50","","","","","","","","","","","","","","","","","","","","","",""
"null","","image-button-response","126","608400","0.0-125.0","A3PQVDFT21IISU","img_art/28.jpg","null","","","","","","","","","","","","","","","","","","","","","","","","",""
"1332","","image-button-response","127","609735","0.0-126.0","A3PQVDFT21IISU","img_art/28.jpg","2","","","","","","","","","","","","","","","","","","","","","","","","",""
"2774","","image-button-response","128","612511","0.0-127.0-0.0","A3PQVDFT21IISU","img_art/28.jpg","3","","","","","","","","","","","","","","","","","","","","","","","","",""
"1796","","image-button-response","129","614310","0.0-128.0-0.0","A3PQVDFT21IISU","img_art/28.jpg","4","","","","","","","","","","","","","","","","","","","","","","","","",""
"null","","html-keyboard-response","130","614812","0.0-129.0","A3PQVDFT21IISU","<p style=""font-size: 48px;"">+</p>","","","","","null","allTrialResponses","500","1","12","img_art/28.jpg","-50","not a fan of this art style, bad, muted colors","Jenna,Miranda,Claire,Nicole,Gabrielle,Leslie","looks like humanoid figures in distress. I like it, but makes me slightly uncomfortable,35,360,20","This one looks very dark and seems like it has a lot of depth to it.,31,320,20","not a fan of the colors or strokes used,-27,260,20","The lack of color variance leaves it looking ugly even if I like the brush strokes,-10,20,20","bland coloring but pattern interesting,2,160,20","The darker colors make this unnerving.,40,380,20","Claire","not a fan of the colors or strokes used,-27,260,20","Nicole","The lack of color variance leaves it looking ugly even if I like the brush strokes,-10,20,20","Gabrielle","bland coloring but pattern interesting,2,160,20","2"
"16790","","survey-text","131","631615","0.0-130.0-0.0","A3PQVDFT21IISU","","","","{""Q0"":""looks like realistic microscope images""}","","","","","","","","","","","","","","","","","","","","","","",""
"5550.199999809265","","image-slider-response","132","637167","0.0-131.0","A3PQVDFT21IISU","","","","","5","","","","","","","","","","","","","","","","","","","","","",""
"null","","image-button-response","133","642182","0.0-132.0","A3PQVDFT21IISU","img_art/7.jpg","null","","","","","","","","","","","","","","","","","","","","","","","","",""
"742","","image-button-response","134","642927","0.0-133.0","A3PQVDFT21IISU","img_art/7.jpg","5","","","","","","","","","","","","","","","","","","","","","","","","",""
"3894","","image-button-response","135","646823","0.0-134.0-0.0","A3PQVDFT21IISU","img_art/7.jpg","0","","","","","","","","","","","","","","","","","","","","","","","","",""
"1430","","image-button-response","136","648255","0.0-135.0-0.0","A3PQVDFT21IISU","img_art/7.jpg","2","","","","","","","","","","","","","","","","","","","","","","","","",""
"null","","html-keyboard-response","137","649259","0.0-136.0","A3PQVDFT21IISU","<p style=""font-size: 48px;"">+</p>","","","","","null","allTrialResponses","1000","1","13","img_art/7.jpg","5","looks like realistic microscope images","Kayla,Elizabeth,Claire,Nicole,Gabrielle,Hailey","Dinosaur bones. Death.,-14,180,20","The picture is just random,-8,20,20","reminds me of a cave wall,-21,260,20","Looks like the surface of mars,29,20,20","looks like wallpaper,-6,160,20","hot desert with big rocks.,-19,200,20","Hailey","hot desert with big rocks.,-19,200,20","Kayla","Dinosaur bones. Death.,-14,180,20","Claire","reminds me of a cave wall,-21,260,20","2"
"9224","","survey-text","138","658494","0.0-137.0-0.0","A3PQVDFT21IISU","","","","{""Q0"":""lonely tree in the hot sun""}","","","","","","","","","","","","","","","","","","","","","","",""
"4165.5","","image-slider-response","139","662662","0.0-138.0","A3PQVDFT21IISU","","","","","-5","","","","","","","","","","","","","","","","","","","","","",""
"null","","image-button-response","140","667673","0.0-139.0","A3PQVDFT21IISU","img_art/6.jpg","null","","","","","","","","","","","","","","","","","","","","","","","","",""
"779","","image-button-response","141","668454","0.0-140.0","A3PQVDFT21IISU","img_art/6.jpg","0","","","","","","","","","","","","","","","","","","","","","","","","",""
"3639","","image-button-response","142","672095","0.0-141.0-0.0","A3PQVDFT21IISU","img_art/6.jpg","5","","","","","","","","","","","","","","","","","","","","","","","","",""
"2710","","image-button-response","143","674807","0.0-142.0-0.0","A3PQVDFT21IISU","img_art/6.jpg","3","","","","","","","","","","","","","","","","","","","","","","","","",""
"null","","html-keyboard-response","144","675308","0.0-143.0","A3PQVDFT21IISU","<p style=""font-size: 48px;"">+</p>","","","","","null","allTrialResponses","500","1","14","img_art/6.jpg","-5","lonely tree in the hot sun","Kayla,Lindsey,Claire,Rebecca,Catherine,Hailey","Little birdie in a desert. Seeking better frontiers.,13,180,20","Simple, warm, hopeful.,12,400,20","very minimalistic,22,260,20","??????? fake floating leaf? headless bird,-28,100,20","Looking, searching at the same time being content.,30,160,20","one lonely thing trying to grow,-24,200,20","Kayla","Little birdie in a desert. Seeking better frontiers.,13,180,20","Hailey","one lonely thing trying to grow,-24,200,20","Rebecca","??????? fake floating leaf? headless bird,-28,100,20","2"
"7765","","survey-text","145","683086","0.0-144.0-0.0","A3PQVDFT21IISU","","","","{""Q0"":""gross, busy, city""}","","","","","","","","","","","","","","","","","","","","","","",""
"2926.2000000476837","","image-slider-response","146","686014","0.0-145.0","A3PQVDFT21IISU","","","","","-50","","","","","","","","","","","","","","","","","","","","","",""
"4645","","image-button-response","147","691031","0.0-146.0","A3PQVDFT21IISU","img_art/8.jpg","5","","","","","","","","","","","","","","","","","","","","","","","","",""
"1074","","image-button-response","148","692111","0.0-147.0","A3PQVDFT21IISU","img_art/8.jpg","5","","","","","","","","","","","","","","","","","","","","","","","","",""
"870","","image-button-response","149","692983","0.0-148.0-0.0","A3PQVDFT21IISU","img_art/8.jpg","0","","","","","","","","","","","","","","","","","","","","","","","","",""
"4365","","image-button-response","150","697350","0.0-149.0-0.0","A3PQVDFT21IISU","img_art/8.jpg","2","","","","","","","","","","","","","","","","","","","","","","","","",""
"null","","html-keyboard-response","151","698367","0.0-150.0","A3PQVDFT21IISU","<p style=""font-size: 48px;"">+</p>","","","","","null","allTrialResponses","1000","1","15","img_art/8.jpg","-50","gross, busy, city","Kayla,Katelyn,Makayla,Rebecca,Jessica,Hailey","The faces are kinda freaky.,-17,180,20","I like the definition and the strong lines. It makes me think of someone watching over the world,24,100,20","I see water and structures that resemble Ancient Rome,15,80,20","gives off inception vibes <3,50,100,20","Very cool! I like this piece,9,400,20","cold city controlled by evil gods,-17,200,20","Hailey","cold city controlled by evil gods,-17,200,20","Kayla","The faces are kinda freaky.,-17,180,20","Makayla","I see water and structures that resemble Ancient Rome,15,80,20","2"
"4651","","survey-text","152","703038","0.0-151.0-0.0","A3PQVDFT21IISU","","","","{""Q0"":""course""}","","","","","","","","","","","","","","","","","","","","","","",""
"6911","","survey-text","153","709951","0.0-152.0-0.0","A3PQVDFT21IISU","","","","{""Q0"":""poor teddy!""}","","","","","","","","","","","","","","","","","","","","","","",""
"1821.8000001907349","","image-slider-response","154","711774","0.0-153.0","A3PQVDFT21IISU","","","","","-50","","","","","","","","","","","","","","","","","","","","","",""
"null","","image-button-response","155","716788","0.0-154.0","A3PQVDFT21IISU","img_art/16.jpg","null","","","","","","","","","","","","","","","","","","","","","","","","",""
"1462","","image-button-response","156","718254","0.0-155.0","A3PQVDFT21IISU","img_art/16.jpg","0","","","","","","","","","","","","","","","","","","","","","","","","",""
"2175","","image-button-response","157","720431","0.0-156.0-0.0","A3PQVDFT21IISU","img_art/16.jpg","2","","","","","","","","","","","","","","","","","","","","","","","","",""
"2894","","image-button-response","158","723327","0.0-157.0-0.0","A3PQVDFT21IISU","img_art/16.jpg","4","","","","","","","","","","","","","","","","","","","","","","","","",""
"null","","html-keyboard-response","159","724338","0.0-158.0","A3PQVDFT21IISU","<p style=""font-size: 48px;"">+</p>","","","","","null","allTrialResponses","1000","1","16","img_art/16.jpg","-50","poor teddy!","Kayla,Molly,Makayla,Laura,Leah,Hailey","Looks upsetting. Like it's actually graphic violence but you can't tell.,-24,180,20","It's frightening.,30,340,20","It's a little unsettling,2,80,20","depressing and confrontational,-9,320,20","Know it is a piece relating to children and gun violence. Sad,-30,360,20","cute and warm. i like the bear,15,200,20","Kayla","Looks upsetting. Like it's actually graphic violence but you can't tell.,-24,180,20","Makayla","It's a little unsettling,2,80,20","Leah","Know it is a piece relating to children and gun violence. Sad,-30,360,20","2"
"11048","","survey-text","160","735398","0.0-159.0-0.0","A3PQVDFT21IISU","","","","{""Q0"":""too scratchy and chaotic""}","","","","","","","","","","","","","","","","","","","","","","",""
"2671.5","","image-slider-response","161","738072","0.0-160.0","A3PQVDFT21IISU","","","","","-37","","","","","","","","","","","","","","","","","","","","","",""
"null","","image-button-response","162","743074","0.0-161.0","A3PQVDFT21IISU","img_art/3.jpg","null","","","","","","","","","","","","","","","","","","","","","","","","",""
"2323","","image-button-response","163","745400","0.0-162.0","A3PQVDFT21IISU","img_art/3.jpg","4","","","","","","","","","","","","","","","","","","","","","","","","",""
"758","","image-button-response","164","746159","0.0-163.0-0.0","A3PQVDFT21IISU","img_art/3.jpg","5","","","","","","","","","","","","","","","","","","","","","","","","",""
"590","","image-button-response","165","746752","0.0-164.0-0.0","A3PQVDFT21IISU","img_art/3.jpg","3","","","","","","","","","","","","","","","","","","","","","","","","",""
"null","","html-keyboard-response","166","747754","0.0-165.0","A3PQVDFT21IISU","<p style=""font-size: 48px;"">+</p>","","","","","null","allTrialResponses","1000","1","17","img_art/3.jpg","-37","too scratchy and chaotic","Kayla,Jasmine,Makayla,Briana,Leah,Katie","Really have no idea what I'm looking at.,1,180,20","I don't really have a strong reaction to this one,0,340,20","Looks like blood scribbled on walls,-20,80,20","Sharp peaks look like sharp teeth,-37,400,20","Scratchy scrawly all one color, looks like a mistake,-28,360,20","Messy. Looks like a children's drawing being passed off as expensive art. Too much red.,-50,160,20","Leah","Scratchy scrawly all one color, looks like a mistake,-28,360,20","Katie","Messy. Looks like a children's drawing being passed off as expensive art. Too much red.,-50,160,20","Briana","Sharp peaks look like sharp teeth,-37,400,20","2"
"9032","","survey-text","167","756799","0.0-166.0-0.0","A3PQVDFT21IISU","","","","{""Q0"":""cheap watercolors, looks messy""}","","","","","","","","","","","","","","","","","","","","","","",""
"7326","","image-slider-response","168","764127","0.0-167.0","A3PQVDFT21IISU","","","","","-12","","","","","","","","","","","","","","","","","","","","","",""
"null","","image-button-response","169","769144","0.0-168.0","A3PQVDFT21IISU","img_art/26.jpg","null","","","","","","","","","","","","","","","","","","","","","","","","",""
"492","","image-button-response","170","769639","0.0-169.0","A3PQVDFT21IISU","img_art/26.jpg","0","","","","","","","","","","","","","","","","","","","","","","","","",""
"4295","","image-button-response","171","773935","0.0-170.0-0.0","A3PQVDFT21IISU","img_art/26.jpg","5","","","","","","","","","","","","","","","","","","","","","","","","",""
"3014","","image-button-response","172","776951","0.0-171.0-0.0","A3PQVDFT21IISU","img_art/26.jpg","2","","","","","","","","","","","","","","","","","","","","","","","","",""
"null","","html-keyboard-response","173","777454","0.0-172.0","A3PQVDFT21IISU","<p style=""font-size: 48px;"">+</p>","","","","","null","allTrialResponses","500","1","18","img_art/26.jpg","-12","cheap watercolors, looks messy","Mary,Alyssa,Caitlin,Briana,Leah,Katie","I can tell it's some sort of outdoor scene. It looks very amateurish.,-9,180,20","Its pretty.And a nice use of water colors.,25,160,20","At least it is a bit of scenery.,10,80,20","Another blob on a landscape. A city street?,9,400,20","Really like it, a very nice neighborhood scene to me,42,360,20","Reminds me of watercolor. Muted tones and blurry soft brush strokes. Calm to me.,1,160,20","Mary","I can tell it's some sort of outdoor scene. It looks very amateurish.,-9,180,20","Katie","Reminds me of watercolor. Muted tones and blurry soft brush strokes. Calm to me.,1,160,20","Caitlin","At least it is a bit of scenery.,10,80,20","2"
"7956","","survey-text","174","785423","0.0-173.0-0.0","A3PQVDFT21IISU","","","","{""Q0"":""messy, overworked""}","","","","","","","","","","","","","","","","","","","","","","",""
"2910.600000143051","","image-slider-response","175","788335","0.0-174.0","A3PQVDFT21IISU","","","","","-6","","","","","","","","","","","","","","","","","","","","","",""
"null","","image-button-response","176","793339","0.0-175.0","A3PQVDFT21IISU","img_art/1.jpg","null","","","","","","","","","","","","","","","","","","","","","","","","",""
"3393","","image-button-response","177","796735","0.0-176.0","A3PQVDFT21IISU","img_art/1.jpg","5","","","","","","","","","","","","","","","","","","","","","","","","",""
"3670","","image-button-response","178","800407","0.0-177.0-0.0","A3PQVDFT21IISU","img_art/1.jpg","2","","","","","","","","","","","","","","","","","","","","","","","","",""
"9325","","image-button-response","179","809734","0.0-178.0-0.0","A3PQVDFT21IISU","img_art/1.jpg","0","","","","","","","","","","","","","","","","","","","","","","","","",""
"null","","html-keyboard-response","180","810240","0.0-179.0","A3PQVDFT21IISU","<p style=""font-size: 48px;"">+</p>","","","","","null","allTrialResponses","500","1","19","img_art/1.jpg","-6","messy, overworked","Mary,Kathryn,Caitlin,Heather,Shelby,Katie","This piece feels soft and romantic to me. I do not care for so much orange though.,3,180,20","For some reason this makes me want to go ice skating. It's whimsical and free but also very smooth.,20,140,20","Deja vu. Haven't I seen this one before? Not bad for those living in the backwoods.,10,80,20","the colors are vibrant and beautiful,1,260,20","This one has a pleasent energy,15,240,20","Too messy. Just looks like a mess of dark colors.,-20,160,20","Katie","Too messy. Just looks like a mess of dark colors.,-20,160,20","Caitlin","Deja vu. Haven't I seen this one before? Not bad for those living in the backwoods.,10,80,20","Mary","This piece feels soft and romantic to me. I do not care for so much orange though.,3,180,20","2"
"17022","","survey-text","181","827271","0.0-180.0-0.0","A3PQVDFT21IISU","","","","{""Q0"":""creepy statue of liberty skeleton vibes""}","","","","","","","","","","","","","","","","","","","","","","",""
"2358.2000000476837","","image-slider-response","182","829631","0.0-181.0","A3PQVDFT21IISU","","","","","-3","","","","","","","","","","","","","","","","","","","","","",""
"null","","image-button-response","183","834642","0.0-182.0","A3PQVDFT21IISU","img_art/25.jpg","null","","","","","","","","","","","","","","","","","","","","","","","","",""
"6737","","image-button-response","184","841383","0.0-183.0","A3PQVDFT21IISU","img_art/25.jpg","2","","","","","","","","","","","","","","","","","","","","","","","","",""
"6142","","image-button-response","185","847527","0.0-184.0-0.0","A3PQVDFT21IISU","img_art/25.jpg","5","","","","","","","","","","","","","","","","","","","","","","","","",""
"2629","","image-button-response","186","850159","0.0-185.0-0.0","A3PQVDFT21IISU","img_art/25.jpg","0","","","","","","","","","","","","","","","","","","","","","","","","",""
"null","","html-keyboard-response","187","850674","0.0-186.0","A3PQVDFT21IISU","<p style=""font-size: 48px;"">+</p>","","","","","null","allTrialResponses","500","1","20","img_art/25.jpg","-3","creepy statue of liberty skeleton vibes","Mary,Kelly,Caitlin,Katherine,Ashley,Katie","The artist was daring to create this. Don't love the green and black combo though.,9,180,20","I love the color. I don't know what exactly is going on but I like it.,24,220,20","Wish I was that thin.,-5,80,20","That's pretty awesome. I love the green and black combo, reminds me of one of those cartoon creepy movies,47,120,20","haunting, a lovely impression.,50,320,20","Reminds me of ancient civilization art. I like the aqua color; soothing to me.,1,160,20","Caitlin","Wish I was that thin.,-5,80,20","Katie","Reminds me of ancient civilization art. I like the aqua color; soothing to me.,1,160,20","Mary","The artist was daring to create this. Don't love the green and black combo though.,9,180,20","2"
"3066","","survey-text","188","853766","0.0-187.0-0.0","A3PQVDFT21IISU","","","","{""Q0"":""we""}","","","","","","","","","","","","","","","","","","","","","","",""
"16471","","survey-text","189","870239","0.0-188.0-0.0","A3PQVDFT21IISU","","","","{""Q0"":""conquest, crusade, four horsemen?""}","","","","","","","","","","","","","","","","","","","","","","",""
"4053.7000000476837","","image-slider-response","190","874294","0.0-189.0","A3PQVDFT21IISU","","","","","-22","","","","","","","","","","","","","","","","","","","","","",""
"null","","image-button-response","191","879297","0.0-190.0","A3PQVDFT21IISU","img_art/18.jpg","null","","","","","","","","","","","","","","","","","","","","","","","","",""
"1930","","image-button-response","192","881231","0.0-191.0","A3PQVDFT21IISU","img_art/18.jpg","2","","","","","","","","","","","","","","","","","","","","","","","","",""
"2830","","image-button-response","193","884063","0.0-192.0-0.0","A3PQVDFT21IISU","img_art/18.jpg","5","","","","","","","","","","","","","","","","","","","","","","","","",""
"4454","","image-button-response","194","888519","0.0-193.0-0.0","A3PQVDFT21IISU","img_art/18.jpg","0","","","","","","","","","","","","","","","","","","","","","","","","",""
"null","","html-keyboard-response","195","889521","0.0-194.0","A3PQVDFT21IISU","<p style=""font-size: 48px;"">+</p>","","","","","null","allTrialResponses","1000","1","21","img_art/18.jpg","-22","conquest, crusade, four horsemen?","Mary,Savannah,Caitlin,Kaitlin,Courtney,Katie","I like the expression of this piece. The colors are very outdated though.,-5,180,20","Accents make this piece.,21,200,20","Bad guys are after the good guy.,-10,80,20","I really like this one - there seems to be a story behind it,32,60,20","Pirate ship in stormy seas before it sank.,11,280,20","Looks messy. Reminds me of a battle or war. I have an unpleasant feeling the more I look.,-20,160,20","Caitlin","Bad guys are after the good guy.,-10,80,20","Katie","Looks messy. Reminds me of a battle or war. I have an unpleasant feeling the more I look.,-20,160,20","Mary","I like the expression of this piece. The colors are very outdated though.,-5,180,20","2"
"15071","","survey-text","196","904606","0.0-195.0-0.0","A3PQVDFT21IISU","","","","{""Q0"":""gross, gray, smog, I HATE freeways!""}","","","","","","","","","","","","","","","","","","","","","","",""
"2654.5","","image-slider-response","197","907262","0.0-196.0","A3PQVDFT21IISU","","","","","-50","","","","","","","","","","","","","","","","","","","","","",""
"null","","image-button-response","198","912268","0.0-197.0","A3PQVDFT21IISU","img_art/11.jpg","null","","","","","","","","","","","","","","","","","","","","","","","","",""
"744","","image-button-response","199","913015","0.0-198.0","A3PQVDFT21IISU","img_art/11.jpg","5","","","","","","","","","","","","","","","","","","","","","","","","",""
"1719","","image-button-response","200","914736","0.0-199.0-0.0","A3PQVDFT21IISU","img_art/11.jpg","0","","","","","","","","","","","","","","","","","","","","","","","","",""
"1350","","image-button-response","201","916088","0.0-200.0-0.0","A3PQVDFT21IISU","img_art/11.jpg","2","","","","","","","","","","","","","","","","","","","","","","","","",""
"null","","html-keyboard-response","202","916590","0.0-201.0","A3PQVDFT21IISU","<p style=""font-size: 48px;"">+</p>","","","","","null","allTrialResponses","500","1","22","img_art/11.jpg","-50","gross, gray, smog, I HATE freeways!","Mary,Natalie,Caitlin,Victoria,Haley,Katie","I don't care for the color combo. The wavy lines give dimension though.,-13,180,20","pic looks alright,8,400,20","Busy, busy oceanside city.,-10,80,20","reminds me of a rainy day in the city,32,400,20","Lovely. I could look at this for a really long time. I love the details and the composition.,40,220,20","Dark and dreary. Makes me think of rain/water. I see grey clouds and high waves. Looks unsettling.,-20,160,20","Katie","Dark and dreary. Makes me think of rain/water. I see grey clouds and high waves. Looks unsettling.,-20,160,20","Mary","I don't care for the color combo. The wavy lines give dimension though.,-13,180,20","Caitlin","Busy, busy oceanside city.,-10,80,20","2"
"8515","","survey-text","203","925127","0.0-202.0-0.0","A3PQVDFT21IISU","","","","{""Q0"":""desert wasteland""}","","","","","","","","","","","","","","","","","","","","","","",""
"3278.4000000953674","","image-slider-response","204","928407","0.0-203.0","A3PQVDFT21IISU","","","","","10","","","","","","","","","","","","","","","","","","","","","",""
"null","","image-button-response","205","933410","0.0-204.0","A3PQVDFT21IISU","img_art/20.jpg","null","","","","","","","","","","","","","","","","","","","","","","","","",""
"1007","","image-button-response","206","934423","0.0-205.0","A3PQVDFT21IISU","img_art/20.jpg","2","","","","","","","","","","","","","","","","","","","","","","","","",""
"3358","","image-button-response","207","937783","0.0-206.0-0.0","A3PQVDFT21IISU","img_art/20.jpg","4","","","","","","","","","","","","","","","","","","","","","","","","",""
"1663","","image-button-response","208","939447","0.0-207.0-0.0","A3PQVDFT21IISU","img_art/20.jpg","1","","","","","","","","","","","","","","","","","","","","","","","","",""
"null","","html-keyboard-response","209","939950","0.0-208.0","A3PQVDFT21IISU","<p style=""font-size: 48px;"">+</p>","","","","","null","allTrialResponses","500","1","23","img_art/20.jpg","10","desert wasteland","Mary,Madison,Caitlin,Kaylee,Sarah,Katie","I can tell this artist has experience. I just don't care for the color combo.,7,180,20","This is not abstract art, it is representative.,0,60,20","Not bad for all the southwestern people.,15,80,20","i can see a car crash,13,200,20","i ind of like this, it's saying something but not my style,6,180,20","I don't like it. Dark sky and black figures. White objects remind me of bones.,-30,160,20","Caitlin","Not bad for all the southwestern people.,15,80,20","Sarah","i ind of like this, it's saying something but not my style,6,180,20","Madison","This is not abstract art, it is representative.,0,60,20","2"
"12569","","survey-text","210","952544","0.0-209.0-0.0","A3PQVDFT21IISU","","","","{""Q0"":""structures on the bottom, free on the top""}","","","","","","","","","","","","","","","","","","","","","","",""
"1757.7999999523163","","image-slider-response","211","954303","0.0-210.0","A3PQVDFT21IISU","","","","","-2","","","","","","","","","","","","","","","","","","","","","",""
"null","","image-button-response","212","959307","0.0-211.0","A3PQVDFT21IISU","img_art/17.jpg","null","","","","","","","","","","","","","","","","","","","","","","","","",""
"666","","image-button-response","213","959976","0.0-212.0","A3PQVDFT21IISU","img_art/17.jpg","5","","","","","","","","","","","","","","","","","","","","","","","","",""
"1518","","image-button-response","214","961495","0.0-213.0-0.0","A3PQVDFT21IISU","img_art/17.jpg","1","","","","","","","","","","","","","","","","","","","","","","","","",""
"2750","","image-button-response","215","964248","0.0-214.0-0.0","A3PQVDFT21IISU","img_art/17.jpg","2","","","","","","","","","","","","","","","","","","","","","","","","",""
"null","","html-keyboard-response","216","965750","0.0-215.0","A3PQVDFT21IISU","<p style=""font-size: 48px;"">+</p>","","","","","null","allTrialResponses","1500","1","24","img_art/17.jpg","-2","structures on the bottom, free on the top","Sophia,Madison,Caitlin,Cynthia,Sarah,Jacqueline","It kind of pulls you in to float away with it.,9,280,20","No strong reaction. Beautiful design, but hue appears taciturn. Bad photograph?,1,60,20","Somewhat should trim the tree branches at the shopping mall.,10,80,20","battle between nature and man,31,320,20","i like the delicate wispy part, but overall i don't love it,10,180,20","It's okay, I just don't see much too it.,7,300,20","Jacqueline","It's okay, I just don't see much too it.,7,300,20","Madison","No strong reaction. Beautiful design, but hue appears taciturn. Bad photograph?,1,60,20","Caitlin","Somewhat should trim the tree branches at the shopping mall.,10,80,20","2"
"15006","","survey-text","217","980784","0.0-216.0-0.0","A3PQVDFT21IISU","","","","{""Q0"":""messy, terrible poop color""}","","","","","","","","","","","","","","","","","","","","","","",""
"4718.099999904633","","image-slider-response","218","985503","0.0-217.0","A3PQVDFT21IISU","","","","","-45","","","","","","","","","","","","","","","","","","","","","",""
"null","","image-button-response","219","990512","0.0-218.0","A3PQVDFT21IISU","img_art/4.jpg","null","","","","","","","","","","","","","","","","","","","","","","","","",""
"7797","","image-button-response","220","998312","0.0-219.0","A3PQVDFT21IISU","img_art/4.jpg","3","","","","","","","","","","","","","","","","","","","","","","","","",""
"1836","","image-button-response","221","1000152","0.0-220.0-0.0","A3PQVDFT21IISU","img_art/4.jpg","5","","","","","","","","","","","","","","","","","","","","","","","","",""
"3078","","image-button-response","222","1003231","0.0-221.0-0.0","A3PQVDFT21IISU","img_art/4.jpg","0","","","","","","","","","","","","","","","","","","","","","","","","",""
"null","","html-keyboard-response","223","1003734","0.0-222.0","A3PQVDFT21IISU","<p style=""font-size: 48px;"">+</p>","","","","","null","allTrialResponses","500","1","25","img_art/4.jpg","-45","messy, terrible poop color","Anna,Madison,Caitlin,Alicia,Lauren,Jacqueline","It doesn't make me feel anything it just looks like a kid did it.,-30,300,20","This is what makes suburban dads say, ""my 4-year-old can do that."",-49,60,20","They give out trophies now for fighting with brass knuckles?,-20,80,20","ordinary, bland. unmoving.,-6,120,20","I like the design. It can be interpreted in various ways, such as a hand of horror or still piece.,15,340,20","It looks like smeared poop.,-27,300,20","Alicia","ordinary, bland. unmoving.,-6,120,20","Jacqueline","It looks like smeared poop.,-27,300,20","Anna","It doesn't make me feel anything it just looks like a kid did it.,-30,300,20","2"
"3604","","survey-text","224","1007367","0.0-223.0-0.0","A3PQVDFT21IISU","","","","{""Q0"":""table""}","","","","","","","","","","","","","","","","","","","","","","",""
"11591","","survey-text","225","1018959","0.0-224.0-0.0","A3PQVDFT21IISU","","","","{""Q0"":""had potential, nice reds and blues""}","","","","","","","","","","","","","","","","","","","","","","",""
"2078.5","","image-slider-response","226","1021040","0.0-225.0","A3PQVDFT21IISU","","","","","2","","","","","","","","","","","","","","","","","","","","","",""
"null","","image-button-response","227","1026049","0.0-226.0","A3PQVDFT21IISU","img_art/22.jpg","null","","","","","","","","","","","","","","","","","","","","","","","","",""
"963","","image-button-response","228","1027015","0.0-227.0","A3PQVDFT21IISU","img_art/22.jpg","5","","","","","","","","","","","","","","","","","","","","","","","","",""
"1575","","image-button-response","229","1028591","0.0-228.0-0.0","A3PQVDFT21IISU","img_art/22.jpg","0","","","","","","","","","","","","","","","","","","","","","","","","",""
"4757","","image-button-response","230","1033351","0.0-229.0-0.0","A3PQVDFT21IISU","img_art/22.jpg","1","","","","","","","","","","","","","","","","","","","","","","","","",""
"null","","html-keyboard-response","231","1033853","0.0-230.0","A3PQVDFT21IISU","<p style=""font-size: 48px;"">+</p>","","","","","null","allTrialResponses","500","1","26","img_art/22.jpg","2","had potential, nice reds and blues","Anna,Kylie,Michaela,Alicia,Sara,Jacqueline","Boring, typical abstract art,-30,300,20","Climate change in a big city,35,300,20","I like the use of primary colors in an interesting way,29,260,20","Could be interpreted so many ways, bold. I like it.,29,120,20","Looks like a warm sunset to me i like it,42,160,20","I feel like I've seen this one already.,-9,300,20","Jacqueline","I feel like I've seen this one already.,-9,300,20","Anna","Boring, typical abstract art,-30,300,20","Kylie","Climate change in a big city,35,300,20","2"
"9122","","survey-text","232","1042991","0.0-231.0-0.0","A3PQVDFT21IISU","","","","{""Q0"":""yes to the red x, this is bad""}","","","","","","","","","","","","","","","","","","","","","","",""
"2790.600000143051","","image-slider-response","233","1045783","0.0-232.0","A3PQVDFT21IISU","","","","","-50","","","","","","","","","","","","","","","","","","","","","",""
"null","","image-button-response","234","1050798","0.0-233.0","A3PQVDFT21IISU","img_art/29.jpg","null","","","","","","","","","","","","","","","","","","","","","","","","",""
"828","","image-button-response","235","1051631","0.0-234.0","A3PQVDFT21IISU","img_art/29.jpg","4","","","","","","","","","","","","","","","","","","","","","","","","",""
"495","","image-button-response","236","1052128","0.0-235.0-0.0","A3PQVDFT21IISU","img_art/29.jpg","5","","","","","","","","","","","","","","","","","","","","","","","","",""
"4901","","image-button-response","237","1057031","0.0-236.0-0.0","A3PQVDFT21IISU","img_art/29.jpg","2","","","","","","","","","","","","","","","","","","","","","","","","",""
"null","","html-keyboard-response","238","1058034","0.0-237.0","A3PQVDFT21IISU","<p style=""font-size: 48px;"">+</p>","","","","","null","allTrialResponses","1000","1","27","img_art/29.jpg","-50","yes to the red x, this is bad","Anna,Kylie,Hannah,Cheyenne,Alexandria,Jacqueline","I like the texture and colors and how it makes me feel. I like how it's different from other abstract art.,45,300,20","Reminds me of graffitti gone wrong,15,300,20","I don't like the red X through it.,-20,240,20","Really enjoy everything about this one.,50,200,20","it is difficult to look at but you can't look away,-25,80,20","This is ugly as fuck,-50,300,20","Alexandria","it is difficult to look at but you can't look away,-25,80,20","Jacqueline","This is ugly as fuck,-50,300,20","Hannah","I don't like the red X through it.,-20,240,20","2"
"9156","","survey-text","239","1067207","0.0-238.0-0.0","A3PQVDFT21IISU","","","","{""Q0"":""why the red?""}","","","","","","","","","","","","","","","","","","","","","","",""
"3942.7000000476837","","image-slider-response","240","1071151","0.0-239.0","A3PQVDFT21IISU","","","","","-41","","","","","","","","","","","","","","","","","","","","","",""
"null","","image-button-response","241","1076162","0.0-240.0","A3PQVDFT21IISU","img_art/30.jpg","null","","","","","","","","","","","","","","","","","","","","","","","","",""
"561","","image-button-response","242","1076728","0.0-241.0","A3PQVDFT21IISU","img_art/30.jpg","1","","","","","","","","","","","","","","","","","","","","","","","","",""
"710","","image-button-response","243","1077440","0.0-242.0-0.0","A3PQVDFT21IISU","img_art/30.jpg","5","","","","","","","","","","","","","","","","","","","","","","","","",""
"653","","image-button-response","244","1078095","0.0-243.0-0.0","A3PQVDFT21IISU","img_art/30.jpg","3","","","","","","","","","","","","","","","","","","","","","","","","",""
"null","","html-keyboard-response","245","1079097","0.0-244.0","A3PQVDFT21IISU","<p style=""font-size: 48px;"">+</p>","","","","","null","allTrialResponses","1000","1","28","img_art/30.jpg","-41","why the red?","Mikayla,Angela,Hannah,Shannon,Alexandria,Jacqueline","Very colorful! Wow!,22,300,20","Really don't like this piece. It feels very lazy to me.,-31,260,20","It's just all right.,5,240,20","I feel like the colors are too repetitive and not very eyecatching.,-20,220,20","the lines and colors look purposeful,18,80,20","Too dark and ugly with all the black smears,-20,300,20","Angela","Really don't like this piece. It feels very lazy to me.,-31,260,20","Jacqueline","Too dark and ugly with all the black smears,-20,300,20","Shannon","I feel like the colors are too repetitive and not very eyecatching.,-20,220,20","2"
"10897","","survey-text","246","1090000","0.0-245.0-0.0","A3PQVDFT21IISU","","","","{""Q0"":""shipwreck? under the sea""}","","","","","","","","","","","","","","","","","","","","","","",""
"2261.5999999046326","","image-slider-response","247","1092263","0.0-246.0","A3PQVDFT21IISU","","","","","3","","","","","","","","","","","","","","","","","","","","","",""
"null","","image-button-response","248","1097432","0.0-247.0","A3PQVDFT21IISU","img_art/14.jpg","null","","","","","","","","","","","","","","","","","","","","","","","","",""
"6258","","image-button-response","249","1103696","0.0-248.0","A3PQVDFT21IISU","img_art/14.jpg","5","","","","","","","","","","","","","","","","","","","","","","","","",""
"5510","","image-button-response","250","1109208","0.0-249.0-0.0","A3PQVDFT21IISU","img_art/14.jpg","1","","","","","","","","","","","","","","","","","","","","","","","","",""
"502","","image-button-response","251","1109712","0.0-250.0-0.0","A3PQVDFT21IISU","img_art/14.jpg","0","","","","","","","","","","","","","","","","","","","","","","","","",""
"null","","html-keyboard-response","252","1110214","0.0-251.0","A3PQVDFT21IISU","<p style=""font-size: 48px;"">+</p>","","","","","null","allTrialResponses","500","1","29","img_art/14.jpg","3","shipwreck? under the sea","Allison,Angela,Rachel,Shannon,Taylor,Jacqueline","Very abstract. Unsure of what I'm looking at. No emotions towards it.,-6,140,20","I like the colors and the shapes are interesting,11,260,20","Did not evoke much feeling except confusion. I am not sure what to make of this one.,-20,80,20","I like this picture because it looks like a tree and the colors used look cool.,20,220,20","Makes me think of my plants growing,11,340,20","It kind of looks like a tree but I feel very netural.,0,300,20","Jacqueline","It kind of looks like a tree but I feel very netural.,0,300,20","Angela","I like the colors and the shapes are interesting,11,260,20","Allison","Very abstract. Unsure of what I'm looking at. No emotions towards it.,-6,140,20","2"
"16272","","survey-text","253","1126512","0.0-252.0-0.0","A3PQVDFT21IISU","","","","{""Q0"":""volcanic clouds, with toddler green drawings?""}","","","","","","","","","","","","","","","","","","","","","","",""
"2022.2000000476837","","image-slider-response","254","1128536","0.0-253.0","A3PQVDFT21IISU","","","","","-50","","","","","","","","","","","","","","","","","","","","","",""
"null","","image-button-response","255","1133543","0.0-254.0","A3PQVDFT21IISU","img_art/27.jpg","null","","","","","","","","","","","","","","","","","","","","","","","","",""
"2365","","image-button-response","256","1135912","0.0-255.0","A3PQVDFT21IISU","img_art/27.jpg","2","","","","","","","","","","","","","","","","","","","","","","","","",""
"815","","image-button-response","257","1136728","0.0-256.0-0.0","A3PQVDFT21IISU","img_art/27.jpg","3","","","","","","","","","","","","","","","","","","","","","","","","",""
"1758","","image-button-response","258","1138488","0.0-257.0-0.0","A3PQVDFT21IISU","img_art/27.jpg","5","","","","","","","","","","","","","","","","","","","","","","","","",""
"null","","html-keyboard-response","259","1139992","0.0-258.0","A3PQVDFT21IISU","<p style=""font-size: 48px;"">+</p>","","","","","null","allTrialResponses","1500","1","30","img_art/27.jpg","-50","volcanic clouds, with toddler green drawings?","Allison,Angela,Madeline,Erin,Stephanie,Jacqueline","Warn colors are pretty, but too blotchy for me.,3,140,20","It's okay. Not really interesting to me.,-10,260,20","Looks like the green bits were added on later,-1,40,20","Looks like someone vandalized the original piece with a marker,-36,120,20","The black sketchy over the colors doesn't fit.,-4,300,20","I don't really see anything to this art.,-5,300,20","Madeline","Looks like the green bits were added on later,-1,40,20","Erin","Looks like someone vandalized the original piece with a marker,-36,120,20","Jacqueline","I don't really see anything to this art.,-5,300,20","2"
"4368","","image-button-response_instructions","260","1144376","0.0-259.0","A3PQVDFT21IISU","","0","instructions","","","","","","","","","","","","","","","","","","","","","","","",""
"1131","","image-button-response","261","1145513","0.0-260.0","A3PQVDFT21IISU","","0","","","","","","","","","","","","","","","","","","","","","","","","",""
