"rt","url","trial_type","trial_index","time_elapsed","internal_node_id","participant_id","stimulus","button_pressed","Name","responses","response","key_press","variableName","fixationTime","condition","trial","photo","subjectRating","subjectResponse","agentsNames","agent_1_Response","agent_2_Response","agent_3_Response","agent_4_Response","agent_5_Response","agent_6_Response","kept_1_name","kept_1_response","kept_2_name","kept_2_response","kept_3_name","kept_3_response","errorCounter"
"5452","external_page_harvard.html","external-html","0","5647","0.0-0.0","A3Q5HJTL6IKV27","","","","","","","","","","","","","","","","","","","","","","","","","","",""
"1129","","image-button-response","1","6778","0.0-1.0","A3Q5HJTL6IKV27","","0","","","","","","","","","","","","","","","","","","","","","","","","",""
"1216","","image-button-response","2","8000","0.0-2.0-0.0","A3Q5HJTL6IKV27","","1","phone","","","","","","","","","","","","","","","","","","","","","","","",""
"15944","","survey-text","3","23946","0.0-3.0-0.0","A3Q5HJTL6IKV27","","","","{""Q0"":""A3Q5HJTL6IKV27""}","","","","","","","","","","","","","","","","","","","","","","",""
"18896","","image-button-response_instructions","4","42845","0.0-4.0","A3Q5HJTL6IKV27","","0","instructions","","","","","","","","","","","","","","","","","","","","","","","",""
"15023","","image-button-response_instructions","5","57870","0.0-5.0","A3Q5HJTL6IKV27","img_art/ins/popularity/ins1.png","0","instructions","","","","","","","","","","","","","","","","","","","","","","","",""
"2415","","image-button-response_instructions","6","60287","0.0-6.0","A3Q5HJTL6IKV27","img_art/ins/popularity/ins2.png","0","instructions","","","","","","","","","","","","","","","","","","","","","","","",""
"2069","","image-button-response_instructions","7","62358","0.0-7.0","A3Q5HJTL6IKV27","img_art/ins/popularity/ins2Extreme.png","0","instructions","","","","","","","","","","","","","","","","","","","","","","","",""
"28858","","image-button-response_instructions","8","91218","0.0-8.0","A3Q5HJTL6IKV27","img_art/ins/popularity/ins3KEEPpop.PNG","0","instructions","","","","","","","","","","","","","","","","","","","","","","","",""
"1419","","image-button-response_instructions","9","92639","0.0-9.0","A3Q5HJTL6IKV27","img_art/ins/popularity/ins3ANamepop.PNG","0","instructions","","","","","","","","","","","","","","","","","","","","","","","",""
"2262","","image-button-response_instructions","10","94903","0.0-10.0","A3Q5HJTL6IKV27","img_art/ins/popularity/ins3ARatingpop.png","0","instructions","","","","","","","","","","","","","","","","","","","","","","","",""
"1034","","image-button-response_instructions","11","95940","0.0-11.0","A3Q5HJTL6IKV27","img_art/ins/popularity/ins3ATextpop.png","0","instructions","","","","","","","","","","","","","","","","","","","","","","","",""
"13020","","image-button-response_instructions","12","108961","0.0-12.0","A3Q5HJTL6IKV27","img_art/ins/popularity/ins3ALikespop.png","0","instructions","","","","","","","","","","","","","","","","","","","","","","","",""
"6474","","image-button-response_instructions","13","115435","0.0-13.0","A3Q5HJTL6IKV27","img_art/ins/popularity/ins3KEEPpop.PNG","0","instructions","","","","","","","","","","","","","","","","","","","","","","","",""
"7194","","image-button-response_instructions","14","122631","0.0-14.0","A3Q5HJTL6IKV27","img_art/ins/popularity/ins3_5RED.png","0","instructions","","","","","","","","","","","","","","","","","","","","","","","",""
"2760","","image-button-response_instructions","15","125392","0.0-15.0","A3Q5HJTL6IKV27","img_art/ins/popularity/ins3KEEPpop.PNG","0","instructions","","","","","","","","","","","","","","","","","","","","","","","",""
"5207","","image-button-response_instructions","16","130599","0.0-16.0","A3Q5HJTL6IKV27","img_art/ins/popularity/ins4KEEPpop.PNG","0","instructions","","","","","","","","","","","","","","","","","","","","","","","",""
"2092","","image-button-response_instructions","17","132693","0.0-17.0","A3Q5HJTL6IKV27","img_art/ins/popularity/ins5KEEPpop.PNG","0","instructions","","","","","","","","","","","","","","","","","","","","","","","",""
"1251","","image-button-response_instructions","18","133945","0.0-18.0","A3Q5HJTL6IKV27","","0","instructions","","","","","","","","","","","","","","","","","","","","","","","",""
"9684","","survey-text","19","143662","0.0-19.0-0.0","A3Q5HJTL6IKV27","","","","{""Q0"":""but""}","","","","","","","","","","","","","","","","","","","","","","",""
"8340","","survey-text","20","152003","0.0-20.0-0.0","A3Q5HJTL6IKV27","","","","{""Q0"":""it looks like blurred chaos""}","","","","","","","","","","","","","","","","","","","","","","",""
"2585.5","","image-slider-response","21","154593","0.0-21.0","A3Q5HJTL6IKV27","","","","","12","","","","","","","","","","","","","","","","","","","","","",""
"null","","image-button-response","22","159600","0.0-22.0","A3Q5HJTL6IKV27","img_art/ins/1.jpg","null","","","","","","","","","","","","","","","","","","","","","","","","",""
"962","","image-button-response","23","160565","0.0-23.0","A3Q5HJTL6IKV27","img_art/ins/1.jpg","3","","","","","","","","","","","","","","","","","","","","","","","","",""
"16708","","image-button-response","24","177276","0.0-24.0-0.0","A3Q5HJTL6IKV27","img_art/ins/1.jpg","2","","","","","","","","","","","","","","","","","","","","","","","","",""
"4208","","image-button-response","25","181490","0.0-25.0-0.0","A3Q5HJTL6IKV27","img_art/ins/1.jpg","5","","","","","","","","","","","","","","","","","","","","","","","","",""
"null","","html-keyboard-response","26","182000","0.0-26.0","A3Q5HJTL6IKV27","<p style=""font-size: 48px;"">+</p>","","","","","null","allTrialResponses","500","1","-2","img_art/ins/1.jpg","12","it looks like blurred chaos","Adam,Alex,Ben,Carl,Daniel,Jack","Seems like doodles,-20,20,20","very creative work.,36,40,20","This color reminds me of poo,-46,60,20","very calming artwork,42,80,20","It looks like a murder scene.,-48,100,20","I like the sophisticated brushwork,40,120,20","Carl","very calming artwork,42,80,20","Ben","This color reminds me of poo,-46,60,20","Jack","I like the sophisticated brushwork,40,120,20","0"
"8100","","survey-text","27","190121","0.0-27.0-0.0","A3Q5HJTL6IKV27","","","","{""Q0"":""It looks like blood in water""}","","","","","","","","","","","","","","","","","","","","","","",""
"2335.5999999940395","","image-slider-response","28","192460","0.0-28.0","A3Q5HJTL6IKV27","","","","","-6","","","","","","","","","","","","","","","","","","","","","",""
"null","","image-button-response","29","197465","0.0-29.0","A3Q5HJTL6IKV27","img_art/ins/2.jpg","null","","","","","","","","","","","","","","","","","","","","","","","","",""
"8290","","image-button-response","30","205759","0.0-30.0","A3Q5HJTL6IKV27","img_art/ins/2.jpg","1","","","","","","","","","","","","","","","","","","","","","","","","",""
"983","","image-button-response","31","206746","0.0-31.0-0.0","A3Q5HJTL6IKV27","img_art/ins/2.jpg","4","","","","","","","","","","","","","","","","","","","","","","","","",""
"1486","","image-button-response","32","208237","0.0-32.0-0.0","A3Q5HJTL6IKV27","img_art/ins/2.jpg","5","","","","","","","","","","","","","","","","","","","","","","","","",""
"null","","html-keyboard-response","33","209239","0.0-33.0","A3Q5HJTL6IKV27","<p style=""font-size: 48px;"">+</p>","","","","","null","allTrialResponses","1000","1","-1","img_art/ins/2.jpg","-6","It looks like blood in water","Kyle,James,Ben,Carl,John,Jack","Idk, it is just annoying,-32,180,20","looks too angry,-50,140,20","meaningless painting,-45,60,20","I can feel the artist's passion in it,45,80,20","love the texture of paint,48,160,20","I would never be able to compose a sophisticated pallete like this,48,120,20","James","looks too angry,-50,140,20","John","love the texture of paint,48,160,20","Jack","I would never be able to compose a sophisticated pallete like this,48,120,20","0"
"10854","","survey-text","34","220099","0.0-34.0-0.0","A3Q5HJTL6IKV27","","","","{""Q0"":""This looks like ocean markings""}","","","","","","","","","","","","","","","","","","","","","","",""
"1579","","image-slider-response","35","221680","0.0-35.0","A3Q5HJTL6IKV27","","","","","31","","","","","","","","","","","","","","","","","","","","","",""
"null","","image-button-response","36","226687","0.0-36.0","A3Q5HJTL6IKV27","img_art/ins/3.jpg","null","","","","","","","","","","","","","","","","","","","","","","","","",""
"5970","","image-button-response","37","232662","0.0-37.0","A3Q5HJTL6IKV27","img_art/ins/3.jpg","3","","","","","","","","","","","","","","","","","","","","","","","","",""
"1510","","image-button-response","38","234177","0.0-38.0-0.0","A3Q5HJTL6IKV27","img_art/ins/3.jpg","3","","","","","","","","","","","","","","","","","","","","","","","","",""
"945","","image-button-response","39","240482","0.0-38.1-0.1","A3Q5HJTL6IKV27","img_art/ins/3.jpg","4","","","","","","","","","","","","","","","","","","","","","","","","",""
"1828","","image-button-response","40","242312","0.0-39.0-0.0","A3Q5HJTL6IKV27","img_art/ins/3.jpg","0","","","","","","","","","","","","","","","","","","","","","","","","",""
"null","","html-keyboard-response","41","243313","0.0-40.0","A3Q5HJTL6IKV27","<p style=""font-size: 48px;"">+</p>","","","","","null","allTrialResponses","1000","1","0","img_art/ins/3.jpg","31","This looks like ocean markings","Sam,James,Ron,Mike,John,Jack","I can feel a rainy day from this painting,18,240,20","My worst nightmare,-42,140,20","It looks depressing,-26,220,20","enjoy the different shades of blue,22,200,20","I like the overlapping of brushes,41,160,20","I feel connected to the artist,40,120,20","Mike","enjoy the different shades of blue,22,200,20","John","I like the overlapping of brushes,41,160,20","Sam","I can feel a rainy day from this painting,18,240,20","2"
"6192","","image-button-response_instructions","42","249514","0.0-41.0","A3Q5HJTL6IKV27","","0","instructions","","","","","","","","","","","","","","","","","","","","","","","",""
"12207","","survey-likert","43","261724","0.0-42.0-0.0","A3Q5HJTL6IKV27","","","","{""Q0"":"""",""Q1"":0,""Q2"":1}","","","","","","","","","","","","","","","","","","","","","","",""
"4565","","survey-text","44","266302","0.0-43.0-0.0","A3Q5HJTL6IKV27","","","","{""Q0"":""rock""}","","","","","","","","","","","","","","","","","","","","","","",""
"10235","","survey-text","45","276538","0.0-44.0-0.0","A3Q5HJTL6IKV27","","","","{""Q0"":""Looks like a tree wig""}","","","","","","","","","","","","","","","","","","","","","","",""
"1992.9000000059605","","image-slider-response","46","278533","0.0-45.0","A3Q5HJTL6IKV27","","","","","-11","","","","","","","","","","","","","","","","","","","","","",""
"null","","image-button-response","47","283564","0.0-46.0","A3Q5HJTL6IKV27","img_art/17.jpg","null","","","","","","","","","","","","","","","","","","","","","","","","",""
"3750","","image-button-response","48","287318","0.0-47.0","A3Q5HJTL6IKV27","img_art/17.jpg","5","","","","","","","","","","","","","","","","","","","","","","","","",""
"7110","","image-button-response","49","294433","0.0-48.0-0.0","A3Q5HJTL6IKV27","img_art/17.jpg","2","","","","","","","","","","","","","","","","","","","","","","","","",""
"263","","image-button-response","50","294700","0.0-49.0-0.0","A3Q5HJTL6IKV27","img_art/17.jpg","1","","","","","","","","","","","","","","","","","","","","","","","","",""
"null","","html-keyboard-response","51","295706","0.0-50.0","A3Q5HJTL6IKV27","<p style=""font-size: 48px;"">+</p>","","","","","null","allTrialResponses","1000","1","1","img_art/17.jpg","-11","Looks like a tree wig","Logan,Dalton,Corey,Lucas,Gabriel,Kenneth","similar to last one, still pretty cool but I liked arrangement of last one better,13,360,20","Beautiful simply beautiful. i would love this,,50,300,20","gentle watercolor vibes,12,260,20","Wow, I haven't seen anything better than this.,40,380,20","this ones alright,10,160,20","I really like this, especially the tree.,23,300,20","Kenneth","I really like this, especially the tree.,23,300,20","Corey","gentle watercolor vibes,12,260,20","Dalton","Beautiful simply beautiful. i would love this,,50,300,20","2"
"15884","","survey-text","52","311603","0.0-51.0-0.0","A3Q5HJTL6IKV27","","","","{""Q0"":""A music city in action""}","","","","","","","","","","","","","","","","","","","","","","",""
"1668.5999999940395","","image-slider-response","53","313274","0.0-52.0","A3Q5HJTL6IKV27","","","","","32","","","","","","","","","","","","","","","","","","","","","",""
"4129","","image-button-response","54","318277","0.0-53.0","A3Q5HJTL6IKV27","img_art/11.jpg","5","","","","","","","","","","","","","","","","","","","","","","","","",""
"6949","","image-button-response","55","325227","0.0-54.0","A3Q5HJTL6IKV27","img_art/11.jpg","1","","","","","","","","","","","","","","","","","","","","","","","","",""
"3296","","image-button-response","56","328526","0.0-55.0-0.0","A3Q5HJTL6IKV27","img_art/11.jpg","5","","","","","","","","","","","","","","","","","","","","","","","","",""
"1552","","image-button-response","57","330080","0.0-56.0-0.0","A3Q5HJTL6IKV27","img_art/11.jpg","4","","","","","","","","","","","","","","","","","","","","","","","","",""
"null","","html-keyboard-response","58","331586","0.0-57.0","A3Q5HJTL6IKV27","<p style=""font-size: 48px;"">+</p>","","","","","null","allTrialResponses","1500","1","2","img_art/11.jpg","32","A music city in action","Andrew,Dalton,Corey,Carlos,Benjamin,Kenneth","It's a really cool painting, but it reminds me of bad traffic,-20,160,20","looks like highways and homes and lives intertwining.,27,300,20","dont like the colors. Its a gloomy day in london and this is the transit system,-26,260,20","The colors are lovely. February getting ready to yield to March.,41,80,20","Look like it's in constant movement.,10,260,20","Its a little psychedelic.,10,300,20","Dalton","looks like highways and homes and lives intertwining.,27,300,20","Kenneth","Its a little psychedelic.,10,300,20","Benjamin","Look like it's in constant movement.,10,260,20","2"
"14161","","survey-text","59","345754","0.0-58.0-0.0","A3Q5HJTL6IKV27","","","","{""Q0"":""A monster is hidden in here somewhere""}","","","","","","","","","","","","","","","","","","","","","","",""
"6435.4000000059605","","image-slider-response","60","352194","0.0-59.0","A3Q5HJTL6IKV27","","","","","18","","","","","","","","","","","","","","","","","","","","","",""
"3277","","image-button-response","61","357200","0.0-60.0","A3Q5HJTL6IKV27","img_art/9.jpg","4","","","","","","","","","","","","","","","","","","","","","","","","",""
"800","","image-button-response","62","358003","0.0-61.0","A3Q5HJTL6IKV27","img_art/9.jpg","1","","","","","","","","","","","","","","","","","","","","","","","","",""
"1625","","image-button-response","63","359630","0.0-62.0-0.0","A3Q5HJTL6IKV27","img_art/9.jpg","2","","","","","","","","","","","","","","","","","","","","","","","","",""
"1003","","image-button-response","64","360637","0.0-63.0-0.0","A3Q5HJTL6IKV27","img_art/9.jpg","4","","","","","","","","","","","","","","","","","","","","","","","","",""
"null","","html-keyboard-response","65","361139","0.0-64.0","A3Q5HJTL6IKV27","<p style=""font-size: 48px;"">+</p>","","","","","null","allTrialResponses","500","1","3","img_art/9.jpg","18","A monster is hidden in here somewhere","Mitchell,Dalton,Jack,Hunter,Benjamin,Kenneth","Cozy, In her own world. feminine .,30,180,20","a mother in bed surrounded by emotions,1,300,20","gorgeous colors, love the little details,42,320,20","strong focal point, appealing use of selective line,11,240,20","looks like sleeping beauty in a garden,10,260,20","It looks like a child drew it.,-28,300,20","Dalton","a mother in bed surrounded by emotions,1,300,20","Jack","gorgeous colors, love the little details,42,320,20","Benjamin","looks like sleeping beauty in a garden,10,260,20","2"
"23728","","survey-text","66","384874","0.0-65.0-0.0","A3Q5HJTL6IKV27","","","","{""Q0"":""I can feel the action of the water here""}","","","","","","","","","","","","","","","","","","","","","","",""
"2640.0999999940395","","image-slider-response","67","387517","0.0-66.0","A3Q5HJTL6IKV27","","","","","16","","","","","","","","","","","","","","","","","","","","","",""
"null","","image-button-response","68","392527","0.0-67.0","A3Q5HJTL6IKV27","img_art/24.jpg","null","","","","","","","","","","","","","","","","","","","","","","","","",""
"33074","","image-button-response","69","425605","0.0-68.0","A3Q5HJTL6IKV27","img_art/24.jpg","4","","","","","","","","","","","","","","","","","","","","","","","","",""
"1043","","image-button-response","70","426652","0.0-69.0-0.0","A3Q5HJTL6IKV27","img_art/24.jpg","1","","","","","","","","","","","","","","","","","","","","","","","","",""
"2692","","image-button-response","71","429348","0.0-70.0-0.0","A3Q5HJTL6IKV27","img_art/24.jpg","0","","","","","","","","","","","","","","","","","","","","","","","","",""
"null","","html-keyboard-response","72","430353","0.0-71.0","A3Q5HJTL6IKV27","<p style=""font-size: 48px;"">+</p>","","","","","null","allTrialResponses","1000","1","4","img_art/24.jpg","16","I can feel the action of the water here","Paul,Dalton,Jack,Alejandro,Benjamin,Jose","It looks alive, like I can hear the water flowing,41,300,20","i feel peace and wanting. i love waterfalls,50,300,20","colors are a bit cramped together. really unique take on a waterfall though.,32,320,20","I don't like this painting because of its blottedness. It lacks conviction, direction and purpose.,-31,80,20","peaceful and calm yet joyous.,50,260,20","The combination of nature / realism with abstract colors is unique.,39,200,20","Benjamin","peaceful and calm yet joyous.,50,260,20","Dalton","i feel peace and wanting. i love waterfalls,50,300,20","Paul","It looks alive, like I can hear the water flowing,41,300,20","2"
"7590","","survey-text","73","437953","0.0-72.0-0.0","A3Q5HJTL6IKV27","","","","{""Q0"":""It looks like oil on water""}","","","","","","","","","","","","","","","","","","","","","","",""
"1801.699999988079","","image-slider-response","74","439756","0.0-73.0","A3Q5HJTL6IKV27","","","","","-15","","","","","","","","","","","","","","","","","","","","","",""
"4820","","image-button-response","75","444763","0.0-74.0","A3Q5HJTL6IKV27","img_art/10.jpg","1","","","","","","","","","","","","","","","","","","","","","","","","",""
"633","","image-button-response","76","445398","0.0-75.0","A3Q5HJTL6IKV27","img_art/10.jpg","1","","","","","","","","","","","","","","","","","","","","","","","","",""
"3459","","image-button-response","77","448861","0.0-76.0-0.0","A3Q5HJTL6IKV27","img_art/10.jpg","3","","","","","","","","","","","","","","","","","","","","","","","","",""
"636","","image-button-response","78","449502","0.0-77.0-0.0","A3Q5HJTL6IKV27","img_art/10.jpg","2","","","","","","","","","","","","","","","","","","","","","","","","",""
"null","","html-keyboard-response","79","450503","0.0-78.0","A3Q5HJTL6IKV27","<p style=""font-size: 48px;"">+</p>","","","","","null","allTrialResponses","1000","1","5","img_art/10.jpg","-15","It looks like oil on water","Paul,Dalton,Bradley,Daniel,Benjamin,Jared","It doesn't look pleasing to the eye, it kind of looks like an animal but a dirty one,-38,300,20","for some reason reminds me of music,2,300,20","This piece is very intriguing to me.,3,300,20","Music visualized with subtle color,17,320,20","This picture just seems depressing.,-26,260,20","it just doesnt appeal to me.,-10,400,20","Dalton","for some reason reminds me of music,2,300,20","Daniel","Music visualized with subtle color,17,320,20","Bradley","This piece is very intriguing to me.,3,300,20","2"
"4170","","survey-text","80","454681","0.0-79.0-0.0","A3Q5HJTL6IKV27","","","","{""Q0"":""sky""}","","","","","","","","","","","","","","","","","","","","","","",""
"11458","","survey-text","81","466139","0.0-80.0-0.0","A3Q5HJTL6IKV27","","","","{""Q0"":""Splattered colors on the window""}","","","","","","","","","","","","","","","","","","","","","","",""
"2046.4000000059605","","image-slider-response","82","468187","0.0-81.0","A3Q5HJTL6IKV27","","","","","-12","","","","","","","","","","","","","","","","","","","","","",""
"2717","","image-button-response","83","473194","0.0-82.0","A3Q5HJTL6IKV27","img_art/13.jpg","3","","","","","","","","","","","","","","","","","","","","","","","","",""
"2997","","image-button-response","84","476194","0.0-83.0","A3Q5HJTL6IKV27","img_art/13.jpg","1","","","","","","","","","","","","","","","","","","","","","","","","",""
"928","","image-button-response","85","477126","0.0-84.0-0.0","A3Q5HJTL6IKV27","img_art/13.jpg","3","","","","","","","","","","","","","","","","","","","","","","","","",""
"675","","image-button-response","86","477805","0.0-85.0-0.0","A3Q5HJTL6IKV27","img_art/13.jpg","4","","","","","","","","","","","","","","","","","","","","","","","","",""
"null","","html-keyboard-response","87","479311","0.0-86.0","A3Q5HJTL6IKV27","<p style=""font-size: 48px;"">+</p>","","","","","null","allTrialResponses","1500","1","6","img_art/13.jpg","-12","Splattered colors on the window","Brian,Dalton,Bradley,Daniel,Seth,Angel","I don't really care for splatter paintings; the spectral colors underneath are nice.,-18,380,20","rain in blue black and white,1,300,20","I like the colors used in this piece.,2,300,20","Average overly symmetrical safe,-26,320,20","I really loved the color contrast. Having the white stripe in the center makes the it appear 3D.,11,60,20","Reminds me of depression anxiety, but negativity is dampened by motion. It's trying to release itself through expression.,-10,180,20","Dalton","rain in blue black and white,1,300,20","Daniel","Average overly symmetrical safe,-26,320,20","Seth","I really loved the color contrast. Having the white stripe in the center makes the it appear 3D.,11,60,20","2"
"10845","","survey-text","88","490165","0.0-87.0-0.0","A3Q5HJTL6IKV27","","","","{""Q0"":""This looks like a musical album""}","","","","","","","","","","","","","","","","","","","","","","",""
"2314.5999999940395","","image-slider-response","89","492481","0.0-88.0","A3Q5HJTL6IKV27","","","","","-8","","","","","","","","","","","","","","","","","","","","","",""
"null","","image-button-response","90","497484","0.0-89.0","A3Q5HJTL6IKV27","img_art/23.jpg","null","","","","","","","","","","","","","","","","","","","","","","","","",""
"1864","","image-button-response","91","499349","0.0-90.0","A3Q5HJTL6IKV27","img_art/23.jpg","0","","","","","","","","","","","","","","","","","","","","","","","","",""
"832","","image-button-response","92","500182","0.0-91.0-0.0","A3Q5HJTL6IKV27","img_art/23.jpg","1","","","","","","","","","","","","","","","","","","","","","","","","",""
"504","","image-button-response","93","500688","0.0-92.0-0.0","A3Q5HJTL6IKV27","img_art/23.jpg","0","","","","","","","","","","","","","","","","","","","","","","","","",""
"1923","","image-button-response","94","504778","0.0-92.1-0.1","A3Q5HJTL6IKV27","img_art/23.jpg","4","","","","","","","","","","","","","","","","","","","","","","","","",""
"null","","html-keyboard-response","95","505281","0.0-93.0","A3Q5HJTL6IKV27","<p style=""font-size: 48px;"">+</p>","","","","","null","allTrialResponses","500","1","7","img_art/23.jpg","-8","This looks like a musical album","Tyler,Dalton,Cole,Daniel,Seth,Charles","Looks celebratory and joyful! However, the photograph does not do the original work's colors justice.,27,320,20","illegible wording with a graffiti background,1,300,20","White in the middle look like people dancing naked,19,200,20","Too busy with color with warrior lineup,0,320,20","I thought this art was exciting and it reminded me of dancing people.,12,60,20","Look at all the dancers,26,100,20","Tyler","Looks celebratory and joyful! However, the photograph does not do the original work's colors justice.,27,320,20","Dalton","illegible wording with a graffiti background,1,300,20","Seth","I thought this art was exciting and it reminded me of dancing people.,12,60,20","4"
"10956","","survey-text","96","516243","0.0-94.0-0.0","A3Q5HJTL6IKV27","","","","{""Q0"":""This looks like a cartoon setting""}","","","","","","","","","","","","","","","","","","","","","","",""
"2860.2999999821186","","image-slider-response","97","519105","0.0-95.0","A3Q5HJTL6IKV27","","","","","-13","","","","","","","","","","","","","","","","","","","","","",""
"null","","image-button-response","98","524112","0.0-96.0","A3Q5HJTL6IKV27","img_art/2.jpg","null","","","","","","","","","","","","","","","","","","","","","","","","",""
"48583","","image-button-response","99","572698","0.0-97.0","A3Q5HJTL6IKV27","img_art/2.jpg","1","","","","","","","","","","","","","","","","","","","","","","","","",""
"1109","","image-button-response","100","573811","0.0-98.0-0.0","A3Q5HJTL6IKV27","img_art/2.jpg","2","","","","","","","","","","","","","","","","","","","","","","","","",""
"1250","","image-button-response","101","575063","0.0-99.0-0.0","A3Q5HJTL6IKV27","img_art/2.jpg","5","","","","","","","","","","","","","","","","","","","","","","","","",""
"null","","html-keyboard-response","102","576071","0.0-100.0","A3Q5HJTL6IKV27","<p style=""font-size: 48px;"">+</p>","","","","","null","allTrialResponses","1000","1","8","img_art/2.jpg","-13","This looks like a cartoon setting","Tyler,Dalton,Austin,Kyle,Seth,Samuel","Grim and overwhelming,-6,320,20","i like the colors and again can make out my own picture,38,300,20","Good color pallette,12,240,20","Color picks are a bad mesh with each other,-17,340,20","I think I see people sitting in lawn chairs in a circle watching an event. Not really sure so I rated it lower.,-35,60,20","i liked the bright colors,13,400,20","Dalton","i like the colors and again can make out my own picture,38,300,20","Austin","Good color pallette,12,240,20","Samuel","i liked the bright colors,13,400,20","4"
"13189","","survey-text","103","589276","0.0-101.0-0.0","A3Q5HJTL6IKV27","","","","{""Q0"":""There are two people meeting with each other""}","","","","","","","","","","","","","","","","","","","","","","",""
"1673.0999999940395","","image-slider-response","104","590951","0.0-102.0","A3Q5HJTL6IKV27","","","","","-11","","","","","","","","","","","","","","","","","","","","","",""
"2893","","image-button-response","105","595958","0.0-103.0","A3Q5HJTL6IKV27","img_art/28.jpg","1","","","","","","","","","","","","","","","","","","","","","","","","",""
"874","","image-button-response","106","596835","0.0-104.0","A3Q5HJTL6IKV27","img_art/28.jpg","1","","","","","","","","","","","","","","","","","","","","","","","","",""
"969","","image-button-response","107","597808","0.0-105.0-0.0","A3Q5HJTL6IKV27","img_art/28.jpg","5","","","","","","","","","","","","","","","","","","","","","","","","",""
"2753","","image-button-response","108","600564","0.0-106.0-0.0","A3Q5HJTL6IKV27","img_art/28.jpg","4","","","","","","","","","","","","","","","","","","","","","","","","",""
"null","","html-keyboard-response","109","601570","0.0-107.0","A3Q5HJTL6IKV27","<p style=""font-size: 48px;"">+</p>","","","","","null","allTrialResponses","1000","1","9","img_art/28.jpg","-11","There are two people meeting with each other","Jorge,Dalton,Austin,Travis,Chase,Samuel","nostalgic from a memory,11,180,20","not sure what i feel but it makes me feel uncomfortable,1,300,20","Not really exciting,23,240,20","Hate it...brown and drab,-37,260,20","I don't like the washed out colors.,-15,120,20","conversating means hope,15,400,20","Dalton","not sure what i feel but it makes me feel uncomfortable,1,300,20","Samuel","conversating means hope,15,400,20","Chase","I don't like the washed out colors.,-15,120,20","4"
"9976","","survey-text","110","611559","0.0-108.0-0.0","A3Q5HJTL6IKV27","","","","{""Q0"":""A delicate murder scene""}","","","","","","","","","","","","","","","","","","","","","","",""
"1790.5","","image-slider-response","111","613352","0.0-109.0","A3Q5HJTL6IKV27","","","","","-15","","","","","","","","","","","","","","","","","","","","","",""
"null","","image-button-response","112","618360","0.0-110.0","A3Q5HJTL6IKV27","img_art/3.jpg","null","","","","","","","","","","","","","","","","","","","","","","","","",""
"148","","image-button-response","113","618511","0.0-111.0","A3Q5HJTL6IKV27","img_art/3.jpg","1","","","","","","","","","","","","","","","","","","","","","","","","",""
"1995","","image-button-response","114","620509","0.0-112.0-0.0","A3Q5HJTL6IKV27","img_art/3.jpg","2","","","","","","","","","","","","","","","","","","","","","","","","",""
"494","","image-button-response","115","621009","0.0-113.0-0.0","A3Q5HJTL6IKV27","img_art/3.jpg","5","","","","","","","","","","","","","","","","","","","","","","","","",""
"null","","html-keyboard-response","116","621512","0.0-114.0","A3Q5HJTL6IKV27","<p style=""font-size: 48px;"">+</p>","","","","","null","allTrialResponses","500","1","10","img_art/3.jpg","-15","A delicate murder scene","David,Dalton,Justin,Adrian,Chase,Samuel","No clue what I'm looking. This just looks a series of scribbles in a box.,-20,340,20","Blood splatter and one black spot.,1,300,20","I don't care for art that looks like it was just scribbled.,-19,280,20","Angry red crayons, like a child throwing a tantrum. No thanks.,-10,60,20","Looks like a bloody head with teeth.,-16,120,20","confusing taking over,-15,400,20","Dalton","Blood splatter and one black spot.,1,300,20","Justin","I don't care for art that looks like it was just scribbled.,-19,280,20","Samuel","confusing taking over,-15,400,20","4"
"3243","","survey-text","117","624764","0.0-115.0-0.0","A3Q5HJTL6IKV27","","","","{""Q0"":""our""}","","","","","","","","","","","","","","","","","","","","","","",""
"7015","","survey-text","118","631781","0.0-116.0-0.0","A3Q5HJTL6IKV27","","","","{""Q0"":""A scene in the desert""}","","","","","","","","","","","","","","","","","","","","","","",""
"1789.4000000059605","","image-slider-response","119","633573","0.0-117.0","A3Q5HJTL6IKV27","","","","","29","","","","","","","","","","","","","","","","","","","","","",""
"1560","","image-button-response","120","638578","0.0-118.0","A3Q5HJTL6IKV27","img_art/20.jpg","5","","","","","","","","","","","","","","","","","","","","","","","","",""
"938","","image-button-response","121","639521","0.0-119.0","A3Q5HJTL6IKV27","img_art/20.jpg","2","","","","","","","","","","","","","","","","","","","","","","","","",""
"1514","","image-button-response","122","641038","0.0-120.0-0.0","A3Q5HJTL6IKV27","img_art/20.jpg","1","","","","","","","","","","","","","","","","","","","","","","","","",""
"701","","image-button-response","123","641743","0.0-121.0-0.0","A3Q5HJTL6IKV27","img_art/20.jpg","5","","","","","","","","","","","","","","","","","","","","","","","","",""
"null","","html-keyboard-response","124","642749","0.0-122.0","A3Q5HJTL6IKV27","<p style=""font-size: 48px;"">+</p>","","","","","null","allTrialResponses","1000","1","11","img_art/20.jpg","29","A scene in the desert","Devin,Dalton,Justin,Jeffrey,Stephen,Samuel","Looks somewhat dark and emotional,-10,380,20","make me feel like its a little country maybe a tractor and a skull head of a bull,1,300,20","The colors and the scene depicted is interesting.,13,280,20","looks like an auto accident,-30,40,20","Liked the background,15,140,20","crash after traffic causing grief,-11,400,20","Justin","The colors and the scene depicted is interesting.,13,280,20","Dalton","make me feel like its a little country maybe a tractor and a skull head of a bull,1,300,20","Samuel","crash after traffic causing grief,-11,400,20","4"
"6937","","survey-text","125","649695","0.0-123.0-0.0","A3Q5HJTL6IKV27","","","","{""Q0"":""Something is growing in the sand""}","","","","","","","","","","","","","","","","","","","","","","",""
"1739.9000000059605","","image-slider-response","126","651437","0.0-124.0","A3Q5HJTL6IKV27","","","","","14","","","","","","","","","","","","","","","","","","","","","",""
"null","","image-button-response","127","656441","0.0-125.0","A3Q5HJTL6IKV27","img_art/14.jpg","null","","","","","","","","","","","","","","","","","","","","","","","","",""
"558","","image-button-response","128","657003","0.0-126.0","A3Q5HJTL6IKV27","img_art/14.jpg","4","","","","","","","","","","","","","","","","","","","","","","","","",""
"2091","","image-button-response","129","659098","0.0-127.0-0.0","A3Q5HJTL6IKV27","img_art/14.jpg","1","","","","","","","","","","","","","","","","","","","","","","","","",""
"1375","","image-button-response","130","660475","0.0-128.0-0.0","A3Q5HJTL6IKV27","img_art/14.jpg","2","","","","","","","","","","","","","","","","","","","","","","","","",""
"null","","html-keyboard-response","131","661480","0.0-129.0","A3Q5HJTL6IKV27","<p style=""font-size: 48px;"">+</p>","","","","","null","allTrialResponses","1000","1","12","img_art/14.jpg","14","Something is growing in the sand","Elijah,Dalton,Justin,Nathan,Richard,Samuel","Makes me feel good,30,80,20","nice simple art piece,2,300,20","The colors are good and the design is intriguing.,15,280,20","Too much yellow in this image, i'm not a fan of art that is overly-saturated with yellow,-30,200,20","the colors are peaceful and nature colors, soft,37,340,20","tree of life brings hope,7,400,20","Richard","the colors are peaceful and nature colors, soft,37,340,20","Dalton","nice simple art piece,2,300,20","Justin","The colors are good and the design is intriguing.,15,280,20","4"
"173255","","survey-text","132","834747","0.0-130.0-0.0","A3Q5HJTL6IKV27","","","","{""Q0"":""This looks like a twizzlers""}","","","","","","","","","","","","","","","","","","","","","","",""
"1628","","image-slider-response","133","836379","0.0-131.0","A3Q5HJTL6IKV27","","","","","15","","","","","","","","","","","","","","","","","","","","","",""
"4373","","image-button-response","134","841389","0.0-132.0","A3Q5HJTL6IKV27","img_art/30.jpg","4","","","","","","","","","","","","","","","","","","","","","","","","",""
"732","","image-button-response","135","842123","0.0-133.0","A3Q5HJTL6IKV27","img_art/30.jpg","4","","","","","","","","","","","","","","","","","","","","","","","","",""
"498","","image-button-response","136","842624","0.0-134.0-0.0","A3Q5HJTL6IKV27","img_art/30.jpg","5","","","","","","","","","","","","","","","","","","","","","","","","",""
"680","","image-button-response","137","843308","0.0-135.0-0.0","A3Q5HJTL6IKV27","img_art/30.jpg","2","","","","","","","","","","","","","","","","","","","","","","","","",""
"null","","html-keyboard-response","138","843812","0.0-136.0","A3Q5HJTL6IKV27","<p style=""font-size: 48px;"">+</p>","","","","","null","allTrialResponses","500","1","13","img_art/30.jpg","15","This looks like a twizzlers","Jonathan,Dalton,Justin,Alexander,Richard,Ethan","I like the softness of this but it doesn't make me feel that nice,5,140,20","beautiful paint brush strokes,1,300,20","The colors and the brushstrokes are interesting enough.,17,280,20","Sleek eel in the abstract ocean.,30,120,20","looks very childish, like your kid did it,-33,340,20","I hate this piece. It looks like a child created it. The colors are awful.,-46,120,20","Richard","looks very childish, like your kid did it,-33,340,20","Ethan","I hate this piece. It looks like a child created it. The colors are awful.,-46,120,20","Justin","The colors and the brushstrokes are interesting enough.,17,280,20","4"
"8628","","survey-text","139","852451","0.0-137.0-0.0","A3Q5HJTL6IKV27","","","","{""Q0"":""There's a warehouse party in here""}","","","","","","","","","","","","","","","","","","","","","","",""
"1982.5","","image-slider-response","140","854436","0.0-138.0","A3Q5HJTL6IKV27","","","","","-10","","","","","","","","","","","","","","","","","","","","","",""
"null","","image-button-response","141","859442","0.0-139.0","A3Q5HJTL6IKV27","img_art/29.jpg","null","","","","","","","","","","","","","","","","","","","","","","","","",""
"2600","","image-button-response","142","862044","0.0-140.0","A3Q5HJTL6IKV27","img_art/29.jpg","4","","","","","","","","","","","","","","","","","","","","","","","","",""
"328","","image-button-response","143","862375","0.0-141.0-0.0","A3Q5HJTL6IKV27","img_art/29.jpg","5","","","","","","","","","","","","","","","","","","","","","","","","",""
"452","","image-button-response","144","862829","0.0-142.0-0.0","A3Q5HJTL6IKV27","img_art/29.jpg","2","","","","","","","","","","","","","","","","","","","","","","","","",""
"null","","html-keyboard-response","145","864331","0.0-143.0","A3Q5HJTL6IKV27","<p style=""font-size: 48px;"">+</p>","","","","","null","allTrialResponses","1500","1","14","img_art/29.jpg","-10","There's a warehouse party in here","Edward,Jeremy,Justin,Connor,Richard,Ethan","Like a crime scene. It's neat and different,30,60,20","unhappy. Looking at this all the time would depress me.,-11,60,20","It looks likes there's a lot going on, but they don't fit together.,2,280,20","Red X is scary, like the bricks,7,240,20","it's OK, no clue to what's going on but good use of light and dark,4,340,20","I love the angry emotion to this art. I feel very drawn to it.,18,120,20","Richard","it's OK, no clue to what's going on but good use of light and dark,4,340,20","Ethan","I love the angry emotion to this art. I feel very drawn to it.,18,120,20","Justin","It looks likes there's a lot going on, but they don't fit together.,2,280,20","4"
"8002","","survey-text","146","872344","0.0-144.0-0.0","A3Q5HJTL6IKV27","","","","{""Q0"":""Confusion among the masses""}","","","","","","","","","","","","","","","","","","","","","","",""
"3290.800000011921","","image-slider-response","147","875636","0.0-145.0","A3Q5HJTL6IKV27","","","","","-17","","","","","","","","","","","","","","","","","","","","","",""
"4479","","image-button-response","148","880643","0.0-146.0","A3Q5HJTL6IKV27","img_art/19.jpg","0","","","","","","","","","","","","","","","","","","","","","","","","",""
"1530","","image-button-response","149","882176","0.0-147.0","A3Q5HJTL6IKV27","img_art/19.jpg","0","","","","","","","","","","","","","","","","","","","","","","","","",""
"1201","","image-button-response","150","883381","0.0-148.0-0.0","A3Q5HJTL6IKV27","img_art/19.jpg","1","","","","","","","","","","","","","","","","","","","","","","","","",""
"533","","image-button-response","151","883919","0.0-149.0-0.0","A3Q5HJTL6IKV27","img_art/19.jpg","2","","","","","","","","","","","","","","","","","","","","","","","","",""
"null","","html-keyboard-response","152","884922","0.0-150.0","A3Q5HJTL6IKV27","<p style=""font-size: 48px;"">+</p>","","","","","null","allTrialResponses","1000","1","15","img_art/19.jpg","-17","Confusion among the masses","Tristan,Garrett,Justin,Scott,Richard,Ethan","Though provoking. Adventurous.,10,300,20","This looks like a bunch of weird blobs and the colors don't go great together.,-10,180,20","It looks too much of a rough sketch. Don't really enjoy looking at it.,-9,280,20","looks like a shopping center,20,20,20","not professional looking but not bad either,13,340,20","I interpret an outdoor scene. It's good because it makes me want to look longer.,22,120,20","Tristan","Though provoking. Adventurous.,10,300,20","Garrett","This looks like a bunch of weird blobs and the colors don't go great together.,-10,180,20","Justin","It looks too much of a rough sketch. Don't really enjoy looking at it.,-9,280,20","4"
"4089","","survey-text","153","889020","0.0-151.0-0.0","A3Q5HJTL6IKV27","","","","{""Q0"":""course""}","","","","","","","","","","","","","","","","","","","","","","",""
"9733","","survey-text","154","898755","0.0-152.0-0.0","A3Q5HJTL6IKV27","","","","{""Q0"":""A pretzel that turned alive""}","","","","","","","","","","","","","","","","","","","","","","",""
"4060.4000000059605","","image-slider-response","155","902817","0.0-153.0","A3Q5HJTL6IKV27","","","","","-17","","","","","","","","","","","","","","","","","","","","","",""
"4822","","image-button-response","156","907826","0.0-154.0","A3Q5HJTL6IKV27","img_art/4.jpg","3","","","","","","","","","","","","","","","","","","","","","","","","",""
"1859","","image-button-response","157","909688","0.0-155.0","A3Q5HJTL6IKV27","img_art/4.jpg","3","","","","","","","","","","","","","","","","","","","","","","","","",""
"1225","","image-button-response","158","910914","0.0-156.0-0.0","A3Q5HJTL6IKV27","img_art/4.jpg","1","","","","","","","","","","","","","","","","","","","","","","","","",""
"309","","image-button-response","159","911229","0.0-157.0-0.0","A3Q5HJTL6IKV27","img_art/4.jpg","2","","","","","","","","","","","","","","","","","","","","","","","","",""
"null","","html-keyboard-response","160","912737","0.0-158.0","A3Q5HJTL6IKV27","<p style=""font-size: 48px;"">+</p>","","","","","null","allTrialResponses","1500","1","16","img_art/4.jpg","-17","A pretzel that turned alive","Tristan,Garrett,Justin,Dakota,Nathaniel,John","disturbing and uncomfortable.,10,300,20","I think that this picture is too boring in terms of color and it looks ugly.,-41,180,20","Rather boring design and colors.,-21,280,20","spontaneous, without hesitation,22,280,20","Boring and tasteless. Almost reminds me of when an art gallery called a banana 'art',-42,220,20","Extremely simple and like not alot of time was put into it,-20,120,20","Dakota","spontaneous, without hesitation,22,280,20","Garrett","I think that this picture is too boring in terms of color and it looks ugly.,-41,180,20","Justin","Rather boring design and colors.,-21,280,20","4"
"9166","","survey-text","161","921915","0.0-159.0-0.0","A3Q5HJTL6IKV27","","","","{""Q0"":""A town that's peaceful""}","","","","","","","","","","","","","","","","","","","","","","",""
"1626.699999988079","","image-slider-response","162","923544","0.0-160.0","A3Q5HJTL6IKV27","","","","","10","","","","","","","","","","","","","","","","","","","","","",""
"null","","image-button-response","163","928550","0.0-161.0","A3Q5HJTL6IKV27","img_art/26.jpg","null","","","","","","","","","","","","","","","","","","","","","","","","",""
"787","","image-button-response","164","929340","0.0-162.0","A3Q5HJTL6IKV27","img_art/26.jpg","5","","","","","","","","","","","","","","","","","","","","","","","","",""
"1960","","image-button-response","165","931303","0.0-163.0-0.0","A3Q5HJTL6IKV27","img_art/26.jpg","4","","","","","","","","","","","","","","","","","","","","","","","","",""
"3177","","image-button-response","166","934482","0.0-164.0-0.0","A3Q5HJTL6IKV27","img_art/26.jpg","1","","","","","","","","","","","","","","","","","","","","","","","","",""
"null","","html-keyboard-response","167","935483","0.0-165.0","A3Q5HJTL6IKV27","<p style=""font-size: 48px;"">+</p>","","","","","null","allTrialResponses","1000","1","17","img_art/26.jpg","10","A town that's peaceful","Christian,Garrett,Justin,Dakota,Robert,Isaac","love the ""lowkey"" vibrant colors that are colorful but at the same time greyscale,12,140,20","I like that it looks like an actual picture and isn't just random colors.,25,180,20","It looks boring and too rough.,-9,280,20","juvenile, faint and weak,-41,280,20","Day just begun in the city and the stores are opening their doors.,41,360,20","I wish it were more pastel but I think it is relaxing to look at.,30,280,20","Isaac","I wish it were more pastel but I think it is relaxing to look at.,30,280,20","Robert","Day just begun in the city and the stores are opening their doors.,41,360,20","Garrett","I like that it looks like an actual picture and isn't just random colors.,25,180,20","4"
"13698","","survey-text","168","949195","0.0-166.0-0.0","A3Q5HJTL6IKV27","","","","{""Q0"":""A single organisim on an orange""}","","","","","","","","","","","","","","","","","","","","","","",""
"1724.199999988079","","image-slider-response","169","950921","0.0-167.0","A3Q5HJTL6IKV27","","","","","-9","","","","","","","","","","","","","","","","","","","","","",""
"4617","","image-button-response","170","955924","0.0-168.0","A3Q5HJTL6IKV27","img_art/6.jpg","1","","","","","","","","","","","","","","","","","","","","","","","","",""
"1312","","image-button-response","171","957238","0.0-169.0","A3Q5HJTL6IKV27","img_art/6.jpg","0","","","","","","","","","","","","","","","","","","","","","","","","",""
"1111","","image-button-response","172","958350","0.0-170.0-0.0","A3Q5HJTL6IKV27","img_art/6.jpg","0","","","","","","","","","","","","","","","","","","","","","","","","",""
"627","","image-button-response","173","962841","0.0-170.1-0.1","A3Q5HJTL6IKV27","img_art/6.jpg","1","","","","","","","","","","","","","","","","","","","","","","","","",""
"796","","image-button-response","174","963638","0.0-171.0-0.0","A3Q5HJTL6IKV27","img_art/6.jpg","4","","","","","","","","","","","","","","","","","","","","","","","","",""
"null","","html-keyboard-response","175","964640","0.0-172.0","A3Q5HJTL6IKV27","<p style=""font-size: 48px;"">+</p>","","","","","null","allTrialResponses","1000","1","18","img_art/6.jpg","-9","A single organisim on an orange","Anthony,Garrett,Marcus,Mason,Robert,Isaac","I am neutral towards this piece.,0,200,20","I can't tell what this image is, but it's boring because of lack of color variety and nothing in it,-41,180,20","I like the orange color, and I don't know why but I like this piece.,22,60,20","kids book cover, uninteresting.,-10,100,20","Nevermore!  A black raven sitting on a pumpkin. Halloween,-35,360,20","It looks like one tall ugly bird.,-43,280,20","Anthony","I am neutral towards this piece.,0,200,20","Garrett","I can't tell what this image is, but it's boring because of lack of color variety and nothing in it,-41,180,20","Robert","Nevermore!  A black raven sitting on a pumpkin. Halloween,-35,360,20","6"
"8341","","survey-text","176","972988","0.0-173.0-0.0","A3Q5HJTL6IKV27","","","","{""Q0"":""A nail to the coffin""}","","","","","","","","","","","","","","","","","","","","","","",""
"2435.5999999940395","","image-slider-response","177","975425","0.0-174.0","A3Q5HJTL6IKV27","","","","","15","","","","","","","","","","","","","","","","","","","","","",""
"null","","image-button-response","178","980432","0.0-175.0","A3Q5HJTL6IKV27","img_art/5.jpg","null","","","","","","","","","","","","","","","","","","","","","","","","",""
"5192","","image-button-response","179","985625","0.0-176.0","A3Q5HJTL6IKV27","img_art/5.jpg","3","","","","","","","","","","","","","","","","","","","","","","","","",""
"1441","","image-button-response","180","987069","0.0-177.0-0.0","A3Q5HJTL6IKV27","img_art/5.jpg","1","","","","","","","","","","","","","","","","","","","","","","","","",""
"306","","image-button-response","181","987377","0.0-178.0-0.0","A3Q5HJTL6IKV27","img_art/5.jpg","0","","","","","","","","","","","","","","","","","","","","","","","","",""
"null","","html-keyboard-response","182","987882","0.0-179.0","A3Q5HJTL6IKV27","<p style=""font-size: 48px;"">+</p>","","","","","null","allTrialResponses","500","1","19","img_art/5.jpg","15","A nail to the coffin","Anthony,Garrett,Jason,Jake,Robert,Caleb","This piece doesn't really stand out.,0,200,20","I don't know what it's supposed to be and it looks ugly the way the colors are on the yellow cube.,-50,180,20","Wish the background had been kept clean; distracts from main object,11,20,20","This is interesting and nice.,16,360,20","This did not do a thing for me.,-50,360,20","Boring and appears low effort,-41,40,20","Jake","This is interesting and nice.,16,360,20","Garrett","I don't know what it's supposed to be and it looks ugly the way the colors are on the yellow cube.,-50,180,20","Anthony","This piece doesn't really stand out.,0,200,20","6"
"13492","","survey-text","183","1001383","0.0-180.0-0.0","A3Q5HJTL6IKV27","","","","{""Q0"":""Blood within the darkness""}","","","","","","","","","","","","","","","","","","","","","","",""
"2356","","image-slider-response","184","1003741","0.0-181.0","A3Q5HJTL6IKV27","","","","","-7","","","","","","","","","","","","","","","","","","","","","",""
"4032","","image-button-response","185","1008746","0.0-182.0","A3Q5HJTL6IKV27","img_art/1.jpg","5","","","","","","","","","","","","","","","","","","","","","","","","",""
"1338","","image-button-response","186","1010088","0.0-183.0","A3Q5HJTL6IKV27","img_art/1.jpg","2","","","","","","","","","","","","","","","","","","","","","","","","",""
"1075","","image-button-response","187","1011164","0.0-184.0-0.0","A3Q5HJTL6IKV27","img_art/1.jpg","0","","","","","","","","","","","","","","","","","","","","","","","","",""
"2781","","image-button-response","188","1013948","0.0-185.0-0.0","A3Q5HJTL6IKV27","img_art/1.jpg","5","","","","","","","","","","","","","","","","","","","","","","","","",""
"null","","html-keyboard-response","189","1014455","0.0-186.0","A3Q5HJTL6IKV27","<p style=""font-size: 48px;"">+</p>","","","","","null","allTrialResponses","500","1","20","img_art/1.jpg","-7","Blood within the darkness","Anthony,Garrett,Noah,Jake,Joshua,William","Bright and colorful without being overpowering,32,200,20","I think that this picture has nice colors and its pleasing to the eyes.,20,180,20","the bright colours evoke the 90s, and not their best part,-10,260,20","This is ugly with bad colors.,-6,360,20","Reminds me of fall.,7,240,20","love how the colors blend,42,380,20","Noah","the bright colours evoke the 90s, and not their best part,-10,260,20","Anthony","Bright and colorful without being overpowering,32,200,20","William","love how the colors blend,42,380,20","6"
"4438","","survey-text","190","1018917","0.0-187.0-0.0","A3Q5HJTL6IKV27","","","","{""Q0"":""we""}","","","","","","","","","","","","","","","","","","","","","","",""
"394426","","survey-text","191","1413345","0.0-188.0-0.0","A3Q5HJTL6IKV27","","","","{""Q0"":""Looks to be in the clouds""}","","","","","","","","","","","","","","","","","","","","","","",""
"1804.9000000059605","","image-slider-response","192","1415162","0.0-189.0","A3Q5HJTL6IKV27","","","","","-11","","","","","","","","","","","","","","","","","","","","","",""
"3051","","image-button-response","193","1420171","0.0-190.0","A3Q5HJTL6IKV27","img_art/21.jpg","3","","","","","","","","","","","","","","","","","","","","","","","","",""
"452","","image-button-response","194","1420627","0.0-191.0","A3Q5HJTL6IKV27","img_art/21.jpg","3","","","","","","","","","","","","","","","","","","","","","","","","",""
"586","","image-button-response","195","1421215","0.0-192.0-0.0","A3Q5HJTL6IKV27","img_art/21.jpg","5","","","","","","","","","","","","","","","","","","","","","","","","",""
"1384","","image-button-response","196","1422604","0.0-193.0-0.0","A3Q5HJTL6IKV27","img_art/21.jpg","2","","","","","","","","","","","","","","","","","","","","","","","","",""
"null","","html-keyboard-response","197","1423110","0.0-194.0","A3Q5HJTL6IKV27","<p style=""font-size: 48px;"">+</p>","","","","","null","allTrialResponses","500","1","21","img_art/21.jpg","-11","Looks to be in the clouds","Anthony,Gregory,Noah,Derek,Antonio,William","Bland, this painting is my least favorite,-20,200,20","Contrast of fire and water looks cool,20,220,20","brings up imagery of the sea and clashing, though not in a negative way,31,260,20","I love the colors in this painting,30,360,20","the colors are pretty but I did not feel any thing looking at it,33,220,20","like the colors,30,380,20","Derek","I love the colors in this painting,30,360,20","William","like the colors,30,380,20","Noah","brings up imagery of the sea and clashing, though not in a negative way,31,260,20","6"
"9359","","survey-text","198","1432487","0.0-195.0-0.0","A3Q5HJTL6IKV27","","","","{""Q0"":""Looks like war in the sky""}","","","","","","","","","","","","","","","","","","","","","","",""
"1794.4000000059605","","image-slider-response","199","1434283","0.0-196.0","A3Q5HJTL6IKV27","","","","","9","","","","","","","","","","","","","","","","","","","","","",""
"3310","","image-button-response","200","1439290","0.0-197.0","A3Q5HJTL6IKV27","img_art/27.jpg","3","","","","","","","","","","","","","","","","","","","","","","","","",""
"1355","","image-button-response","201","1440647","0.0-198.0","A3Q5HJTL6IKV27","img_art/27.jpg","5","","","","","","","","","","","","","","","","","","","","","","","","",""
"576","","image-button-response","202","1441225","0.0-199.0-0.0","A3Q5HJTL6IKV27","img_art/27.jpg","3","","","","","","","","","","","","","","","","","","","","","","","","",""
"611","","image-button-response","203","1441837","0.0-200.0-0.0","A3Q5HJTL6IKV27","img_art/27.jpg","2","","","","","","","","","","","","","","","","","","","","","","","","",""
"null","","html-keyboard-response","204","1443344","0.0-201.0","A3Q5HJTL6IKV27","<p style=""font-size: 48px;"">+</p>","","","","","null","allTrialResponses","1500","1","22","img_art/27.jpg","9","Looks like war in the sky","Bryce,Cody,Noah,Derek,Adam,William","It kinda reminds me of sushi.,16,20,20","Not sure how I feel about this. Messy, even for art. But good colors.,0,180,20","I generally enjoy the style, but I'm finding the green lines grating,-9,260,20","I love the mood of this painting,30,360,20","Warn colors are pretty, but too blotchy for me.,3,40,20","reminds me of fall,33,380,20","William","reminds me of fall,33,380,20","Derek","I love the mood of this painting,30,360,20","Noah","I generally enjoy the style, but I'm finding the green lines grating,-9,260,20","6"
"12379","","survey-text","205","1455728","0.0-202.0-0.0","A3Q5HJTL6IKV27","","","","{""Q0"":""A guy running in a red ball""}","","","","","","","","","","","","","","","","","","","","","","",""
"2425.399999976158","","image-slider-response","206","1458154","0.0-203.0","A3Q5HJTL6IKV27","","","","","-12","","","","","","","","","","","","","","","","","","","","","",""
"null","","image-button-response","207","1463157","0.0-204.0","A3Q5HJTL6IKV27","img_art/22.jpg","null","","","","","","","","","","","","","","","","","","","","","","","","",""
"479","","image-button-response","208","1463638","0.0-205.0","A3Q5HJTL6IKV27","img_art/22.jpg","4","","","","","","","","","","","","","","","","","","","","","","","","",""
"950","","image-button-response","209","1464590","0.0-206.0-0.0","A3Q5HJTL6IKV27","img_art/22.jpg","5","","","","","","","","","","","","","","","","","","","","","","","","",""
"844","","image-button-response","210","1465437","0.0-207.0-0.0","A3Q5HJTL6IKV27","img_art/22.jpg","3","","","","","","","","","","","","","","","","","","","","","","","","",""
"null","","html-keyboard-response","211","1465939","0.0-208.0","A3Q5HJTL6IKV27","<p style=""font-size: 48px;"">+</p>","","","","","null","allTrialResponses","500","1","23","img_art/22.jpg","-12","A guy running in a red ball","Mark,Luke,Noah,Derek,Kevin,William","I don't feel much of anything.,0,80,20","the colors and shapes makes me want to keep looking at it,22,20,20","displeasure - not a fan of the colour or the shapes,-18,260,20","Really pretty. Love the colors.,30,360,20","Looks hot where ever that is.,-8,320,20","love how the colors blend,42,380,20","Kevin","Looks hot where ever that is.,-8,320,20","William","love how the colors blend,42,380,20","Derek","Really pretty. Love the colors.,30,360,20","6"
"6847","","survey-text","212","1472798","0.0-209.0-0.0","A3Q5HJTL6IKV27","","","","{""Q0"":""A million bugs on the ground""}","","","","","","","","","","","","","","","","","","","","","","",""
"1889.5","","image-slider-response","213","1474689","0.0-210.0","A3Q5HJTL6IKV27","","","","","-10","","","","","","","","","","","","","","","","","","","","","",""
"4365","","image-button-response","214","1479691","0.0-211.0","A3Q5HJTL6IKV27","img_art/15.jpg","1","","","","","","","","","","","","","","","","","","","","","","","","",""
"1427","","image-button-response","215","1481121","0.0-212.0","A3Q5HJTL6IKV27","img_art/15.jpg","1","","","","","","","","","","","","","","","","","","","","","","","","",""
"1534","","image-button-response","216","1482657","0.0-213.0-0.0","A3Q5HJTL6IKV27","img_art/15.jpg","4","","","","","","","","","","","","","","","","","","","","","","","","",""
"341","","image-button-response","217","1483001","0.0-214.0-0.0","A3Q5HJTL6IKV27","img_art/15.jpg","5","","","","","","","","","","","","","","","","","","","","","","","","",""
"null","","html-keyboard-response","218","1484506","0.0-215.0","A3Q5HJTL6IKV27","<p style=""font-size: 48px;"">+</p>","","","","","null","allTrialResponses","1500","1","24","img_art/15.jpg","-10","A million bugs on the ground","Malik,Michael,Timothy,Derek,Kevin,William","I like the dense patterns and the splashes  of blue,38,40,20","Looks incomplete.,-19,140,20","This painting gives a calm vibe but no stronger emotions than that,10,240,20","Although it looks a bit bland in terms of color, I really like the print/pattern,25,360,20","Weird fuzzball bush.,22,320,20","makes me feel calm,40,380,20","Michael","Looks incomplete.,-19,140,20","Kevin","Weird fuzzball bush.,22,320,20","William","makes me feel calm,40,380,20","6"
"7115","","survey-text","219","1491635","0.0-216.0-0.0","A3Q5HJTL6IKV27","","","","{""Q0"":""An animal within chaos""}","","","","","","","","","","","","","","","","","","","","","","",""
"2071.4000000059605","","image-slider-response","220","1493709","0.0-217.0","A3Q5HJTL6IKV27","","","","","11","","","","","","","","","","","","","","","","","","","","","",""
"3517","","image-button-response","221","1498713","0.0-218.0","A3Q5HJTL6IKV27","img_art/18.jpg","5","","","","","","","","","","","","","","","","","","","","","","","","",""
"523","","image-button-response","222","1499237","0.0-219.0","A3Q5HJTL6IKV27","img_art/18.jpg","2","","","","","","","","","","","","","","","","","","","","","","","","",""
"754","","image-button-response","223","1499993","0.0-220.0-0.0","A3Q5HJTL6IKV27","img_art/18.jpg","4","","","","","","","","","","","","","","","","","","","","","","","","",""
"342","","image-button-response","224","1500338","0.0-221.0-0.0","A3Q5HJTL6IKV27","img_art/18.jpg","3","","","","","","","","","","","","","","","","","","","","","","","","",""
"null","","html-keyboard-response","225","1501340","0.0-222.0","A3Q5HJTL6IKV27","<p style=""font-size: 48px;"">+</p>","","","","","null","allTrialResponses","1000","1","25","img_art/18.jpg","11","An animal within chaos","Patrick,Michael,Thomas,Peter,Kevin,William","Too abstract and swirly,-21,280,20","Not my style but I can see some serious skill went int it.,21,140,20","I could stare at this for long stretches of time and still find new details. I love it.,40,220,20","I'm not partial to the design, unsettling,2,320,20","Pirate ship in stormy seas before it sank.,11,320,20","Makes me think of stormy oceans,20,380,20","Thomas","I could stare at this for long stretches of time and still find new details. I love it.,40,220,20","Kevin","Pirate ship in stormy seas before it sank.,11,320,20","Peter","I'm not partial to the design, unsettling,2,320,20","6"
"4190","","survey-text","226","1505550","0.0-223.0-0.0","A3Q5HJTL6IKV27","","","","{""Q0"":""table""}","","","","","","","","","","","","","","","","","","","","","","",""
"7480","","survey-text","227","1513032","0.0-224.0-0.0","A3Q5HJTL6IKV27","","","","{""Q0"":""A man hidden among the city""}","","","","","","","","","","","","","","","","","","","","","","",""
"1986.300000011921","","image-slider-response","228","1515021","0.0-225.0","A3Q5HJTL6IKV27","","","","","17","","","","","","","","","","","","","","","","","","","","","",""
"2829","","image-button-response","229","1520024","0.0-226.0","A3Q5HJTL6IKV27","img_art/8.jpg","5","","","","","","","","","","","","","","","","","","","","","","","","",""
"1612","","image-button-response","230","1521637","0.0-227.0","A3Q5HJTL6IKV27","img_art/8.jpg","1","","","","","","","","","","","","","","","","","","","","","","","","",""
"1300","","image-button-response","231","1522941","0.0-228.0-0.0","A3Q5HJTL6IKV27","img_art/8.jpg","5","","","","","","","","","","","","","","","","","","","","","","","","",""
"409","","image-button-response","232","1523352","0.0-229.0-0.0","A3Q5HJTL6IKV27","img_art/8.jpg","4","","","","","","","","","","","","","","","","","","","","","","","","",""
"null","","html-keyboard-response","233","1523858","0.0-230.0","A3Q5HJTL6IKV27","<p style=""font-size: 48px;"">+</p>","","","","","null","allTrialResponses","500","1","26","img_art/8.jpg","17","A man hidden among the city","Nicholas,Dustin,Thomas,Peter,Kevin,Blake","The face bothers me,-25,240,20","I like the colors. But I don't like the faces, they look distraught. Faces and sharp shapes make me anxious,1,20,20","Gorgeous! I love the colors and the details.,50,220,20","I see water and structures that resemble Ancient Rome,15,320,20","Now that one is wild. Looks like maybe mother nature isnt happy.,28,320,20","cold city controlled by evil gods,-17,280,20","Dustin","I like the colors. But I don't like the faces, they look distraught. Faces and sharp shapes make me anxious,1,20,20","Blake","cold city controlled by evil gods,-17,280,20","Kevin","Now that one is wild. Looks like maybe mother nature isnt happy.,28,320,20","6"
"7440","","survey-text","234","1531314","0.0-231.0-0.0","A3Q5HJTL6IKV27","","","","{""Q0"":""A bear about to die""}","","","","","","","","","","","","","","","","","","","","","","",""
"2383.800000011921","","image-slider-response","235","1533700","0.0-232.0","A3Q5HJTL6IKV27","","","","","-10","","","","","","","","","","","","","","","","","","","","","",""
"4461","","image-button-response","236","1538706","0.0-233.0","A3Q5HJTL6IKV27","img_art/16.jpg","2","","","","","","","","","","","","","","","","","","","","","","","","",""
"2389","","image-button-response","237","1541099","0.0-234.0","A3Q5HJTL6IKV27","img_art/16.jpg","5","","","","","","","","","","","","","","","","","","","","","","","","",""
"734","","image-button-response","238","1541836","0.0-235.0-0.0","A3Q5HJTL6IKV27","img_art/16.jpg","2","","","","","","","","","","","","","","","","","","","","","","","","",""
"419","","image-button-response","239","1542258","0.0-236.0-0.0","A3Q5HJTL6IKV27","img_art/16.jpg","1","","","","","","","","","","","","","","","","","","","","","","","","",""
"null","","html-keyboard-response","240","1543259","0.0-237.0","A3Q5HJTL6IKV27","<p style=""font-size: 48px;"">+</p>","","","","","null","allTrialResponses","1000","1","27","img_art/16.jpg","-10","A bear about to die","Brett,Dustin,Bryan,Steven,Kevin,Blake","Mixed feelings. Warm and comfy yet somewhat violent. A stark contrast,0,360,20","Upsetting and disturbing. Random bear and indistinguishable objects. None of it goes together. Too chaotic and random,-50,20,20","Something terrible happened. Either the figure on the right is the victim or another shredded toy.,-49,400,20","Not interested at all,-15,160,20","Hmm i don't know what going on here.,1,320,20","cute and warm. i like the bear,15,280,20","Blake","cute and warm. i like the bear,15,280,20","Bryan","Something terrible happened. Either the figure on the right is the victim or another shredded toy.,-49,400,20","Dustin","Upsetting and disturbing. Random bear and indistinguishable objects. None of it goes together. Too chaotic and random,-50,20,20","6"
"8398","","survey-text","241","1551667","0.0-238.0-0.0","A3Q5HJTL6IKV27","","","","{""Q0"":""A balance of colors""}","","","","","","","","","","","","","","","","","","","","","","",""
"2039.699999988079","","image-slider-response","242","1553710","0.0-239.0","A3Q5HJTL6IKV27","","","","","16","","","","","","","","","","","","","","","","","","","","","",""
"3178","","image-button-response","243","1558718","0.0-240.0","A3Q5HJTL6IKV27","img_art/12.jpg","3","","","","","","","","","","","","","","","","","","","","","","","","",""
"618","","image-button-response","244","1559339","0.0-241.0","A3Q5HJTL6IKV27","img_art/12.jpg","4","","","","","","","","","","","","","","","","","","","","","","","","",""
"1253","","image-button-response","245","1560595","0.0-242.0-0.0","A3Q5HJTL6IKV27","img_art/12.jpg","2","","","","","","","","","","","","","","","","","","","","","","","","",""
"348","","image-button-response","246","1560945","0.0-243.0-0.0","A3Q5HJTL6IKV27","img_art/12.jpg","1","","","","","","","","","","","","","","","","","","","","","","","","",""
"null","","html-keyboard-response","247","1561947","0.0-244.0","A3Q5HJTL6IKV27","<p style=""font-size: 48px;"">+</p>","","","","","null","allTrialResponses","1000","1","28","img_art/12.jpg","16","A balance of colors","Devon,Dustin,Bryan,Jesus,Ian,Blake","too much - just overcrowded,-20,400,20","Squares are rigid. I'm ambivalent.,1,20,20","Love the colors & the abstractness.,31,400,20","I like the color scheme.,10,100,20","This is like going to a really old mcdoanlds in a tiny town and it's never been renovated so it's breaking down,-31,260,20","negative feelings with these blocks,-20,280,20","Ian","This is like going to a really old mcdoanlds in a tiny town and it's never been renovated so it's breaking down,-31,260,20","Bryan","Love the colors & the abstractness.,31,400,20","Dustin","Squares are rigid. I'm ambivalent.,1,20,20","6"
"13032","","survey-text","248","1574992","0.0-245.0-0.0","A3Q5HJTL6IKV27","","","","{""Q0"":""The gravels among the path""}","","","","","","","","","","","","","","","","","","","","","","",""
"2237.800000011921","","image-slider-response","249","1577232","0.0-246.0","A3Q5HJTL6IKV27","","","","","-23","","","","","","","","","","","","","","","","","","","","","",""
"null","","image-button-response","250","1582239","0.0-247.0","A3Q5HJTL6IKV27","img_art/7.jpg","null","","","","","","","","","","","","","","","","","","","","","","","","",""
"142","","image-button-response","251","1582384","0.0-248.0","A3Q5HJTL6IKV27","img_art/7.jpg","5","","","","","","","","","","","","","","","","","","","","","","","","",""
"1772","","image-button-response","252","1584159","0.0-249.0-0.0","A3Q5HJTL6IKV27","img_art/7.jpg","2","","","","","","","","","","","","","","","","","","","","","","","","",""
"2322","","image-button-response","253","1586483","0.0-250.0-0.0","A3Q5HJTL6IKV27","img_art/7.jpg","3","","","","","","","","","","","","","","","","","","","","","","","","",""
"null","","html-keyboard-response","254","1586985","0.0-251.0","A3Q5HJTL6IKV27","<p style=""font-size: 48px;"">+</p>","","","","","null","allTrialResponses","500","1","29","img_art/7.jpg","-23","The gravels among the path","Isaiah,Dustin,Bryan,Trevor,Ian,Luis","I feel relaxed and a little nostalgic, like I'm exploring the wall of a very old building.,18,300,20","I see dryness, which is sad. Dirt, sand, the dessert. Barren dry lifeless,-30,20,20","Makes me itch - looks like a closeup of an ant colony or something.,-1,400,20","looks like the surface of the moon,-28,280,20","This looks like a literal picture of the ground so I'm really not too sure about this one.,-42,260,20","Not getting the vibe i would like from this,-30,400,20","Luis","Not getting the vibe i would like from this,-30,400,20","Bryan","Makes me itch - looks like a closeup of an ant colony or something.,-1,400,20","Trevor","looks like the surface of the moon,-28,280,20","6"
"205756","","survey-text","255","1792749","0.0-252.0-0.0","A3Q5HJTL6IKV27","","","","{""Q0"":""Death in an outline""}","","","","","","","","","","","","","","","","","","","","","","",""
"1738.0999999940395","","image-slider-response","256","1794494","0.0-253.0","A3Q5HJTL6IKV27","","","","","-15","","","","","","","","","","","","","","","","","","","","","",""
"null","","image-button-response","257","1799505","0.0-254.0","A3Q5HJTL6IKV27","img_art/25.jpg","null","","","","","","","","","","","","","","","","","","","","","","","","",""
"349","","image-button-response","258","1799859","0.0-255.0","A3Q5HJTL6IKV27","img_art/25.jpg","5","","","","","","","","","","","","","","","","","","","","","","","","",""
"1210","","image-button-response","259","1801075","0.0-256.0-0.0","A3Q5HJTL6IKV27","img_art/25.jpg","2","","","","","","","","","","","","","","","","","","","","","","","","",""
"576","","image-button-response","260","1801652","0.0-257.0-0.0","A3Q5HJTL6IKV27","img_art/25.jpg","0","","","","","","","","","","","","","","","","","","","","","","","","",""
"null","","html-keyboard-response","261","1802660","0.0-258.0","A3Q5HJTL6IKV27","<p style=""font-size: 48px;"">+</p>","","","","","null","allTrialResponses","1000","1","30","img_art/25.jpg","-15","Death in an outline","Victor,Matthew,Bryan,Trevor,Tanner,Luis","Love the colors, and how it's simple yet complex,25,340,20","haunting, a lovely impression.,50,120,20","Scary. Something out of a Stephen King book/movie.,-31,400,20","nice colors and it looks like a native work,32,280,20","reminds me of the grim reaper,3,180,20","New life, rising from your personal battles,50,400,20","Luis","New life, rising from your personal battles,50,400,20","Bryan","Scary. Something out of a Stephen King book/movie.,-31,400,20","Victor","Love the colors, and how it's simple yet complex,25,340,20","6"
"2065","","image-button-response_instructions","262","1804750","0.0-259.0","A3Q5HJTL6IKV27","","0","instructions","","","","","","","","","","","","","","","","","","","","","","","",""
"1158","","image-button-response","263","1805921","0.0-260.0","A3Q5HJTL6IKV27","","0","","","","","","","","","","","","","","","","","","","","","","","","",""
