"rt","url","trial_type","trial_index","time_elapsed","internal_node_id","participant_id","stimulus","button_pressed","Name","responses","response","key_press","variableName","fixationTime","condition","trial","photo","subjectRating","subjectResponse","agentsNames","agent_1_Response","agent_2_Response","agent_3_Response","agent_4_Response","agent_5_Response","agent_6_Response","kept_1_name","kept_1_response","kept_2_name","kept_2_response","kept_3_name","kept_3_response","errorCounter"
"239643","external_page_harvard.html","external-html","0","239720","0.0-0.0","A3RIX2H2NYLNC4","","","","","","","","","","","","","","","","","","","","","","","","","","",""
"2069","","image-button-response","1","241791","0.0-1.0","A3RIX2H2NYLNC4","","1","","","","","","","","","","","","","","","","","","","","","","","","",""
"1467","","image-button-response","2","243263","0.0-2.0-0.0","A3RIX2H2NYLNC4","","1","phone","","","","","","","","","","","","","","","","","","","","","","","",""
"3375","","survey-text","3","246639","0.0-3.0-0.0","A3RIX2H2NYLNC4","","","","{""Q0"":""A3RIX2H2NYLNC4""}","","","","","","","","","","","","","","","","","","","","","","",""
"14016","","image-button-response_instructions","4","260657","0.0-4.0","A3RIX2H2NYLNC4","","0","instructions","","","","","","","","","","","","","","","","","","","","","","","",""
"11993","","image-button-response_instructions","5","272650","0.0-5.0","A3RIX2H2NYLNC4","img_art/ins/popularity/ins1.png","0","instructions","","","","","","","","","","","","","","","","","","","","","","","",""
"3031","","image-button-response_instructions","6","275683","0.0-6.0","A3RIX2H2NYLNC4","img_art/ins/popularity/ins2.png","0","instructions","","","","","","","","","","","","","","","","","","","","","","","",""
"6976","","image-button-response_instructions","7","282660","0.0-7.0","A3RIX2H2NYLNC4","img_art/ins/popularity/ins2Extreme.png","0","instructions","","","","","","","","","","","","","","","","","","","","","","","",""
"6552","","image-button-response_instructions","8","289212","0.0-8.0","A3RIX2H2NYLNC4","img_art/ins/popularity/ins3KEEPpop.PNG","0","instructions","","","","","","","","","","","","","","","","","","","","","","","",""
"4335","","image-button-response_instructions","9","293548","0.0-9.0","A3RIX2H2NYLNC4","img_art/ins/popularity/ins3ANamepop.PNG","0","instructions","","","","","","","","","","","","","","","","","","","","","","","",""
"2727","","image-button-response_instructions","10","296277","0.0-10.0","A3RIX2H2NYLNC4","img_art/ins/popularity/ins3ARatingpop.png","0","instructions","","","","","","","","","","","","","","","","","","","","","","","",""
"2215","","image-button-response_instructions","11","298493","0.0-11.0","A3RIX2H2NYLNC4","img_art/ins/popularity/ins3ATextpop.png","0","instructions","","","","","","","","","","","","","","","","","","","","","","","",""
"27219","","image-button-response_instructions","12","325713","0.0-12.0","A3RIX2H2NYLNC4","img_art/ins/popularity/ins3ALikespop.png","0","instructions","","","","","","","","","","","","","","","","","","","","","","","",""
"18312","","image-button-response_instructions","13","344027","0.0-13.0","A3RIX2H2NYLNC4","img_art/ins/popularity/ins3KEEPpop.PNG","0","instructions","","","","","","","","","","","","","","","","","","","","","","","",""
"8104","","image-button-response_instructions","14","352131","0.0-14.0","A3RIX2H2NYLNC4","img_art/ins/popularity/ins3_5RED.png","0","instructions","","","","","","","","","","","","","","","","","","","","","","","",""
"3719","","image-button-response_instructions","15","355852","0.0-15.0","A3RIX2H2NYLNC4","img_art/ins/popularity/ins3KEEPpop.PNG","0","instructions","","","","","","","","","","","","","","","","","","","","","","","",""
"13625","","image-button-response_instructions","16","369478","0.0-16.0","A3RIX2H2NYLNC4","img_art/ins/popularity/ins4KEEPpop.PNG","0","instructions","","","","","","","","","","","","","","","","","","","","","","","",""
"3696","","image-button-response_instructions","17","373174","0.0-17.0","A3RIX2H2NYLNC4","img_art/ins/popularity/ins5KEEPpop.PNG","0","instructions","","","","","","","","","","","","","","","","","","","","","","","",""
"2006","","image-button-response_instructions","18","375182","0.0-18.0","A3RIX2H2NYLNC4","","0","instructions","","","","","","","","","","","","","","","","","","","","","","","",""
"4173","","survey-text","19","379374","0.0-19.0-0.0","A3RIX2H2NYLNC4","","","","{""Q0"":""but""}","","","","","","","","","","","","","","","","","","","","","","",""
"19441","","survey-text","20","398817","0.0-20.0-0.0","A3RIX2H2NYLNC4","","","","{""Q0"":""I think it is a good use of complementing colors but I don't like the random lines.""}","","","","","","","","","","","","","","","","","","","","","","",""
"3206.2999999523163","","image-slider-response","21","402026","0.0-21.0","A3RIX2H2NYLNC4","","","","","-20","","","","","","","","","","","","","","","","","","","","","",""
"null","","image-button-response","22","407029","0.0-22.0","A3RIX2H2NYLNC4","img_art/ins/1.jpg","null","","","","","","","","","","","","","","","","","","","","","","","","",""
"3932","","image-button-response","23","410963","0.0-23.0","A3RIX2H2NYLNC4","img_art/ins/1.jpg","1","","","","","","","","","","","","","","","","","","","","","","","","",""
"1470","","image-button-response","24","412434","0.0-24.0-0.0","A3RIX2H2NYLNC4","img_art/ins/1.jpg","2","","","","","","","","","","","","","","","","","","","","","","","","",""
"2150","","image-button-response","25","414587","0.0-25.0-0.0","A3RIX2H2NYLNC4","img_art/ins/1.jpg","3","","","","","","","","","","","","","","","","","","","","","","","","",""
"null","","html-keyboard-response","26","415590","0.0-26.0","A3RIX2H2NYLNC4","<p style=""font-size: 48px;"">+</p>","","","","","null","allTrialResponses","1000","1","-2","img_art/ins/1.jpg","-20","I think it is a good use of complementing colors but I don't like the random lines.","Allison,Ashley,Beth,Dora,Erika,Jen","looks like a lot of things going on in the mist,20,20,20","I just don't get why these type of art would be popular,-32,40,20","This color reminds me of poo,-46,60,20","looks like what my niece in 3rd grade did this afternoon,-50,80,20","I like the sophisticated brushwork,40,100,20","It reminds me of a candy land dream I had,36,120,20","Ashley","I just don't get why these type of art would be popular,-32,40,20","Beth","This color reminds me of poo,-46,60,20","Dora","looks like what my niece in 3rd grade did this afternoon,-50,80,20","0"
"21995","","survey-text","27","437589","0.0-27.0-0.0","A3RIX2H2NYLNC4","","","","{""Q0"":""I really like this one because of the red, blue and yellow and also because I can see shapes inside of the colors.""}","","","","","","","","","","","","","","","","","","","","","","",""
"6327.5","","image-slider-response","28","443918","0.0-28.0","A3RIX2H2NYLNC4","","","","","27","","","","","","","","","","","","","","","","","","","","","",""
"null","","image-button-response","29","448921","0.0-29.0","A3RIX2H2NYLNC4","img_art/ins/2.jpg","null","","","","","","","","","","","","","","","","","","","","","","","","",""
"1004","","image-button-response","30","449928","0.0-30.0","A3RIX2H2NYLNC4","img_art/ins/2.jpg","4","","","","","","","","","","","","","","","","","","","","","","","","",""
"7455","","image-button-response","31","457384","0.0-31.0-0.0","A3RIX2H2NYLNC4","img_art/ins/2.jpg","5","","","","","","","","","","","","","","","","","","","","","","","","",""
"6463","","image-button-response","32","463848","0.0-32.0-0.0","A3RIX2H2NYLNC4","img_art/ins/2.jpg","1","","","","","","","","","","","","","","","","","","","","","","","","",""
"null","","html-keyboard-response","33","465351","0.0-33.0","A3RIX2H2NYLNC4","<p style=""font-size: 48px;"">+</p>","","","","","null","allTrialResponses","1500","1","-1","img_art/ins/2.jpg","27","I really like this one because of the red, blue and yellow and also because I can see shapes inside of the colors.","Jenna,Ashley,Beth,Dora,Kara,Katie","One of my pet peevs,-48,140,20","Idk, it is just annoying,-32,40,20","meaningless painting,-45,60,20","looks too angry,-50,80,20","I like the blocks of color arrangements,30,160,20","too much color!,-28,180,20","Kara","I like the blocks of color arrangements,30,160,20","Katie","too much color!,-28,180,20","Ashley","Idk, it is just annoying,-32,40,20","0"
"18327","","survey-text","34","483683","0.0-34.0-0.0","A3RIX2H2NYLNC4","","","","{""Q0"":""The blue colors make me feel cold and I like the marks they made.""}","","","","","","","","","","","","","","","","","","","","","","",""
"3943.2000000476837","","image-slider-response","35","487628","0.0-35.0","A3RIX2H2NYLNC4","","","","","22","","","","","","","","","","","","","","","","","","","","","",""
"2614","","image-button-response","36","492630","0.0-36.0","A3RIX2H2NYLNC4","img_art/ins/3.jpg","0","","","","","","","","","","","","","","","","","","","","","","","","",""
"3492","","image-button-response","37","496125","0.0-37.0","A3RIX2H2NYLNC4","img_art/ins/3.jpg","4","","","","","","","","","","","","","","","","","","","","","","","","",""
"1887","","image-button-response","38","498014","0.0-38.0-0.0","A3RIX2H2NYLNC4","img_art/ins/3.jpg","0","","","","","","","","","","","","","","","","","","","","","","","","",""
"2726","","image-button-response","39","500742","0.0-39.0-0.0","A3RIX2H2NYLNC4","img_art/ins/3.jpg","3","","","","","","","","","","","","","","","","","","","","","","","","",""
"null","","html-keyboard-response","40","502243","0.0-40.0","A3RIX2H2NYLNC4","<p style=""font-size: 48px;"">+</p>","","","","","null","allTrialResponses","1500","1","0","img_art/ins/3.jpg","22","The blue colors make me feel cold and I like the marks they made.","Mary,Ashley,Rose,Leslie,Kara,Katie","I like the overlapping of brushes,41,220,20","It looks like a playground for bats,-36,40,20","My daily routine, it's depressing,-20,240,20","It's an alright work,15,200,20","calming blue is very nice,36,160,20","It looks depressing,-26,180,20","Kara","calming blue is very nice,36,160,20","Mary","I like the overlapping of brushes,41,220,20","Leslie","It's an alright work,15,200,20","0"
"7206","","image-button-response_instructions","41","509455","0.0-41.0","A3RIX2H2NYLNC4","","0","instructions","","","","","","","","","","","","","","","","","","","","","","","",""
"11680","","survey-likert","42","521136","0.0-42.0-0.0","A3RIX2H2NYLNC4","","","","{""Q0"":"""",""Q1"":0,""Q2"":1}","","","","","","","","","","","","","","","","","","","","","","",""
"3640","","survey-text","43","524784","0.0-43.0-0.0","A3RIX2H2NYLNC4","","","","{""Q0"":""rock""}","","","","","","","","","","","","","","","","","","","","","","",""
"20657","","survey-text","44","545442","0.0-44.0-0.0","A3RIX2H2NYLNC4","","","","{""Q0"":""This is interesting because it looks like a plant growing out of the Earth, but I don't like the way they colored.""}","","","","","","","","","","","","","","","","","","","","","","",""
"2199.2999999523163","","image-slider-response","45","547643","0.0-45.0","A3RIX2H2NYLNC4","","","","","-10","","","","","","","","","","","","","","","","","","","","","",""
"null","","image-button-response","46","552668","0.0-46.0","A3RIX2H2NYLNC4","img_art/6.jpg","null","","","","","","","","","","","","","","","","","","","","","","","","",""
"1958","","image-button-response","47","554628","0.0-47.0","A3RIX2H2NYLNC4","img_art/6.jpg","5","","","","","","","","","","","","","","","","","","","","","","","","",""
"542","","image-button-response","48","555172","0.0-48.0-0.0","A3RIX2H2NYLNC4","img_art/6.jpg","1","","","","","","","","","","","","","","","","","","","","","","","","",""
"3206","","image-button-response","49","558381","0.0-49.0-0.0","A3RIX2H2NYLNC4","img_art/6.jpg","4","","","","","","","","","","","","","","","","","","","","","","","","",""
"null","","html-keyboard-response","50","558882","0.0-50.0","A3RIX2H2NYLNC4","<p style=""font-size: 48px;"">+</p>","","","","","null","allTrialResponses","500","1","1","img_art/6.jpg","-10","This is interesting because it looks like a plant growing out of the Earth, but I don't like the way they colored.","Kaylee,Cassandra,Sarah,Natalie,Haley,Kylie","just an another tree on a desert?,9,200,20","No feeling...just left me feeling kind of blah,1,120,20","it's interesting but I don't love it,10,180,20","reminds me a giant peach,19,400,20","I like the color and the gradient,10,220,20","Reminds me of feeling incomplete,1,300,20","Kylie","Reminds me of feeling incomplete,1,300,20","Cassandra","No feeling...just left me feeling kind of blah,1,120,20","Haley","I like the color and the gradient,10,220,20","0"
"18047","","survey-text","51","576935","0.0-51.0-0.0","A3RIX2H2NYLNC4","","","","{""Q0"":""This looks like dirt on the ground but in a good way.""}","","","","","","","","","","","","","","","","","","","","","","",""
"2910.2999999523163","","image-slider-response","52","579846","0.0-52.0","A3RIX2H2NYLNC4","","","","","15","","","","","","","","","","","","","","","","","","","","","",""
"4192","","image-button-response","53","584848","0.0-53.0","A3RIX2H2NYLNC4","img_art/7.jpg","5","","","","","","","","","","","","","","","","","","","","","","","","",""
"1973","","image-button-response","54","586823","0.0-54.0","A3RIX2H2NYLNC4","img_art/7.jpg","1","","","","","","","","","","","","","","","","","","","","","","","","",""
"2511","","image-button-response","55","589336","0.0-55.0-0.0","A3RIX2H2NYLNC4","img_art/7.jpg","2","","","","","","","","","","","","","","","","","","","","","","","","",""
"718","","image-button-response","56","590056","0.0-56.0-0.0","A3RIX2H2NYLNC4","img_art/7.jpg","5","","","","","","","","","","","","","","","","","","","","","","","","",""
"null","","html-keyboard-response","57","591558","0.0-57.0","A3RIX2H2NYLNC4","<p style=""font-size: 48px;"">+</p>","","","","","null","allTrialResponses","1500","1","2","img_art/7.jpg","15","This looks like dirt on the ground but in a good way.","Kelly,Cassandra,Madison,Lindsey,Haley,Kylie","My firs thought was ""gross""...not sure what this is and I dont think i want to know.,-19,220,20","Just neutral...looks like sand at the beach.,3,120,20","Is this a painting, really? Very compelling if so, the texture work is incredible.,15,60,20","It's dirty. I don't mind the colors so much as the way they are put together in this dirty-looking pattern.,-41,400,20","Confusion, mild aversion,-36,220,20","No particular reaction to this,10,300,20","Cassandra","Just neutral...looks like sand at the beach.,3,120,20","Madison","Is this a painting, really? Very compelling if so, the texture work is incredible.,15,60,20","Kylie","No particular reaction to this,10,300,20","0"
"16317","","survey-text","58","607881","0.0-58.0-0.0","A3RIX2H2NYLNC4","","","","{""Q0"":""I really like the contrasting colors, the red and blue. I can almost see water and a fight happening.""}","","","","","","","","","","","","","","","","","","","","","","",""
"3735.2000000476837","","image-slider-response","59","611618","0.0-59.0","A3RIX2H2NYLNC4","","","","","46","","","","","","","","","","","","","","","","","","","","","",""
"null","","image-button-response","60","616621","0.0-60.0","A3RIX2H2NYLNC4","img_art/21.jpg","null","","","","","","","","","","","","","","","","","","","","","","","","",""
"452","","image-button-response","61","617075","0.0-61.0","A3RIX2H2NYLNC4","img_art/21.jpg","0","","","","","","","","","","","","","","","","","","","","","","","","",""
"1335","","image-button-response","62","618411","0.0-62.0-0.0","A3RIX2H2NYLNC4","img_art/21.jpg","3","","","","","","","","","","","","","","","","","","","","","","","","",""
"1022","","image-button-response","63","619435","0.0-63.0-0.0","A3RIX2H2NYLNC4","img_art/21.jpg","0","","","","","","","","","","","","","","","","","","","","","","","","",""
"3215","","image-button-response","64","626019","0.0-63.1-0.1","A3RIX2H2NYLNC4","img_art/21.jpg","4","","","","","","","","","","","","","","","","","","","","","","","","",""
"null","","html-keyboard-response","65","626522","0.0-64.0","A3RIX2H2NYLNC4","<p style=""font-size: 48px;"">+</p>","","","","","null","allTrialResponses","500","1","3","img_art/21.jpg","46","I really like the contrasting colors, the red and blue. I can almost see water and a fight happening.","Dominique,Cassandra,Madison,Leah,Miranda,Kylie","Love the colors have to say this is my favorite above all,37,400,20","I liked it...it looked like a storm raging.,12,120,20","War! But then, what? And then, what of it? Intention seems incomplete, or not fully committed to.,-19,60,20","Love the colors, uplifting and stormy at the same time,32,360,20","This looks very interesting because something is happening but I can't tell what.,28,320,20","Makes me think of a battleship targeting a beautiful mountainside,0,300,20","Dominique","Love the colors have to say this is my favorite above all,37,400,20","Leah","Love the colors, uplifting and stormy at the same time,32,360,20","Miranda","This looks very interesting because something is happening but I can't tell what.,28,320,20","2"
"10358","","survey-text","66","636885","0.0-65.0-0.0","A3RIX2H2NYLNC4","","","","{""Q0"":""This makes me feel like a roller coaster and anxious.""}","","","","","","","","","","","","","","","","","","","","","","",""
"1726.6999999284744","","image-slider-response","67","638613","0.0-66.0","A3RIX2H2NYLNC4","","","","","-23","","","","","","","","","","","","","","","","","","","","","",""
"null","","image-button-response","68","643616","0.0-67.0","A3RIX2H2NYLNC4","img_art/10.jpg","null","","","","","","","","","","","","","","","","","","","","","","","","",""
"2587","","image-button-response","69","646207","0.0-68.0","A3RIX2H2NYLNC4","img_art/10.jpg","2","","","","","","","","","","","","","","","","","","","","","","","","",""
"1959","","image-button-response","70","648166","0.0-69.0-0.0","A3RIX2H2NYLNC4","img_art/10.jpg","4","","","","","","","","","","","","","","","","","","","","","","","","",""
"407","","image-button-response","71","648575","0.0-70.0-0.0","A3RIX2H2NYLNC4","img_art/10.jpg","3","","","","","","","","","","","","","","","","","","","","","","","","",""
"null","","html-keyboard-response","72","649576","0.0-71.0","A3RIX2H2NYLNC4","<p style=""font-size: 48px;"">+</p>","","","","","null","allTrialResponses","1000","1","4","img_art/10.jpg","-23","This makes me feel like a roller coaster and anxious.","Dominique,Angela,Katherine,Leah,Miranda,Breanna","A very conversational piece could be of many different ideas,38,400,20","This makes me think of a city, specifically London.,20,260,20","This is pretty rad. The outline looks like a music staff,15,120,20","Dark with no object, looks like experimentation, slightly like a storm on the ocean,-21,360,20","It reminds me of how my dog has to run all over the place just to poop in one specific location.,-20,320,20","Makes me feel amazed,23,380,20","Katherine","This is pretty rad. The outline looks like a music staff,15,120,20","Miranda","It reminds me of how my dog has to run all over the place just to poop in one specific location.,-20,320,20","Leah","Dark with no object, looks like experimentation, slightly like a storm on the ocean,-21,360,20","2"
"10618","","survey-text","73","660199","0.0-72.0-0.0","A3RIX2H2NYLNC4","","","","{""Q0"":""This is beautiful and peaceful, like a flowing creek.""}","","","","","","","","","","","","","","","","","","","","","","",""
"2166.8000000715256","","image-slider-response","74","662367","0.0-73.0","A3RIX2H2NYLNC4","","","","","20","","","","","","","","","","","","","","","","","","","","","",""
"null","","image-button-response","75","667370","0.0-74.0","A3RIX2H2NYLNC4","img_art/24.jpg","null","","","","","","","","","","","","","","","","","","","","","","","","",""
"1229","","image-button-response","76","668601","0.0-75.0","A3RIX2H2NYLNC4","img_art/24.jpg","4","","","","","","","","","","","","","","","","","","","","","","","","",""
"1894","","image-button-response","77","670497","0.0-76.0-0.0","A3RIX2H2NYLNC4","img_art/24.jpg","0","","","","","","","","","","","","","","","","","","","","","","","","",""
"5951","","image-button-response","78","676449","0.0-77.0-0.0","A3RIX2H2NYLNC4","img_art/24.jpg","2","","","","","","","","","","","","","","","","","","","","","","","","",""
"null","","html-keyboard-response","79","677951","0.0-78.0","A3RIX2H2NYLNC4","<p style=""font-size: 48px;"">+</p>","","","","","null","allTrialResponses","1500","1","5","img_art/24.jpg","20","This is beautiful and peaceful, like a flowing creek.","Kathryn,Isabella,Katherine,Leah,Miranda,Amanda","This is clear and healthy. It makes me think of unspoiled nature.,20,140,20","A peaceful day by the river,42,280,20","The combination of nature / realism with abstract colors is unique.,39,120,20","Happy, the forest as I would love to see it,50,360,20","I find the colors work really well. It's very pretty but I have no idea as what it is.,34,320,20","Beautiful,  peaceful,50,180,20","Miranda","I find the colors work really well. It's very pretty but I have no idea as what it is.,34,320,20","Kathryn","This is clear and healthy. It makes me think of unspoiled nature.,20,140,20","Katherine","The combination of nature / realism with abstract colors is unique.,39,120,20","2"
"3306","","survey-text","80","681266","0.0-79.0-0.0","A3RIX2H2NYLNC4","","","","{""Q0"":""sky""}","","","","","","","","","","","","","","","","","","","","","","",""
"12752","","survey-text","81","694019","0.0-80.0-0.0","A3RIX2H2NYLNC4","","","","{""Q0"":""I don't like the colors being muddy and mixed too much together.""}","","","","","","","","","","","","","","","","","","","","","","",""
"2334.8000000715256","","image-slider-response","82","696356","0.0-81.0","A3RIX2H2NYLNC4","","","","","-42","","","","","","","","","","","","","","","","","","","","","",""
"null","","image-button-response","83","701358","0.0-82.0","A3RIX2H2NYLNC4","img_art/2.jpg","null","","","","","","","","","","","","","","","","","","","","","","","","",""
"1206","","image-button-response","84","702565","0.0-83.0","A3RIX2H2NYLNC4","img_art/2.jpg","5","","","","","","","","","","","","","","","","","","","","","","","","",""
"4631","","image-button-response","85","707197","0.0-84.0-0.0","A3RIX2H2NYLNC4","img_art/2.jpg","4","","","","","","","","","","","","","","","","","","","","","","","","",""
"4095","","image-button-response","86","711294","0.0-85.0-0.0","A3RIX2H2NYLNC4","img_art/2.jpg","0","","","","","","","","","","","","","","","","","","","","","","","","",""
"null","","html-keyboard-response","87","712795","0.0-86.0","A3RIX2H2NYLNC4","<p style=""font-size: 48px;"">+</p>","","","","","null","allTrialResponses","1500","1","6","img_art/2.jpg","-42","I don't like the colors being muddy and mixed too much together.","Kathryn,Megan,Katherine,Olivia,Miranda,Marissa","I think I'm put off by the clashing colors here. It feels discombobulated and sick.,-10,140,20","Colors and space work but the top scribbled killed it.,11,200,20","The color combo is kind of ugly but there's something charming about it still,17,120,20","i liked the bright colors,13,40,20","I don't really like this but at the same time it's cute. It looks like a little monster kid.,-9,320,20","I feel bothered by the dark and dingy choice of colors,-22,160,20","Marissa","I feel bothered by the dark and dingy choice of colors,-22,160,20","Miranda","I don't really like this but at the same time it's cute. It looks like a little monster kid.,-9,320,20","Kathryn","I think I'm put off by the clashing colors here. It feels discombobulated and sick.,-10,140,20","2"
"13641","","survey-text","88","726440","0.0-87.0-0.0","A3RIX2H2NYLNC4","","","","{""Q0"":""I like the splatter affect but it looks way overused here.""}","","","","","","","","","","","","","","","","","","","","","","",""
"1806.6999999284744","","image-slider-response","89","728247","0.0-88.0","A3RIX2H2NYLNC4","","","","","-20","","","","","","","","","","","","","","","","","","","","","",""
"null","","image-button-response","90","733249","0.0-89.0","A3RIX2H2NYLNC4","img_art/13.jpg","null","","","","","","","","","","","","","","","","","","","","","","","","",""
"1981","","image-button-response","91","735233","0.0-90.0","A3RIX2H2NYLNC4","img_art/13.jpg","4","","","","","","","","","","","","","","","","","","","","","","","","",""
"4415","","image-button-response","92","739650","0.0-91.0-0.0","A3RIX2H2NYLNC4","img_art/13.jpg","2","","","","","","","","","","","","","","","","","","","","","","","","",""
"1078","","image-button-response","93","740729","0.0-92.0-0.0","A3RIX2H2NYLNC4","img_art/13.jpg","0","","","","","","","","","","","","","","","","","","","","","","","","",""
"null","","html-keyboard-response","94","741731","0.0-93.0","A3RIX2H2NYLNC4","<p style=""font-size: 48px;"">+</p>","","","","","null","allTrialResponses","1000","1","7","img_art/13.jpg","-20","I like the splatter affect but it looks way overused here.","Kathryn,Leslie,Sophia,Nicole,Miranda,Marissa","Reminds me of depression anxiety, but negativity is dampened by motion. It's trying to release itself through expression.,-10,140,20","This elicits no reaction in me.,0,380,20","I like the colors used in this piece.,2,280,20","It's pretty basic but it makes me feel like I'm looking at the ocean,30,20,20","This looks like something that could be made off of windows paint, not a huge fan.,-30,320,20","It reminds me of looking out the window on a stormy night at cars drive by,21,160,20","Miranda","This looks like something that could be made off of windows paint, not a huge fan.,-30,320,20","Sophia","I like the colors used in this piece.,2,280,20","Kathryn","Reminds me of depression anxiety, but negativity is dampened by motion. It's trying to release itself through expression.,-10,140,20","2"
"19062","","survey-text","95","760796","0.0-94.0-0.0","A3RIX2H2NYLNC4","","","","{""Q0"":""I really like the way this one looks and the colors used. It feels like someone is pushing something up a hill at the bottom.""}","","","","","","","","","","","","","","","","","","","","","","",""
"2206.1999999284744","","image-slider-response","96","763004","0.0-95.0","A3RIX2H2NYLNC4","","","","","23","","","","","","","","","","","","","","","","","","","","","",""
"null","","image-button-response","97","768007","0.0-96.0","A3RIX2H2NYLNC4","img_art/22.jpg","null","","","","","","","","","","","","","","","","","","","","","","","","",""
"2108","","image-button-response","98","770117","0.0-97.0","A3RIX2H2NYLNC4","img_art/22.jpg","4","","","","","","","","","","","","","","","","","","","","","","","","",""
"3342","","image-button-response","99","773460","0.0-98.0-0.0","A3RIX2H2NYLNC4","img_art/22.jpg","1","","","","","","","","","","","","","","","","","","","","","","","","",""
"4694","","image-button-response","100","778157","0.0-99.0-0.0","A3RIX2H2NYLNC4","img_art/22.jpg","0","","","","","","","","","","","","","","","","","","","","","","","","",""
"null","","html-keyboard-response","101","779158","0.0-100.0","A3RIX2H2NYLNC4","<p style=""font-size: 48px;"">+</p>","","","","","null","allTrialResponses","1000","1","8","img_art/22.jpg","23","I really like the way this one looks and the colors used. It feels like someone is pushing something up a hill at the bottom.","Kathryn,Alexandra,Sophia,Ashley,Miranda,Courtney","This piece gives off a cool vibe. Reminds me of being out in the city at night.,20,140,20","The colors in this picture are nice.,32,60,20","I like this one. There is a lot to see if you keep looking for it.,27,280,20","Another servicable piece of abstract art?,20,320,20","Its very warm, it reminds of someone not liking their painting so they destoryed it,26,320,20","Looks hot where ever that is.,-8,280,20","Miranda","Its very warm, it reminds of someone not liking their painting so they destoryed it,26,320,20","Alexandra","The colors in this picture are nice.,32,60,20","Kathryn","This piece gives off a cool vibe. Reminds me of being out in the city at night.,20,140,20","2"
"14270","","survey-text","102","793431","0.0-101.0-0.0","A3RIX2H2NYLNC4","","","","{""Q0"":""This is beautiful. I like that the sketch is still visible beneath the colors.""}","","","","","","","","","","","","","","","","","","","","","","",""
"6999.200000047684","","image-slider-response","103","800431","0.0-102.0","A3RIX2H2NYLNC4","","","","","50","","","","","","","","","","","","","","","","","","","","","",""
"null","","image-button-response","104","805433","0.0-103.0","A3RIX2H2NYLNC4","img_art/17.jpg","null","","","","","","","","","","","","","","","","","","","","","","","","",""
"1557","","image-button-response","105","806993","0.0-104.0","A3RIX2H2NYLNC4","img_art/17.jpg","1","","","","","","","","","","","","","","","","","","","","","","","","",""
"3703","","image-button-response","106","810697","0.0-105.0-0.0","A3RIX2H2NYLNC4","img_art/17.jpg","3","","","","","","","","","","","","","","","","","","","","","","","","",""
"1543","","image-button-response","107","812242","0.0-106.0-0.0","A3RIX2H2NYLNC4","img_art/17.jpg","2","","","","","","","","","","","","","","","","","","","","","","","","",""
"null","","html-keyboard-response","108","813243","0.0-107.0","A3RIX2H2NYLNC4","<p style=""font-size: 48px;"">+</p>","","","","","null","allTrialResponses","1000","1","9","img_art/17.jpg","50","This is beautiful. I like that the sketch is still visible beneath the colors.","Kathryn,Alexandra,Claire,Gabriela,Miranda,Jessica","Reminds me of the modern art museum in Rome. I didn't ""get"" many pieces, but had a positive cultural experience overall.,20,140,20","This is very beautiful and elegant.,42,60,20","its whimsical and light,50,260,20","This makes me feel inspired and happy. I love everything about this portrait,45,140,20","It seems a little dark but it is very beautiful,28,320,20","The way they painted the trees is so cool.,27,400,20","Alexandra","This is very beautiful and elegant.,42,60,20","Gabriela","This makes me feel inspired and happy. I love everything about this portrait,45,140,20","Claire","its whimsical and light,50,260,20","2"
"14938","","survey-text","109","828187","0.0-108.0-0.0","A3RIX2H2NYLNC4","","","","{""Q0"":""I don't like this at all, it seems like lazy finger painting with terrible color choices.""}","","","","","","","","","","","","","","","","","","","","","","",""
"2095","","image-slider-response","110","830283","0.0-109.0","A3RIX2H2NYLNC4","","","","","-47","","","","","","","","","","","","","","","","","","","","","",""
"null","","image-button-response","111","835287","0.0-110.0","A3RIX2H2NYLNC4","img_art/4.jpg","null","","","","","","","","","","","","","","","","","","","","","","","","",""
"452","","image-button-response","112","835740","0.0-111.0","A3RIX2H2NYLNC4","img_art/4.jpg","1","","","","","","","","","","","","","","","","","","","","","","","","",""
"807","","image-button-response","113","836549","0.0-112.0-0.0","A3RIX2H2NYLNC4","img_art/4.jpg","2","","","","","","","","","","","","","","","","","","","","","","","","",""
"2702","","image-button-response","114","839253","0.0-113.0-0.0","A3RIX2H2NYLNC4","img_art/4.jpg","0","","","","","","","","","","","","","","","","","","","","","","","","",""
"null","","html-keyboard-response","115","840254","0.0-114.0","A3RIX2H2NYLNC4","<p style=""font-size: 48px;"">+</p>","","","","","null","allTrialResponses","1000","1","10","img_art/4.jpg","-47","I don't like this at all, it seems like lazy finger painting with terrible color choices.","Christina,Alexandra,Claire,Gabriela,Sydney,Andrea","not enough color and too yellow for me. Not my favorite colors,-10,240,20","This artwork looks like a child did it,-41,60,20","I really don't like the colors,-26,260,20","The bold colors are exciting. It looks like a statue on someone's mantle.,18,140,20","This piece catches my eye, but it's strange to me.,10,320,20","I think it speaks to familial closeness but the tonality is offputting to me.,-10,240,20","Alexandra","This artwork looks like a child did it,-41,60,20","Claire","I really don't like the colors,-26,260,20","Christina","not enough color and too yellow for me. Not my favorite colors,-10,240,20","2"
"3153","","survey-text","116","843413","0.0-115.0-0.0","A3RIX2H2NYLNC4","","","","{""Q0"":""our""}","","","","","","","","","","","","","","","","","","","","","","",""
"23241","","survey-text","117","866656","0.0-116.0-0.0","A3RIX2H2NYLNC4","","","","{""Q0"":""It seems like a zoomed in bee with wings but I really don't like it. It's almost dirty looking.""}","","","","","","","","","","","","","","","","","","","","","","",""
"2470.7999999523163","","image-slider-response","118","869128","0.0-117.0","A3RIX2H2NYLNC4","","","","","-40","","","","","","","","","","","","","","","","","","","","","",""
"null","","image-button-response","119","874130","0.0-118.0","A3RIX2H2NYLNC4","img_art/5.jpg","null","","","","","","","","","","","","","","","","","","","","","","","","",""
"164","","image-button-response","120","874297","0.0-119.0","A3RIX2H2NYLNC4","img_art/5.jpg","0","","","","","","","","","","","","","","","","","","","","","","","","",""
"2151","","image-button-response","121","876450","0.0-120.0-0.0","A3RIX2H2NYLNC4","img_art/5.jpg","1","","","","","","","","","","","","","","","","","","","","","","","","",""
"3710","","image-button-response","122","880162","0.0-121.0-0.0","A3RIX2H2NYLNC4","img_art/5.jpg","4","","","","","","","","","","","","","","","","","","","","","","","","",""
"null","","html-keyboard-response","123","880664","0.0-122.0","A3RIX2H2NYLNC4","<p style=""font-size: 48px;"">+</p>","","","","","null","allTrialResponses","500","1","11","img_art/5.jpg","-40","It seems like a zoomed in bee with wings but I really don't like it. It's almost dirty looking.","Christina,Alexandra,Claire,Laura,Bailey,Victoria","looks like a little kids painting,-50,240,20","This looks like a twelve year old did it,-40,60,20","I like the strokes and colors used,20,260,20","fresh and fun - bright and active,16,320,20","Not sure what that even is. Looks like a 2-year old drawing,-40,360,20","very boring and plain,-35,400,20","Christina","looks like a little kids painting,-50,240,20","Alexandra","This looks like a twelve year old did it,-40,60,20","Bailey","Not sure what that even is. Looks like a 2-year old drawing,-40,360,20","2"
"16320","","survey-text","124","896987","0.0-123.0-0.0","A3RIX2H2NYLNC4","","","","{""Q0"":""I don't like the chaos in this one and there are a bunch of random circles everywhere.""}","","","","","","","","","","","","","","","","","","","","","","",""
"2414.8000000715256","","image-slider-response","125","899403","0.0-124.0","A3RIX2H2NYLNC4","","","","","-45","","","","","","","","","","","","","","","","","","","","","",""
"null","","image-button-response","126","904406","0.0-125.0","A3RIX2H2NYLNC4","img_art/14.jpg","null","","","","","","","","","","","","","","","","","","","","","","","","",""
"1164","","image-button-response","127","905574","0.0-126.0","A3RIX2H2NYLNC4","img_art/14.jpg","5","","","","","","","","","","","","","","","","","","","","","","","","",""
"4564","","image-button-response","128","910141","0.0-127.0-0.0","A3RIX2H2NYLNC4","img_art/14.jpg","0","","","","","","","","","","","","","","","","","","","","","","","","",""
"1766","","image-button-response","129","911909","0.0-128.0-0.0","A3RIX2H2NYLNC4","img_art/14.jpg","2","","","","","","","","","","","","","","","","","","","","","","","","",""
"null","","html-keyboard-response","130","913410","0.0-129.0","A3RIX2H2NYLNC4","<p style=""font-size: 48px;"">+</p>","","","","","null","allTrialResponses","1500","1","12","img_art/14.jpg","-45","I don't like the chaos in this one and there are a bunch of random circles everywhere.","Christina,Alexandra,Erika,Madeline,Bailey,Crystal","has a tree look to it and it's colors are happy,9,240,20","Pretty, dainty, unique,22,60,20","It's alright, something I'd see in a guest bedroom,10,100,20","It looks nice colorwise but detail is lacking,18,40,20","Not quite the style I'd like, but it does have a certain air of emptiness.,12,360,20","It looks like a tree but the bleeding water colors lack borders and makes it hard to appreciate the message.,-41,300,20","Crystal","It looks like a tree but the bleeding water colors lack borders and makes it hard to appreciate the message.,-41,300,20","Christina","has a tree look to it and it's colors are happy,9,240,20","Erika","It's alright, something I'd see in a guest bedroom,10,100,20","2"
"21041","","survey-text","131","934456","0.0-130.0-0.0","A3RIX2H2NYLNC4","","","","{""Q0"":""I don't like this because it looks greasy and gross with random things attached to it. The colors are dark.""}","","","","","","","","","","","","","","","","","","","","","","",""
"2270.600000023842","","image-slider-response","132","936728","0.0-131.0","A3RIX2H2NYLNC4","","","","","-50","","","","","","","","","","","","","","","","","","","","","",""
"null","","image-button-response","133","941729","0.0-132.0","A3RIX2H2NYLNC4","img_art/29.jpg","null","","","","","","","","","","","","","","","","","","","","","","","","",""
"261","","image-button-response","134","941993","0.0-133.0","A3RIX2H2NYLNC4","img_art/29.jpg","0","","","","","","","","","","","","","","","","","","","","","","","","",""
"7175","","image-button-response","135","949169","0.0-134.0-0.0","A3RIX2H2NYLNC4","img_art/29.jpg","2","","","","","","","","","","","","","","","","","","","","","","","","",""
"726","","image-button-response","136","949898","0.0-135.0-0.0","A3RIX2H2NYLNC4","img_art/29.jpg","4","","","","","","","","","","","","","","","","","","","","","","","","",""
"null","","html-keyboard-response","137","950400","0.0-136.0","A3RIX2H2NYLNC4","<p style=""font-size: 48px;"">+</p>","","","","","null","allTrialResponses","500","1","13","img_art/29.jpg","-50","I don't like this because it looks greasy and gross with random things attached to it. The colors are dark.","Christina,Anna,Erika,Julia,Kaitlin,Crystal","It's too on trend with the gray and doesn't look like a lasting piece,-4,240,20","I like the texture and colors and how it makes me feel. I like how it's different from other abstract art.,45,300,20","Feels like an abandoned dream,13,100,20","it looks like a top-down battle arena,26,40,20","seems fun, looks like a battle zone,22,60,20","Reminiscent of Jackson Pollock with a hint of abstract structure with the bordering.,32,300,20","Christina","It's too on trend with the gray and doesn't look like a lasting piece,-4,240,20","Erika","Feels like an abandoned dream,13,100,20","Kaitlin","seems fun, looks like a battle zone,22,60,20","2"
"21343","","survey-text","138","971747","0.0-137.0-0.0","A3RIX2H2NYLNC4","","","","{""Q0"":""This looks like a kid finger painted their neighborhood. It's ok, but I don't really like it.""}","","","","","","","","","","","","","","","","","","","","","","",""
"2343","","image-slider-response","139","974091","0.0-138.0","A3RIX2H2NYLNC4","","","","","-29","","","","","","","","","","","","","","","","","","","","","",""
"null","","image-button-response","140","979101","0.0-139.0","A3RIX2H2NYLNC4","img_art/26.jpg","null","","","","","","","","","","","","","","","","","","","","","","","","",""
"406","","image-button-response","141","979509","0.0-140.0","A3RIX2H2NYLNC4","img_art/26.jpg","1","","","","","","","","","","","","","","","","","","","","","","","","",""
"495","","image-button-response","142","980005","0.0-141.0-0.0","A3RIX2H2NYLNC4","img_art/26.jpg","0","","","","","","","","","","","","","","","","","","","","","","","","",""
"1470","","image-button-response","143","981477","0.0-142.0-0.0","A3RIX2H2NYLNC4","img_art/26.jpg","2","","","","","","","","","","","","","","","","","","","","","","","","",""
"null","","html-keyboard-response","144","982477","0.0-143.0","A3RIX2H2NYLNC4","<p style=""font-size: 48px;"">+</p>","","","","","null","allTrialResponses","1000","1","14","img_art/26.jpg","-29","This looks like a kid finger painted their neighborhood. It's ok, but I don't really like it.","Christina,Alexis,Erika,Mariah,Kaitlin,Rachel","looks like a little kids painting,-17,240,20","Much too simple and without color for my taste,-33,100,20","Feels like still life,-13,100,20","Pleasant but bland.,10,140,20","i can feel the warmth,12,60,20","Pretty trees and bushes around fancy brown stones. I like the soft nature.,20,80,20","Alexis","Much too simple and without color for my taste,-33,100,20","Christina","looks like a little kids painting,-17,240,20","Erika","Feels like still life,-13,100,20","2"
"13422","","survey-text","145","995902","0.0-144.0-0.0","A3RIX2H2NYLNC4","","","","{""Q0"":""I like this one, it looks like it has texture and like something archaic that was drawn.""}","","","","","","","","","","","","","","","","","","","","","","",""
"2310.5","","image-slider-response","146","998215","0.0-145.0","A3RIX2H2NYLNC4","","","","","34","","","","","","","","","","","","","","","","","","","","","",""
"null","","image-button-response","147","1003217","0.0-146.0","A3RIX2H2NYLNC4","img_art/25.jpg","null","","","","","","","","","","","","","","","","","","","","","","","","",""
"517","","image-button-response","148","1003736","0.0-147.0","A3RIX2H2NYLNC4","img_art/25.jpg","2","","","","","","","","","","","","","","","","","","","","","","","","",""
"2031","","image-button-response","149","1005768","0.0-148.0-0.0","A3RIX2H2NYLNC4","img_art/25.jpg","0","","","","","","","","","","","","","","","","","","","","","","","","",""
"1766","","image-button-response","150","1007536","0.0-149.0-0.0","A3RIX2H2NYLNC4","img_art/25.jpg","1","","","","","","","","","","","","","","","","","","","","","","","","",""
"null","","html-keyboard-response","151","1009038","0.0-150.0","A3RIX2H2NYLNC4","<p style=""font-size: 48px;"">+</p>","","","","","null","allTrialResponses","1500","1","15","img_art/25.jpg","34","I like this one, it looks like it has texture and like something archaic that was drawn.","Christina,Alexis,Erika,Shannon,Alyssa,Kayla","nice colors and it looks like a native work,32,240,20","Reminds me of cave drawings,21,100,20","Very cryptic and ancient,36,100,20","I like the way the persons clothes look, there could be more color though.,10,220,20","Dark silhouette against the murky background Illicites an ominous feeling. Don't really like it.,-20,160,20","Ghosts are NOT my thing.,-13,180,20","Erika","Very cryptic and ancient,36,100,20","Christina","nice colors and it looks like a native work,32,240,20","Alexis","Reminds me of cave drawings,21,100,20","2"
"4357","","survey-text","152","1013400","0.0-151.0-0.0","A3RIX2H2NYLNC4","","","","{""Q0"":""course""}","","","","","","","","","","","","","","","","","","","","","","",""
"15595","","survey-text","153","1028996","0.0-152.0-0.0","A3RIX2H2NYLNC4","","","","{""Q0"":""I don't like the colors and chaos. It looks like an explosion of the most muddy colors and doesn't work well.""}","","","","","","","","","","","","","","","","","","","","","","",""
"2732.2999999523163","","image-slider-response","154","1031730","0.0-153.0","A3RIX2H2NYLNC4","","","","","-41","","","","","","","","","","","","","","","","","","","","","",""
"2703","","image-button-response","155","1036733","0.0-154.0","A3RIX2H2NYLNC4","img_art/27.jpg","1","","","","","","","","","","","","","","","","","","","","","","","","",""
"444","","image-button-response","156","1037179","0.0-155.0","A3RIX2H2NYLNC4","img_art/27.jpg","1","","","","","","","","","","","","","","","","","","","","","","","","",""
"1294","","image-button-response","157","1038475","0.0-156.0-0.0","A3RIX2H2NYLNC4","img_art/27.jpg","5","","","","","","","","","","","","","","","","","","","","","","","","",""
"1551","","image-button-response","158","1040028","0.0-157.0-0.0","A3RIX2H2NYLNC4","img_art/27.jpg","2","","","","","","","","","","","","","","","","","","","","","","","","",""
"null","","html-keyboard-response","159","1040529","0.0-158.0","A3RIX2H2NYLNC4","<p style=""font-size: 48px;"">+</p>","","","","","null","allTrialResponses","500","1","16","img_art/27.jpg","-41","I don't like the colors and chaos. It looks like an explosion of the most muddy colors and doesn't work well.","Christina,Alexis,Erika,Cheyenne,Chloe,Alexandria","I like the orange but it's a little blah,1,240,20","Too abstract, doesn't remind me of anything,-42,100,20","Nice color, but too vague,-12,100,20","This one does nothing for me.,2,200,20","Like the movement of the lines and dripping paint.,30,220,20","it looks very simple and childlike,-31,80,20","Alexis","Too abstract, doesn't remind me of anything,-42,100,20","Alexandria","it looks very simple and childlike,-31,80,20","Erika","Nice color, but too vague,-12,100,20","2"
"15609","","survey-text","160","1056141","0.0-159.0-0.0","A3RIX2H2NYLNC4","","","","{""Q0"":""I hate this one. It looks like blood and destruction but not done well either.""}","","","","","","","","","","","","","","","","","","","","","","",""
"3807.3000000715256","","image-slider-response","161","1059950","0.0-160.0","A3RIX2H2NYLNC4","","","","","-50","","","","","","","","","","","","","","","","","","","","","",""
"null","","image-button-response","162","1064952","0.0-161.0","A3RIX2H2NYLNC4","img_art/3.jpg","null","","","","","","","","","","","","","","","","","","","","","","","","",""
"685","","image-button-response","163","1065639","0.0-162.0","A3RIX2H2NYLNC4","img_art/3.jpg","1","","","","","","","","","","","","","","","","","","","","","","","","",""
"1078","","image-button-response","164","1066719","0.0-163.0-0.0","A3RIX2H2NYLNC4","img_art/3.jpg","0","","","","","","","","","","","","","","","","","","","","","","","","",""
"6031","","image-button-response","165","1072752","0.0-164.0-0.0","A3RIX2H2NYLNC4","img_art/3.jpg","5","","","","","","","","","","","","","","","","","","","","","","","","",""
"null","","html-keyboard-response","166","1073753","0.0-165.0","A3RIX2H2NYLNC4","<p style=""font-size: 48px;"">+</p>","","","","","null","allTrialResponses","1000","1","17","img_art/3.jpg","-50","I hate this one. It looks like blood and destruction but not done well either.","Brooke,Alexis,Erika,Katelyn,Mary,Alexandria","kid scribbled on the wall again,-35,60,20","Just scribbles. Not a fan.,-40,100,20","Unaure what the artist  was doing, needs context,11,100,20","No substance or feeling to it,-20,100,20","I usually don't like red. Red in this angry piece is very fitting.,19,180,20","it makes me feel really angry,-20,80,20","Alexis","Just scribbles. Not a fan.,-40,100,20","Brooke","kid scribbled on the wall again,-35,60,20","Alexandria","it makes me feel really angry,-20,80,20","2"
"16717","","survey-text","167","1090473","0.0-166.0-0.0","A3RIX2H2NYLNC4","","","","{""Q0"":""I like this one, it reminds me of somebody's organs on the right and a person curled up on the left.""}","","","","","","","","","","","","","","","","","","","","","","",""
"2254.7000000476837","","image-slider-response","168","1092729","0.0-167.0","A3RIX2H2NYLNC4","","","","","31","","","","","","","","","","","","","","","","","","","","","",""
"null","","image-button-response","169","1097731","0.0-168.0","A3RIX2H2NYLNC4","img_art/28.jpg","null","","","","","","","","","","","","","","","","","","","","","","","","",""
"4037","","image-button-response","170","1101771","0.0-169.0","A3RIX2H2NYLNC4","img_art/28.jpg","2","","","","","","","","","","","","","","","","","","","","","","","","",""
"631","","image-button-response","171","1102403","0.0-170.0-0.0","A3RIX2H2NYLNC4","img_art/28.jpg","1","","","","","","","","","","","","","","","","","","","","","","","","",""
"3742","","image-button-response","172","1106147","0.0-171.0-0.0","A3RIX2H2NYLNC4","img_art/28.jpg","4","","","","","","","","","","","","","","","","","","","","","","","","",""
"null","","html-keyboard-response","173","1106649","0.0-172.0","A3RIX2H2NYLNC4","<p style=""font-size: 48px;"">+</p>","","","","","null","allTrialResponses","500","1","18","img_art/28.jpg","31","I like this one, it reminds me of somebody's organs on the right and a person curled up on the left.","Brooke,Alexis,Tiffany,Alicia,Catherine,Alexandria","dislike the colors. it looks like a bike, but misshapen wheels like it was wrecked.,-10,60,20","Interesting. I like the ""old woman"" on the left. Lots of different entities to look at,21,100,20","It makes me feel happy, and a little anxious.,50,360,20","bland busy ugly,-31,120,20","A mom protecting her child because something scary, (perhaps imaginary) wants to take the child.,-10,160,20","no clear colors or meaning to evoke emotions,-15,80,20","Tiffany","It makes me feel happy, and a little anxious.,50,360,20","Alexis","Interesting. I like the ""old woman"" on the left. Lots of different entities to look at,21,100,20","Catherine","A mom protecting her child because something scary, (perhaps imaginary) wants to take the child.,-10,160,20","2"
"20069","","survey-text","174","1126725","0.0-173.0-0.0","A3RIX2H2NYLNC4","","","","{""Q0"":""This is ok but I really don't like all the randomly bright dots of color and then the stark white in the center.""}","","","","","","","","","","","","","","","","","","","","","","",""
"2943.3000000715256","","image-slider-response","175","1129670","0.0-174.0","A3RIX2H2NYLNC4","","","","","-18","","","","","","","","","","","","","","","","","","","","","",""
"null","","image-button-response","176","1134672","0.0-175.0","A3RIX2H2NYLNC4","img_art/23.jpg","null","","","","","","","","","","","","","","","","","","","","","","","","",""
"1741","","image-button-response","177","1136415","0.0-176.0","A3RIX2H2NYLNC4","img_art/23.jpg","3","","","","","","","","","","","","","","","","","","","","","","","","",""
"1103","","image-button-response","178","1137521","0.0-177.0-0.0","A3RIX2H2NYLNC4","img_art/23.jpg","5","","","","","","","","","","","","","","","","","","","","","","","","",""
"1636","","image-button-response","179","1139160","0.0-178.0-0.0","A3RIX2H2NYLNC4","img_art/23.jpg","4","","","","","","","","","","","","","","","","","","","","","","","","",""
"null","","html-keyboard-response","180","1139661","0.0-179.0","A3RIX2H2NYLNC4","<p style=""font-size: 48px;"">+</p>","","","","","null","allTrialResponses","500","1","19","img_art/23.jpg","-18","This is ok but I really don't like all the randomly bright dots of color and then the stark white in the center.","Jacqueline,Alexis,Tiffany,Jordan,Catherine,Katie","It's kind of neat with the white slash marks.,13,300,20","Pretty cool. I love the white, reminds me of people lined up.,28,100,20","I feel happy and a little excited. Like watching fireworks with family.,26,360,20","NO, I don't get it,-50,20,20","Partying, dancing, delusion, kaus.,10,160,20","I don't get it! the white in the middle of the speckled rainbow is confusing.,-10,160,20","Jordan","NO, I don't get it,-50,20,20","Katie","I don't get it! the white in the middle of the speckled rainbow is confusing.,-10,160,20","Catherine","Partying, dancing, delusion, kaus.,10,160,20","2"
"18149","","survey-text","181","1157817","0.0-180.0-0.0","A3RIX2H2NYLNC4","","","","{""Q0"":""Very strange looking but I like the colors going from bright to dark as you go up.""}","","","","","","","","","","","","","","","","","","","","","","",""
"1999.2000000476837","","image-slider-response","182","1159818","0.0-181.0","A3RIX2H2NYLNC4","","","","","18","","","","","","","","","","","","","","","","","","","","","",""
"null","","image-button-response","183","1164820","0.0-182.0","A3RIX2H2NYLNC4","img_art/12.jpg","null","","","","","","","","","","","","","","","","","","","","","","","","",""
"1221","","image-button-response","184","1166043","0.0-183.0","A3RIX2H2NYLNC4","img_art/12.jpg","2","","","","","","","","","","","","","","","","","","","","","","","","",""
"1886","","image-button-response","185","1167931","0.0-184.0-0.0","A3RIX2H2NYLNC4","img_art/12.jpg","0","","","","","","","","","","","","","","","","","","","","","","","","",""
"1342","","image-button-response","186","1169275","0.0-185.0-0.0","A3RIX2H2NYLNC4","img_art/12.jpg","5","","","","","","","","","","","","","","","","","","","","","","","","",""
"null","","html-keyboard-response","187","1169777","0.0-186.0","A3RIX2H2NYLNC4","<p style=""font-size: 48px;"">+</p>","","","","","null","allTrialResponses","500","1","20","img_art/12.jpg","18","Very strange looking but I like the colors going from bright to dark as you go up.","Rebecca,Makayla,Samantha,Jordan,Catherine,Katie","so many different available interpretations for this, would love to closer.,24,100,20","Reminds me Early 2000's decor, don't favor it,-10,80,20","It is interesting but seems like some cheap painting from like walmart,24,140,20","not my kind of thing,1,20,20","confused. stages of a persons life from beginning positive to ending negative.,-10,160,20","Squares are rigid. I'm ambivalent.,1,160,20","Samantha","It is interesting but seems like some cheap painting from like walmart,24,140,20","Rebecca","so many different available interpretations for this, would love to closer.,24,100,20","Katie","Squares are rigid. I'm ambivalent.,1,160,20","2"
"2244","","survey-text","188","1172035","0.0-187.0-0.0","A3RIX2H2NYLNC4","","","","{""Q0"":""we""}","","","","","","","","","","","","","","","","","","","","","","",""
"18009","","survey-text","189","1190045","0.0-188.0-0.0","A3RIX2H2NYLNC4","","","","{""Q0"":""I love this one. The face in the top left is so cool and the way they drew the architecture is beautiful.""}","","","","","","","","","","","","","","","","","","","","","","",""
"2111","","image-slider-response","190","1192158","0.0-189.0","A3RIX2H2NYLNC4","","","","","50","","","","","","","","","","","","","","","","","","","","","",""
"null","","image-button-response","191","1197159","0.0-190.0","A3RIX2H2NYLNC4","img_art/8.jpg","null","","","","","","","","","","","","","","","","","","","","","","","","",""
"629","","image-button-response","192","1197790","0.0-191.0","A3RIX2H2NYLNC4","img_art/8.jpg","4","","","","","","","","","","","","","","","","","","","","","","","","",""
"726","","image-button-response","193","1198518","0.0-192.0-0.0","A3RIX2H2NYLNC4","img_art/8.jpg","0","","","","","","","","","","","","","","","","","","","","","","","","",""
"1742","","image-button-response","194","1200262","0.0-193.0-0.0","A3RIX2H2NYLNC4","img_art/8.jpg","3","","","","","","","","","","","","","","","","","","","","","","","","",""
"null","","html-keyboard-response","195","1201263","0.0-194.0","A3RIX2H2NYLNC4","<p style=""font-size: 48px;"">+</p>","","","","","null","allTrialResponses","1000","1","21","img_art/8.jpg","50","I love this one. The face in the top left is so cool and the way they drew the architecture is beautiful.","Rebecca,Emily,Samantha,Caitlin,Sabrina,Katie","gives off inception vibes <3,50,100,20","It is interesting to look at. Abstract but ordered.,9,40,20","The face bothers me,-25,140,20","And I'll huff and I'll puff and I'll blow your town down!!,20,80,20","I love the expressiveness of this,50,120,20","I like the colors. But I don't like the faces, they look distraught. Faces and sharp shapes make me anxious,1,160,20","Sabrina","I love the expressiveness of this,50,120,20","Rebecca","gives off inception vibes <3,50,100,20","Caitlin","And I'll huff and I'll puff and I'll blow your town down!!,20,80,20","2"
"14845","","survey-text","196","1216111","0.0-195.0-0.0","A3RIX2H2NYLNC4","","","","{""Q0"":""This one is spooky and pretty cool but I don't like how sloppy it looks.""}","","","","","","","","","","","","","","","","","","","","","","",""
"1662.6999999284744","","image-slider-response","197","1217776","0.0-196.0","A3RIX2H2NYLNC4","","","","","6","","","","","","","","","","","","","","","","","","","","","",""
"null","","image-button-response","198","1222778","0.0-197.0","A3RIX2H2NYLNC4","img_art/20.jpg","null","","","","","","","","","","","","","","","","","","","","","","","","",""
"1613","","image-button-response","199","1224393","0.0-198.0","A3RIX2H2NYLNC4","img_art/20.jpg","2","","","","","","","","","","","","","","","","","","","","","","","","",""
"1854","","image-button-response","200","1226250","0.0-199.0-0.0","A3RIX2H2NYLNC4","img_art/20.jpg","5","","","","","","","","","","","","","","","","","","","","","","","","",""
"1526","","image-button-response","201","1227778","0.0-200.0-0.0","A3RIX2H2NYLNC4","img_art/20.jpg","3","","","","","","","","","","","","","","","","","","","","","","","","",""
"null","","html-keyboard-response","202","1228279","0.0-201.0","A3RIX2H2NYLNC4","<p style=""font-size: 48px;"">+</p>","","","","","null","allTrialResponses","500","1","22","img_art/20.jpg","6","This one is spooky and pretty cool but I don't like how sloppy it looks.","Rebecca,Brianna,Gabrielle,Caitlin,Sabrina,Grace","reminds me of georgia o'keeffe's skull,22,100,20","It looks like a motorcycle and I like cars and motorcycles,30,20,20","The white blob on the left seems out of place,-34,160,20","Not bad for all the southwestern people.,15,80,20","I love the way it expresses dark nature and uncontrolled situations.,44,120,20","Reminds me of Georgia O'Keefe.,11,180,20","Gabrielle","The white blob on the left seems out of place,-34,160,20","Grace","Reminds me of Georgia O'Keefe.,11,180,20","Caitlin","Not bad for all the southwestern people.,15,80,20","2"
"21463","","survey-text","203","1249747","0.0-202.0-0.0","A3RIX2H2NYLNC4","","","","{""Q0"":""I don't like this because it's just random blurred colors blended together. It seems muddy and lazy.""}","","","","","","","","","","","","","","","","","","","","","","",""
"2319","","image-slider-response","204","1252068","0.0-203.0","A3RIX2H2NYLNC4","","","","","-23","","","","","","","","","","","","","","","","","","","","","",""
"null","","image-button-response","205","1257071","0.0-204.0","A3RIX2H2NYLNC4","img_art/1.jpg","null","","","","","","","","","","","","","","","","","","","","","","","","",""
"452","","image-button-response","206","1257525","0.0-205.0","A3RIX2H2NYLNC4","img_art/1.jpg","0","","","","","","","","","","","","","","","","","","","","","","","","",""
"1494","","image-button-response","207","1259022","0.0-206.0-0.0","A3RIX2H2NYLNC4","img_art/1.jpg","4","","","","","","","","","","","","","","","","","","","","","","","","",""
"3903","","image-button-response","208","1262926","0.0-207.0-0.0","A3RIX2H2NYLNC4","img_art/1.jpg","1","","","","","","","","","","","","","","","","","","","","","","","","",""
"null","","html-keyboard-response","209","1263428","0.0-208.0","A3RIX2H2NYLNC4","<p style=""font-size: 48px;"">+</p>","","","","","null","allTrialResponses","500","1","23","img_art/1.jpg","-23","I don't like this because it's just random blurred colors blended together. It seems muddy and lazy.","Chelsea,Hailey,Gabrielle,Caitlin,Caroline,Grace","The colors are a little too intense.,1,180,20","colors that are fairly warm. its ok,8,200,20","nice piece, fall like,31,160,20","Deja vu. Haven't I seen this one before? Not bad for those living in the backwoods.,10,80,20","Felt nothing in response to this painting,3,100,20","Again, like the colors & abstractness.,29,180,20","Chelsea","The colors are a little too intense.,1,180,20","Caroline","Felt nothing in response to this painting,3,100,20","Hailey","colors that are fairly warm. its ok,8,200,20","2"
"18868","","survey-text","210","1282304","0.0-209.0-0.0","A3RIX2H2NYLNC4","","","","{""Q0"":""I despise this one. The dots are chaotic and intense but just look like a child did this.""}","","","","","","","","","","","","","","","","","","","","","","",""
"2183","","image-slider-response","211","1284488","0.0-210.0","A3RIX2H2NYLNC4","","","","","-50","","","","","","","","","","","","","","","","","","","","","",""
"null","","image-button-response","212","1289490","0.0-211.0","A3RIX2H2NYLNC4","img_art/15.jpg","null","","","","","","","","","","","","","","","","","","","","","","","","",""
"549","","image-button-response","213","1290041","0.0-212.0","A3RIX2H2NYLNC4","img_art/15.jpg","0","","","","","","","","","","","","","","","","","","","","","","","","",""
"534","","image-button-response","214","1290577","0.0-213.0-0.0","A3RIX2H2NYLNC4","img_art/15.jpg","1","","","","","","","","","","","","","","","","","","","","","","","","",""
"3895","","image-button-response","215","1294474","0.0-214.0-0.0","A3RIX2H2NYLNC4","img_art/15.jpg","5","","","","","","","","","","","","","","","","","","","","","","","","",""
"null","","html-keyboard-response","216","1294975","0.0-215.0","A3RIX2H2NYLNC4","<p style=""font-size: 48px;"">+</p>","","","","","null","allTrialResponses","500","1","24","img_art/15.jpg","-50","I despise this one. The dots are chaotic and intense but just look like a child did this.","Chelsea,Hailey,Erin,Cassidy,Caroline,Lauren","The colors are too busy.,-39,180,20","ugly picture and don't like it,-22,200,20","Neat to explore meaning, blue is interesting,11,120,20","I like the random blue dabs to break up the black, but it looks unfinished.,4,140,20","Makes me think of a bush and flowers and spring and happy warm times,25,100,20","Hard to tell what I'm looking at, but it does a gives a slight impression of a of garden.,5,340,20","Chelsea","The colors are too busy.,-39,180,20","Hailey","ugly picture and don't like it,-22,200,20","Lauren","Hard to tell what I'm looking at, but it does a gives a slight impression of a of garden.,5,340,20","2"
"16181","","survey-text","217","1311163","0.0-216.0-0.0","A3RIX2H2NYLNC4","","","","{""Q0"":""I really like the pastel colors and that there seems to be a woman in the center if you focus.""}","","","","","","","","","","","","","","","","","","","","","","",""
"4391.5","","image-slider-response","218","1315556","0.0-217.0","A3RIX2H2NYLNC4","","","","","48","","","","","","","","","","","","","","","","","","","","","",""
"null","","image-button-response","219","1320558","0.0-218.0","A3RIX2H2NYLNC4","img_art/9.jpg","null","","","","","","","","","","","","","","","","","","","","","","","","",""
"964","","image-button-response","220","1321525","0.0-219.0","A3RIX2H2NYLNC4","img_art/9.jpg","4","","","","","","","","","","","","","","","","","","","","","","","","",""
"3535","","image-button-response","221","1325061","0.0-220.0-0.0","A3RIX2H2NYLNC4","img_art/9.jpg","2","","","","","","","","","","","","","","","","","","","","","","","","",""
"1126","","image-button-response","222","1326189","0.0-221.0-0.0","A3RIX2H2NYLNC4","img_art/9.jpg","3","","","","","","","","","","","","","","","","","","","","","","","","",""
"null","","html-keyboard-response","223","1326691","0.0-222.0","A3RIX2H2NYLNC4","<p style=""font-size: 48px;"">+</p>","","","","","null","allTrialResponses","500","1","25","img_art/9.jpg","48","I really like the pastel colors and that there seems to be a woman in the center if you focus.","Chelsea,Hailey,Sierra,Cynthia,Elizabeth,Lauren","I don't like the obvious lines of colored pencil on the border.,-24,180,20","looks like a woman in bed and its ok,8,200,20","it looks like a lady resting. it is soothing.,4,260,20","curious and unsure,12,320,20","Love the uniqueness,21,20,20","I like how design can be interpreted differently, I see a person sleeping or a mountainous region.,10,340,20","Elizabeth","Love the uniqueness,21,20,20","Sierra","it looks like a lady resting. it is soothing.,4,260,20","Cynthia","curious and unsure,12,320,20","2"
"4537","","survey-text","224","1331238","0.0-223.0-0.0","A3RIX2H2NYLNC4","","","","{""Q0"":""table""}","","","","","","","","","","","","","","","","","","","","","","",""
"21058","","survey-text","225","1352296","0.0-224.0-0.0","A3RIX2H2NYLNC4","","","","{""Q0"":""I like the scene here, but I hate the thick lines and the way the water runs down from the brush strokes.""}","","","","","","","","","","","","","","","","","","","","","","",""
"1534.8999999761581","","image-slider-response","226","1353832","0.0-225.0","A3RIX2H2NYLNC4","","","","","-50","","","","","","","","","","","","","","","","","","","","","",""
"null","","image-button-response","227","1358835","0.0-226.0","A3RIX2H2NYLNC4","img_art/19.jpg","null","","","","","","","","","","","","","","","","","","","","","","","","",""
"619","","image-button-response","228","1359457","0.0-227.0","A3RIX2H2NYLNC4","img_art/19.jpg","3","","","","","","","","","","","","","","","","","","","","","","","","",""
"1527","","image-button-response","229","1360986","0.0-228.0-0.0","A3RIX2H2NYLNC4","img_art/19.jpg","1","","","","","","","","","","","","","","","","","","","","","","","","",""
"6551","","image-button-response","230","1367539","0.0-229.0-0.0","A3RIX2H2NYLNC4","img_art/19.jpg","0","","","","","","","","","","","","","","","","","","","","","","","","",""
"null","","html-keyboard-response","231","1368540","0.0-230.0","A3RIX2H2NYLNC4","<p style=""font-size: 48px;"">+</p>","","","","","null","allTrialResponses","1000","1","26","img_art/19.jpg","-50","I like the scene here, but I hate the thick lines and the way the water runs down from the brush strokes.","Alexa,Diana,Sierra,Cynthia,Elizabeth,Briana","It has a chaotic energy about it that draws me in,40,40,20","I wasn't sure if I liked it or hated it. It oddly reminds me of a clothing store.,11,380,20","green and orange are my favorite colors.  this cityscape feels warm,34,260,20","confused and emotional,-4,320,20","Like the painting strokes,39,20,20","Its simple and the colors i like. It reminds me of chagall,34,400,20","Cynthia","confused and emotional,-4,320,20","Diana","I wasn't sure if I liked it or hated it. It oddly reminds me of a clothing store.,11,380,20","Alexa","It has a chaotic energy about it that draws me in,40,40,20","2"
"25259","","survey-text","232","1393805","0.0-231.0-0.0","A3RIX2H2NYLNC4","","","","{""Q0"":""I like that I see the person on the horse in the center and they are running through something, it feels intense.""}","","","","","","","","","","","","","","","","","","","","","","",""
"2014.5","","image-slider-response","233","1395821","0.0-232.0","A3RIX2H2NYLNC4","","","","","19","","","","","","","","","","","","","","","","","","","","","",""
"null","","image-button-response","234","1400823","0.0-233.0","A3RIX2H2NYLNC4","img_art/18.jpg","null","","","","","","","","","","","","","","","","","","","","","","","","",""
"2349","","image-button-response","235","1403175","0.0-234.0","A3RIX2H2NYLNC4","img_art/18.jpg","5","","","","","","","","","","","","","","","","","","","","","","","","",""
"2190","","image-button-response","236","1405367","0.0-235.0-0.0","A3RIX2H2NYLNC4","img_art/18.jpg","1","","","","","","","","","","","","","","","","","","","","","","","","",""
"3175","","image-button-response","237","1408544","0.0-236.0-0.0","A3RIX2H2NYLNC4","img_art/18.jpg","3","","","","","","","","","","","","","","","","","","","","","","","","",""
"null","","html-keyboard-response","238","1409046","0.0-237.0","A3RIX2H2NYLNC4","<p style=""font-size: 48px;"">+</p>","","","","","null","allTrialResponses","500","1","27","img_art/18.jpg","19","I like that I see the person on the horse in the center and they are running through something, it feels intense.","Alexa,Diana,Mikayla,Cynthia,Savannah,Hannah","Very wild and abstract. I love it and would definitely hang this up in my home,50,40,20","This painting reminds me of the 4 horsemen of the apocalypse. It feels haunting.,31,380,20","Kinda boring. Not my favorite,-34,300,20","Imaginative, makes me feel creative.,42,320,20","Accents make this piece.,21,200,20","Looks like ghost figures on a boat. It's okay.,7,240,20","Hannah","Looks like ghost figures on a boat. It's okay.,7,240,20","Diana","This painting reminds me of the 4 horsemen of the apocalypse. It feels haunting.,31,380,20","Cynthia","Imaginative, makes me feel creative.,42,320,20","2"
"13166","","survey-text","239","1422217","0.0-238.0-0.0","A3RIX2H2NYLNC4","","","","{""Q0"":""I hate that this is just smudged paint and the colors aren't even that good.""}","","","","","","","","","","","","","","","","","","","","","","",""
"1742.3999999761581","","image-slider-response","240","1423960","0.0-239.0","A3RIX2H2NYLNC4","","","","","-50","","","","","","","","","","","","","","","","","","","","","",""
"null","","image-button-response","241","1428963","0.0-240.0","A3RIX2H2NYLNC4","img_art/30.jpg","null","","","","","","","","","","","","","","","","","","","","","","","","",""
"589","","image-button-response","242","1429554","0.0-241.0","A3RIX2H2NYLNC4","img_art/30.jpg","5","","","","","","","","","","","","","","","","","","","","","","","","",""
"3230","","image-button-response","243","1432786","0.0-242.0-0.0","A3RIX2H2NYLNC4","img_art/30.jpg","4","","","","","","","","","","","","","","","","","","","","","","","","",""
"3366","","image-button-response","244","1436153","0.0-243.0-0.0","A3RIX2H2NYLNC4","img_art/30.jpg","0","","","","","","","","","","","","","","","","","","","","","","","","",""
"null","","html-keyboard-response","245","1437155","0.0-244.0","A3RIX2H2NYLNC4","<p style=""font-size: 48px;"">+</p>","","","","","null","allTrialResponses","1000","1","28","img_art/30.jpg","-50","I hate that this is just smudged paint and the colors aren't even that good.","Erica,Diana,Amber,Cynthia,Monica,Hannah","calming and relaxing,14,80,20","I love the color contrast of the red against the blue.,9,380,20","fresh and bold. outgoing.,15,200,20","fun and imaginative,12,320,20","It looked like a random scribble but I can see a person's face in it now and I think it's clever,13,360,20","It's just all right.,5,240,20","Hannah","It's just all right.,5,240,20","Monica","It looked like a random scribble but I can see a person's face in it now and I think it's clever,13,360,20","Erica","calming and relaxing,14,80,20","2"
"12390","","survey-text","246","1449555","0.0-245.0-0.0","A3RIX2H2NYLNC4","","","","{""Q0"":""I really like the business here. It looks like traffic in the rain.""}","","","","","","","","","","","","","","","","","","","","","","",""
"1806.6000000238419","","image-slider-response","247","1451363","0.0-246.0","A3RIX2H2NYLNC4","","","","","32","","","","","","","","","","","","","","","","","","","","","",""
"null","","image-button-response","248","1456366","0.0-247.0","A3RIX2H2NYLNC4","img_art/11.jpg","null","","","","","","","","","","","","","","","","","","","","","","","","",""
"1429","","image-button-response","249","1457796","0.0-248.0","A3RIX2H2NYLNC4","img_art/11.jpg","1","","","","","","","","","","","","","","","","","","","","","","","","",""
"463","","image-button-response","250","1458262","0.0-249.0-0.0","A3RIX2H2NYLNC4","img_art/11.jpg","2","","","","","","","","","","","","","","","","","","","","","","","","",""
"717","","image-button-response","251","1458981","0.0-250.0-0.0","A3RIX2H2NYLNC4","img_art/11.jpg","3","","","","","","","","","","","","","","","","","","","","","","","","",""
"null","","html-keyboard-response","252","1459482","0.0-251.0","A3RIX2H2NYLNC4","<p style=""font-size: 48px;"">+</p>","","","","","null","allTrialResponses","500","1","29","img_art/11.jpg","32","I really like the business here. It looks like traffic in the rain.","Erica,Vanessa,Emma,Abigail,Monica,Hannah","a lot of dark colours,-8,80,20","It makes me think of a rainy day and I like the colors. Also like the wavy lines.,22,380,20","Pretty, interesting, feels like a city, feels like home,50,60,20","Rainy highways in RI,20,20,20","I like how it reminds me of music and at the same time it looks like colorful train tracks.,10,360,20","Is interesting. Wouldn't bother me to have this hanging where I'd see it every day.,11,240,20","Vanessa","It makes me think of a rainy day and I like the colors. Also like the wavy lines.,22,380,20","Emma","Pretty, interesting, feels like a city, feels like home,50,60,20","Abigail","Rainy highways in RI,20,20,20","2"
"14848","","survey-text","253","1474334","0.0-252.0-0.0","A3RIX2H2NYLNC4","","","","{""Q0"":""This one is creepy and just looks like someone cut out the pictures and glued them down.""}","","","","","","","","","","","","","","","","","","","","","","",""
"1686.3999999761581","","image-slider-response","254","1476022","0.0-253.0","A3RIX2H2NYLNC4","","","","","-50","","","","","","","","","","","","","","","","","","","","","",""
"null","","image-button-response","255","1481024","0.0-254.0","A3RIX2H2NYLNC4","img_art/16.jpg","null","","","","","","","","","","","","","","","","","","","","","","","","",""
"757","","image-button-response","256","1481784","0.0-255.0","A3RIX2H2NYLNC4","img_art/16.jpg","3","","","","","","","","","","","","","","","","","","","","","","","","",""
"574","","image-button-response","257","1482360","0.0-256.0-0.0","A3RIX2H2NYLNC4","img_art/16.jpg","2","","","","","","","","","","","","","","","","","","","","","","","","",""
"286","","image-button-response","258","1482647","0.0-257.0-0.0","A3RIX2H2NYLNC4","img_art/16.jpg","1","","","","","","","","","","","","","","","","","","","","","","","","",""
"null","","html-keyboard-response","259","1483149","0.0-258.0","A3RIX2H2NYLNC4","<p style=""font-size: 48px;"">+</p>","","","","","null","allTrialResponses","500","1","30","img_art/16.jpg","-50","This one is creepy and just looks like someone cut out the pictures and glued them down.","Heather,Vanessa,Emma,Abigail,Stephanie,Margaret","lol i dont know how i feel about this.,1,260,20","This is too bizarre.,-39,380,20","Kind of creepyyyyyy,-41,60,20","The bear makes me very uncomfortable,-50,20,20","It looks violent.,-30,300,20","i like how it incorporates mixed visual art with the photo of the bear and the drawings,30,100,20","Abigail","The bear makes me very uncomfortable,-50,20,20","Emma","Kind of creepyyyyyy,-41,60,20","Vanessa","This is too bizarre.,-39,380,20","2"
"3314","","image-button-response_instructions","260","1486472","0.0-259.0","A3RIX2H2NYLNC4","","0","instructions","","","","","","","","","","","","","","","","","","","","","","","",""
"979","","image-button-response","261","1487456","0.0-260.0","A3RIX2H2NYLNC4","","0","","","","","","","","","","","","","","","","","","","","","","","","",""
