"rt","url","trial_type","trial_index","time_elapsed","internal_node_id","participant_id","stimulus","button_pressed","Name","responses","response","key_press","variableName","fixationTime","condition","trial","photo","subjectRating","subjectResponse","agentsNames","agent_1_Response","agent_2_Response","agent_3_Response","agent_4_Response","agent_5_Response","agent_6_Response","kept_1_name","kept_1_response","kept_2_name","kept_2_response","kept_3_name","kept_3_response","errorCounter"
"8884","external_page_harvard.html","external-html","0","8941","0.0-0.0","A3RYL66CAGH5JU","","","","","","","","","","","","","","","","","","","","","","","","","","",""
"2213","","image-button-response","1","11156","0.0-1.0","A3RYL66CAGH5JU","","0","","","","","","","","","","","","","","","","","","","","","","","","",""
"1950","","image-button-response","2","13109","0.0-2.0-0.0","A3RYL66CAGH5JU","","1","phone","","","","","","","","","","","","","","","","","","","","","","","",""
"8339","","survey-text","3","21449","0.0-3.0-0.0","A3RYL66CAGH5JU","","","","{""Q0"":""A3RYL66CAGH5JU""}","","","","","","","","","","","","","","","","","","","","","","",""
"6185","","image-button-response_instructions","4","27636","0.0-4.0","A3RYL66CAGH5JU","","0","instructions","","","","","","","","","","","","","","","","","","","","","","","",""
"12357","","image-button-response_instructions","5","39994","0.0-5.0","A3RYL66CAGH5JU","img_art/ins/popularity/ins1.png","0","instructions","","","","","","","","","","","","","","","","","","","","","","","",""
"3369","","image-button-response_instructions","6","43364","0.0-6.0","A3RYL66CAGH5JU","img_art/ins/popularity/ins2.png","0","instructions","","","","","","","","","","","","","","","","","","","","","","","",""
"3099","","image-button-response_instructions","7","46463","0.0-7.0","A3RYL66CAGH5JU","img_art/ins/popularity/ins2Extreme.png","0","instructions","","","","","","","","","","","","","","","","","","","","","","","",""
"3501","","image-button-response_instructions","8","49966","0.0-8.0","A3RYL66CAGH5JU","img_art/ins/popularity/ins3KEEPpop.PNG","0","instructions","","","","","","","","","","","","","","","","","","","","","","","",""
"3239","","image-button-response_instructions","9","53206","0.0-9.0","A3RYL66CAGH5JU","img_art/ins/popularity/ins3ANamepop.PNG","0","instructions","","","","","","","","","","","","","","","","","","","","","","","",""
"2665","","image-button-response_instructions","10","55871","0.0-10.0","A3RYL66CAGH5JU","img_art/ins/popularity/ins3ARatingpop.png","0","instructions","","","","","","","","","","","","","","","","","","","","","","","",""
"1382","","image-button-response_instructions","11","57253","0.0-11.0","A3RYL66CAGH5JU","img_art/ins/popularity/ins3ATextpop.png","0","instructions","","","","","","","","","","","","","","","","","","","","","","","",""
"6011","","image-button-response_instructions","12","63265","0.0-12.0","A3RYL66CAGH5JU","img_art/ins/popularity/ins3ALikespop.png","0","instructions","","","","","","","","","","","","","","","","","","","","","","","",""
"10721","","image-button-response_instructions","13","73989","0.0-13.0","A3RYL66CAGH5JU","img_art/ins/popularity/ins3KEEPpop.PNG","0","instructions","","","","","","","","","","","","","","","","","","","","","","","",""
"4646","","image-button-response_instructions","14","78635","0.0-14.0","A3RYL66CAGH5JU","img_art/ins/popularity/ins3_5RED.png","0","instructions","","","","","","","","","","","","","","","","","","","","","","","",""
"3361","","image-button-response_instructions","15","81997","0.0-15.0","A3RYL66CAGH5JU","img_art/ins/popularity/ins3KEEPpop.PNG","0","instructions","","","","","","","","","","","","","","","","","","","","","","","",""
"5741","","image-button-response_instructions","16","87739","0.0-16.0","A3RYL66CAGH5JU","img_art/ins/popularity/ins4KEEPpop.PNG","0","instructions","","","","","","","","","","","","","","","","","","","","","","","",""
"2847","","image-button-response_instructions","17","90587","0.0-17.0","A3RYL66CAGH5JU","img_art/ins/popularity/ins5KEEPpop.PNG","0","instructions","","","","","","","","","","","","","","","","","","","","","","","",""
"1231","","image-button-response_instructions","18","91819","0.0-18.0","A3RYL66CAGH5JU","","0","instructions","","","","","","","","","","","","","","","","","","","","","","","",""
"7032","","survey-text","19","98867","0.0-19.0-0.0","A3RYL66CAGH5JU","","","","{""Q0"":""but""}","","","","","","","","","","","","","","","","","","","","","","",""
"12777","","survey-text","20","111645","0.0-20.0-0.0","A3RYL66CAGH5JU","","","","{""Q0"":""a disjointed mess""}","","","","","","","","","","","","","","","","","","","","","","",""
"4914.600000023842","","image-slider-response","21","116562","0.0-21.0","A3RYL66CAGH5JU","","","","","-29","","","","","","","","","","","","","","","","","","","","","",""
"null","","image-button-response","22","121566","0.0-22.0","A3RYL66CAGH5JU","img_art/ins/1.jpg","null","","","","","","","","","","","","","","","","","","","","","","","","",""
"4111","","image-button-response","23","125679","0.0-23.0","A3RYL66CAGH5JU","img_art/ins/1.jpg","4","","","","","","","","","","","","","","","","","","","","","","","","",""
"2045","","image-button-response","24","127726","0.0-24.0-0.0","A3RYL66CAGH5JU","img_art/ins/1.jpg","2","","","","","","","","","","","","","","","","","","","","","","","","",""
"1414","","image-button-response","25","129142","0.0-25.0-0.0","A3RYL66CAGH5JU","img_art/ins/1.jpg","0","","","","","","","","","","","","","","","","","","","","","","","","",""
"null","","html-keyboard-response","26","130645","0.0-26.0","A3RYL66CAGH5JU","<p style=""font-size: 48px;"">+</p>","","","","","null","allTrialResponses","1500","1","-2","img_art/ins/1.jpg","-29","a disjointed mess","Adam,Alex,Ben,Carl,Daniel,Jack","Seems like doodles,-20,20,20","very creative work.,36,40,20","This color reminds me of poo,-46,60,20","very calming artwork,42,80,20","It looks like a murder scene.,-48,100,20","I like the sophisticated brushwork,40,120,20","Daniel","It looks like a murder scene.,-48,100,20","Ben","This color reminds me of poo,-46,60,20","Adam","Seems like doodles,-20,20,20","0"
"9472","","survey-text","27","140120","0.0-27.0-0.0","A3RYL66CAGH5JU","","","","{""Q0"":""blocky red blood""}","","","","","","","","","","","","","","","","","","","","","","",""
"2791.699999988079","","image-slider-response","28","142914","0.0-28.0","A3RYL66CAGH5JU","","","","","-19","","","","","","","","","","","","","","","","","","","","","",""
"3944","","image-button-response","29","147916","0.0-29.0","A3RYL66CAGH5JU","img_art/ins/2.jpg","2","","","","","","","","","","","","","","","","","","","","","","","","",""
"1712","","image-button-response","30","149630","0.0-30.0","A3RYL66CAGH5JU","img_art/ins/2.jpg","2","","","","","","","","","","","","","","","","","","","","","","","","",""
"4160","","image-button-response","31","153791","0.0-31.0-0.0","A3RYL66CAGH5JU","img_art/ins/2.jpg","3","","","","","","","","","","","","","","","","","","","","","","","","",""
"5792","","image-button-response","32","159585","0.0-32.0-0.0","A3RYL66CAGH5JU","img_art/ins/2.jpg","5","","","","","","","","","","","","","","","","","","","","","","","","",""
"null","","html-keyboard-response","33","160586","0.0-33.0","A3RYL66CAGH5JU","<p style=""font-size: 48px;"">+</p>","","","","","null","allTrialResponses","1000","1","-1","img_art/ins/2.jpg","-19","blocky red blood","Adam,John,Ben,James,Daniel,Kyle","too much color,-18,20,20","love the texture of paint,48,160,20","meaningless painting,-45,60,20","looks too angry,-50,140,20","One of my pet peevs,-48,100,20","Idk, it is just annoying,-32,180,20","Ben","meaningless painting,-45,60,20","James","looks too angry,-50,140,20","Kyle","Idk, it is just annoying,-32,180,20","0"
"9320","","survey-text","34","169910","0.0-34.0-0.0","A3RYL66CAGH5JU","","","","{""Q0"":""ice blue sadness""}","","","","","","","","","","","","","","","","","","","","","","",""
"2628.300000011921","","image-slider-response","35","172539","0.0-35.0","A3RYL66CAGH5JU","","","","","31","","","","","","","","","","","","","","","","","","","","","",""
"1837","","image-button-response","36","177541","0.0-36.0","A3RYL66CAGH5JU","img_art/ins/3.jpg","1","","","","","","","","","","","","","","","","","","","","","","","","",""
"521","","image-button-response","37","178063","0.0-37.0","A3RYL66CAGH5JU","img_art/ins/3.jpg","1","","","","","","","","","","","","","","","","","","","","","","","","",""
"5785","","image-button-response","38","183849","0.0-38.0-0.0","A3RYL66CAGH5JU","img_art/ins/3.jpg","0","","","","","","","","","","","","","","","","","","","","","","","","",""
"2777","","image-button-response","39","186628","0.0-39.0-0.0","A3RYL66CAGH5JU","img_art/ins/3.jpg","0","","","","","","","","","","","","","","","","","","","","","","","","",""
"11860","","image-button-response","40","203379","0.0-39.1-0.1","A3RYL66CAGH5JU","img_art/ins/3.jpg","5","","","","","","","","","","","","","","","","","","","","","","","","",""
"null","","html-keyboard-response","41","204881","0.0-40.0","A3RYL66CAGH5JU","<p style=""font-size: 48px;"">+</p>","","","","","null","allTrialResponses","1500","1","0","img_art/ins/3.jpg","31","ice blue sadness","Sam,Mike,Ben,James,Ron,Kyle","I can feel a rainy day from this painting,18,240,20","enjoy the different shades of blue,22,200,20","This thing gives me anxiety,-41,60,20","My worst nightmare,-42,140,20","It looks depressing,-26,220,20","It looks like a playground for bats,-36,180,20","Mike","enjoy the different shades of blue,22,200,20","Sam","I can feel a rainy day from this painting,18,240,20","Kyle","It looks like a playground for bats,-36,180,20","2"
"3218","","image-button-response_instructions","42","208103","0.0-41.0","A3RYL66CAGH5JU","","0","instructions","","","","","","","","","","","","","","","","","","","","","","","",""
"10247","","survey-likert","43","218351","0.0-42.0-0.0","A3RYL66CAGH5JU","","","","{""Q0"":"""",""Q1"":0,""Q2"":1}","","","","","","","","","","","","","","","","","","","","","","",""
"5338","","survey-text","44","223693","0.0-43.0-0.0","A3RYL66CAGH5JU","","","","{""Q0"":""rock""}","","","","","","","","","","","","","","","","","","","","","","",""
"16142","","survey-text","45","239835","0.0-44.0-0.0","A3RYL66CAGH5JU","","","","{""Q0"":""rotting garbage, terrible""}","","","","","","","","","","","","","","","","","","","","","","",""
"4215.400000035763","","image-slider-response","46","244052","0.0-45.0","A3RYL66CAGH5JU","","","","","-50","","","","","","","","","","","","","","","","","","","","","",""
"null","","image-button-response","47","249066","0.0-46.0","A3RYL66CAGH5JU","img_art/14.jpg","null","","","","","","","","","","","","","","","","","","","","","","","","",""
"4648","","image-button-response","48","253715","0.0-47.0","A3RYL66CAGH5JU","img_art/14.jpg","2","","","","","","","","","","","","","","","","","","","","","","","","",""
"4007","","image-button-response","49","257723","0.0-48.0-0.0","A3RYL66CAGH5JU","img_art/14.jpg","5","","","","","","","","","","","","","","","","","","","","","","","","",""
"4261","","image-button-response","50","261986","0.0-49.0-0.0","A3RYL66CAGH5JU","img_art/14.jpg","4","","","","","","","","","","","","","","","","","","","","","","","","",""
"null","","html-keyboard-response","51","262488","0.0-50.0","A3RYL66CAGH5JU","<p style=""font-size: 48px;"">+</p>","","","","","null","allTrialResponses","500","1","1","img_art/14.jpg","-50","rotting garbage, terrible","Isaac,Jordan,Grant,Jose,Nathaniel,Christopher","The colors are pleasing.,29,280,20","Reminds me of art class,22,160,20","This elicits no reaction in me.,0,200,20","I don't like the color red,30,200,20","Not quite the style I'd like, but it does have a certain air of emptiness.,12,220,20","this looks pretty childish,-15,160,20","Grant","This elicits no reaction in me.,0,200,20","Christopher","this looks pretty childish,-15,160,20","Nathaniel","Not quite the style I'd like, but it does have a certain air of emptiness.,12,220,20","2"
"8918","","survey-text","52","271409","0.0-51.0-0.0","A3RYL66CAGH5JU","","","","{""Q0"":""chutes and ladders""}","","","","","","","","","","","","","","","","","","","","","","",""
"2228.599999964237","","image-slider-response","53","273639","0.0-52.0","A3RYL66CAGH5JU","","","","","11","","","","","","","","","","","","","","","","","","","","","",""
"null","","image-button-response","54","278641","0.0-53.0","A3RYL66CAGH5JU","img_art/30.jpg","null","","","","","","","","","","","","","","","","","","","","","","","","",""
"6707","","image-button-response","55","285349","0.0-54.0","A3RYL66CAGH5JU","img_art/30.jpg","4","","","","","","","","","","","","","","","","","","","","","","","","",""
"8899","","image-button-response","56","294250","0.0-55.0-0.0","A3RYL66CAGH5JU","img_art/30.jpg","2","","","","","","","","","","","","","","","","","","","","","","","","",""
"3876","","image-button-response","57","298127","0.0-56.0-0.0","A3RYL66CAGH5JU","img_art/30.jpg","3","","","","","","","","","","","","","","","","","","","","","","","","",""
"null","","html-keyboard-response","58","298630","0.0-57.0","A3RYL66CAGH5JU","<p style=""font-size: 48px;"">+</p>","","","","","null","allTrialResponses","500","1","2","img_art/30.jpg","11","chutes and ladders","Jason,Carlos,Grant,Alejandro,Nathaniel,Christopher","Do not like the streaks,-14,20,20","It just feels hasty and not well composed. Has an angsty teen feel,-31,80,20","The brush strokes are appealing, and make me want to look at this longer.,11,200,20","An interesting design but don't like the colors. I value the time and effort put into it, but not a huge fan.,10,80,20","No my favorite, but I do like the long strokes of color,11,220,20","looks simple, I can't see a lot of care going into this,-33,160,20","Nathaniel","No my favorite, but I do like the long strokes of color,11,220,20","Grant","The brush strokes are appealing, and make me want to look at this longer.,11,200,20","Alejandro","An interesting design but don't like the colors. I value the time and effort put into it, but not a huge fan.,10,80,20","2"
"22049","","survey-text","59","320681","0.0-58.0-0.0","A3RYL66CAGH5JU","","","","{""Q0"":""mad max in watercolor""}","","","","","","","","","","","","","","","","","","","","","","",""
"2190.899999976158","","image-slider-response","60","322873","0.0-59.0","A3RYL66CAGH5JU","","","","","50","","","","","","","","","","","","","","","","","","","","","",""
"3223","","image-button-response","61","327876","0.0-60.0","A3RYL66CAGH5JU","img_art/20.jpg","1","","","","","","","","","","","","","","","","","","","","","","","","",""
"1699","","image-button-response","62","329577","0.0-61.0","A3RYL66CAGH5JU","img_art/20.jpg","1","","","","","","","","","","","","","","","","","","","","","","","","",""
"7406","","image-button-response","63","336984","0.0-62.0-0.0","A3RYL66CAGH5JU","img_art/20.jpg","4","","","","","","","","","","","","","","","","","","","","","","","","",""
"2158","","image-button-response","64","339145","0.0-63.0-0.0","A3RYL66CAGH5JU","img_art/20.jpg","0","","","","","","","","","","","","","","","","","","","","","","","","",""
"null","","html-keyboard-response","65","340147","0.0-64.0","A3RYL66CAGH5JU","<p style=""font-size: 48px;"">+</p>","","","","","null","allTrialResponses","1000","1","3","img_art/20.jpg","50","mad max in watercolor","Miguel,Evan,Grant,Alejandro,Nathaniel,Robert","It's ok. Very abstract.,18,160,20","I feel intrigued and impressed,34,140,20","This elicits no reaction in me.,0,200,20","The pulling and sagging nature is very beautiful.,30,80,20","A bit hectic, but it does have a bit of coolness to it,6,220,20","Looks like an old gold mining down now deserted.,11,360,20","Evan","I feel intrigued and impressed,34,140,20","Nathaniel","A bit hectic, but it does have a bit of coolness to it,6,220,20","Miguel","It's ok. Very abstract.,18,160,20","2"
"22355","","survey-text","66","362505","0.0-65.0-0.0","A3RYL66CAGH5JU","","","","{""Q0"":""spooky, sad, like the color tho""}","","","","","","","","","","","","","","","","","","","","","","",""
"2974.5","","image-slider-response","67","365481","0.0-66.0","A3RYL66CAGH5JU","","","","","6","","","","","","","","","","","","","","","","","","","","","",""
"2144","","image-button-response","68","370483","0.0-67.0","A3RYL66CAGH5JU","img_art/25.jpg","1","","","","","","","","","","","","","","","","","","","","","","","","",""
"851","","image-button-response","69","371335","0.0-68.0","A3RYL66CAGH5JU","img_art/25.jpg","1","","","","","","","","","","","","","","","","","","","","","","","","",""
"2269","","image-button-response","70","373606","0.0-69.0-0.0","A3RYL66CAGH5JU","img_art/25.jpg","2","","","","","","","","","","","","","","","","","","","","","","","","",""
"5165","","image-button-response","71","378773","0.0-70.0-0.0","A3RYL66CAGH5JU","img_art/25.jpg","4","","","","","","","","","","","","","","","","","","","","","","","","",""
"null","","html-keyboard-response","72","379774","0.0-71.0","A3RYL66CAGH5JU","<p style=""font-size: 48px;"">+</p>","","","","","null","allTrialResponses","1000","1","4","img_art/25.jpg","6","spooky, sad, like the color tho","Miguel,Evan,Jonathan,Travis,Nathaniel,Peter","This is too simple,-22,160,20","I really like the green and the fact that it is tattered on the edges,23,140,20","This painting is cool but it gives off an evil vibe,-10,140,20","I hate the colors and the scene,-46,260,20","I love the background color and it's creepy...but cool.,30,220,20","It's very mystical.,5,320,20","Evan","I really like the green and the fact that it is tattered on the edges,23,140,20","Jonathan","This painting is cool but it gives off an evil vibe,-10,140,20","Nathaniel","I love the background color and it's creepy...but cool.,30,220,20","2"
"39592","","survey-text","73","419369","0.0-72.0-0.0","A3RYL66CAGH5JU","","","","{""Q0"":""some talent, but looks like a public bathroom floor""}","","","","","","","","","","","","","","","","","","","","","","",""
"3031.300000011921","","image-slider-response","74","422402","0.0-73.0","A3RYL66CAGH5JU","","","","","-43","","","","","","","","","","","","","","","","","","","","","",""
"null","","image-button-response","75","427405","0.0-74.0","A3RYL66CAGH5JU","img_art/19.jpg","null","","","","","","","","","","","","","","","","","","","","","","","","",""
"2673","","image-button-response","76","430079","0.0-75.0","A3RYL66CAGH5JU","img_art/19.jpg","4","","","","","","","","","","","","","","","","","","","","","","","","",""
"3999","","image-button-response","77","434080","0.0-76.0-0.0","A3RYL66CAGH5JU","img_art/19.jpg","0","","","","","","","","","","","","","","","","","","","","","","","","",""
"6974","","image-button-response","78","441055","0.0-77.0-0.0","A3RYL66CAGH5JU","img_art/19.jpg","1","","","","","","","","","","","","","","","","","","","","","","","","",""
"null","","html-keyboard-response","79","442057","0.0-78.0","A3RYL66CAGH5JU","<p style=""font-size: 48px;"">+</p>","","","","","null","allTrialResponses","1000","1","5","img_art/19.jpg","-43","some talent, but looks like a public bathroom floor","Joseph,Evan,Jonathan,Caleb,Nathaniel,Kevin","Too messy and busy. Too much going on there for me.,-12,220,20","It makes me feel like it is of a street of bakeries,15,140,20","Feels like something I would hang in my dining room,42,140,20","Watercolor abstract? Strange.,1,40,20","Horrible. Squiggly lines everywhere.,-50,220,20","Thats a lazy town,-8,320,20","Nathaniel","Horrible. Squiggly lines everywhere.,-50,220,20","Joseph","Too messy and busy. Too much going on there for me.,-12,220,20","Evan","It makes me feel like it is of a street of bakeries,15,140,20","2"
"5766","","survey-text","80","447826","0.0-79.0-0.0","A3RYL66CAGH5JU","","","","{""Q0"":""sky""}","","","","","","","","","","","","","","","","","","","","","","",""
"28526","","survey-text","81","476353","0.0-80.0-0.0","A3RYL66CAGH5JU","","","","{""Q0"":""the crooked city...well composed.""}","","","","","","","","","","","","","","","","","","","","","","",""
"2767.5","","image-slider-response","82","479123","0.0-81.0","A3RYL66CAGH5JU","","","","","34","","","","","","","","","","","","","","","","","","","","","",""
"null","","image-button-response","83","484126","0.0-82.0","A3RYL66CAGH5JU","img_art/8.jpg","null","","","","","","","","","","","","","","","","","","","","","","","","",""
"3252","","image-button-response","84","487379","0.0-83.0","A3RYL66CAGH5JU","img_art/8.jpg","1","","","","","","","","","","","","","","","","","","","","","","","","",""
"11439","","image-button-response","85","498819","0.0-84.0-0.0","A3RYL66CAGH5JU","img_art/8.jpg","2","","","","","","","","","","","","","","","","","","","","","","","","",""
"2568","","image-button-response","86","501389","0.0-85.0-0.0","A3RYL66CAGH5JU","img_art/8.jpg","3","","","","","","","","","","","","","","","","","","","","","","","","",""
"null","","html-keyboard-response","87","502390","0.0-86.0","A3RYL66CAGH5JU","<p style=""font-size: 48px;"">+</p>","","","","","null","allTrialResponses","1000","1","6","img_art/8.jpg","34","the crooked city...well composed.","Joseph,Evan,Cody,Blake,Nathaniel,Jake","The faces are kinda freaky.,-17,220,20","I can't tell if this is supposed to portray just city life or a town crumbling,-5,140,20","Love the colors & block-style,50,180,20","cold city controlled by evil gods,-17,280,20","Not a fan of abstract looking pieces with too many focal points. The tunnel and face, for example,-31,220,20","It's a poor rendition of an MC Escher inspired piece.,-25,360,20","Evan","I can't tell if this is supposed to portray just city life or a town crumbling,-5,140,20","Cody","Love the colors & block-style,50,180,20","Blake","cold city controlled by evil gods,-17,280,20","2"
"26465","","survey-text","88","528857","0.0-87.0-0.0","A3RYL66CAGH5JU","","","","{""Q0"":""ok..but dont love how muted the colors are""}","","","","","","","","","","","","","","","","","","","","","","",""
"2266.900000035763","","image-slider-response","89","531125","0.0-88.0","A3RYL66CAGH5JU","","","","","-12","","","","","","","","","","","","","","","","","","","","","",""
"null","","image-button-response","90","536127","0.0-89.0","A3RYL66CAGH5JU","img_art/12.jpg","null","","","","","","","","","","","","","","","","","","","","","","","","",""
"291","","image-button-response","91","536420","0.0-90.0","A3RYL66CAGH5JU","img_art/12.jpg","2","","","","","","","","","","","","","","","","","","","","","","","","",""
"2891","","image-button-response","92","539312","0.0-91.0-0.0","A3RYL66CAGH5JU","img_art/12.jpg","5","","","","","","","","","","","","","","","","","","","","","","","","",""
"2399","","image-button-response","93","541713","0.0-92.0-0.0","A3RYL66CAGH5JU","img_art/12.jpg","3","","","","","","","","","","","","","","","","","","","","","","","","",""
"null","","html-keyboard-response","94","543215","0.0-93.0","A3RYL66CAGH5JU","<p style=""font-size: 48px;"">+</p>","","","","","null","allTrialResponses","1500","1","7","img_art/12.jpg","-12","ok..but dont love how muted the colors are","Bryan,Evan,Cody,Blake,Benjamin,Alexander","Love the colors & the abstractness.,31,400,20","It reminds me of the documentary Paris is Burning, though I'm not sure why,11,140,20","Pretty but not a huge fan of the colors,20,180,20","negative feelings with these blocks,-20,280,20","Like how all the colors seem to blend together.,15,260,20","Ugly color combinations, no focus.,-25,120,20","Cody","Pretty but not a huge fan of the colors,20,180,20","Alexander","Ugly color combinations, no focus.,-25,120,20","Blake","negative feelings with these blocks,-20,280,20","2"
"31540","","survey-text","95","574758","0.0-94.0-0.0","A3RYL66CAGH5JU","","","","{""Q0"":""I hate this, two embryos about to die""}","","","","","","","","","","","","","","","","","","","","","","",""
"2374.600000023842","","image-slider-response","96","577134","0.0-95.0","A3RYL66CAGH5JU","","","","","-50","","","","","","","","","","","","","","","","","","","","","",""
"2068","","image-button-response","97","582135","0.0-96.0","A3RYL66CAGH5JU","img_art/28.jpg","0","","","","","","","","","","","","","","","","","","","","","","","","",""
"3405","","image-button-response","98","585542","0.0-97.0","A3RYL66CAGH5JU","img_art/28.jpg","4","","","","","","","","","","","","","","","","","","","","","","","","",""
"6090","","image-button-response","99","591634","0.0-98.0-0.0","A3RYL66CAGH5JU","img_art/28.jpg","0","","","","","","","","","","","","","","","","","","","","","","","","",""
"2114","","image-button-response","100","593750","0.0-99.0-0.0","A3RYL66CAGH5JU","img_art/28.jpg","2","","","","","","","","","","","","","","","","","","","","","","","","",""
"null","","html-keyboard-response","101","594751","0.0-100.0","A3RYL66CAGH5JU","<p style=""font-size: 48px;"">+</p>","","","","","null","allTrialResponses","1000","1","8","img_art/28.jpg","-50","I hate this, two embryos about to die","Daniel,Jesse,Cody,Blake,Mason,Alexander","Compact grey mess lack negative space,-10,320,20","Just all blurs together for me. No substance.,-23,80,20","Don't love the colors,-10,180,20","an old woman in a wheelchair. sad,-35,280,20","bland busy ugly,-31,100,20","Apartment throw up.,-5,120,20","Mason","bland busy ugly,-31,100,20","Daniel","Compact grey mess lack negative space,-10,320,20","Cody","Don't love the colors,-10,180,20","2"
"24163","","survey-text","102","618917","0.0-101.0-0.0","A3RYL66CAGH5JU","","","","{""Q0"":""impressionist waterfall? nice bright colors""}","","","","","","","","","","","","","","","","","","","","","","",""
"2866.600000023842","","image-slider-response","103","621785","0.0-102.0","A3RYL66CAGH5JU","","","","","37","","","","","","","","","","","","","","","","","","","","","",""
"4946","","image-button-response","104","626788","0.0-103.0","A3RYL66CAGH5JU","img_art/24.jpg","2","","","","","","","","","","","","","","","","","","","","","","","","",""
"1743","","image-button-response","105","628533","0.0-104.0","A3RYL66CAGH5JU","img_art/24.jpg","2","","","","","","","","","","","","","","","","","","","","","","","","",""
"6073","","image-button-response","106","634608","0.0-105.0-0.0","A3RYL66CAGH5JU","img_art/24.jpg","3","","","","","","","","","","","","","","","","","","","","","","","","",""
"2436","","image-button-response","107","637046","0.0-106.0-0.0","A3RYL66CAGH5JU","img_art/24.jpg","5","","","","","","","","","","","","","","","","","","","","","","","","",""
"null","","html-keyboard-response","108","638548","0.0-107.0","A3RYL66CAGH5JU","<p style=""font-size: 48px;"">+</p>","","","","","null","allTrialResponses","1500","1","9","img_art/24.jpg","37","impressionist waterfall? nice bright colors","Daniel,Kyle,Cody,Dylan,Mason,Mark","Classic palette lacks real world 3d construction,19,320,20","This one is nice because it reminds me of nature,18,340,20","Beautiful, good colors, love water,50,180,20","This reminds me of a creek or a river. It puts me a peace,42,40,20","Nature, abstract, I'd hang this in my house.,37,100,20","Waterfall, and I love the coloring.,48,80,20","Cody","Beautiful, good colors, love water,50,180,20","Dylan","This reminds me of a creek or a river. It puts me a peace,42,40,20","Mark","Waterfall, and I love the coloring.,48,80,20","2"
"33928","","survey-text","109","672480","0.0-108.0-0.0","A3RYL66CAGH5JU","","","","{""Q0"":""some dumb emo kid painted this...saying \""waa, I'm sad!\""""}","","","","","","","","","","","","","","","","","","","","","","",""
"2407","","image-slider-response","110","674888","0.0-109.0","A3RYL66CAGH5JU","","","","","-48","","","","","","","","","","","","","","","","","","","","","",""
"null","","image-button-response","111","679889","0.0-110.0","A3RYL66CAGH5JU","img_art/16.jpg","null","","","","","","","","","","","","","","","","","","","","","","","","",""
"7521","","image-button-response","112","687412","0.0-111.0","A3RYL66CAGH5JU","img_art/16.jpg","0","","","","","","","","","","","","","","","","","","","","","","","","",""
"1666","","image-button-response","113","689080","0.0-112.0-0.0","A3RYL66CAGH5JU","img_art/16.jpg","2","","","","","","","","","","","","","","","","","","","","","","","","",""
"2683","","image-button-response","114","691764","0.0-113.0-0.0","A3RYL66CAGH5JU","img_art/16.jpg","3","","","","","","","","","","","","","","","","","","","","","","","","",""
"null","","html-keyboard-response","115","692266","0.0-114.0","A3RYL66CAGH5JU","<p style=""font-size: 48px;"">+</p>","","","","","null","allTrialResponses","500","1","10","img_art/16.jpg","-48","some dumb emo kid painted this...saying ""waa, I'm sad!""","Adam,Jesus,Cody,Dylan,Eric,Mark","Hard contrast, but no emotions towards any of the objects.,-6,40,20","I like the mixture of images,23,100,20","Kind of creepyyyyyy,-41,180,20","This is weird and creepy.,-40,40,20","This piece is unusual but unique.,5,100,20","I think it's about child abuse. The teddy bear represents innocence and the dark shape is approaching it.,40,80,20","Adam","Hard contrast, but no emotions towards any of the objects.,-6,40,20","Cody","Kind of creepyyyyyy,-41,180,20","Dylan","This is weird and creepy.,-40,40,20","2"
"4732","","survey-text","116","697003","0.0-115.0-0.0","A3RYL66CAGH5JU","","","","{""Q0"":""our""}","","","","","","","","","","","","","","","","","","","","","","",""
"27725","","survey-text","117","724730","0.0-116.0-0.0","A3RYL66CAGH5JU","","","","{""Q0"":""it lives in a pineapple under the sea, bad art squarepants!""}","","","","","","","","","","","","","","","","","","","","","","",""
"2511.699999988079","","image-slider-response","118","727243","0.0-117.0","A3RYL66CAGH5JU","","","","","-32","","","","","","","","","","","","","","","","","","","","","",""
"4483","","image-button-response","119","732245","0.0-118.0","A3RYL66CAGH5JU","img_art/9.jpg","0","","","","","","","","","","","","","","","","","","","","","","","","",""
"981","","image-button-response","120","733227","0.0-119.0","A3RYL66CAGH5JU","img_art/9.jpg","0","","","","","","","","","","","","","","","","","","","","","","","","",""
"3883","","image-button-response","121","737112","0.0-120.0-0.0","A3RYL66CAGH5JU","img_art/9.jpg","3","","","","","","","","","","","","","","","","","","","","","","","","",""
"3882","","image-button-response","122","740996","0.0-121.0-0.0","A3RYL66CAGH5JU","img_art/9.jpg","2","","","","","","","","","","","","","","","","","","","","","","","","",""
"null","","html-keyboard-response","123","742498","0.0-122.0","A3RYL66CAGH5JU","<p style=""font-size: 48px;"">+</p>","","","","","null","allTrialResponses","1500","1","11","img_art/9.jpg","-32","it lives in a pineapple under the sea, bad art squarepants!","Adam,Austin,Cody,Dylan,James,Samuel","Very eclectic and messy. Not my preference, but may work for some.,-20,40,20","Love the uniqueness,21,240,20","Feels angry .....,-40,180,20","This picture is too busy and ugly,-20,40,20","This has some of my favorite colors, and I like it,21,380,20","what a wild ride,11,400,20","Adam","Very eclectic and messy. Not my preference, but may work for some.,-20,40,20","Dylan","This picture is too busy and ugly,-20,40,20","Cody","Feels angry .....,-40,180,20","2"
"29446","","survey-text","124","771946","0.0-123.0-0.0","A3RYL66CAGH5JU","","","","{""Q0"":""feels like a abd day in front of a keyboard...anger painted right""}","","","","","","","","","","","","","","","","","","","","","","",""
"2690","","image-slider-response","125","774638","0.0-124.0","A3RYL66CAGH5JU","","","","","40","","","","","","","","","","","","","","","","","","","","","",""
"2377","","image-button-response","126","779639","0.0-125.0","A3RYL66CAGH5JU","img_art/29.jpg","1","","","","","","","","","","","","","","","","","","","","","","","","",""
"613","","image-button-response","127","780254","0.0-126.0","A3RYL66CAGH5JU","img_art/29.jpg","1","","","","","","","","","","","","","","","","","","","","","","","","",""
"10555","","image-button-response","128","790810","0.0-127.0-0.0","A3RYL66CAGH5JU","img_art/29.jpg","2","","","","","","","","","","","","","","","","","","","","","","","","",""
"906","","image-button-response","129","791718","0.0-128.0-0.0","A3RYL66CAGH5JU","img_art/29.jpg","3","","","","","","","","","","","","","","","","","","","","","","","","",""
"null","","html-keyboard-response","130","793219","0.0-129.0","A3RYL66CAGH5JU","<p style=""font-size: 48px;"">+</p>","","","","","null","allTrialResponses","1500","1","12","img_art/29.jpg","40","feels like a abd day in front of a keyboard...anger painted right","Adam,Andrew,Cody,Dylan,Thomas,Sean","Flash is too strong. Dislike the colors,-5,40,20","It seems like there's anger in the painting.,-20,160,20","Feels messy, stressful,-22,180,20","I don't like this. It is ugly and dark,-29,40,20","Looks messy, but not in appealing way,-20,220,20","my response to the picture is that it looks so nice and cool and the details,34,40,20","Andrew","It seems like there's anger in the painting.,-20,160,20","Cody","Feels messy, stressful,-22,180,20","Dylan","I don't like this. It is ugly and dark,-29,40,20","2"
"22467","","survey-text","131","815689","0.0-130.0-0.0","A3RYL66CAGH5JU","","","","{""Q0"":""finger painted by a five year old...boring""}","","","","","","","","","","","","","","","","","","","","","","",""
"2330.899999976158","","image-slider-response","132","818022","0.0-131.0","A3RYL66CAGH5JU","","","","","-46","","","","","","","","","","","","","","","","","","","","","",""
"null","","image-button-response","133","823025","0.0-132.0","A3RYL66CAGH5JU","img_art/26.jpg","null","","","","","","","","","","","","","","","","","","","","","","","","",""
"1088","","image-button-response","134","824114","0.0-133.0","A3RYL66CAGH5JU","img_art/26.jpg","2","","","","","","","","","","","","","","","","","","","","","","","","",""
"4461","","image-button-response","135","828576","0.0-134.0-0.0","A3RYL66CAGH5JU","img_art/26.jpg","3","","","","","","","","","","","","","","","","","","","","","","","","",""
"3090","","image-button-response","136","831668","0.0-135.0-0.0","A3RYL66CAGH5JU","img_art/26.jpg","4","","","","","","","","","","","","","","","","","","","","","","","","",""
"null","","html-keyboard-response","137","832171","0.0-136.0","A3RYL66CAGH5JU","<p style=""font-size: 48px;"">+</p>","","","","","null","allTrialResponses","500","1","13","img_art/26.jpg","-46","finger painted by a five year old...boring","Jack,Andrew,Cody,Dylan,Logan,Gregory","soft colors & brush work. very easy to look at. makes me happy.,50,320,20","Makes me want to walk down a cool street,20,160,20","Looks unfinished,-31,180,20","I like the colors but it is still a little boring,22,40,20","I really love pastels and they're just being dimmed down too much here,-3,360,20","Street corner on a sunny day,5,220,20","Cody","Looks unfinished,-31,180,20","Dylan","I like the colors but it is still a little boring,22,40,20","Logan","I really love pastels and they're just being dimmed down too much here,-3,360,20","2"
"25626","","survey-text","138","857800","0.0-137.0-0.0","A3RYL66CAGH5JU","","","","{""Q0"":""distressing, but color is vibrant, you cant ignore this""}","","","","","","","","","","","","","","","","","","","","","","",""
"2314.2999999523163","","image-slider-response","139","860116","0.0-138.0","A3RYL66CAGH5JU","","","","","-6","","","","","","","","","","","","","","","","","","","","","",""
"3207","","image-button-response","140","865117","0.0-139.0","A3RYL66CAGH5JU","img_art/3.jpg","2","","","","","","","","","","","","","","","","","","","","","","","","",""
"660","","image-button-response","141","865778","0.0-140.0","A3RYL66CAGH5JU","img_art/3.jpg","2","","","","","","","","","","","","","","","","","","","","","","","","",""
"19648","","image-button-response","142","885429","0.0-141.0-0.0","A3RYL66CAGH5JU","img_art/3.jpg","4","","","","","","","","","","","","","","","","","","","","","","","","",""
"2149","","image-button-response","143","887580","0.0-142.0-0.0","A3RYL66CAGH5JU","img_art/3.jpg","1","","","","","","","","","","","","","","","","","","","","","","","","",""
"null","","html-keyboard-response","144","888581","0.0-143.0","A3RYL66CAGH5JU","<p style=""font-size: 48px;"">+</p>","","","","","null","allTrialResponses","1000","1","14","img_art/3.jpg","-6","distressing, but color is vibrant, you cant ignore this","Cole,Justin,Cody,Dylan,Logan,Aaron","Sharp peaks look like sharp teeth,-37,200,20","I don't care for art that looks like it was just scribbled.,-19,280,20","Feels upset .......,-10,180,20","I could scribble on paper and mimic this,-48,40,20","im just getting more agitated and less appreciative of art. I have absolutely no scale to base on,-34,360,20","Definition of mediocre abstract art,-12,20,20","Cody","Feels upset .......,-10,180,20","Logan","im just getting more agitated and less appreciative of art. I have absolutely no scale to base on,-34,360,20","Justin","I don't care for art that looks like it was just scribbled.,-19,280,20","2"
"21006","","survey-text","145","909589","0.0-144.0-0.0","A3RYL66CAGH5JU","","","","{""Q0"":""artist captured a feeling of lonliness""}","","","","","","","","","","","","","","","","","","","","","","",""
"2120.599999964237","","image-slider-response","146","911711","0.0-145.0","A3RYL66CAGH5JU","","","","","8","","","","","","","","","","","","","","","","","","","","","",""
"null","","image-button-response","147","916713","0.0-146.0","A3RYL66CAGH5JU","img_art/6.jpg","null","","","","","","","","","","","","","","","","","","","","","","","","",""
"6254","","image-button-response","148","922969","0.0-147.0","A3RYL66CAGH5JU","img_art/6.jpg","5","","","","","","","","","","","","","","","","","","","","","","","","",""
"898","","image-button-response","149","923869","0.0-148.0-0.0","A3RYL66CAGH5JU","img_art/6.jpg","2","","","","","","","","","","","","","","","","","","","","","","","","",""
"4584","","image-button-response","150","928456","0.0-149.0-0.0","A3RYL66CAGH5JU","img_art/6.jpg","0","","","","","","","","","","","","","","","","","","","","","","","","",""
"null","","html-keyboard-response","151","929957","0.0-150.0","A3RYL66CAGH5JU","<p style=""font-size: 48px;"">+</p>","","","","","null","allTrialResponses","1500","1","15","img_art/6.jpg","8","artist captured a feeling of lonliness","Lucas,Justin,Cody,Nathan,Logan,Zachary","Nothing special.,-20,380,20","It's alright. I imagined the peach from James and the Giant Peach.,1,280,20","Birds are cool but I don't love it,10,180,20","Not a fan of anything in this,-43,200,20","boring. don't really like birds,1,360,20","Reminds me of a plant poking through the soil. It reminds me of new life.,31,400,20","Zachary","Reminds me of a plant poking through the soil. It reminds me of new life.,31,400,20","Cody","Birds are cool but I don't love it,10,180,20","Lucas","Nothing special.,-20,380,20","2"
"6018","","survey-text","152","935979","0.0-151.0-0.0","A3RYL66CAGH5JU","","","","{""Q0"":""course""}","","","","","","","","","","","","","","","","","","","","","","",""
"35357","","survey-text","153","971337","0.0-152.0-0.0","A3RYL66CAGH5JU","","","","{""Q0"":""a jazzman's instrument...after he has died a dissolute death""}","","","","","","","","","","","","","","","","","","","","","","",""
"2236.800000011921","","image-slider-response","154","973575","0.0-153.0","A3RYL66CAGH5JU","","","","","19","","","","","","","","","","","","","","","","","","","","","",""
"3455","","image-button-response","155","978578","0.0-154.0","A3RYL66CAGH5JU","img_art/10.jpg","2","","","","","","","","","","","","","","","","","","","","","","","","",""
"638","","image-button-response","156","979217","0.0-155.0","A3RYL66CAGH5JU","img_art/10.jpg","2","","","","","","","","","","","","","","","","","","","","","","","","",""
"8084","","image-button-response","157","987302","0.0-156.0-0.0","A3RYL66CAGH5JU","img_art/10.jpg","4","","","","","","","","","","","","","","","","","","","","","","","","",""
"2098","","image-button-response","158","989401","0.0-157.0-0.0","A3RYL66CAGH5JU","img_art/10.jpg","3","","","","","","","","","","","","","","","","","","","","","","","","",""
"null","","html-keyboard-response","159","990404","0.0-158.0","A3RYL66CAGH5JU","<p style=""font-size: 48px;"">+</p>","","","","","null","allTrialResponses","1000","1","16","img_art/10.jpg","19","a jazzman's instrument...after he has died a dissolute death","Lucas,Jared,Cody,Bryce,Patrick,Zachary","For me, it looks like a giant ship on the sea and it's astonishing.,30,380,20","it just doesnt appeal to me.,-10,400,20","Feels musical .....,40,180,20","Kinda creepy not my favorite,-26,20,20","I don't like the colors,-20,280,20","Reminds me of a terrarium with cacti inside. It reminds me of home.,27,400,20","Cody","Feels musical .....,40,180,20","Patrick","I don't like the colors,-20,280,20","Bryce","Kinda creepy not my favorite,-26,20,20","2"
"23785","","survey-text","160","1014192","0.0-159.0-0.0","A3RYL66CAGH5JU","","","","{""Q0"":""looks like a forest fire explosion, colors are ok""}","","","","","","","","","","","","","","","","","","","","","","",""
"2682.2000000476837","","image-slider-response","161","1016875","0.0-160.0","A3RYL66CAGH5JU","","","","","9","","","","","","","","","","","","","","","","","","","","","",""
"1899","","image-button-response","162","1021878","0.0-161.0","A3RYL66CAGH5JU","img_art/1.jpg","2","","","","","","","","","","","","","","","","","","","","","","","","",""
"1760","","image-button-response","163","1023640","0.0-162.0","A3RYL66CAGH5JU","img_art/1.jpg","2","","","","","","","","","","","","","","","","","","","","","","","","",""
"2975","","image-button-response","164","1026616","0.0-163.0-0.0","A3RYL66CAGH5JU","img_art/1.jpg","0","","","","","","","","","","","","","","","","","","","","","","","","",""
"8847","","image-button-response","165","1035464","0.0-164.0-0.0","A3RYL66CAGH5JU","img_art/1.jpg","1","","","","","","","","","","","","","","","","","","","","","","","","",""
"null","","html-keyboard-response","166","1036466","0.0-165.0","A3RYL66CAGH5JU","<p style=""font-size: 48px;"">+</p>","","","","","null","allTrialResponses","1000","1","17","img_art/1.jpg","9","looks like a forest fire explosion, colors are ok","Brandon,Brett,Cody,Bryce,Patrick,Trevor","Taco Bell wallpaper. Doesn't really make me feel anything,3,320,20","I don't know how I feel about this,1,360,20","Pretty, nice use of color,40,180,20","Again kind a boring.,-38,20,20","I feel uneasy looking at this,-41,280,20","nice colors but kinds of blah,1,280,20","Cody","Pretty, nice use of color,40,180,20","Brandon","Taco Bell wallpaper. Doesn't really make me feel anything,3,320,20","Brett","I don't know how I feel about this,1,360,20","2"
"22953","","survey-text","167","1059422","0.0-166.0-0.0","A3RYL66CAGH5JU","","","","{""Q0"":""not bad, very primary, reminds me of duplo lego blocks""}","","","","","","","","","","","","","","","","","","","","","","",""
"2406.900000035763","","image-slider-response","168","1061831","0.0-167.0","A3RYL66CAGH5JU","","","","","4","","","","","","","","","","","","","","","","","","","","","",""
"2176","","image-button-response","169","1066834","0.0-168.0","A3RYL66CAGH5JU","img_art/22.jpg","2","","","","","","","","","","","","","","","","","","","","","","","","",""
"1818","","image-button-response","170","1068654","0.0-169.0","A3RYL66CAGH5JU","img_art/22.jpg","2","","","","","","","","","","","","","","","","","","","","","","","","",""
"6609","","image-button-response","171","1075264","0.0-170.0-0.0","A3RYL66CAGH5JU","img_art/22.jpg","5","","","","","","","","","","","","","","","","","","","","","","","","",""
"3620","","image-button-response","172","1078886","0.0-171.0-0.0","A3RYL66CAGH5JU","img_art/22.jpg","0","","","","","","","","","","","","","","","","","","","","","","","","",""
"null","","html-keyboard-response","173","1079888","0.0-172.0","A3RYL66CAGH5JU","<p style=""font-size: 48px;"">+</p>","","","","","null","allTrialResponses","1000","1","18","img_art/22.jpg","4","not bad, very primary, reminds me of duplo lego blocks","Brandon,Brett,Cody,Antonio,Dalton,Taylor","Don't like this type of abstract work,-39,320,20","Climate change in a big city,35,360,20","Love the use of color,50,180,20","Felt blah. Bunch of nothingness,-42,220,20","i think its pretty but im not sure what i see,1,300,20","Looks like the kind of art I would see at the doctor's office.,-5,200,20","Cody","Love the use of color,50,180,20","Taylor","Looks like the kind of art I would see at the doctor's office.,-5,200,20","Brandon","Don't like this type of abstract work,-39,320,20","2"
"25508","","survey-text","174","1105399","0.0-173.0-0.0","A3RYL66CAGH5JU","","","","{""Q0"":""looks like the obama poster and spongebob had a love child""}","","","","","","","","","","","","","","","","","","","","","","",""
"3190.800000011921","","image-slider-response","175","1108591","0.0-174.0","A3RYL66CAGH5JU","","","","","17","","","","","","","","","","","","","","","","","","","","","",""
"null","","image-button-response","176","1113594","0.0-175.0","A3RYL66CAGH5JU","img_art/2.jpg","null","","","","","","","","","","","","","","","","","","","","","","","","",""
"5137","","image-button-response","177","1118731","0.0-176.0","A3RYL66CAGH5JU","img_art/2.jpg","2","","","","","","","","","","","","","","","","","","","","","","","","",""
"2115","","image-button-response","178","1120848","0.0-177.0-0.0","A3RYL66CAGH5JU","img_art/2.jpg","0","","","","","","","","","","","","","","","","","","","","","","","","",""
"3868","","image-button-response","179","1124718","0.0-178.0-0.0","A3RYL66CAGH5JU","img_art/2.jpg","5","","","","","","","","","","","","","","","","","","","","","","","","",""
"null","","html-keyboard-response","180","1125220","0.0-179.0","A3RYL66CAGH5JU","<p style=""font-size: 48px;"">+</p>","","","","","null","allTrialResponses","500","1","19","img_art/2.jpg","17","looks like the obama poster and spongebob had a love child","Brandon,Devin,Cody,Garrett,Anthony,Taylor","Do not like this type of abstract work,-50,320,20","I don't really like this style,-5,380,20","Don't love the colors,-30,180,20","I like this picture a little because the colors make it look a little vibrant.,10,180,20","Ugly color scheme,-50,200,20","Have now advanced from kindergarten to the first grade.,-5,200,20","Cody","Don't love the colors,-30,180,20","Brandon","Do not like this type of abstract work,-50,320,20","Taylor","Have now advanced from kindergarten to the first grade.,-5,200,20","2"
"27007","","survey-text","181","1152230","0.0-180.0-0.0","A3RYL66CAGH5JU","","","","{""Q0"":""creepy, but some talent, it does evoke feelings..bad feelings, but feelings""}","","","","","","","","","","","","","","","","","","","","","","",""
"2467.5","","image-slider-response","182","1154699","0.0-181.0","A3RYL66CAGH5JU","","","","","20","","","","","","","","","","","","","","","","","","","","","",""
"null","","image-button-response","183","1159700","0.0-182.0","A3RYL66CAGH5JU","img_art/15.jpg","null","","","","","","","","","","","","","","","","","","","","","","","","",""
"290","","image-button-response","184","1159992","0.0-183.0","A3RYL66CAGH5JU","img_art/15.jpg","2","","","","","","","","","","","","","","","","","","","","","","","","",""
"2276","","image-button-response","185","1162270","0.0-184.0-0.0","A3RYL66CAGH5JU","img_art/15.jpg","0","","","","","","","","","","","","","","","","","","","","","","","","",""
"8124","","image-button-response","186","1170396","0.0-185.0-0.0","A3RYL66CAGH5JU","img_art/15.jpg","4","","","","","","","","","","","","","","","","","","","","","","","","",""
"null","","html-keyboard-response","187","1171398","0.0-186.0","A3RYL66CAGH5JU","<p style=""font-size: 48px;"">+</p>","","","","","null","allTrialResponses","1000","1","20","img_art/15.jpg","20","creepy, but some talent, it does evoke feelings..bad feelings, but feelings","Brandon,Bradley,Cody,Angel,Ethan,Taylor","Not a fan of abstract, but the black is very striking,10,320,20","I feel like there's ski jumping going on here.,2,300,20","Don't love it but it's cute,16,180,20","This is looking at a forest from above. I can see water and some pathways throughout. Nature.,20,180,20","This piece gave me no emotion. It's ugly to me.,-38,120,20","Getting better.,10,200,20","Cody","Don't love it but it's cute,16,180,20","Brandon","Not a fan of abstract, but the black is very striking,10,320,20","Ethan","This piece gave me no emotion. It's ugly to me.,-38,120,20","2"
"3618","","survey-text","188","1175020","0.0-187.0-0.0","A3RYL66CAGH5JU","","","","{""Q0"":""we""}","","","","","","","","","","","","","","","","","","","","","","",""
"34690","","survey-text","189","1209713","0.0-188.0-0.0","A3RYL66CAGH5JU","","","","{""Q0"":""scabies skin..eww..but i like the painting style""}","","","","","","","","","","","","","","","","","","","","","","",""
"2236.699999988079","","image-slider-response","190","1211951","0.0-189.0","A3RYL66CAGH5JU","","","","","8","","","","","","","","","","","","","","","","","","","","","",""
"3321","","image-button-response","191","1216953","0.0-190.0","A3RYL66CAGH5JU","img_art/7.jpg","2","","","","","","","","","","","","","","","","","","","","","","","","",""
"1921","","image-button-response","192","1218876","0.0-191.0","A3RYL66CAGH5JU","img_art/7.jpg","2","","","","","","","","","","","","","","","","","","","","","","","","",""
"699","","image-button-response","193","1219575","0.0-192.0-0.0","A3RYL66CAGH5JU","img_art/7.jpg","0","","","","","","","","","","","","","","","","","","","","","","","","",""
"6623","","image-button-response","194","1226200","0.0-193.0-0.0","A3RYL66CAGH5JU","img_art/7.jpg","5","","","","","","","","","","","","","","","","","","","","","","","","",""
"null","","html-keyboard-response","195","1227701","0.0-194.0","A3RYL66CAGH5JU","<p style=""font-size: 48px;"">+</p>","","","","","null","allTrialResponses","1500","1","21","img_art/7.jpg","8","scabies skin..eww..but i like the painting style","Brandon,Derek,Cody,Devon,Ethan,Adrian","Looks like bad wallpaper,-29,320,20","Not a fan of the pattern or colors,-40,360,20","Cool, makes me think of archeology,15,180,20","I'm not too sure about this one,-10,400,20","This reminds me of a close up photo of a stone wall.,-19,120,20","It's dirty. I don't mind the colors so much as the way they are put together in this dirty-looking pattern.,-41,60,20","Cody","Cool, makes me think of archeology,15,180,20","Brandon","Looks like bad wallpaper,-29,320,20","Adrian","It's dirty. I don't mind the colors so much as the way they are put together in this dirty-looking pattern.,-41,60,20","2"
"32032","","survey-text","196","1259737","0.0-195.0-0.0","A3RYL66CAGH5JU","","","","{""Q0"":""boring...colors blah..trying too hard with the green in the middle""}","","","","","","","","","","","","","","","","","","","","","","",""
"2714.699999988079","","image-slider-response","197","1262453","0.0-196.0","A3RYL66CAGH5JU","","","","","-50","","","","","","","","","","","","","","","","","","","","","",""
"1937","","image-button-response","198","1267455","0.0-197.0","A3RYL66CAGH5JU","img_art/27.jpg","0","","","","","","","","","","","","","","","","","","","","","","","","",""
"822","","image-button-response","199","1268278","0.0-198.0","A3RYL66CAGH5JU","img_art/27.jpg","0","","","","","","","","","","","","","","","","","","","","","","","","",""
"782","","image-button-response","200","1269062","0.0-199.0-0.0","A3RYL66CAGH5JU","img_art/27.jpg","2","","","","","","","","","","","","","","","","","","","","","","","","",""
"4293","","image-button-response","201","1273356","0.0-200.0-0.0","A3RYL66CAGH5JU","img_art/27.jpg","4","","","","","","","","","","","","","","","","","","","","","","","","",""
"null","","html-keyboard-response","202","1273858","0.0-201.0","A3RYL66CAGH5JU","<p style=""font-size: 48px;"">+</p>","","","","","null","allTrialResponses","500","1","22","img_art/27.jpg","-50","boring...colors blah..trying too hard with the green in the middle","Brandon,Shawn,Cody,Ian,Connor,Adrian","Too abstract, doesn't remind me of anything,-42,320,20","Like the movement of the lines and dripping paint.,30,100,20","Not sure how I feel about this. Messy, even for art. But good colors.,0,180,20","I'm not a fan. It looks like something my nephews (1 and 2) would make,-8,260,20","Looks like someone vandalized the original piece with a marker,-36,240,20","Looks like my niece's doodles.,-50,60,20","Brandon","Too abstract, doesn't remind me of anything,-42,320,20","Cody","Not sure how I feel about this. Messy, even for art. But good colors.,0,180,20","Connor","Looks like someone vandalized the original piece with a marker,-36,240,20","2"
"42790","","survey-text","203","1316651","0.0-202.0-0.0","A3RYL66CAGH5JU","","","","{""Q0"":""I like this, its not peole in the middle, but it looks like it, and they are ALIVE!""}","","","","","","","","","","","","","","","","","","","","","","",""
"2636.199999988079","","image-slider-response","204","1319289","0.0-203.0","A3RYL66CAGH5JU","","","","","36","","","","","","","","","","","","","","","","","","","","","",""
"2599","","image-button-response","205","1324291","0.0-204.0","A3RYL66CAGH5JU","img_art/23.jpg","2","","","","","","","","","","","","","","","","","","","","","","","","",""
"1266","","image-button-response","206","1325560","0.0-205.0","A3RYL66CAGH5JU","img_art/23.jpg","2","","","","","","","","","","","","","","","","","","","","","","","","",""
"714","","image-button-response","207","1326276","0.0-206.0-0.0","A3RYL66CAGH5JU","img_art/23.jpg","0","","","","","","","","","","","","","","","","","","","","","","","","",""
"3667","","image-button-response","208","1329944","0.0-207.0-0.0","A3RYL66CAGH5JU","img_art/23.jpg","5","","","","","","","","","","","","","","","","","","","","","","","","",""
"null","","html-keyboard-response","209","1330445","0.0-208.0","A3RYL66CAGH5JU","<p style=""font-size: 48px;"">+</p>","","","","","null","allTrialResponses","500","1","23","img_art/23.jpg","36","I like this, its not peole in the middle, but it looks like it, and they are ALIVE!","Brandon,Gabriel,Cody,Jeremy,Connor,Scott","Pretty cool. I love the white, reminds me of people lined up.,28,320,20","i think this ones okay,10,160,20","Love the use of colors and light,50,180,20","Does not incite any emotional response,1,60,20","Confetti dancer,-7,240,20","reminds me of an album cover,36,20,20","Cody","Love the use of colors and light,50,180,20","Brandon","Pretty cool. I love the white, reminds me of people lined up.,28,320,20","Scott","reminds me of an album cover,36,20,20","2"
"29767","","survey-text","210","1360216","0.0-209.0-0.0","A3RYL66CAGH5JU","","","","{""Q0"":""Terrible...Pikachu I DONT choose you.""}","","","","","","","","","","","","","","","","","","","","","","",""
"3296.400000035763","","image-slider-response","211","1363513","0.0-210.0","A3RYL66CAGH5JU","","","","","-50","","","","","","","","","","","","","","","","","","","","","",""
"4292","","image-button-response","212","1368516","0.0-211.0","A3RYL66CAGH5JU","img_art/5.jpg","2","","","","","","","","","","","","","","","","","","","","","","","","",""
"887","","image-button-response","213","1369405","0.0-212.0","A3RYL66CAGH5JU","img_art/5.jpg","2","","","","","","","","","","","","","","","","","","","","","","","","",""
"1702","","image-button-response","214","1371108","0.0-213.0-0.0","A3RYL66CAGH5JU","img_art/5.jpg","0","","","","","","","","","","","","","","","","","","","","","","","","",""
"4714","","image-button-response","215","1375824","0.0-214.0-0.0","A3RYL66CAGH5JU","img_art/5.jpg","4","","","","","","","","","","","","","","","","","","","","","","","","",""
"null","","html-keyboard-response","216","1376326","0.0-215.0","A3RYL66CAGH5JU","<p style=""font-size: 48px;"">+</p>","","","","","null","allTrialResponses","500","1","24","img_art/5.jpg","-50","Terrible...Pikachu I DONT choose you.","Brandon,Tanner,Cody,Timothy,Edward,Scott","Kindergarten art. I really don't like this style.,-50,320,20","sharp, painful yet playful,-5,180,20","Kind of ugly ....,-21,180,20","This feels joyful,39,240,20","Pretty simple, I'm not sure what it's supposed to mean,14,60,20","I like it but I don't know why,15,20,20","Cody","Kind of ugly ....,-21,180,20","Brandon","Kindergarten art. I really don't like this style.,-50,320,20","Edward","Pretty simple, I'm not sure what it's supposed to mean,14,60,20","2"
"27080","","survey-text","217","1403409","0.0-216.0-0.0","A3RYL66CAGH5JU","","","","{""Q0"":""abstract but good, love the contrast between sharp and fuzzy.""}","","","","","","","","","","","","","","","","","","","","","","",""
"3930.5","","image-slider-response","218","1407341","0.0-217.0","A3RYL66CAGH5JU","","","","","38","","","","","","","","","","","","","","","","","","","","","",""
"null","","image-button-response","219","1412343","0.0-218.0","A3RYL66CAGH5JU","img_art/18.jpg","null","","","","","","","","","","","","","","","","","","","","","","","","",""
"1297","","image-button-response","220","1413642","0.0-219.0","A3RYL66CAGH5JU","img_art/18.jpg","0","","","","","","","","","","","","","","","","","","","","","","","","",""
"5201","","image-button-response","221","1418844","0.0-220.0-0.0","A3RYL66CAGH5JU","img_art/18.jpg","3","","","","","","","","","","","","","","","","","","","","","","","","",""
"7737","","image-button-response","222","1426582","0.0-221.0-0.0","A3RYL66CAGH5JU","img_art/18.jpg","1","","","","","","","","","","","","","","","","","","","","","","","","",""
"null","","html-keyboard-response","223","1428084","0.0-222.0","A3RYL66CAGH5JU","<p style=""font-size: 48px;"">+</p>","","","","","null","allTrialResponses","1500","1","25","img_art/18.jpg","38","abstract but good, love the contrast between sharp and fuzzy.","Brandon,Seth,Cody,Michael,Edward,Dakota","Crusade-feel, but a little too abstract for my taste,23,320,20","This painting reminds me of the 4 horsemen of the apocalypse. It feels haunting.,31,60,20","Vaguely creepy ........,-20,180,20","Not my style but I can see some serious skill went int it.,21,140,20","Reminds me of the four horsemen of the apocalypse,29,60,20","afraid and anxious,21,280,20","Brandon","Crusade-feel, but a little too abstract for my taste,23,320,20","Michael","Not my style but I can see some serious skill went int it.,21,140,20","Seth","This painting reminds me of the 4 horsemen of the apocalypse. It feels haunting.,31,60,20","2"
"6016","","survey-text","224","1434106","0.0-223.0-0.0","A3RYL66CAGH5JU","","","","{""Q0"":""table""}","","","","","","","","","","","","","","","","","","","","","","",""
"40144","","survey-text","225","1474251","0.0-224.0-0.0","A3RYL66CAGH5JU","","","","{""Q0"":""looks like a soft pretzel became sentinent, it evoke rising, revolution in me""}","","","","","","","","","","","","","","","","","","","","","","",""
"2744.400000035763","","image-slider-response","226","1476997","0.0-225.0","A3RYL66CAGH5JU","","","","","19","","","","","","","","","","","","","","","","","","","","","",""
"null","","image-button-response","227","1481998","0.0-226.0","A3RYL66CAGH5JU","img_art/4.jpg","null","","","","","","","","","","","","","","","","","","","","","","","","",""
"1908","","image-button-response","228","1483907","0.0-227.0","A3RYL66CAGH5JU","img_art/4.jpg","4","","","","","","","","","","","","","","","","","","","","","","","","",""
"5345","","image-button-response","229","1489253","0.0-228.0-0.0","A3RYL66CAGH5JU","img_art/4.jpg","1","","","","","","","","","","","","","","","","","","","","","","","","",""
"4585","","image-button-response","230","1493839","0.0-229.0-0.0","A3RYL66CAGH5JU","img_art/4.jpg","0","","","","","","","","","","","","","","","","","","","","","","","","",""
"null","","html-keyboard-response","231","1494841","0.0-230.0","A3RYL66CAGH5JU","<p style=""font-size: 48px;"">+</p>","","","","","null","allTrialResponses","1000","1","26","img_art/4.jpg","19","looks like a soft pretzel became sentinent, it evoke rising, revolution in me","Brandon,Seth,Jeffrey,Michael,Brian,Malik","Really don't like this. Kindergarten art, sorry.,-50,320,20","Odd but intriguing. I feel emotion from this. Like a woman bent over carrying these emotions on her back.,33,60,20","Easy and relaxing,23,40,20","Looks like a child did it.,-42,140,20","it reminds me of McDonalds, and not in a good way.,-34,380,20","Reminds me of late night frustrated paintings of my own made of coffee,12,40,20","Brian","it reminds me of McDonalds, and not in a good way.,-34,380,20","Seth","Odd but intriguing. I feel emotion from this. Like a woman bent over carrying these emotions on her back.,33,60,20","Brandon","Really don't like this. Kindergarten art, sorry.,-50,320,20","2"
"33460","","survey-text","232","1528305","0.0-231.0-0.0","A3RYL66CAGH5JU","","","","{""Q0"":""nice, spare use of color but it pops where it is, reminds me of a city on the edge of diaster.""}","","","","","","","","","","","","","","","","","","","","","","",""
"2036.1000000238419","","image-slider-response","233","1530342","0.0-232.0","A3RYL66CAGH5JU","","","","","37","","","","","","","","","","","","","","","","","","","","","",""
"null","","image-button-response","234","1535345","0.0-233.0","A3RYL66CAGH5JU","img_art/11.jpg","null","","","","","","","","","","","","","","","","","","","","","","","","",""
"1682","","image-button-response","235","1537028","0.0-234.0","A3RYL66CAGH5JU","img_art/11.jpg","0","","","","","","","","","","","","","","","","","","","","","","","","",""
"2137","","image-button-response","236","1539166","0.0-235.0-0.0","A3RYL66CAGH5JU","img_art/11.jpg","2","","","","","","","","","","","","","","","","","","","","","","","","",""
"4876","","image-button-response","237","1544044","0.0-236.0-0.0","A3RYL66CAGH5JU","img_art/11.jpg","3","","","","","","","","","","","","","","","","","","","","","","","","",""
"null","","html-keyboard-response","238","1545047","0.0-237.0","A3RYL66CAGH5JU","<p style=""font-size: 48px;"">+</p>","","","","","null","allTrialResponses","1000","1","27","img_art/11.jpg","37","nice, spare use of color but it pops where it is, reminds me of a city on the edge of diaster.","Brandon,Seth,Steven,Tristan,Brian,Chase","Don't like cityscapes, which this picture reminds me of,-29,320,20","It makes my head feel dizzy. So I rated it lower.,-25,60,20","Oh, I love this one, it says to me that life is very busy,50,160,20","Simple and complex. Hopeful yet dark. I love this,35,300,20","this looks like a beautiful rainy day in a hellish urban mountain city,14,380,20","It's too dark and dingy.,-30,120,20","Brandon","Don't like cityscapes, which this picture reminds me of,-29,320,20","Steven","Oh, I love this one, it says to me that life is very busy,50,160,20","Tristan","Simple and complex. Hopeful yet dark. I love this,35,300,20","2"
"22572","","survey-text","239","1567623","0.0-238.0-0.0","A3RYL66CAGH5JU","","","","{""Q0"":""i like the blue, but a monkey can splatter paint on a canvas""}","","","","","","","","","","","","","","","","","","","","","","",""
"1597.8999999761581","","image-slider-response","240","1569222","0.0-239.0","A3RYL66CAGH5JU","","","","","6","","","","","","","","","","","","","","","","","","","","","",""
"null","","image-button-response","241","1574224","0.0-240.0","A3RYL66CAGH5JU","img_art/13.jpg","null","","","","","","","","","","","","","","","","","","","","","","","","",""
"1188","","image-button-response","242","1575414","0.0-241.0","A3RYL66CAGH5JU","img_art/13.jpg","2","","","","","","","","","","","","","","","","","","","","","","","","",""
"2261","","image-button-response","243","1577677","0.0-242.0-0.0","A3RYL66CAGH5JU","img_art/13.jpg","0","","","","","","","","","","","","","","","","","","","","","","","","",""
"7829","","image-button-response","244","1585508","0.0-243.0-0.0","A3RYL66CAGH5JU","img_art/13.jpg","3","","","","","","","","","","","","","","","","","","","","","","","","",""
"null","","html-keyboard-response","245","1586009","0.0-244.0","A3RYL66CAGH5JU","<p style=""font-size: 48px;"">+</p>","","","","","null","allTrialResponses","500","1","28","img_art/13.jpg","6","i like the blue, but a monkey can splatter paint on a canvas","Brandon,Tyler,Steven,Tristan,Dustin,Noah","Simple, but pleasing. The blue gradient is a favorite of mine,32,320,20","Pollock? Love the juxtaposition of colors. Soothing and stirring, a beautiful inexplicable paradox.,50,320,20","It's just paint splatter, no real meaning to me,-50,160,20","I recognize the beauty of this but FOR ME its large degree of abstraction diminishes my emotional interaction.,-10,300,20","Cool and calming colors. I like splatter art.,10,20,20","evokes a dampening feeling,-9,260,20","Steven","It's just paint splatter, no real meaning to me,-50,160,20","Brandon","Simple, but pleasing. The blue gradient is a favorite of mine,32,320,20","Tristan","I recognize the beauty of this but FOR ME its large degree of abstraction diminishes my emotional interaction.,-10,300,20","2"
"24852","","survey-text","246","1610866","0.0-245.0-0.0","A3RYL66CAGH5JU","","","","{""Q0"":""The day after Armageddongood painting""}","","","","","","","","","","","","","","","","","","","","","","",""
"4328.799999952316","","image-slider-response","247","1615196","0.0-246.0","A3RYL66CAGH5JU","","","","","30","","","","","","","","","","","","","","","","","","","","","",""
"2484","","image-button-response","248","1620197","0.0-247.0","A3RYL66CAGH5JU","img_art/21.jpg","0","","","","","","","","","","","","","","","","","","","","","","","","",""
"883","","image-button-response","249","1621082","0.0-248.0","A3RYL66CAGH5JU","img_art/21.jpg","0","","","","","","","","","","","","","","","","","","","","","","","","",""
"6606","","image-button-response","250","1627690","0.0-249.0-0.0","A3RYL66CAGH5JU","img_art/21.jpg","2","","","","","","","","","","","","","","","","","","","","","","","","",""
"2360","","image-button-response","251","1630052","0.0-250.0-0.0","A3RYL66CAGH5JU","img_art/21.jpg","1","","","","","","","","","","","","","","","","","","","","","","","","",""
"null","","html-keyboard-response","252","1631567","0.0-251.0","A3RYL66CAGH5JU","<p style=""font-size: 48px;"">+</p>","","","","","null","allTrialResponses","1500","1","29","img_art/21.jpg","30","The day after Armageddongood painting","Brandon,David,Steven,Tristan,Nicholas,Marcus","I love this. Reminds me of a coast. The colors flow beautifully,40,320,20","I like how the piece has the possibility of depicting some type of story.,30,340,20","Okay, I love the color schemes, I can't quite figure it out though,14,160,20","A landscape that leaves me inspired and hopeful.,20,300,20","Love the colors and the relationship between the light and storm,50,240,20","I feel like I'm looking at two different paintings mashed together in the middle.,20,60,20","Brandon","I love this. Reminds me of a coast. The colors flow beautifully,40,320,20","Steven","Okay, I love the color schemes, I can't quite figure it out though,14,160,20","David","I like how the piece has the possibility of depicting some type of story.,30,340,20","2"
"35944","","survey-text","253","1667515","0.0-252.0-0.0","A3RYL66CAGH5JU","","","","{""Q0"":""feels like a office poster for a jazz festival circa 1987..not great""}","","","","","","","","","","","","","","","","","","","","","","",""
"2512.800000011921","","image-slider-response","254","1670029","0.0-253.0","A3RYL66CAGH5JU","","","","","-17","","","","","","","","","","","","","","","","","","","","","",""
"null","","image-button-response","255","1675032","0.0-254.0","A3RYL66CAGH5JU","img_art/17.jpg","null","","","","","","","","","","","","","","","","","","","","","","","","",""
"2545","","image-button-response","256","1677579","0.0-255.0","A3RYL66CAGH5JU","img_art/17.jpg","5","","","","","","","","","","","","","","","","","","","","","","","","",""
"4891","","image-button-response","257","1682472","0.0-256.0-0.0","A3RYL66CAGH5JU","img_art/17.jpg","0","","","","","","","","","","","","","","","","","","","","","","","","",""
"2676","","image-button-response","258","1685149","0.0-257.0-0.0","A3RYL66CAGH5JU","img_art/17.jpg","1","","","","","","","","","","","","","","","","","","","","","","","","",""
"null","","html-keyboard-response","259","1686151","0.0-258.0","A3RYL66CAGH5JU","<p style=""font-size: 48px;"">+</p>","","","","","null","allTrialResponses","1000","1","30","img_art/17.jpg","-17","feels like a office poster for a jazz festival circa 1987..not great","Brandon,David,Steven,Alexis,Kenneth,Charles","Love the color and nature motif,36,320,20","I like how the image gives an impression of gaseous tree.,15,340,20","absolutely gorgeous, I feel solitude again, but the beauty is there also,50,160,20","This makes me feel inspired and happy. I love everything about this portrait,45,140,20","I really like this, especially the tree.,23,300,20","I like the trees, but the doors less so,19,100,20","Charles","I like the trees, but the doors less so,19,100,20","Brandon","Love the color and nature motif,36,320,20","David","I like how the image gives an impression of gaseous tree.,15,340,20","2"
"2071","","image-button-response_instructions","260","1688228","0.0-259.0","A3RYL66CAGH5JU","","0","instructions","","","","","","","","","","","","","","","","","","","","","","","",""
"1049","","image-button-response","261","1689282","0.0-260.0","A3RYL66CAGH5JU","","0","","","","","","","","","","","","","","","","","","","","","","","","",""
