"rt","url","trial_type","trial_index","time_elapsed","internal_node_id","participant_id","stimulus","button_pressed","Name","responses","response","key_press","variableName","fixationTime","condition","trial","photo","subjectRating","subjectResponse","agentsNames","agent_1_Response","agent_2_Response","agent_3_Response","agent_4_Response","agent_5_Response","agent_6_Response","kept_1_name","kept_1_response","kept_2_name","kept_2_response","kept_3_name","kept_3_response","errorCounter"
"5062","external_page_harvard.html","external-html","0","5255","0.0-0.0","A3UDUHUVFKD833","","","","","","","","","","","","","","","","","","","","","","","","","","",""
"1390","","image-button-response","1","6649","0.0-1.0","A3UDUHUVFKD833","","1","","","","","","","","","","","","","","","","","","","","","","","","",""
"1446","","image-button-response","2","8106","0.0-2.0-0.0","A3UDUHUVFKD833","","1","phone","","","","","","","","","","","","","","","","","","","","","","","",""
"3883","","survey-text","3","11993","0.0-3.0-0.0","A3UDUHUVFKD833","","","","{""Q0"":""A3UDUHUVFKD833""}","","","","","","","","","","","","","","","","","","","","","","",""
"2482","","image-button-response_instructions","4","14482","0.0-4.0","A3UDUHUVFKD833","","0","instructions","","","","","","","","","","","","","","","","","","","","","","","",""
"7588","","image-button-response_instructions","5","22080","0.0-5.0","A3UDUHUVFKD833","img_art/ins/popularity/ins1.png","0","instructions","","","","","","","","","","","","","","","","","","","","","","","",""
"3171","","image-button-response_instructions","6","25255","0.0-6.0","A3UDUHUVFKD833","img_art/ins/popularity/ins2.png","0","instructions","","","","","","","","","","","","","","","","","","","","","","","",""
"1936","","image-button-response_instructions","7","27196","0.0-7.0","A3UDUHUVFKD833","img_art/ins/popularity/ins2Extreme.png","0","instructions","","","","","","","","","","","","","","","","","","","","","","","",""
"5416","","image-button-response_instructions","8","32618","0.0-8.0","A3UDUHUVFKD833","img_art/ins/popularity/ins3KEEPpop.PNG","0","instructions","","","","","","","","","","","","","","","","","","","","","","","",""
"3105","","image-button-response_instructions","9","35727","0.0-9.0","A3UDUHUVFKD833","img_art/ins/popularity/ins3ANamepop.PNG","0","instructions","","","","","","","","","","","","","","","","","","","","","","","",""
"1556","","image-button-response_instructions","10","37285","0.0-10.0","A3UDUHUVFKD833","img_art/ins/popularity/ins3ARatingpop.png","0","instructions","","","","","","","","","","","","","","","","","","","","","","","",""
"1039","","image-button-response_instructions","11","38327","0.0-11.0","A3UDUHUVFKD833","img_art/ins/popularity/ins3ATextpop.png","0","instructions","","","","","","","","","","","","","","","","","","","","","","","",""
"2811","","image-button-response_instructions","12","41141","0.0-12.0","A3UDUHUVFKD833","img_art/ins/popularity/ins3ALikespop.png","0","instructions","","","","","","","","","","","","","","","","","","","","","","","",""
"8704","","image-button-response_instructions","13","49847","0.0-13.0","A3UDUHUVFKD833","img_art/ins/popularity/ins3KEEPpop.PNG","0","instructions","","","","","","","","","","","","","","","","","","","","","","","",""
"5809","","image-button-response_instructions","14","55661","0.0-14.0","A3UDUHUVFKD833","img_art/ins/popularity/ins3_5RED.png","0","instructions","","","","","","","","","","","","","","","","","","","","","","","",""
"2030","","image-button-response_instructions","15","57694","0.0-15.0","A3UDUHUVFKD833","img_art/ins/popularity/ins3KEEPpop.PNG","0","instructions","","","","","","","","","","","","","","","","","","","","","","","",""
"2041","","image-button-response_instructions","16","59738","0.0-16.0","A3UDUHUVFKD833","img_art/ins/popularity/ins4KEEPpop.PNG","0","instructions","","","","","","","","","","","","","","","","","","","","","","","",""
"1859","","image-button-response_instructions","17","61602","0.0-17.0","A3UDUHUVFKD833","img_art/ins/popularity/ins5KEEPpop.PNG","0","instructions","","","","","","","","","","","","","","","","","","","","","","","",""
"902","","image-button-response_instructions","18","62507","0.0-18.0","A3UDUHUVFKD833","","0","instructions","","","","","","","","","","","","","","","","","","","","","","","",""
"4331","","survey-text","19","66890","0.0-19.0-0.0","A3UDUHUVFKD833","","","","{""Q0"":""but""}","","","","","","","","","","","","","","","","","","","","","","",""
"15785","","survey-text","20","82680","0.0-20.0-0.0","A3UDUHUVFKD833","","","","{""Q0"":""sadness""}","","","","","","","","","","","","","","","","","","","","","","",""
"3192.600000023842","","image-slider-response","21","85881","0.0-21.0","A3UDUHUVFKD833","","","","","-12","","","","","","","","","","","","","","","","","","","","","",""
"null","","image-button-response","22","90905","0.0-22.0","A3UDUHUVFKD833","img_art/ins/1.jpg","null","","","","","","","","","","","","","","","","","","","","","","","","",""
"2247","","image-button-response","23","93162","0.0-23.0","A3UDUHUVFKD833","img_art/ins/1.jpg","0","","","","","","","","","","","","","","","","","","","","","","","","",""
"4888","","image-button-response","24","98057","0.0-24.0-0.0","A3UDUHUVFKD833","img_art/ins/1.jpg","2","","","","","","","","","","","","","","","","","","","","","","","","",""
"1169","","image-button-response","25","99240","0.0-25.0-0.0","A3UDUHUVFKD833","img_art/ins/1.jpg","2","","","","","","","","","","","","","","","","","","","","","","","","",""
"906","","image-button-response","26","103184","0.0-25.1-0.1","A3UDUHUVFKD833","img_art/ins/1.jpg","2","","","","","","","","","","","","","","","","","","","","","","","","",""
"1428","","image-button-response","27","108601","0.0-25.2-0.2","A3UDUHUVFKD833","img_art/ins/1.jpg","3","","","","","","","","","","","","","","","","","","","","","","","","",""
"null","","html-keyboard-response","28","110121","0.0-26.0","A3UDUHUVFKD833","<p style=""font-size: 48px;"">+</p>","","","","","null","allTrialResponses","1500","1","-2","img_art/ins/1.jpg","-12","sadness","Allison,Ashley,Beth,Dora,Erika,Jen","looks like a lot of things going on in the mist,20,20,20","I just don't get why these type of art would be popular,-32,40,20","This color reminds me of poo,-46,60,20","looks like what my niece in 3rd grade did this afternoon,-50,80,20","I like the sophisticated brushwork,40,100,20","It reminds me of a candy land dream I had,36,120,20","Allison","looks like a lot of things going on in the mist,20,20,20","Beth","This color reminds me of poo,-46,60,20","Dora","looks like what my niece in 3rd grade did this afternoon,-50,80,20","4"
"6532","","survey-text","29","116673","0.0-27.0-0.0","A3UDUHUVFKD833","","","","{""Q0"":""i love the colors""}","","","","","","","","","","","","","","","","","","","","","","",""
"3619.600000023842","","image-slider-response","30","120295","0.0-28.0","A3UDUHUVFKD833","","","","","28","","","","","","","","","","","","","","","","","","","","","",""
"null","","image-button-response","31","125306","0.0-29.0","A3UDUHUVFKD833","img_art/ins/2.jpg","null","","","","","","","","","","","","","","","","","","","","","","","","",""
"588","","image-button-response","32","125900","0.0-30.0","A3UDUHUVFKD833","img_art/ins/2.jpg","4","","","","","","","","","","","","","","","","","","","","","","","","",""
"3984","","image-button-response","33","129888","0.0-31.0-0.0","A3UDUHUVFKD833","img_art/ins/2.jpg","0","","","","","","","","","","","","","","","","","","","","","","","","",""
"1191","","image-button-response","34","131084","0.0-32.0-0.0","A3UDUHUVFKD833","img_art/ins/2.jpg","3","","","","","","","","","","","","","","","","","","","","","","","","",""
"null","","html-keyboard-response","35","131592","0.0-33.0","A3UDUHUVFKD833","<p style=""font-size: 48px;"">+</p>","","","","","null","allTrialResponses","500","1","-1","img_art/ins/2.jpg","28","i love the colors","Allison,Jenna,Beth,Dora,Kara,Katie","I don't have strong feelings about this,10,20,20","One of my pet peevs,-48,140,20","meaningless painting,-45,60,20","looks too angry,-50,80,20","I like the blocks of color arrangements,30,160,20","too much color!,-28,180,20","Kara","I like the blocks of color arrangements,30,160,20","Allison","I don't have strong feelings about this,10,20,20","Dora","looks too angry,-50,80,20","4"
"6383","","survey-text","36","137989","0.0-34.0-0.0","A3UDUHUVFKD833","","","","{""Q0"":""cool winter""}","","","","","","","","","","","","","","","","","","","","","","",""
"5078","","image-slider-response","37","143078","0.0-35.0","A3UDUHUVFKD833","","","","","42","","","","","","","","","","","","","","","","","","","","","",""
"1601","","image-button-response","38","148087","0.0-36.0","A3UDUHUVFKD833","img_art/ins/3.jpg","0","","","","","","","","","","","","","","","","","","","","","","","","",""
"1606","","image-button-response","39","149701","0.0-37.0","A3UDUHUVFKD833","img_art/ins/3.jpg","0","","","","","","","","","","","","","","","","","","","","","","","","",""
"617","","image-button-response","40","150322","0.0-38.0-0.0","A3UDUHUVFKD833","img_art/ins/3.jpg","2","","","","","","","","","","","","","","","","","","","","","","","","",""
"1281","","image-button-response","41","151606","0.0-39.0-0.0","A3UDUHUVFKD833","img_art/ins/3.jpg","4","","","","","","","","","","","","","","","","","","","","","","","","",""
"null","","html-keyboard-response","42","152617","0.0-40.0","A3UDUHUVFKD833","<p style=""font-size: 48px;"">+</p>","","","","","null","allTrialResponses","1000","1","0","img_art/ins/3.jpg","42","cool winter","Allison,Leslie,Mary,Dora,Kara,Rose","enjoy the different shades of blue,22,20,20","It's an alright work,15,200,20","I like the overlapping of brushes,41,220,20","My worst nightmare,-42,80,20","calming blue is very nice,36,160,20","My daily routine, it's depressing,-20,240,20","Allison","enjoy the different shades of blue,22,20,20","Mary","I like the overlapping of brushes,41,220,20","Kara","calming blue is very nice,36,160,20","4"
"2366","","image-button-response_instructions","43","155000","0.0-41.0","A3UDUHUVFKD833","","0","instructions","","","","","","","","","","","","","","","","","","","","","","","",""
"9466","","survey-likert","44","164470","0.0-42.0-0.0","A3UDUHUVFKD833","","","","{""Q0"":"""",""Q1"":0,""Q2"":1}","","","","","","","","","","","","","","","","","","","","","","",""
"3715","","survey-text","45","168202","0.0-43.0-0.0","A3UDUHUVFKD833","","","","{""Q0"":""rock""}","","","","","","","","","","","","","","","","","","","","","","",""
"10284","","survey-text","46","178489","0.0-44.0-0.0","A3UDUHUVFKD833","","","","{""Q0"":""love the nature scene""}","","","","","","","","","","","","","","","","","","","","","","",""
"3746","","image-slider-response","47","182238","0.0-45.0","A3UDUHUVFKD833","","","","","48","","","","","","","","","","","","","","","","","","","","","",""
"1324","","image-button-response","48","187282","0.0-46.0","A3UDUHUVFKD833","img_art/24.jpg","0","","","","","","","","","","","","","","","","","","","","","","","","",""
"1265","","image-button-response","49","188553","0.0-47.0","A3UDUHUVFKD833","img_art/24.jpg","0","","","","","","","","","","","","","","","","","","","","","","","","",""
"864","","image-button-response","50","189421","0.0-48.0-0.0","A3UDUHUVFKD833","img_art/24.jpg","1","","","","","","","","","","","","","","","","","","","","","","","","",""
"834","","image-button-response","51","190262","0.0-49.0-0.0","A3UDUHUVFKD833","img_art/24.jpg","4","","","","","","","","","","","","","","","","","","","","","","","","",""
"null","","html-keyboard-response","52","191773","0.0-50.0","A3UDUHUVFKD833","<p style=""font-size: 48px;"">+</p>","","","","","null","allTrialResponses","1500","1","1","img_art/24.jpg","48","love the nature scene","Natalie,Kristen,Elizabeth,Rebecca,Sabrina,Amy","I like the waterfall,22,400,20","calm, nature, safe, happy place,,50,280,20","Evokes pleasant feelings,50,20,20","organized mess at first glance, would love to inspect this in closer proximity,39,100,20","Love the natural vibe,50,120,20","The contorted angles of the flowing water upset the harmony,-20,220,20","Natalie","I like the waterfall,22,400,20","Kristen","calm, nature, safe, happy place,,50,280,20","Sabrina","Love the natural vibe,50,120,20","4"
"8470","","survey-text","53","200259","0.0-51.0-0.0","A3UDUHUVFKD833","","","","{""Q0"":""makes me feel afraid""}","","","","","","","","","","","","","","","","","","","","","","",""
"3280.699999988079","","image-slider-response","54","203640","0.0-52.0","A3UDUHUVFKD833","","","","","-37","","","","","","","","","","","","","","","","","","","","","",""
"4618","","image-button-response","55","208648","0.0-53.0","A3UDUHUVFKD833","img_art/3.jpg","0","","","","","","","","","","","","","","","","","","","","","","","","",""
"421","","image-button-response","56","209073","0.0-54.0","A3UDUHUVFKD833","img_art/3.jpg","1","","","","","","","","","","","","","","","","","","","","","","","","",""
"1840","","image-button-response","57","210918","0.0-55.0-0.0","A3UDUHUVFKD833","img_art/3.jpg","5","","","","","","","","","","","","","","","","","","","","","","","","",""
"1680","","image-button-response","58","212605","0.0-56.0-0.0","A3UDUHUVFKD833","img_art/3.jpg","0","","","","","","","","","","","","","","","","","","","","","","","","",""
"null","","html-keyboard-response","59","213617","0.0-57.0","A3UDUHUVFKD833","<p style=""font-size: 48px;"">+</p>","","","","","null","allTrialResponses","1000","1","2","img_art/3.jpg","-37","makes me feel afraid","Natalie,Kristen,Jessica,Melissa,Sabrina,Emma","my response to the picture is a lot of red, danger,,-21,400,20","anger, blood, death,-24,280,20","Don't get the scribbles.,-13,400,20","strong color, interesting negative shapes,21,240,20","I dont really feel anything from this, i cant see or understand any of it,-20,120,20","Feels upset .......,-10,60,20","Kristen","anger, blood, death,-24,280,20","Emma","Feels upset .......,-10,60,20","Natalie","my response to the picture is a lot of red, danger,,-21,400,20","4"
"8197","","survey-text","60","221820","0.0-58.0-0.0","A3UDUHUVFKD833","","","","{""Q0"":""refreshing calming""}","","","","","","","","","","","","","","","","","","","","","","",""
"2797.900000035763","","image-slider-response","61","224625","0.0-59.0","A3UDUHUVFKD833","","","","","44","","","","","","","","","","","","","","","","","","","","","",""
"2691","","image-button-response","62","229632","0.0-60.0","A3UDUHUVFKD833","img_art/21.jpg","1","","","","","","","","","","","","","","","","","","","","","","","","",""
"493","","image-button-response","63","230131","0.0-61.0","A3UDUHUVFKD833","img_art/21.jpg","1","","","","","","","","","","","","","","","","","","","","","","","","",""
"622","","image-button-response","64","230757","0.0-62.0-0.0","A3UDUHUVFKD833","img_art/21.jpg","3","","","","","","","","","","","","","","","","","","","","","","","","",""
"482","","image-button-response","65","231247","0.0-63.0-0.0","A3UDUHUVFKD833","img_art/21.jpg","5","","","","","","","","","","","","","","","","","","","","","","","","",""
"null","","html-keyboard-response","66","231754","0.0-64.0","A3UDUHUVFKD833","<p style=""font-size: 48px;"">+</p>","","","","","null","allTrialResponses","500","1","3","img_art/21.jpg","44","refreshing calming","Natalie,Kristen,Jacqueline,Margaret,Julia,Emma","my response to the picture is what is going on?,-13,400,20","calm, ship at sea, sunset,16,280,20","Kind of looks like a sky with a storm or tornado.,10,300,20","i like the colors and the blending,17,100,20","there's not enough fine detail in this one,-27,40,20","Pretty, good colors,30,60,20","Kristen","calm, ship at sea, sunset,16,280,20","Margaret","i like the colors and the blending,17,100,20","Emma","Pretty, good colors,30,60,20","4"
"14830","","survey-text","67","246599","0.0-65.0-0.0","A3UDUHUVFKD833","","","","{""Q0"":""messy, teenager room""}","","","","","","","","","","","","","","","","","","","","","","",""
"2476.300000011921","","image-slider-response","68","249083","0.0-66.0","A3UDUHUVFKD833","","","","","-22","","","","","","","","","","","","","","","","","","","","","",""
"null","","image-button-response","69","254106","0.0-67.0","A3UDUHUVFKD833","img_art/29.jpg","null","","","","","","","","","","","","","","","","","","","","","","","","",""
"799","","image-button-response","70","254909","0.0-68.0","A3UDUHUVFKD833","img_art/29.jpg","2","","","","","","","","","","","","","","","","","","","","","","","","",""
"2816","","image-button-response","71","257737","0.0-69.0-0.0","A3UDUHUVFKD833","img_art/29.jpg","5","","","","","","","","","","","","","","","","","","","","","","","","",""
"1044","","image-button-response","72","258787","0.0-70.0-0.0","A3UDUHUVFKD833","img_art/29.jpg","0","","","","","","","","","","","","","","","","","","","","","","","","",""
"null","","html-keyboard-response","73","259796","0.0-71.0","A3UDUHUVFKD833","<p style=""font-size: 48px;"">+</p>","","","","","null","allTrialResponses","1000","1","4","img_art/29.jpg","-22","messy, teenager room","Chloe,Kristen,Mariah,Margaret,Jasmine,Emma","Looks muddy and sticky,-31,220,20","danger, crime scene,,10,280,20","It feels like looking through layers of frustration.,19,140,20","this does nothing for me. hate the colors. hate the design,-50,100,20","I like the usage of blacks and greys in this,8,340,20","Feels messy, stressful,-22,60,20","Mariah","It feels like looking through layers of frustration.,19,140,20","Emma","Feels messy, stressful,-22,60,20","Chloe","Looks muddy and sticky,-31,220,20","4"
"15057","","survey-text","74","274878","0.0-72.0-0.0","A3UDUHUVFKD833","","","","{""Q0"":""mystical, nervous""}","","","","","","","","","","","","","","","","","","","","","","",""
"2295.100000023842","","image-slider-response","75","277179","0.0-73.0","A3UDUHUVFKD833","","","","","11","","","","","","","","","","","","","","","","","","","","","",""
"3780","","image-button-response","76","282187","0.0-74.0","A3UDUHUVFKD833","img_art/18.jpg","3","","","","","","","","","","","","","","","","","","","","","","","","",""
"1346","","image-button-response","77","283540","0.0-75.0","A3UDUHUVFKD833","img_art/18.jpg","4","","","","","","","","","","","","","","","","","","","","","","","","",""
"1167","","image-button-response","78","284714","0.0-76.0-0.0","A3UDUHUVFKD833","img_art/18.jpg","5","","","","","","","","","","","","","","","","","","","","","","","","",""
"1387","","image-button-response","79","286111","0.0-77.0-0.0","A3UDUHUVFKD833","img_art/18.jpg","2","","","","","","","","","","","","","","","","","","","","","","","","",""
"null","","html-keyboard-response","80","286742","0.0-78.0","A3UDUHUVFKD833","<p style=""font-size: 48px;"">+</p>","","","","","null","allTrialResponses","500","1","5","img_art/18.jpg","11","mystical, nervous","Chloe,Kelsey,Mariah,Lindsey,Lauren,Emma","Evocative but cheesy.,-20,220,20","its messy, it seems angry,-21,240,20","It is too busy, but the colors are pleasant.,15,140,20","Interesting piece - gives you more the more you look at it. I like it but wouldn't buy it.,11,400,20","I like how the image gives off an impression of bravery.,25,340,20","Vaguely creepy ........,-20,60,20","Lauren","I like how the image gives off an impression of bravery.,25,340,20","Emma","Vaguely creepy ........,-20,60,20","Mariah","It is too busy, but the colors are pleasant.,15,140,20","4"
"3218","","survey-text","81","289973","0.0-79.0-0.0","A3UDUHUVFKD833","","","","{""Q0"":""sky""}","","","","","","","","","","","","","","","","","","","","","","",""
"10097","","survey-text","82","300075","0.0-80.0-0.0","A3UDUHUVFKD833","","","","{""Q0"":""wandering, kid like""}","","","","","","","","","","","","","","","","","","","","","","",""
"2366.399999976158","","image-slider-response","83","302445","0.0-81.0","A3UDUHUVFKD833","","","","","-10","","","","","","","","","","","","","","","","","","","","","",""
"2899","","image-button-response","84","307485","0.0-82.0","A3UDUHUVFKD833","img_art/27.jpg","1","","","","","","","","","","","","","","","","","","","","","","","","",""
"551","","image-button-response","85","308041","0.0-83.0","A3UDUHUVFKD833","img_art/27.jpg","1","","","","","","","","","","","","","","","","","","","","","","","","",""
"825","","image-button-response","86","308873","0.0-84.0-0.0","A3UDUHUVFKD833","img_art/27.jpg","3","","","","","","","","","","","","","","","","","","","","","","","","",""
"2055","","image-button-response","87","310935","0.0-85.0-0.0","A3UDUHUVFKD833","img_art/27.jpg","5","","","","","","","","","","","","","","","","","","","","","","","","",""
"null","","html-keyboard-response","88","312446","0.0-86.0","A3UDUHUVFKD833","<p style=""font-size: 48px;"">+</p>","","","","","null","allTrialResponses","1500","1","6","img_art/27.jpg","-10","wandering, kid like","Gabriela,Breanna,Mariah,Kathryn,Lauren,Emma","I like hoe it looks like a fall day in a city,45,140,20","Not too impressed with the work,6,380,20","The green lines disrupt the image in an unpleasant and hurried way.,-30,140,20","Makes me think of Japanese food. I perceive it as comfortable and healthy.,20,140,20","Not a fan of the green; gives off the impression that someone else drew on it.,-20,340,20","Not sure how I feel about this. Messy, even for art. But good colors.,0,60,20","Breanna","Not too impressed with the work,6,380,20","Kathryn","Makes me think of Japanese food. I perceive it as comfortable and healthy.,20,140,20","Emma","Not sure how I feel about this. Messy, even for art. But good colors.,0,60,20","4"
"14109","","survey-text","89","326573","0.0-87.0-0.0","A3UDUHUVFKD833","","","","{""Q0"":""calming, carefree""}","","","","","","","","","","","","","","","","","","","","","","",""
"2198.400000035763","","image-slider-response","90","328777","0.0-88.0","A3UDUHUVFKD833","","","","","16","","","","","","","","","","","","","","","","","","","","","",""
"4392","","image-button-response","91","333792","0.0-89.0","A3UDUHUVFKD833","img_art/9.jpg","4","","","","","","","","","","","","","","","","","","","","","","","","",""
"624","","image-button-response","92","334426","0.0-90.0","A3UDUHUVFKD833","img_art/9.jpg","4","","","","","","","","","","","","","","","","","","","","","","","","",""
"470","","image-button-response","93","334902","0.0-91.0-0.0","A3UDUHUVFKD833","img_art/9.jpg","3","","","","","","","","","","","","","","","","","","","","","","","","",""
"2641","","image-button-response","94","337550","0.0-92.0-0.0","A3UDUHUVFKD833","img_art/9.jpg","2","","","","","","","","","","","","","","","","","","","","","","","","",""
"null","","html-keyboard-response","95","339054","0.0-93.0","A3UDUHUVFKD833","<p style=""font-size: 48px;"">+</p>","","","","","null","allTrialResponses","1500","1","7","img_art/9.jpg","16","calming, carefree","Erin,Breanna,Autumn,Kathryn,Caroline,Emma","Framing is overwhelming,-35,120,20","It's a mix of paint splash and scribbling,-33,380,20","Abstract but not well made,-26,340,20","This feels dreamy. Like I'm seeing inside someone's head while they're sleeping.,20,140,20","Stirs up emotions of watching someone sleep which is relaxing,11,100,20","Feels angry .....,-40,60,20","Caroline","Stirs up emotions of watching someone sleep which is relaxing,11,100,20","Kathryn","This feels dreamy. Like I'm seeing inside someone's head while they're sleeping.,20,140,20","Autumn","Abstract but not well made,-26,340,20","4"
"15636","","survey-text","96","354695","0.0-94.0-0.0","A3UDUHUVFKD833","","","","{""Q0"":""feels like nature, but in darkness""}","","","","","","","","","","","","","","","","","","","","","","",""
"5048.600000023842","","image-slider-response","97","359745","0.0-95.0","A3UDUHUVFKD833","","","","","-3","","","","","","","","","","","","","","","","","","","","","",""
"4922","","image-button-response","98","364763","0.0-96.0","A3UDUHUVFKD833","img_art/15.jpg","3","","","","","","","","","","","","","","","","","","","","","","","","",""
"1844","","image-button-response","99","366613","0.0-97.0","A3UDUHUVFKD833","img_art/15.jpg","3","","","","","","","","","","","","","","","","","","","","","","","","",""
"521","","image-button-response","100","367136","0.0-98.0-0.0","A3UDUHUVFKD833","img_art/15.jpg","4","","","","","","","","","","","","","","","","","","","","","","","","",""
"1140","","image-button-response","101","368282","0.0-99.0-0.0","A3UDUHUVFKD833","img_art/15.jpg","5","","","","","","","","","","","","","","","","","","","","","","","","",""
"null","","html-keyboard-response","102","369288","0.0-100.0","A3UDUHUVFKD833","<p style=""font-size: 48px;"">+</p>","","","","","null","allTrialResponses","1000","1","8","img_art/15.jpg","-3","feels like nature, but in darkness","Kimberly,Hailey,Autumn,Kathryn,Caroline,Olivia","it looks like lavender,10,260,20","ugly picture and don't like it,-22,200,20","Simple but not good,-34,340,20","This is looking at a forest from above. I can see water and some pathways throughout. Nature.,20,140,20","Makes me think of a bush and flowers and spring and happy warm times,25,100,20","Black reminds me of darkness,-18,40,20","Kathryn","This is looking at a forest from above. I can see water and some pathways throughout. Nature.,20,140,20","Caroline","Makes me think of a bush and flowers and spring and happy warm times,25,100,20","Olivia","Black reminds me of darkness,-18,40,20","4"
"12744","","survey-text","103","382038","0.0-101.0-0.0","A3UDUHUVFKD833","","","","{""Q0"":""bird standing in the desert, nice""}","","","","","","","","","","","","","","","","","","","","","","",""
"3045.300000011921","","image-slider-response","104","385089","0.0-102.0","A3UDUHUVFKD833","","","","","13","","","","","","","","","","","","","","","","","","","","","",""
"3061","","image-button-response","105","390122","0.0-103.0","A3UDUHUVFKD833","img_art/6.jpg","0","","","","","","","","","","","","","","","","","","","","","","","","",""
"1863","","image-button-response","106","391991","0.0-104.0","A3UDUHUVFKD833","img_art/6.jpg","0","","","","","","","","","","","","","","","","","","","","","","","","",""
"545","","image-button-response","107","392541","0.0-105.0-0.0","A3UDUHUVFKD833","img_art/6.jpg","3","","","","","","","","","","","","","","","","","","","","","","","","",""
"578","","image-button-response","108","393125","0.0-106.0-0.0","A3UDUHUVFKD833","img_art/6.jpg","2","","","","","","","","","","","","","","","","","","","","","","","","",""
"null","","html-keyboard-response","109","394631","0.0-107.0","A3UDUHUVFKD833","<p style=""font-size: 48px;"">+</p>","","","","","null","allTrialResponses","1500","1","9","img_art/6.jpg","13","bird standing in the desert, nice","Erica,Mikayla,Diana,Kathryn,Caroline,Olivia","positive because of bright colours and a bird,20,80,20","Not very exciting.,-34,300,20","I love it. It reminds me of a bird sitting on a wall.,26,380,20","This piece feels hopeful, like an oasis in the desert.,20,140,20","Lonely and kinda sad,-25,100,20","surviving the dryness of life,30,40,20","Erica","positive because of bright colours and a bird,20,80,20","Kathryn","This piece feels hopeful, like an oasis in the desert.,20,140,20","Diana","I love it. It reminds me of a bird sitting on a wall.,26,380,20","4"
"11478","","survey-text","110","406126","0.0-108.0-0.0","A3UDUHUVFKD833","","","","{""Q0"":""feels like nature the sound of it""}","","","","","","","","","","","","","","","","","","","","","","",""
"2311.600000023842","","image-slider-response","111","408444","0.0-109.0","A3UDUHUVFKD833","","","","","40","","","","","","","","","","","","","","","","","","","","","",""
"null","","image-button-response","112","413452","0.0-110.0","A3UDUHUVFKD833","img_art/10.jpg","null","","","","","","","","","","","","","","","","","","","","","","","","",""
"426","","image-button-response","113","413880","0.0-111.0","A3UDUHUVFKD833","img_art/10.jpg","1","","","","","","","","","","","","","","","","","","","","","","","","",""
"924","","image-button-response","114","414816","0.0-112.0-0.0","A3UDUHUVFKD833","img_art/10.jpg","3","","","","","","","","","","","","","","","","","","","","","","","","",""
"1074","","image-button-response","115","415896","0.0-113.0-0.0","A3UDUHUVFKD833","img_art/10.jpg","5","","","","","","","","","","","","","","","","","","","","","","","","",""
"null","","html-keyboard-response","116","416402","0.0-114.0","A3UDUHUVFKD833","<p style=""font-size: 48px;"">+</p>","","","","","null","allTrialResponses","500","1","10","img_art/10.jpg","40","feels like nature the sound of it","Erica,Alexandra,Diana,Kathryn,Kaitlin,Alexandria","Relaxing; a lot of going on but colours make it easy to look at,20,80,20","The longer I looked at this, the more I liked it,33,60,20","It reminds me of the ocean. Almost like a battlefield, but on the water.,19,380,20","This piece makes me think of music. The music is dark; I like dark music so it edges toward good.,10,140,20","awww... this looks very nice,32,60,20","it reminds me of a musical instrument,19,80,20","Alexandra","The longer I looked at this, the more I liked it,33,60,20","Kathryn","This piece makes me think of music. The music is dark; I like dark music so it edges toward good.,10,140,20","Alexandria","it reminds me of a musical instrument,19,80,20","4"
"3356","","survey-text","117","419773","0.0-115.0-0.0","A3UDUHUVFKD833","","","","{""Q0"":""our""}","","","","","","","","","","","","","","","","","","","","","","",""
"8134","","survey-text","118","427910","0.0-116.0-0.0","A3UDUHUVFKD833","","","","{""Q0"":""messy, weird""}","","","","","","","","","","","","","","","","","","","","","","",""
"3291.099999964237","","image-slider-response","119","431206","0.0-117.0","A3UDUHUVFKD833","","","","","-28","","","","","","","","","","","","","","","","","","","","","",""
"4152","","image-button-response","120","436216","0.0-118.0","A3UDUHUVFKD833","img_art/4.jpg","1","","","","","","","","","","","","","","","","","","","","","","","","",""
"453","","image-button-response","121","436673","0.0-119.0","A3UDUHUVFKD833","img_art/4.jpg","1","","","","","","","","","","","","","","","","","","","","","","","","",""
"833","","image-button-response","122","437513","0.0-120.0-0.0","A3UDUHUVFKD833","img_art/4.jpg","5","","","","","","","","","","","","","","","","","","","","","","","","",""
"1924","","image-button-response","123","439448","0.0-121.0-0.0","A3UDUHUVFKD833","img_art/4.jpg","0","","","","","","","","","","","","","","","","","","","","","","","","",""
"null","","html-keyboard-response","124","439961","0.0-122.0","A3UDUHUVFKD833","<p style=""font-size: 48px;"">+</p>","","","","","null","allTrialResponses","500","1","11","img_art/4.jpg","-28","messy, weird","Angela,Alexandra,Molly,Kathryn,Katherine,Alexandria","Really like the colors, but don't like the object/squiggle in darker gold and black,4,260,20","This artwork looks like a child did it,-41,60,20","Not bad at all.,20,340,20","I feel kind of guilty looking at this, like I'm receiving a reward I don't I deserve.,-10,140,20","I like how many different ways there are to interpret this.,27,120,20","it looks like a simple finger painting, yet i liked the color choices,-12,80,20","Alexandra","This artwork looks like a child did it,-41,60,20","Alexandria","it looks like a simple finger painting, yet i liked the color choices,-12,80,20","Angela","Really like the colors, but don't like the object/squiggle in darker gold and black,4,260,20","4"
"13428","","survey-text","125","453407","0.0-123.0-0.0","A3UDUHUVFKD833","","","","{""Q0"":""fun, abstract, graffiti""}","","","","","","","","","","","","","","","","","","","","","","",""
"2483.899999976158","","image-slider-response","126","455895","0.0-124.0","A3UDUHUVFKD833","","","","","13","","","","","","","","","","","","","","","","","","","","","",""
"null","","image-button-response","127","460910","0.0-125.0","A3UDUHUVFKD833","img_art/22.jpg","null","","","","","","","","","","","","","","","","","","","","","","","","",""
"515","","image-button-response","128","461431","0.0-126.0","A3UDUHUVFKD833","img_art/22.jpg","1","","","","","","","","","","","","","","","","","","","","","","","","",""
"472","","image-button-response","129","461909","0.0-127.0-0.0","A3UDUHUVFKD833","img_art/22.jpg","2","","","","","","","","","","","","","","","","","","","","","","","","",""
"678","","image-button-response","130","462593","0.0-128.0-0.0","A3UDUHUVFKD833","img_art/22.jpg","3","","","","","","","","","","","","","","","","","","","","","","","","",""
"null","","html-keyboard-response","131","464100","0.0-129.0","A3UDUHUVFKD833","<p style=""font-size: 48px;"">+</p>","","","","","null","allTrialResponses","1500","1","12","img_art/22.jpg","13","fun, abstract, graffiti","Angela,Alexandra,Victoria,Kelly,Alyssa,Alexandria","Like the colors. I enjoy looking at this one.,15,260,20","The colors in this picture are nice.,32,60,20","love how the colors blend,42,400,20","I really enjoy the blended colors.,20,220,20","Its okay,it doesnt make me feel any sort of strong emotion,1,160,20","the colors and shapes makes me want to keep looking at it,22,80,20","Alexandra","The colors in this picture are nice.,32,60,20","Victoria","love how the colors blend,42,400,20","Kelly","I really enjoy the blended colors.,20,220,20","4"
"8357","","survey-text","132","472465","0.0-130.0-0.0","A3UDUHUVFKD833","","","","{""Q0"":""calming, relaxing, nature""}","","","","","","","","","","","","","","","","","","","","","","",""
"2504.099999964237","","image-slider-response","133","474977","0.0-131.0","A3UDUHUVFKD833","","","","","42","","","","","","","","","","","","","","","","","","","","","",""
"null","","image-button-response","134","479991","0.0-132.0","A3UDUHUVFKD833","img_art/26.jpg","null","","","","","","","","","","","","","","","","","","","","","","","","",""
"548","","image-button-response","135","480545","0.0-133.0","A3UDUHUVFKD833","img_art/26.jpg","0","","","","","","","","","","","","","","","","","","","","","","","","",""
"1399","","image-button-response","136","481953","0.0-134.0-0.0","A3UDUHUVFKD833","img_art/26.jpg","5","","","","","","","","","","","","","","","","","","","","","","","","",""
"597","","image-button-response","137","482557","0.0-135.0-0.0","A3UDUHUVFKD833","img_art/26.jpg","3","","","","","","","","","","","","","","","","","","","","","","","","",""
"null","","html-keyboard-response","138","483570","0.0-136.0","A3UDUHUVFKD833","<p style=""font-size: 48px;"">+</p>","","","","","null","allTrialResponses","1000","1","13","img_art/26.jpg","42","calming, relaxing, nature","Michaela,Alexandra,Victoria,Kelly,Katelyn,Andrea","Elevator art but the watercolors are good,29,260,20","I like the colors but it is still a little boring,22,60,20","feels a tad old,30,400,20","Very subdued, but wouldn't give it a 2nd notice.,4,220,20","Looks bland and boring,-5,100,20","I get the feeling of a small old world street.,24,240,20","Michaela","Elevator art but the watercolors are good,29,260,20","Andrea","I get the feeling of a small old world street.,24,240,20","Kelly","Very subdued, but wouldn't give it a 2nd notice.,4,220,20","4"
"6525","","survey-text","139","490116","0.0-137.0-0.0","A3UDUHUVFKD833","","","","{""Q0"":""love the colors""}","","","","","","","","","","","","","","","","","","","","","","",""
"2771.399999976158","","image-slider-response","140","492890","0.0-138.0","A3UDUHUVFKD833","","","","","43","","","","","","","","","","","","","","","","","","","","","",""
"4722","","image-button-response","141","497900","0.0-139.0","A3UDUHUVFKD833","img_art/13.jpg","0","","","","","","","","","","","","","","","","","","","","","","","","",""
"602","","image-button-response","142","498506","0.0-140.0","A3UDUHUVFKD833","img_art/13.jpg","0","","","","","","","","","","","","","","","","","","","","","","","","",""
"764","","image-button-response","143","499272","0.0-141.0-0.0","A3UDUHUVFKD833","img_art/13.jpg","2","","","","","","","","","","","","","","","","","","","","","","","","",""
"2477","","image-button-response","144","501756","0.0-142.0-0.0","A3UDUHUVFKD833","img_art/13.jpg","5","","","","","","","","","","","","","","","","","","","","","","","","",""
"null","","html-keyboard-response","145","502763","0.0-143.0","A3UDUHUVFKD833","<p style=""font-size: 48px;"">+</p>","","","","","null","allTrialResponses","1000","1","14","img_art/13.jpg","43","love the colors","Michaela,Destiny,Anna,Kelly,Emily,Andrea","The colors are really pretty together,39,260,20","so simple and stupid this looks like what I did to my cousins wall when we repainted it for her 13th bday,0,360,20","It reminds me of a window on a rainy day.,40,300,20","I would hang this photo in my room.,21,220,20","I don't car for it but it does seem organized and like it took considereably more skill that others.,9,40,20","Raindrops on a window. Makes me feel like traveling.,31,240,20","Michaela","The colors are really pretty together,39,260,20","Anna","It reminds me of a window on a rainy day.,40,300,20","Andrea","Raindrops on a window. Makes me feel like traveling.,31,240,20","4"
"13789","","survey-text","146","516572","0.0-144.0-0.0","A3UDUHUVFKD833","","","","{""Q0"":""beautiful, whimsical""}","","","","","","","","","","","","","","","","","","","","","","",""
"3393.599999964237","","image-slider-response","147","519974","0.0-145.0","A3UDUHUVFKD833","","","","","38","","","","","","","","","","","","","","","","","","","","","",""
"null","","image-button-response","148","524982","0.0-146.0","A3UDUHUVFKD833","img_art/17.jpg","null","","","","","","","","","","","","","","","","","","","","","","","","",""
"317","","image-button-response","149","525305","0.0-147.0","A3UDUHUVFKD833","img_art/17.jpg","0","","","","","","","","","","","","","","","","","","","","","","","","",""
"1372","","image-button-response","150","526684","0.0-148.0-0.0","A3UDUHUVFKD833","img_art/17.jpg","4","","","","","","","","","","","","","","","","","","","","","","","","",""
"515","","image-button-response","151","527206","0.0-149.0-0.0","A3UDUHUVFKD833","img_art/17.jpg","1","","","","","","","","","","","","","","","","","","","","","","","","",""
"null","","html-keyboard-response","152","528216","0.0-150.0","A3UDUHUVFKD833","<p style=""font-size: 48px;"">+</p>","","","","","null","allTrialResponses","1000","1","15","img_art/17.jpg","38","beautiful, whimsical","Michaela,Jamie,Anna,Kylie,Grace,Andrea","I love how soft it is,35,260,20","Looks like some fantasy tree. Nice,30,320,20","it brings a clear picture to my minds eye:,45,300,20","Looks like an explosion of pretty artwork,45,300,20","Reminds me of winters in Minnesota.,48,180,20","A coming storm but I think I would appreciate it more with more contrast.,-12,240,20","Michaela","I love how soft it is,35,260,20","Grace","Reminds me of winters in Minnesota.,48,180,20","Jamie","Looks like some fantasy tree. Nice,30,320,20","4"
"4179","","survey-text","153","532409","0.0-151.0-0.0","A3UDUHUVFKD833","","","","{""Q0"":""course""}","","","","","","","","","","","","","","","","","","","","","","",""
"46783","","survey-text","154","579195","0.0-152.0-0.0","A3UDUHUVFKD833","","","","{""Q0"":""creative, fun""}","","","","","","","","","","","","","","","","","","","","","","",""
"2874.7000000476837","","image-slider-response","155","582073","0.0-153.0","A3UDUHUVFKD833","","","","","15","","","","","","","","","","","","","","","","","","","","","",""
"null","","image-button-response","156","587088","0.0-154.0","A3UDUHUVFKD833","img_art/2.jpg","null","","","","","","","","","","","","","","","","","","","","","","","","",""
"912","","image-button-response","157","588003","0.0-155.0","A3UDUHUVFKD833","img_art/2.jpg","0","","","","","","","","","","","","","","","","","","","","","","","","",""
"1018","","image-button-response","158","589026","0.0-156.0-0.0","A3UDUHUVFKD833","img_art/2.jpg","3","","","","","","","","","","","","","","","","","","","","","","","","",""
"718","","image-button-response","159","589753","0.0-157.0-0.0","A3UDUHUVFKD833","img_art/2.jpg","5","","","","","","","","","","","","","","","","","","","","","","","","",""
"null","","html-keyboard-response","160","590761","0.0-158.0","A3UDUHUVFKD833","<p style=""font-size: 48px;"">+</p>","","","","","null","allTrialResponses","1000","1","16","img_art/2.jpg","15","creative, fun","Michaela,Jamie,Sydney,Sierra,Grace,Ashley","My immediate reaction was it looked like a class but then I saw a smile in the middle,11,260,20","Awful color coordination and design,-35,320,20","I like the color, but I feel like I see a creepy face which I dislike.,-5,320,20","looks like a happy child,15,260,20","Like the colors but reminds me of a kids show done in cubism.,0,180,20","I think I can make out a face in there.,25,320,20","Michaela","My immediate reaction was it looked like a class but then I saw a smile in the middle,11,260,20","Sierra","looks like a happy child,15,260,20","Ashley","I think I can make out a face in there.,25,320,20","4"
"15365","","survey-text","161","606154","0.0-159.0-0.0","A3UDUHUVFKD833","","","","{""Q0"":""deserty, navajo, new mexico""}","","","","","","","","","","","","","","","","","","","","","","",""
"4553.5","","image-slider-response","162","610710","0.0-160.0","A3UDUHUVFKD833","","","","","8","","","","","","","","","","","","","","","","","","","","","",""
"null","","image-button-response","163","615729","0.0-161.0","A3UDUHUVFKD833","img_art/12.jpg","null","","","","","","","","","","","","","","","","","","","","","","","","",""
"995","","image-button-response","164","616730","0.0-162.0","A3UDUHUVFKD833","img_art/12.jpg","1","","","","","","","","","","","","","","","","","","","","","","","","",""
"2625","","image-button-response","165","619362","0.0-163.0-0.0","A3UDUHUVFKD833","img_art/12.jpg","5","","","","","","","","","","","","","","","","","","","","","","","","",""
"925","","image-button-response","166","620296","0.0-164.0-0.0","A3UDUHUVFKD833","img_art/12.jpg","4","","","","","","","","","","","","","","","","","","","","","","","","",""
"null","","html-keyboard-response","167","621802","0.0-165.0","A3UDUHUVFKD833","<p style=""font-size: 48px;"">+</p>","","","","","null","allTrialResponses","1500","1","17","img_art/12.jpg","8","deserty, navajo, new mexico","Michaela,Mackenzie,Abigail,Sierra,Isabella,Ashley","It looks like old lady upholstery,12,260,20","I like the color scheme.,10,20,20","Made me uncomfortable, reminded me of the 90s,-9,20,20","i dont see the point.,-19,260,20","Something you would see in a government building hallway,3,280,20","It's boxy, cubist immpressionism? Very ncie.,32,320,20","Mackenzie","I like the color scheme.,10,20,20","Ashley","It's boxy, cubist immpressionism? Very ncie.,32,320,20","Isabella","Something you would see in a government building hallway,3,280,20","4"
"8979","","survey-text","168","630801","0.0-166.0-0.0","A3UDUHUVFKD833","","","","{""Q0"":""love it, seems western vibes""}","","","","","","","","","","","","","","","","","","","","","","",""
"2749.099999964237","","image-slider-response","169","633553","0.0-167.0","A3UDUHUVFKD833","","","","","25","","","","","","","","","","","","","","","","","","","","","",""
"4980","","image-button-response","170","638560","0.0-168.0","A3UDUHUVFKD833","img_art/20.jpg","0","","","","","","","","","","","","","","","","","","","","","","","","",""
"806","","image-button-response","171","639372","0.0-169.0","A3UDUHUVFKD833","img_art/20.jpg","0","","","","","","","","","","","","","","","","","","","","","","","","",""
"1619","","image-button-response","172","640997","0.0-170.0-0.0","A3UDUHUVFKD833","img_art/20.jpg","5","","","","","","","","","","","","","","","","","","","","","","","","",""
"894","","image-button-response","173","641900","0.0-171.0-0.0","A3UDUHUVFKD833","img_art/20.jpg","1","","","","","","","","","","","","","","","","","","","","","","","","",""
"null","","html-keyboard-response","174","642910","0.0-172.0","A3UDUHUVFKD833","<p style=""font-size: 48px;"">+</p>","","","","","null","allTrialResponses","1000","1","18","img_art/20.jpg","25","love it, seems western vibes","Alicia,Mackenzie,Jordan,Cynthia,Isabella,Ashley","Very cool, and calming (again) Love it.,47,120,20","Shapes are fun to interpret,21,20,20","It's okay, I see what looks like a truck laying on it's side. Meh,10,20,20","Curious about what lies here,10,320,20","Feels like a town destroyed,-19,280,20","Painting within a painting, abstract.,32,320,20","Alicia","Very cool, and calming (again) Love it.,47,120,20","Ashley","Painting within a painting, abstract.,32,320,20","Mackenzie","Shapes are fun to interpret,21,20,20","4"
"13815","","survey-text","175","656752","0.0-173.0-0.0","A3UDUHUVFKD833","","","","{""Q0"":""feels like a depressing place, sad""}","","","","","","","","","","","","","","","","","","","","","","",""
"2857","","image-slider-response","176","659613","0.0-174.0","A3UDUHUVFKD833","","","","","-21","","","","","","","","","","","","","","","","","","","","","",""
"4942","","image-button-response","177","664624","0.0-175.0","A3UDUHUVFKD833","img_art/28.jpg","1","","","","","","","","","","","","","","","","","","","","","","","","",""
"658","","image-button-response","178","665288","0.0-176.0","A3UDUHUVFKD833","img_art/28.jpg","3","","","","","","","","","","","","","","","","","","","","","","","","",""
"364","","image-button-response","179","665655","0.0-177.0-0.0","A3UDUHUVFKD833","img_art/28.jpg","4","","","","","","","","","","","","","","","","","","","","","","","","",""
"733","","image-button-response","180","666395","0.0-178.0-0.0","A3UDUHUVFKD833","img_art/28.jpg","1","","","","","","","","","","","","","","","","","","","","","","","","",""
"null","","html-keyboard-response","181","667905","0.0-179.0","A3UDUHUVFKD833","<p style=""font-size: 48px;"">+</p>","","","","","null","allTrialResponses","1500","1","19","img_art/28.jpg","-21","feels like a depressing place, sad","Alicia,Mackenzie,Briana,Madeline,Claire,Ashley","bland busy ugly,-31,120,20","The muted tones aren't my favorite.,-10,20,20","Is this anything?,-20,400,20","It is a bit drab,-10,40,20","not a fan of the colors or strokes used,-27,260,20","Normally don't react well to abstract art, but it looks almost like something's there.,28,320,20","Madeline","It is a bit drab,-10,40,20","Claire","not a fan of the colors or strokes used,-27,260,20","Mackenzie","The muted tones aren't my favorite.,-10,20,20","4"
"16141","","survey-text","182","684057","0.0-180.0-0.0","A3UDUHUVFKD833","","","","{""Q0"":""seems like a nightmare""}","","","","","","","","","","","","","","","","","","","","","","",""
"2826.5","","image-slider-response","183","686891","0.0-181.0","A3UDUHUVFKD833","","","","","-49","","","","","","","","","","","","","","","","","","","","","",""
"4456","","image-button-response","184","691903","0.0-182.0","A3UDUHUVFKD833","img_art/16.jpg","0","","","","","","","","","","","","","","","","","","","","","","","","",""
"1118","","image-button-response","185","693029","0.0-183.0","A3UDUHUVFKD833","img_art/16.jpg","3","","","","","","","","","","","","","","","","","","","","","","","","",""
"933","","image-button-response","186","693970","0.0-184.0-0.0","A3UDUHUVFKD833","img_art/16.jpg","0","","","","","","","","","","","","","","","","","","","","","","","","",""
"1547","","image-button-response","187","695522","0.0-185.0-0.0","A3UDUHUVFKD833","img_art/16.jpg","2","","","","","","","","","","","","","","","","","","","","","","","","",""
"null","","html-keyboard-response","188","696532","0.0-186.0","A3UDUHUVFKD833","<p style=""font-size: 48px;"">+</p>","","","","","null","allTrialResponses","1000","1","20","img_art/16.jpg","-49","seems like a nightmare","Shannon,Mackenzie,Nicole,Madeline,Claire,Cassandra","I think this picture is weird and the colors are very boring.,-50,220,20","I like the mixture of images,23,20,20","It's a little anxiety inducing in a good way,16,20,20","That bear looks unfitting!,-8,40,20","the materials used are interesting,30,260,20","I like the teddy bear,but a neutral feeling,5,120,20","Madeline","That bear looks unfitting!,-8,40,20","Shannon","I think this picture is weird and the colors are very boring.,-50,220,20","Nicole","It's a little anxiety inducing in a good way,16,20,20","4"
"2610","","survey-text","189","699184","0.0-187.0-0.0","A3UDUHUVFKD833","","","","{""Q0"":""we""}","","","","","","","","","","","","","","","","","","","","","","",""
"13308","","survey-text","190","712495","0.0-188.0-0.0","A3UDUHUVFKD833","","","","{""Q0"":""godlike, looking down on earth""}","","","","","","","","","","","","","","","","","","","","","","",""
"2859.800000011921","","image-slider-response","191","715359","0.0-189.0","A3UDUHUVFKD833","","","","","10","","","","","","","","","","","","","","","","","","","","","",""
"null","","image-button-response","192","720370","0.0-190.0","A3UDUHUVFKD833","img_art/8.jpg","null","","","","","","","","","","","","","","","","","","","","","","","","",""
"628","","image-button-response","193","721005","0.0-191.0","A3UDUHUVFKD833","img_art/8.jpg","0","","","","","","","","","","","","","","","","","","","","","","","","",""
"683","","image-button-response","194","721695","0.0-192.0-0.0","A3UDUHUVFKD833","img_art/8.jpg","2","","","","","","","","","","","","","","","","","","","","","","","","",""
"580","","image-button-response","195","722283","0.0-193.0-0.0","A3UDUHUVFKD833","img_art/8.jpg","5","","","","","","","","","","","","","","","","","","","","","","","","",""
"null","","html-keyboard-response","196","723295","0.0-194.0","A3UDUHUVFKD833","<p style=""font-size: 48px;"">+</p>","","","","","null","allTrialResponses","1000","1","21","img_art/8.jpg","10","godlike, looking down on earth","Shannon,Samantha,Nicole,Madeline,Brooke,Brittany","I like that it looks like a city and the way the shapes and colors are put together,40,220,20","The face bothers me,-25,140,20","It's very grand and ominous but I like it,25,20,20","Very nice detail and colors!,10,40,20","what's going on here. looks like scary town.,-25,60,20","Interesting to look at, there are many things happening in the painting.,32,40,20","Shannon","I like that it looks like a city and the way the shapes and colors are put together,40,220,20","Nicole","It's very grand and ominous but I like it,25,20,20","Brittany","Interesting to look at, there are many things happening in the painting.,32,40,20","4"
"13424","","survey-text","197","736743","0.0-195.0-0.0","A3UDUHUVFKD833","","","","{""Q0"":""otherwordly, nice colors""}","","","","","","","","","","","","","","","","","","","","","","",""
"2520.5","","image-slider-response","198","739271","0.0-196.0","A3UDUHUVFKD833","","","","","16","","","","","","","","","","","","","","","","","","","","","",""
"null","","image-button-response","199","744287","0.0-197.0","A3UDUHUVFKD833","img_art/25.jpg","null","","","","","","","","","","","","","","","","","","","","","","","","",""
"411","","image-button-response","200","744704","0.0-198.0","A3UDUHUVFKD833","img_art/25.jpg","3","","","","","","","","","","","","","","","","","","","","","","","","",""
"713","","image-button-response","201","745424","0.0-199.0-0.0","A3UDUHUVFKD833","img_art/25.jpg","1","","","","","","","","","","","","","","","","","","","","","","","","",""
"374","","image-button-response","202","745805","0.0-200.0-0.0","A3UDUHUVFKD833","img_art/25.jpg","0","","","","","","","","","","","","","","","","","","","","","","","","",""
"null","","html-keyboard-response","203","746331","0.0-201.0","A3UDUHUVFKD833","<p style=""font-size: 48px;"">+</p>","","","","","null","allTrialResponses","500","1","22","img_art/25.jpg","16","otherwordly, nice colors","Shannon,Marissa,Nicole,Maria,Angelica,Brittany","I like the way the persons clothes look, there could be more color though.,10,220,20","I really like the green and the fact that it is tattered on the edges,23,160,20","This painting is cool but it gives off an evil vibe,-10,20,20","I find it enjoyable - mainly because it is not art I ever expected to see,16,120,20","This is strange and poorly done.,-2,280,20","It's a rather intriguing design,12,40,20","Maria","I find it enjoyable - mainly because it is not art I ever expected to see,16,120,20","Marissa","I really like the green and the fact that it is tattered on the edges,23,160,20","Shannon","I like the way the persons clothes look, there could be more color though.,10,220,20","4"
"12640","","survey-text","204","758989","0.0-202.0-0.0","A3UDUHUVFKD833","","","","{""Q0"":""this looks fun, people dancing""}","","","","","","","","","","","","","","","","","","","","","","",""
"2289.2999999523163","","image-slider-response","205","761281","0.0-203.0","A3UDUHUVFKD833","","","","","10","","","","","","","","","","","","","","","","","","","","","",""
"4887","","image-button-response","206","766293","0.0-204.0","A3UDUHUVFKD833","img_art/23.jpg","0","","","","","","","","","","","","","","","","","","","","","","","","",""
"964","","image-button-response","207","767261","0.0-205.0","A3UDUHUVFKD833","img_art/23.jpg","0","","","","","","","","","","","","","","","","","","","","","","","","",""
"1045","","image-button-response","208","768311","0.0-206.0-0.0","A3UDUHUVFKD833","img_art/23.jpg","5","","","","","","","","","","","","","","","","","","","","","","","","",""
"1535","","image-button-response","209","769853","0.0-207.0-0.0","A3UDUHUVFKD833","img_art/23.jpg","3","","","","","","","","","","","","","","","","","","","","","","","","",""
"null","","html-keyboard-response","210","771366","0.0-208.0","A3UDUHUVFKD833","<p style=""font-size: 48px;"">+</p>","","","","","null","allTrialResponses","1500","1","23","img_art/23.jpg","10","this looks fun, people dancing","Shannon,Marissa,Allison,Maria,Michelle,Crystal","I really like the way all the colors look, I think this is a pretty picture.,40,220,20","It feels exciting,23,160,20","I like the color contrast, though I'm unable to tell what the white shapes are.,25,140,20","the pattern of colours imbues in me a sense of infinity, which I find soothing,10,120,20","This is nice, the colorful background is fun and the white looks like dancing figures,5,280,20","I love the funky colors accompanied by perhaps dancing silhouettes. I love the white against the chaotic surroundings.,50,300,20","Shannon","I really like the way all the colors look, I think this is a pretty picture.,40,220,20","Crystal","I love the funky colors accompanied by perhaps dancing silhouettes. I love the white against the chaotic surroundings.,50,300,20","Maria","the pattern of colours imbues in me a sense of infinity, which I find soothing,10,120,20","4"
"7365","","survey-text","211","778740","0.0-209.0-0.0","A3UDUHUVFKD833","","","","{""Q0"":""boring, drab""}","","","","","","","","","","","","","","","","","","","","","","",""
"2318.600000023842","","image-slider-response","212","781062","0.0-210.0","A3UDUHUVFKD833","","","","","-15","","","","","","","","","","","","","","","","","","","","","",""
"null","","image-button-response","213","786073","0.0-211.0","A3UDUHUVFKD833","img_art/7.jpg","null","","","","","","","","","","","","","","","","","","","","","","","","",""
"96","","image-button-response","214","786173","0.0-212.0","A3UDUHUVFKD833","img_art/7.jpg","0","","","","","","","","","","","","","","","","","","","","","","","","",""
"859","","image-button-response","215","787035","0.0-213.0-0.0","A3UDUHUVFKD833","img_art/7.jpg","0","","","","","","","","","","","","","","","","","","","","","","","","",""
"529","","image-button-response","216","790241","0.0-213.1-0.1","A3UDUHUVFKD833","img_art/7.jpg","4","","","","","","","","","","","","","","","","","","","","","","","","",""
"680","","image-button-response","217","790927","0.0-214.0-0.0","A3UDUHUVFKD833","img_art/7.jpg","1","","","","","","","","","","","","","","","","","","","","","","","","",""
"null","","html-keyboard-response","218","792434","0.0-215.0","A3UDUHUVFKD833","<p style=""font-size: 48px;"">+</p>","","","","","null","allTrialResponses","1500","1","24","img_art/7.jpg","-15","boring, drab","Shannon,Alexa,Hannah,Maria,Meghan,Crystal","I don't like the repetitiveness of the colors, and I think there should be more colors.,-50,220,20","Not a fan of the pattern or colors,-40,40,20","Looks almost like a photograph of nature.,11,240,20","elicits no real response,0,120,20","I don't like the texture,-49,220,20","I thought I was looking at a satellite image of mars.,21,300,20","Shannon","I don't like the repetitiveness of the colors, and I think there should be more colors.,-50,220,20","Meghan","I don't like the texture,-49,220,20","Alexa","Not a fan of the pattern or colors,-40,40,20","6"
"17840","","survey-text","219","810298","0.0-216.0-0.0","A3UDUHUVFKD833","","","","{""Q0"":""fingerpainting, indian, more you look at it the more you see""}","","","","","","","","","","","","","","","","","","","","","","",""
"2650.899999976158","","image-slider-response","220","812953","0.0-217.0","A3UDUHUVFKD833","","","","","10","","","","","","","","","","","","","","","","","","","","","",""
"null","","image-button-response","221","817961","0.0-218.0","A3UDUHUVFKD833","img_art/30.jpg","null","","","","","","","","","","","","","","","","","","","","","","","","",""
"563","","image-button-response","222","818529","0.0-219.0","A3UDUHUVFKD833","img_art/30.jpg","2","","","","","","","","","","","","","","","","","","","","","","","","",""
"508","","image-button-response","223","819041","0.0-220.0-0.0","A3UDUHUVFKD833","img_art/30.jpg","1","","","","","","","","","","","","","","","","","","","","","","","","",""
"793","","image-button-response","224","819993","0.0-221.0-0.0","A3UDUHUVFKD833","img_art/30.jpg","4","","","","","","","","","","","","","","","","","","","","","","","","",""
"null","","html-keyboard-response","225","821009","0.0-222.0","A3UDUHUVFKD833","<p style=""font-size: 48px;"">+</p>","","","","","null","allTrialResponses","1000","1","25","img_art/30.jpg","10","fingerpainting, indian, more you look at it the more you see","Shannon,Alexa,Madison,Jennifer,Meghan,Laura","I feel like the colors are too repetitive and not very eyecatching.,-20,220,20","Looks quite basic but the colors are nice and there is a wildness about it that I love,0,40,20","Interesting brushstroke work, but not particularly memorable.,21,60,20","The color scheme used in this piece is very ugly.,-50,380,20","nothing special about it,1,220,20","sloppy, unintentional,-20,320,20","Madison","Interesting brushstroke work, but not particularly memorable.,21,60,20","Alexa","Looks quite basic but the colors are nice and there is a wildness about it that I love,0,40,20","Meghan","nothing special about it,1,220,20","6"
"3353","","survey-text","226","824384","0.0-223.0-0.0","A3UDUHUVFKD833","","","","{""Q0"":""table""}","","","","","","","","","","","","","","","","","","","","","","",""
"11000","","survey-text","227","835387","0.0-224.0-0.0","A3UDUHUVFKD833","","","","{""Q0"":""marina, ships, love the colors""}","","","","","","","","","","","","","","","","","","","","","","",""
"2442.100000023842","","image-slider-response","228","837834","0.0-225.0","A3UDUHUVFKD833","","","","","20","","","","","","","","","","","","","","","","","","","","","",""
"null","","image-button-response","229","842849","0.0-226.0","A3UDUHUVFKD833","img_art/11.jpg","null","","","","","","","","","","","","","","","","","","","","","","","","",""
"609","","image-button-response","230","843465","0.0-227.0","A3UDUHUVFKD833","img_art/11.jpg","2","","","","","","","","","","","","","","","","","","","","","","","","",""
"881","","image-button-response","231","844351","0.0-228.0-0.0","A3UDUHUVFKD833","img_art/11.jpg","1","","","","","","","","","","","","","","","","","","","","","","","","",""
"377","","image-button-response","232","844733","0.0-229.0-0.0","A3UDUHUVFKD833","img_art/11.jpg","0","","","","","","","","","","","","","","","","","","","","","","","","",""
"null","","html-keyboard-response","233","846238","0.0-230.0","A3UDUHUVFKD833","<p style=""font-size: 48px;"">+</p>","","","","","null","allTrialResponses","1500","1","26","img_art/11.jpg","20","marina, ships, love the colors","Brianna,Alexa,Madison,Heather,Meghan,Alexis","I like dark colors.,31,20,20","There's a lot going on in this painting but it is pleasing and neat looking,31,40,20","Rainy day at an urban sea port. Portugal?,30,60,20","looks like highways and homes and lives intertwining.,27,260,20","makes me feel dizzy,-37,220,20","Don't like cityscapes, which this picture reminds me of,-29,100,20","Madison","Rainy day at an urban sea port. Portugal?,30,60,20","Alexa","There's a lot going on in this painting but it is pleasing and neat looking,31,40,20","Brianna","I like dark colors.,31,20,20","6"
"11931","","survey-text","234","858197","0.0-231.0-0.0","A3UDUHUVFKD833","","","","{""Q0"":""looks like a kid painted it, boring""}","","","","","","","","","","","","","","","","","","","","","","",""
"2394.5","","image-slider-response","235","860601","0.0-232.0","A3UDUHUVFKD833","","","","","-27","","","","","","","","","","","","","","","","","","","","","",""
"null","","image-button-response","236","865611","0.0-233.0","A3UDUHUVFKD833","img_art/5.jpg","null","","","","","","","","","","","","","","","","","","","","","","","","",""
"587","","image-button-response","237","866202","0.0-234.0","A3UDUHUVFKD833","img_art/5.jpg","3","","","","","","","","","","","","","","","","","","","","","","","","",""
"576","","image-button-response","238","866784","0.0-235.0-0.0","A3UDUHUVFKD833","img_art/5.jpg","4","","","","","","","","","","","","","","","","","","","","","","","","",""
"689","","image-button-response","239","867480","0.0-236.0-0.0","A3UDUHUVFKD833","img_art/5.jpg","5","","","","","","","","","","","","","","","","","","","","","","","","",""
"null","","html-keyboard-response","240","868488","0.0-237.0","A3UDUHUVFKD833","<p style=""font-size: 48px;"">+</p>","","","","","null","allTrialResponses","1000","1","27","img_art/5.jpg","-27","looks like a kid painted it, boring","Brianna,Alexa,Madison,Leah,Miranda,Savannah","Very bright and has colors you wouldn't think would go together,11,20,20","It's okay. Don't hate it but don't love it either,0,40,20","Bright and luminous,31,60,20","Boring, no flow except the pink feathery band,-42,360,20","This either looks like a bell or aliens finishing the pyramids,-34,320,20","Boring and appears low effort,-41,200,20","Leah","Boring, no flow except the pink feathery band,-42,360,20","Miranda","This either looks like a bell or aliens finishing the pyramids,-34,320,20","Savannah","Boring and appears low effort,-41,200,20","6"
"14011","","survey-text","241","882527","0.0-238.0-0.0","A3UDUHUVFKD833","","","","{""Q0"":""city near the water, new orleans maybe""}","","","","","","","","","","","","","","","","","","","","","","",""
"2688.5","","image-slider-response","242","885220","0.0-239.0","A3UDUHUVFKD833","","","","","23","","","","","","","","","","","","","","","","","","","","","",""
"4495","","image-button-response","243","890225","0.0-240.0","A3UDUHUVFKD833","img_art/19.jpg","0","","","","","","","","","","","","","","","","","","","","","","","","",""
"327","","image-button-response","244","890559","0.0-241.0","A3UDUHUVFKD833","img_art/19.jpg","1","","","","","","","","","","","","","","","","","","","","","","","","",""
"2546","","image-button-response","245","893111","0.0-242.0-0.0","A3UDUHUVFKD833","img_art/19.jpg","0","","","","","","","","","","","","","","","","","","","","","","","","",""
"1981","","image-button-response","246","895101","0.0-243.0-0.0","A3UDUHUVFKD833","img_art/19.jpg","4","","","","","","","","","","","","","","","","","","","","","","","","",""
"null","","html-keyboard-response","247","896606","0.0-244.0","A3UDUHUVFKD833","<p style=""font-size: 48px;"">+</p>","","","","","null","allTrialResponses","1500","1","28","img_art/19.jpg","23","city near the water, new orleans maybe","Erika,Sara,Amanda,Leah,Miranda,Savannah","Very dreamlike,26,100,20","I like the vibrant color blocks,13,160,20","Its just a nice painting, nothing too special but nothing negative,25,180,20","Very abstract but I like it, it's busy, lots of colors,43,360,20","It looks cool but at the time looks like it was done by a talented 5 year old.,13,320,20","Watercolor abstract? Strange.,1,200,20","Sara","I like the vibrant color blocks,13,160,20","Erika","Very dreamlike,26,100,20","Miranda","It looks cool but at the time looks like it was done by a talented 5 year old.,13,320,20","6"
"15575","","survey-text","248","912191","0.0-245.0-0.0","A3UDUHUVFKD833","","","","{""Q0"":""flowers, watercolour, pretty""}","","","","","","","","","","","","","","","","","","","","","","",""
"2410.899999976158","","image-slider-response","249","914605","0.0-246.0","A3UDUHUVFKD833","","","","","6","","","","","","","","","","","","","","","","","","","","","",""
"4572","","image-button-response","250","919653","0.0-247.0","A3UDUHUVFKD833","img_art/14.jpg","1","","","","","","","","","","","","","","","","","","","","","","","","",""
"1968","","image-button-response","251","921624","0.0-248.0","A3UDUHUVFKD833","img_art/14.jpg","1","","","","","","","","","","","","","","","","","","","","","","","","",""
"602","","image-button-response","252","922230","0.0-249.0-0.0","A3UDUHUVFKD833","img_art/14.jpg","2","","","","","","","","","","","","","","","","","","","","","","","","",""
"1091","","image-button-response","253","923325","0.0-250.0-0.0","A3UDUHUVFKD833","img_art/14.jpg","0","","","","","","","","","","","","","","","","","","","","","","","","",""
"null","","html-keyboard-response","254","924841","0.0-251.0","A3UDUHUVFKD833","<p style=""font-size: 48px;"">+</p>","","","","","null","allTrialResponses","1500","1","29","img_art/14.jpg","6","flowers, watercolour, pretty","Erika,Sara,Jenna,Haley,Miranda,Kayla","It's alright, something I'd see in a guest bedroom,10,100,20","It uplifts my mood due to the color scheme,32,160,20","love the colors. despite their brightness it seems sad somehow.,41,360,20","I like the colors in the background, but not the bottom/center. It almost looks sloppy.,-20,220,20","This just looks like a kids watercolor painting.,-30,320,20","I like that it looks like plants on a table, which reminds me of life.,4,180,20","Sara","It uplifts my mood due to the color scheme,32,160,20","Jenna","love the colors. despite their brightness it seems sad somehow.,41,360,20","Erika","It's alright, something I'd see in a guest bedroom,10,100,20","6"
"13474","","survey-text","255","938351","0.0-252.0-0.0","A3UDUHUVFKD833","","","","{""Q0"":""messy, not really sure what it is""}","","","","","","","","","","","","","","","","","","","","","","",""
"2715.399999976158","","image-slider-response","256","941071","0.0-253.0","A3UDUHUVFKD833","","","","","-8","","","","","","","","","","","","","","","","","","","","","",""
"null","","image-button-response","257","946083","0.0-254.0","A3UDUHUVFKD833","img_art/1.jpg","null","","","","","","","","","","","","","","","","","","","","","","","","",""
"730","","image-button-response","258","946827","0.0-255.0","A3UDUHUVFKD833","img_art/1.jpg","0","","","","","","","","","","","","","","","","","","","","","","","","",""
"657","","image-button-response","259","947489","0.0-256.0-0.0","A3UDUHUVFKD833","img_art/1.jpg","1","","","","","","","","","","","","","","","","","","","","","","","","",""
"548","","image-button-response","260","948043","0.0-257.0-0.0","A3UDUHUVFKD833","img_art/1.jpg","4","","","","","","","","","","","","","","","","","","","","","","","","",""
"null","","html-keyboard-response","261","948551","0.0-258.0","A3UDUHUVFKD833","<p style=""font-size: 48px;"">+</p>","","","","","null","allTrialResponses","500","1","30","img_art/1.jpg","-8","messy, not really sure what it is","Erika,Sara,Jenna,Megan,Paige,Mary","Vague and directionless,-14,100,20","I feel uneasy looking at this,-41,160,20","beautiful colors and brush strokes,47,360,20","Nice colors with some 3D effects,15,200,20","fearful. Makes me think of fire,-10,60,20","This piece feels soft and romantic to me. I do not care for so much orange though.,3,180,20","Erika","Vague and directionless,-14,100,20","Sara","I feel uneasy looking at this,-41,160,20","Paige","fearful. Makes me think of fire,-10,60,20","6"
"2016","","image-button-response_instructions","262","950592","0.0-259.0","A3UDUHUVFKD833","","0","instructions","","","","","","","","","","","","","","","","","","","","","","","",""
"841","","image-button-response","263","951453","0.0-260.0","A3UDUHUVFKD833","","0","","","","","","","","","","","","","","","","","","","","","","","","",""
