"rt","url","trial_type","trial_index","time_elapsed","internal_node_id","participant_id","stimulus","button_pressed","Name","responses","response","key_press","variableName","fixationTime","condition","trial","photo","subjectRating","subjectResponse","agentsNames","agent_1_Response","agent_2_Response","agent_3_Response","agent_4_Response","agent_5_Response","agent_6_Response","kept_1_name","kept_1_response","kept_2_name","kept_2_response","kept_3_name","kept_3_response","errorCounter"
"9668","external_page_harvard.html","external-html","0","9725","0.0-0.0","A3VICGAIVOTX4U","","","","","","","","","","","","","","","","","","","","","","","","","","",""
"1173","","image-button-response","1","10899","0.0-1.0","A3VICGAIVOTX4U","","0","","","","","","","","","","","","","","","","","","","","","","","","",""
"1756","","image-button-response","2","12660","0.0-2.0-0.0","A3VICGAIVOTX4U","","1","phone","","","","","","","","","","","","","","","","","","","","","","","",""
"5350","","survey-text","3","18011","0.0-3.0-0.0","A3VICGAIVOTX4U","","","","{""Q0"":""A3VICGAIVOTX4U""}","","","","","","","","","","","","","","","","","","","","","","",""
"2039","","image-button-response_instructions","4","20052","0.0-4.0","A3VICGAIVOTX4U","","0","instructions","","","","","","","","","","","","","","","","","","","","","","","",""
"1424","","image-button-response_instructions","5","21476","0.0-5.0","A3VICGAIVOTX4U","img_art/ins/popularity/ins1.png","0","instructions","","","","","","","","","","","","","","","","","","","","","","","",""
"10894","","image-button-response_instructions","6","32371","0.0-6.0","A3VICGAIVOTX4U","img_art/ins/popularity/ins2.png","0","instructions","","","","","","","","","","","","","","","","","","","","","","","",""
"2014","","image-button-response_instructions","7","34387","0.0-7.0","A3VICGAIVOTX4U","img_art/ins/popularity/ins2Extreme.png","0","instructions","","","","","","","","","","","","","","","","","","","","","","","",""
"3472","","image-button-response_instructions","8","37859","0.0-8.0","A3VICGAIVOTX4U","img_art/ins/popularity/ins3KEEPpop.PNG","0","instructions","","","","","","","","","","","","","","","","","","","","","","","",""
"1943","","image-button-response_instructions","9","39803","0.0-9.0","A3VICGAIVOTX4U","img_art/ins/popularity/ins3ANamepop.PNG","0","instructions","","","","","","","","","","","","","","","","","","","","","","","",""
"783","","image-button-response_instructions","10","40588","0.0-10.0","A3VICGAIVOTX4U","img_art/ins/popularity/ins3ARatingpop.png","0","instructions","","","","","","","","","","","","","","","","","","","","","","","",""
"590","","image-button-response_instructions","11","41179","0.0-11.0","A3VICGAIVOTX4U","img_art/ins/popularity/ins3ATextpop.png","0","instructions","","","","","","","","","","","","","","","","","","","","","","","",""
"583","","image-button-response_instructions","12","41763","0.0-12.0","A3VICGAIVOTX4U","img_art/ins/popularity/ins3ALikespop.png","0","instructions","","","","","","","","","","","","","","","","","","","","","","","",""
"4919","","image-button-response_instructions","13","46683","0.0-13.0","A3VICGAIVOTX4U","img_art/ins/popularity/ins3KEEPpop.PNG","0","instructions","","","","","","","","","","","","","","","","","","","","","","","",""
"5519","","image-button-response_instructions","14","52203","0.0-14.0","A3VICGAIVOTX4U","img_art/ins/popularity/ins3_5RED.png","0","instructions","","","","","","","","","","","","","","","","","","","","","","","",""
"2679","","image-button-response_instructions","15","54883","0.0-15.0","A3VICGAIVOTX4U","img_art/ins/popularity/ins3KEEPpop.PNG","0","instructions","","","","","","","","","","","","","","","","","","","","","","","",""
"5271","","image-button-response_instructions","16","60155","0.0-16.0","A3VICGAIVOTX4U","img_art/ins/popularity/ins4KEEPpop.PNG","0","instructions","","","","","","","","","","","","","","","","","","","","","","","",""
"3015","","image-button-response_instructions","17","63172","0.0-17.0","A3VICGAIVOTX4U","img_art/ins/popularity/ins5KEEPpop.PNG","0","instructions","","","","","","","","","","","","","","","","","","","","","","","",""
"767","","image-button-response_instructions","18","63939","0.0-18.0","A3VICGAIVOTX4U","","0","instructions","","","","","","","","","","","","","","","","","","","","","","","",""
"6340","","survey-text","19","70307","0.0-19.0-0.0","A3VICGAIVOTX4U","","","","{""Q0"":""but""}","","","","","","","","","","","","","","","","","","","","","","",""
"22494","","survey-text","20","92803","0.0-20.0-0.0","A3VICGAIVOTX4U","","","","{""Q0"":""looks like a 1st grader's creation""}","","","","","","","","","","","","","","","","","","","","","","",""
"3653.7000000029802","","image-slider-response","21","96459","0.0-21.0","A3VICGAIVOTX4U","","","","","-36","","","","","","","","","","","","","","","","","","","","","",""
"null","","image-button-response","22","101469","0.0-22.0","A3VICGAIVOTX4U","img_art/ins/1.jpg","null","","","","","","","","","","","","","","","","","","","","","","","","",""
"5693","","image-button-response","23","107164","0.0-23.0","A3VICGAIVOTX4U","img_art/ins/1.jpg","4","","","","","","","","","","","","","","","","","","","","","","","","",""
"2790","","image-button-response","24","109955","0.0-24.0-0.0","A3VICGAIVOTX4U","img_art/ins/1.jpg","0","","","","","","","","","","","","","","","","","","","","","","","","",""
"1070","","image-button-response","25","111027","0.0-25.0-0.0","A3VICGAIVOTX4U","img_art/ins/1.jpg","2","","","","","","","","","","","","","","","","","","","","","","","","",""
"null","","html-keyboard-response","26","111530","0.0-26.0","A3VICGAIVOTX4U","<p style=""font-size: 48px;"">+</p>","","","","","null","allTrialResponses","500","1","-2","img_art/ins/1.jpg","-36","looks like a 1st grader's creation","Adam,Alex,Ben,Carl,Daniel,Jack","Seems like doodles,-20,20,20","very creative work.,36,40,20","This color reminds me of poo,-46,60,20","very calming artwork,42,80,20","It looks like a murder scene.,-48,100,20","I like the sophisticated brushwork,40,120,20","Daniel","It looks like a murder scene.,-48,100,20","Adam","Seems like doodles,-20,20,20","Ben","This color reminds me of poo,-46,60,20","0"
"18829","","survey-text","27","130363","0.0-27.0-0.0","A3VICGAIVOTX4U","","","","{""Q0"":""was someone blindfolded while painting this?""}","","","","","","","","","","","","","","","","","","","","","","",""
"3118.900000002235","","image-slider-response","28","133483","0.0-28.0","A3VICGAIVOTX4U","","","","","-45","","","","","","","","","","","","","","","","","","","","","",""
"3175","","image-button-response","29","138496","0.0-29.0","A3VICGAIVOTX4U","img_art/ins/2.jpg","2","","","","","","","","","","","","","","","","","","","","","","","","",""
"409","","image-button-response","30","138907","0.0-30.0","A3VICGAIVOTX4U","img_art/ins/2.jpg","3","","","","","","","","","","","","","","","","","","","","","","","","",""
"1038","","image-button-response","31","139947","0.0-31.0-0.0","A3VICGAIVOTX4U","img_art/ins/2.jpg","5","","","","","","","","","","","","","","","","","","","","","","","","",""
"3798","","image-button-response","32","143747","0.0-32.0-0.0","A3VICGAIVOTX4U","img_art/ins/2.jpg","2","","","","","","","","","","","","","","","","","","","","","","","","",""
"null","","html-keyboard-response","33","144761","0.0-33.0","A3VICGAIVOTX4U","<p style=""font-size: 48px;"">+</p>","","","","","null","allTrialResponses","1000","1","-1","img_art/ins/2.jpg","-45","was someone blindfolded while painting this?","Adam,John,Ben,James,Daniel,Kyle","too much color,-18,20,20","love the texture of paint,48,160,20","meaningless painting,-45,60,20","looks too angry,-50,140,20","One of my pet peevs,-48,100,20","Idk, it is just annoying,-32,180,20","James","looks too angry,-50,140,20","Kyle","Idk, it is just annoying,-32,180,20","Ben","meaningless painting,-45,60,20","0"
"31429","","survey-text","34","176194","0.0-34.0-0.0","A3VICGAIVOTX4U","","","","{""Q0"":""actually kind of interesting""}","","","","","","","","","","","","","","","","","","","","","","",""
"3118.60000000149","","image-slider-response","35","179314","0.0-35.0","A3VICGAIVOTX4U","","","","","32","","","","","","","","","","","","","","","","","","","","","",""
"2423","","image-button-response","36","184319","0.0-36.0","A3VICGAIVOTX4U","img_art/ins/3.jpg","1","","","","","","","","","","","","","","","","","","","","","","","","",""
"1530","","image-button-response","37","185850","0.0-37.0","A3VICGAIVOTX4U","img_art/ins/3.jpg","1","","","","","","","","","","","","","","","","","","","","","","","","",""
"6023","","image-button-response","38","191874","0.0-38.0-0.0","A3VICGAIVOTX4U","img_art/ins/3.jpg","0","","","","","","","","","","","","","","","","","","","","","","","","",""
"1046","","image-button-response","39","192922","0.0-39.0-0.0","A3VICGAIVOTX4U","img_art/ins/3.jpg","0","","","","","","","","","","","","","","","","","","","","","","","","",""
"697","","image-button-response","40","197643","0.0-39.1-0.1","A3VICGAIVOTX4U","img_art/ins/3.jpg","4","","","","","","","","","","","","","","","","","","","","","","","","",""
"null","","html-keyboard-response","41","199145","0.0-40.0","A3VICGAIVOTX4U","<p style=""font-size: 48px;"">+</p>","","","","","null","allTrialResponses","1500","1","0","img_art/ins/3.jpg","32","actually kind of interesting","Sam,Mike,Ben,James,Ron,Kyle","I can feel a rainy day from this painting,18,240,20","enjoy the different shades of blue,22,200,20","This thing gives me anxiety,-41,60,20","My worst nightmare,-42,140,20","It looks depressing,-26,220,20","It looks like a playground for bats,-36,180,20","Mike","enjoy the different shades of blue,22,200,20","Sam","I can feel a rainy day from this painting,18,240,20","Ron","It looks depressing,-26,220,20","2"
"3142","","image-button-response_instructions","42","202290","0.0-41.0","A3VICGAIVOTX4U","","0","instructions","","","","","","","","","","","","","","","","","","","","","","","",""
"12727","","survey-likert","43","215019","0.0-42.0-0.0","A3VICGAIVOTX4U","","","","{""Q0"":"""",""Q1"":0,""Q2"":1}","","","","","","","","","","","","","","","","","","","","","","",""
"4315","","survey-text","44","219338","0.0-43.0-0.0","A3VICGAIVOTX4U","","","","{""Q0"":""rock""}","","","","","","","","","","","","","","","","","","","","","","",""
"52822","","survey-text","45","272162","0.0-44.0-0.0","A3VICGAIVOTX4U","","","","{""Q0"":""so realistic looking""}","","","","","","","","","","","","","","","","","","","","","","",""
"2830.300000000745","","image-slider-response","46","274993","0.0-45.0","A3VICGAIVOTX4U","","","","","42","","","","","","","","","","","","","","","","","","","","","",""
"4570","","image-button-response","47","280016","0.0-46.0","A3VICGAIVOTX4U","img_art/7.jpg","2","","","","","","","","","","","","","","","","","","","","","","","","",""
"1296","","image-button-response","48","281314","0.0-47.0","A3VICGAIVOTX4U","img_art/7.jpg","2","","","","","","","","","","","","","","","","","","","","","","","","",""
"2278","","image-button-response","49","283594","0.0-48.0-0.0","A3VICGAIVOTX4U","img_art/7.jpg","3","","","","","","","","","","","","","","","","","","","","","","","","",""
"2150","","image-button-response","50","285746","0.0-49.0-0.0","A3VICGAIVOTX4U","img_art/7.jpg","4","","","","","","","","","","","","","","","","","","","","","","","","",""
"null","","html-keyboard-response","51","286748","0.0-50.0","A3VICGAIVOTX4U","<p style=""font-size: 48px;"">+</p>","","","","","null","allTrialResponses","1000","1","1","img_art/7.jpg","42","so realistic looking","Jared,Juan,Taylor,Peter,Victor,Miguel","it looks like a dog ran through some wet cement,-22,400,20","This is borning and lifeless.,-50,260,20","Looks like a photo taken from the moon.,-6,200,20","It's just like sand from the beach,2,320,20","I like the texture,12,340,20","Well done minimalism.,35,160,20","Taylor","Looks like a photo taken from the moon.,-6,200,20","Peter","It's just like sand from the beach,2,320,20","Victor","I like the texture,12,340,20","2"
"8763","","survey-text","52","295514","0.0-51.0-0.0","A3VICGAIVOTX4U","","","","{""Q0"":""that is really cool""}","","","","","","","","","","","","","","","","","","","","","","",""
"3518.5","","image-slider-response","53","299034","0.0-52.0","A3VICGAIVOTX4U","","","","","46","","","","","","","","","","","","","","","","","","","","","",""
"3822","","image-button-response","54","304041","0.0-53.0","A3VICGAIVOTX4U","img_art/8.jpg","0","","","","","","","","","","","","","","","","","","","","","","","","",""
"1471","","image-button-response","55","305514","0.0-54.0","A3VICGAIVOTX4U","img_art/8.jpg","0","","","","","","","","","","","","","","","","","","","","","","","","",""
"1326","","image-button-response","56","306842","0.0-55.0-0.0","A3VICGAIVOTX4U","img_art/8.jpg","1","","","","","","","","","","","","","","","","","","","","","","","","",""
"3878","","image-button-response","57","310722","0.0-56.0-0.0","A3VICGAIVOTX4U","img_art/8.jpg","4","","","","","","","","","","","","","","","","","","","","","","","","",""
"null","","html-keyboard-response","58","311224","0.0-57.0","A3VICGAIVOTX4U","<p style=""font-size: 48px;"">+</p>","","","","","null","allTrialResponses","500","1","2","img_art/8.jpg","46","that is really cool","Ian,Alex,Taylor,Peter,Victor,Anthony","I like this, the longer I look at in the more details I see.,41,260,20","I appreciate the complexity of this piece but it's too cubist for me,3,100,20","And I'll huff and I'll puff and I'll blow your town down!!,20,200,20","I see water and structures that resemble Ancient Rome,15,320,20","I like the colors,10,340,20","Not my favorite but has an interesting concept,32,200,20","Ian","I like this, the longer I look at in the more details I see.,41,260,20","Alex","I appreciate the complexity of this piece but it's too cubist for me,3,100,20","Victor","I like the colors,10,340,20","2"
"7831","","survey-text","59","319057","0.0-58.0-0.0","A3VICGAIVOTX4U","","","","{""Q0"":""very pretty colors""}","","","","","","","","","","","","","","","","","","","","","","",""
"3134","","image-slider-response","60","322193","0.0-59.0","A3VICGAIVOTX4U","","","","","43","","","","","","","","","","","","","","","","","","","","","",""
"null","","image-button-response","61","327208","0.0-60.0","A3VICGAIVOTX4U","img_art/1.jpg","null","","","","","","","","","","","","","","","","","","","","","","","","",""
"1952","","image-button-response","62","329162","0.0-61.0","A3VICGAIVOTX4U","img_art/1.jpg","4","","","","","","","","","","","","","","","","","","","","","","","","",""
"2158","","image-button-response","63","331321","0.0-62.0-0.0","A3VICGAIVOTX4U","img_art/1.jpg","5","","","","","","","","","","","","","","","","","","","","","","","","",""
"1494","","image-button-response","64","332818","0.0-63.0-0.0","A3VICGAIVOTX4U","img_art/1.jpg","3","","","","","","","","","","","","","","","","","","","","","","","","",""
"null","","html-keyboard-response","65","334335","0.0-64.0","A3VICGAIVOTX4U","<p style=""font-size: 48px;"">+</p>","","","","","null","allTrialResponses","1500","1","3","img_art/1.jpg","43","very pretty colors","Ian,Alex,Jonathan,Jeremy,Victor,Connor","Someone painted a landscape and decided they didn't like it so they covered it up.,13,260,20","Random paint does not make art,-5,100,20","I love the colors but it's too intense sometimes,22,140,20","fearful. Makes me think of fire,-10,60,20","I like the colors and layers,25,340,20","Love the coloration and abstract figures,18,240,20","Victor","I like the colors and layers,25,340,20","Connor","Love the coloration and abstract figures,18,240,20","Jeremy","fearful. Makes me think of fire,-10,60,20","2"
"20248","","survey-text","66","354585","0.0-65.0-0.0","A3VICGAIVOTX4U","","","","{""Q0"":""not my cup of tea""}","","","","","","","","","","","","","","","","","","","","","","",""
"2598.800000000745","","image-slider-response","67","357185","0.0-66.0","A3VICGAIVOTX4U","","","","","-46","","","","","","","","","","","","","","","","","","","","","",""
"3991","","image-button-response","68","362187","0.0-67.0","A3VICGAIVOTX4U","img_art/29.jpg","1","","","","","","","","","","","","","","","","","","","","","","","","",""
"2259","","image-button-response","69","364450","0.0-68.0","A3VICGAIVOTX4U","img_art/29.jpg","5","","","","","","","","","","","","","","","","","","","","","","","","",""
"2871","","image-button-response","70","367323","0.0-69.0-0.0","A3VICGAIVOTX4U","img_art/29.jpg","3","","","","","","","","","","","","","","","","","","","","","","","","",""
"4045","","image-button-response","71","371370","0.0-70.0-0.0","A3VICGAIVOTX4U","img_art/29.jpg","1","","","","","","","","","","","","","","","","","","","","","","","","",""
"null","","html-keyboard-response","72","372872","0.0-71.0","A3VICGAIVOTX4U","<p style=""font-size: 48px;"">+</p>","","","","","null","allTrialResponses","1500","1","4","img_art/29.jpg","-46","not my cup of tea","Ethan,Caleb,Alejandro,Jeremy,Victor,Connor","I love the angry emotion to this art. I feel very drawn to it.,18,120,20","Looks wrong. Like a real painting was vandalized.,-50,40,20","Reminiscent of Jackson Pollock with a hint of abstract structure with the bordering.,32,80,20","unhappy. Looking at this all the time would depress me.,-11,60,20","I like the colors but it looks very amateur,1,340,20","Red X is scary, like the bricks,7,240,20","Connor","Red X is scary, like the bricks,7,240,20","Jeremy","unhappy. Looking at this all the time would depress me.,-11,60,20","Caleb","Looks wrong. Like a real painting was vandalized.,-50,40,20","2"
"27517","","survey-text","73","400393","0.0-72.0-0.0","A3VICGAIVOTX4U","","","","{""Q0"":""reminds me of a venus fly trap ""}","","","","","","","","","","","","","","","","","","","","","","",""
"3742.5","","image-slider-response","74","404137","0.0-73.0","A3VICGAIVOTX4U","","","","","-43","","","","","","","","","","","","","","","","","","","","","",""
"2526","","image-button-response","75","409147","0.0-74.0","A3VICGAIVOTX4U","img_art/9.jpg","0","","","","","","","","","","","","","","","","","","","","","","","","",""
"292","","image-button-response","76","409441","0.0-75.0","A3VICGAIVOTX4U","img_art/9.jpg","0","","","","","","","","","","","","","","","","","","","","","","","","",""
"750","","image-button-response","77","410193","0.0-76.0-0.0","A3VICGAIVOTX4U","img_art/9.jpg","1","","","","","","","","","","","","","","","","","","","","","","","","",""
"2176","","image-button-response","78","412371","0.0-77.0-0.0","A3VICGAIVOTX4U","img_art/9.jpg","4","","","","","","","","","","","","","","","","","","","","","","","","",""
"null","","html-keyboard-response","79","413873","0.0-78.0","A3VICGAIVOTX4U","<p style=""font-size: 48px;"">+</p>","","","","","null","allTrialResponses","1500","1","5","img_art/9.jpg","-43","reminds me of a venus fly trap ","Jesus,Caleb,Brett,Jeremy,Samuel,Connor","I enjoy the design, but the colors look waxy,-7,100,20","Unfinished, weird composition.,-34,40,20","Peaceful dreaming,40,360,20","I feel this incites anger,-16,60,20","what a wild ride,11,400,20","Framing is overwhelming,-35,240,20","Jesus","I enjoy the design, but the colors look waxy,-7,100,20","Caleb","Unfinished, weird composition.,-34,40,20","Samuel","what a wild ride,11,400,20","2"
"3914","","survey-text","80","417792","0.0-79.0-0.0","A3VICGAIVOTX4U","","","","{""Q0"":""sky""}","","","","","","","","","","","","","","","","","","","","","","",""
"8800","","survey-text","81","426593","0.0-80.0-0.0","A3VICGAIVOTX4U","","","","{""Q0"":""I like it""}","","","","","","","","","","","","","","","","","","","","","","",""
"3246.400000002235","","image-slider-response","82","429841","0.0-81.0","A3VICGAIVOTX4U","","","","","38","","","","","","","","","","","","","","","","","","","","","",""
"4805","","image-button-response","83","434843","0.0-82.0","A3VICGAIVOTX4U","img_art/13.jpg","1","","","","","","","","","","","","","","","","","","","","","","","","",""
"1837","","image-button-response","84","436681","0.0-83.0","A3VICGAIVOTX4U","img_art/13.jpg","2","","","","","","","","","","","","","","","","","","","","","","","","",""
"3687","","image-button-response","85","440369","0.0-84.0-0.0","A3VICGAIVOTX4U","img_art/13.jpg","4","","","","","","","","","","","","","","","","","","","","","","","","",""
"1206","","image-button-response","86","441577","0.0-85.0-0.0","A3VICGAIVOTX4U","img_art/13.jpg","0","","","","","","","","","","","","","","","","","","","","","","","","",""
"null","","html-keyboard-response","87","443081","0.0-86.0","A3VICGAIVOTX4U","<p style=""font-size: 48px;"">+</p>","","","","","null","allTrialResponses","1500","1","6","img_art/13.jpg","38","I like it","Jesus,Caleb,Jack,Alexis,Samuel,Hunter","I enjoy the cool colors mixed together,31,100,20","Lots of depth and character.,30,40,20","exciting & chaotic. love the colors.,50,320,20","It looks too common, is a bit boring,-41,140,20","eighties here we come,7,400,20","feels sterile/manufactured,1,240,20","Jack","exciting & chaotic. love the colors.,50,320,20","Samuel","eighties here we come,7,400,20","Jesus","I enjoy the cool colors mixed together,31,100,20","2"
"9076","","survey-text","88","452161","0.0-87.0-0.0","A3VICGAIVOTX4U","","","","{""Q0"":""pretty interesting to me""}","","","","","","","","","","","","","","","","","","","","","","",""
"2526.800000000745","","image-slider-response","89","454689","0.0-88.0","A3VICGAIVOTX4U","","","","","22","","","","","","","","","","","","","","","","","","","","","",""
"2262","","image-button-response","90","459700","0.0-89.0","A3VICGAIVOTX4U","img_art/14.jpg","0","","","","","","","","","","","","","","","","","","","","","","","","",""
"812","","image-button-response","91","460513","0.0-90.0","A3VICGAIVOTX4U","img_art/14.jpg","2","","","","","","","","","","","","","","","","","","","","","","","","",""
"1431","","image-button-response","92","461946","0.0-91.0-0.0","A3VICGAIVOTX4U","img_art/14.jpg","5","","","","","","","","","","","","","","","","","","","","","","","","",""
"1238","","image-button-response","93","463186","0.0-92.0-0.0","A3VICGAIVOTX4U","img_art/14.jpg","4","","","","","","","","","","","","","","","","","","","","","","","","",""
"null","","html-keyboard-response","94","464688","0.0-93.0","A3VICGAIVOTX4U","<p style=""font-size: 48px;"">+</p>","","","","","null","allTrialResponses","1500","1","7","img_art/14.jpg","22","pretty interesting to me","Jesus,Jake,Jack,Spencer,Samuel,Aaron","I like the combination of colors and textures.,35,100,20","This is poorly done and not aesthetically appealing.,-2,360,20","love the colors. despite their brightness it seems sad somehow.,41,320,20","I like the simplicity along with the colors,27,120,20","tree of life brings hope,7,400,20","It reminds me of a tree in the desert.,15,20,20","Jack","love the colors. despite their brightness it seems sad somehow.,41,320,20","Aaron","It reminds me of a tree in the desert.,15,20,20","Samuel","tree of life brings hope,7,400,20","2"
"28254","","survey-text","95","492945","0.0-94.0-0.0","A3VICGAIVOTX4U","","","","{""Q0"":""weird but kind of interesting.""}","","","","","","","","","","","","","","","","","","","","","","",""
"2070.400000002235","","image-slider-response","96","495017","0.0-95.0","A3VICGAIVOTX4U","","","","","13","","","","","","","","","","","","","","","","","","","","","",""
"1974","","image-button-response","97","500020","0.0-96.0","A3VICGAIVOTX4U","img_art/15.jpg","0","","","","","","","","","","","","","","","","","","","","","","","","",""
"1612","","image-button-response","98","501634","0.0-97.0","A3VICGAIVOTX4U","img_art/15.jpg","5","","","","","","","","","","","","","","","","","","","","","","","","",""
"1175","","image-button-response","99","502810","0.0-98.0-0.0","A3VICGAIVOTX4U","img_art/15.jpg","4","","","","","","","","","","","","","","","","","","","","","","","","",""
"926","","image-button-response","100","503737","0.0-99.0-0.0","A3VICGAIVOTX4U","img_art/15.jpg","3","","","","","","","","","","","","","","","","","","","","","","","","",""
"null","","html-keyboard-response","101","504238","0.0-100.0","A3VICGAIVOTX4U","<p style=""font-size: 48px;"">+</p>","","","","","null","allTrialResponses","500","1","8","img_art/15.jpg","13","weird but kind of interesting.","Mitchell,Patrick,Jack,Matthew,Samuel,Aaron","ants on the ground playing with bubble gum. They may be thinking of how they can use it to build something,-30,180,20","I don't like the black dots,-19,280,20","interesting technique. the blue is very pretty,18,320,20","I think of birds, nature, levels of space.,18,120,20","Black reminds me of darkness,-18,400,20","I like how it's simple but beautiful.,40,20,20","Aaron","I like how it's simple but beautiful.,40,20,20","Samuel","Black reminds me of darkness,-18,400,20","Matthew","I think of birds, nature, levels of space.,18,120,20","2"
"52854","","survey-text","102","557097","0.0-101.0-0.0","A3VICGAIVOTX4U","","","","{""Q0"":""looks like some blood thirsty eels""}","","","","","","","","","","","","","","","","","","","","","","",""
"2974.400000002235","","image-slider-response","103","560073","0.0-102.0","A3VICGAIVOTX4U","","","","","24","","","","","","","","","","","","","","","","","","","","","",""
"3910","","image-button-response","104","565075","0.0-103.0","A3VICGAIVOTX4U","img_art/30.jpg","2","","","","","","","","","","","","","","","","","","","","","","","","",""
"1005","","image-button-response","105","566081","0.0-104.0","A3VICGAIVOTX4U","img_art/30.jpg","3","","","","","","","","","","","","","","","","","","","","","","","","",""
"1023","","image-button-response","106","567106","0.0-105.0-0.0","A3VICGAIVOTX4U","img_art/30.jpg","4","","","","","","","","","","","","","","","","","","","","","","","","",""
"740","","image-button-response","107","567849","0.0-106.0-0.0","A3VICGAIVOTX4U","img_art/30.jpg","5","","","","","","","","","","","","","","","","","","","","","","","","",""
"null","","html-keyboard-response","108","568858","0.0-107.0","A3VICGAIVOTX4U","<p style=""font-size: 48px;"">+</p>","","","","","null","allTrialResponses","1000","1","9","img_art/30.jpg","24","looks like some blood thirsty eels","Gabriel,Grant,Seth,Matthew,Samuel,Aaron","dont like this much at all,-30,160,20","The brush strokes are appealing, and make me want to look at this longer.,11,200,20","I love the color contrast of the red against the blue.,9,60,20","Decent abstract art, ncie colors.,23,120,20","perceiving greatness,20,400,20","It looks like a pretty but unremarkable painting in a doctors office,15,20,20","Matthew","Decent abstract art, ncie colors.,23,120,20","Samuel","perceiving greatness,20,400,20","Aaron","It looks like a pretty but unremarkable painting in a doctors office,15,20,20","2"
"26123","","survey-text","109","594985","0.0-108.0-0.0","A3VICGAIVOTX4U","","","","{""Q0"":""is that a hand with long fingernails?""}","","","","","","","","","","","","","","","","","","","","","","",""
"3214.39999999851","","image-slider-response","110","598201","0.0-109.0","A3VICGAIVOTX4U","","","","","19","","","","","","","","","","","","","","","","","","","","","",""
"3446","","image-button-response","111","603217","0.0-110.0","A3VICGAIVOTX4U","img_art/4.jpg","2","","","","","","","","","","","","","","","","","","","","","","","","",""
"2462","","image-button-response","112","605681","0.0-111.0","A3VICGAIVOTX4U","img_art/4.jpg","3","","","","","","","","","","","","","","","","","","","","","","","","",""
"1838","","image-button-response","113","607521","0.0-112.0-0.0","A3VICGAIVOTX4U","img_art/4.jpg","0","","","","","","","","","","","","","","","","","","","","","","","","",""
"1238","","image-button-response","114","608761","0.0-113.0-0.0","A3VICGAIVOTX4U","img_art/4.jpg","4","","","","","","","","","","","","","","","","","","","","","","","","",""
"null","","html-keyboard-response","115","609770","0.0-114.0","A3VICGAIVOTX4U","<p style=""font-size: 48px;"">+</p>","","","","","null","allTrialResponses","1000","1","10","img_art/4.jpg","19","is that a hand with long fingernails?","Paul,Chase,Austin,Matthew,Samuel,Aaron","The dark yellow color makes me think of mustard, which I dislike,-27,300,20","It looks like smeared poop.,-27,120,20","Like the color vibrancy,29,240,20","It looks like a hand.,25,120,20","The muted tones,-11,400,20","It doesn't make me feel anything it just looks like a kid did it.,-30,20,20","Matthew","It looks like a hand.,25,120,20","Paul","The dark yellow color makes me think of mustard, which I dislike,-27,300,20","Samuel","The muted tones,-11,400,20","2"
"3785","","survey-text","116","613560","0.0-115.0-0.0","A3VICGAIVOTX4U","","","","{""Q0"":""our""}","","","","","","","","","","","","","","","","","","","","","","",""
"12647","","survey-text","117","626208","0.0-116.0-0.0","A3VICGAIVOTX4U","","","","{""Q0"":""there is a lot going on in this one""}","","","","","","","","","","","","","","","","","","","","","","",""
"2454.89999999851","","image-slider-response","118","628665","0.0-117.0","A3VICGAIVOTX4U","","","","","31","","","","","","","","","","","","","","","","","","","","","",""
"3823","","image-button-response","119","633671","0.0-118.0","A3VICGAIVOTX4U","img_art/18.jpg","1","","","","","","","","","","","","","","","","","","","","","","","","",""
"744","","image-button-response","120","634417","0.0-119.0","A3VICGAIVOTX4U","img_art/18.jpg","2","","","","","","","","","","","","","","","","","","","","","","","","",""
"2262","","image-button-response","121","636681","0.0-120.0-0.0","A3VICGAIVOTX4U","img_art/18.jpg","5","","","","","","","","","","","","","","","","","","","","","","","","",""
"838","","image-button-response","122","637521","0.0-121.0-0.0","A3VICGAIVOTX4U","img_art/18.jpg","4","","","","","","","","","","","","","","","","","","","","","","","","",""
"null","","html-keyboard-response","123","638024","0.0-122.0","A3VICGAIVOTX4U","<p style=""font-size: 48px;"">+</p>","","","","","null","allTrialResponses","500","1","11","img_art/18.jpg","31","there is a lot going on in this one","Paul,Jeffrey,Bradley,Matthew,Samuel,Cole","It doesn't look like much, the colors are dark and it doesn't really make me feel anything.,-2,300,20","Makes me to look at it and investigate what it is about and what is going on,17,40,20","This one is very dark and apocalyptic indeed!,-30,300,20","Resembles a ship at sea, storm of activity.,28,120,20","death rides in life,-25,400,20","Two people fighting with one watching,17,200,20","Bradley","This one is very dark and apocalyptic indeed!,-30,300,20","Cole","Two people fighting with one watching,17,200,20","Samuel","death rides in life,-25,400,20","2"
"14509","","survey-text","124","652537","0.0-123.0-0.0","A3VICGAIVOTX4U","","","","{""Q0"":""power lines or ships at sea?""}","","","","","","","","","","","","","","","","","","","","","","",""
"2998.39999999851","","image-slider-response","125","655537","0.0-124.0","A3VICGAIVOTX4U","","","","","21","","","","","","","","","","","","","","","","","","","","","",""
"3302","","image-button-response","126","660539","0.0-125.0","A3VICGAIVOTX4U","img_art/11.jpg","0","","","","","","","","","","","","","","","","","","","","","","","","",""
"496","","image-button-response","127","661037","0.0-126.0","A3VICGAIVOTX4U","img_art/11.jpg","1","","","","","","","","","","","","","","","","","","","","","","","","",""
"1606","","image-button-response","128","662645","0.0-127.0-0.0","A3VICGAIVOTX4U","img_art/11.jpg","2","","","","","","","","","","","","","","","","","","","","","","","","",""
"1006","","image-button-response","129","663653","0.0-128.0-0.0","A3VICGAIVOTX4U","img_art/11.jpg","4","","","","","","","","","","","","","","","","","","","","","","","","",""
"null","","html-keyboard-response","130","664154","0.0-129.0","A3VICGAIVOTX4U","<p style=""font-size: 48px;"">+</p>","","","","","null","allTrialResponses","500","1","12","img_art/11.jpg","21","power lines or ships at sea?","Dylan,Benjamin,Bradley,Kenneth,Samuel,Cole","I normally would not like this photo, but the design is nice.,21,40,20","Look like it's in constant movement.,10,260,20","WOW!  I love how the ships and the seas become one in this piece.,50,300,20","Its a little psychedelic.,10,300,20","business of traffic,10,400,20","Grays arent my thing,-25,200,20","Benjamin","Look like it's in constant movement.,10,260,20","Bradley","WOW!  I love how the ships and the seas become one in this piece.,50,300,20","Samuel","business of traffic,10,400,20","2"
"25511","","survey-text","131","689669","0.0-130.0-0.0","A3VICGAIVOTX4U","","","","{""Q0"":""makes me queezy looking at it""}","","","","","","","","","","","","","","","","","","","","","","",""
"3190","","image-slider-response","132","692860","0.0-131.0","A3VICGAIVOTX4U","","","","","-41","","","","","","","","","","","","","","","","","","","","","",""
"2023","","image-button-response","133","697876","0.0-132.0","A3VICGAIVOTX4U","img_art/2.jpg","1","","","","","","","","","","","","","","","","","","","","","","","","",""
"14639","","image-button-response","134","712517","0.0-133.0","A3VICGAIVOTX4U","img_art/2.jpg","2","","","","","","","","","","","","","","","","","","","","","","","","",""
"1358","","image-button-response","135","713877","0.0-134.0-0.0","A3VICGAIVOTX4U","img_art/2.jpg","5","","","","","","","","","","","","","","","","","","","","","","","","",""
"1686","","image-button-response","136","715565","0.0-135.0-0.0","A3VICGAIVOTX4U","img_art/2.jpg","3","","","","","","","","","","","","","","","","","","","","","","","","",""
"null","","html-keyboard-response","137","716573","0.0-136.0","A3VICGAIVOTX4U","<p style=""font-size: 48px;"">+</p>","","","","","null","allTrialResponses","1000","1","13","img_art/2.jpg","-41","makes me queezy looking at it","Corey,Benjamin,Bradley,Timothy,Samuel,Devin","doesn't do anything for me,-7,260,20","bright and happy,20,260,20","I'm not fond of the colors in this one.,-33,300,20","The contrasting colors are a bit harsh,-10,240,20","i liked the bright colors,13,400,20","I don't really like this style,-5,380,20","Bradley","I'm not fond of the colors in this one.,-33,300,20","Devin","I don't really like this style,-5,380,20","Timothy","The contrasting colors are a bit harsh,-10,240,20","2"
"15464","","survey-text","138","732040","0.0-137.0-0.0","A3VICGAIVOTX4U","","","","{""Q0"":""is that a pen holder?""}","","","","","","","","","","","","","","","","","","","","","","",""
"2783.10000000149","","image-slider-response","139","734825","0.0-138.0","A3VICGAIVOTX4U","","","","","-36","","","","","","","","","","","","","","","","","","","","","",""
"4766","","image-button-response","140","739827","0.0-139.0","A3VICGAIVOTX4U","img_art/5.jpg","5","","","","","","","","","","","","","","","","","","","","","","","","",""
"444","","image-button-response","141","740273","0.0-140.0","A3VICGAIVOTX4U","img_art/5.jpg","4","","","","","","","","","","","","","","","","","","","","","","","","",""
"783","","image-button-response","142","741056","0.0-141.0-0.0","A3VICGAIVOTX4U","img_art/5.jpg","3","","","","","","","","","","","","","","","","","","","","","","","","",""
"935","","image-button-response","143","741992","0.0-142.0-0.0","A3VICGAIVOTX4U","img_art/5.jpg","0","","","","","","","","","","","","","","","","","","","","","","","","",""
"null","","html-keyboard-response","144","743498","0.0-143.0","A3VICGAIVOTX4U","<p style=""font-size: 48px;"">+</p>","","","","","null","allTrialResponses","1500","1","14","img_art/5.jpg","-36","is that a pen holder?","Nathan,Michael,Bradley,Timothy,Tyler,Devin","Not a fan of the themes,-30,200,20","Complete garbage. Looks like a kid drew it.,-50,140,20","Looks like a tied up trash bag.,-10,300,20","This feels joyful,39,240,20","Bright and luminous,31,320,20","A bit too messy in my eyes,-4,380,20","Tyler","Bright and luminous,31,320,20","Timothy","This feels joyful,39,240,20","Nathan","Not a fan of the themes,-30,200,20","2"
"8282","","survey-text","145","751784","0.0-144.0-0.0","A3VICGAIVOTX4U","","","","{""Q0"":""grim reaper comes""}","","","","","","","","","","","","","","","","","","","","","","",""
"3134.39999999851","","image-slider-response","146","754920","0.0-145.0","A3VICGAIVOTX4U","","","","","29","","","","","","","","","","","","","","","","","","","","","",""
"4543","","image-button-response","147","759931","0.0-146.0","A3VICGAIVOTX4U","img_art/25.jpg","4","","","","","","","","","","","","","","","","","","","","","","","","",""
"1157","","image-button-response","148","761089","0.0-147.0","A3VICGAIVOTX4U","img_art/25.jpg","3","","","","","","","","","","","","","","","","","","","","","","","","",""
"999","","image-button-response","149","762090","0.0-148.0-0.0","A3VICGAIVOTX4U","img_art/25.jpg","0","","","","","","","","","","","","","","","","","","","","","","","","",""
"1221","","image-button-response","150","763313","0.0-149.0-0.0","A3VICGAIVOTX4U","img_art/25.jpg","4","","","","","","","","","","","","","","","","","","","","","","","","",""
"null","","html-keyboard-response","151","764819","0.0-150.0","A3VICGAIVOTX4U","<p style=""font-size: 48px;"">+</p>","","","","","null","allTrialResponses","1500","1","15","img_art/25.jpg","29","grim reaper comes","Nathan,William,Brendan,Timothy,Tyler,Eric","I like it, a bit cryptic and obscene, I enjoy that,30,200,20","makes me think of a scary movie,-20,380,20","is this an ancient woman?,-16,340,20","This makes me feel uneasy,-20,240,20","Meh. Hardly abstract, though.,-40,320,20","This piece gives me a lot of questions which I kind of like.,10,100,20","Timothy","This makes me feel uneasy,-20,240,20","Nathan","I like it, a bit cryptic and obscene, I enjoy that,30,200,20","Tyler","Meh. Hardly abstract, though.,-40,320,20","2"
"3895","","survey-text","152","768720","0.0-151.0-0.0","A3VICGAIVOTX4U","","","","{""Q0"":""course""}","","","","","","","","","","","","","","","","","","","","","","",""
"13390","","survey-text","153","782113","0.0-152.0-0.0","A3VICGAIVOTX4U","","","","{""Q0"":""looks like a car accident""}","","","","","","","","","","","","","","","","","","","","","","",""
"3286.199999999255","","image-slider-response","154","785401","0.0-153.0","A3VICGAIVOTX4U","","","","","-34","","","","","","","","","","","","","","","","","","","","","",""
"4438","","image-button-response","155","790402","0.0-154.0","A3VICGAIVOTX4U","img_art/20.jpg","4","","","","","","","","","","","","","","","","","","","","","","","","",""
"581","","image-button-response","156","790985","0.0-155.0","A3VICGAIVOTX4U","img_art/20.jpg","5","","","","","","","","","","","","","","","","","","","","","","","","",""
"678","","image-button-response","157","791665","0.0-156.0-0.0","A3VICGAIVOTX4U","img_art/20.jpg","2","","","","","","","","","","","","","","","","","","","","","","","","",""
"990","","image-button-response","158","792656","0.0-157.0-0.0","A3VICGAIVOTX4U","img_art/20.jpg","0","","","","","","","","","","","","","","","","","","","","","","","","",""
"null","","html-keyboard-response","159","793664","0.0-158.0","A3VICGAIVOTX4U","<p style=""font-size: 48px;"">+</p>","","","","","null","allTrialResponses","1000","1","16","img_art/20.jpg","-34","looks like a car accident","Nathan,Bryce,James,Timothy,Tyler,Isaiah","Don't really like the subject it focuses on, however the color usage is great,-10,200,20","Kinda freaks me out.,-40,20,20","It looks like a motorcycle and I like cars and motorcycles,30,380,20","Makes me think if a car crash or some sort of disaster,-20,240,20","This is not abstract art, it is representative.,0,320,20","I feel powerful, like I am looking out a window at this machine, that I am in charge.,17,300,20","Isaiah","I feel powerful, like I am looking out a window at this machine, that I am in charge.,17,300,20","James","It looks like a motorcycle and I like cars and motorcycles,30,380,20","Nathan","Don't really like the subject it focuses on, however the color usage is great,-10,200,20","2"
"15532","","survey-text","160","809201","0.0-159.0-0.0","A3VICGAIVOTX4U","","","","{""Q0"":""interesting color design""}","","","","","","","","","","","","","","","","","","","","","","",""
"2822.199999999255","","image-slider-response","161","812024","0.0-160.0","A3VICGAIVOTX4U","","","","","10","","","","","","","","","","","","","","","","","","","","","",""
"2575","","image-button-response","162","817026","0.0-161.0","A3VICGAIVOTX4U","img_art/22.jpg","1","","","","","","","","","","","","","","","","","","","","","","","","",""
"758","","image-button-response","163","817785","0.0-162.0","A3VICGAIVOTX4U","img_art/22.jpg","3","","","","","","","","","","","","","","","","","","","","","","","","",""
"958","","image-button-response","164","818745","0.0-163.0-0.0","A3VICGAIVOTX4U","img_art/22.jpg","4","","","","","","","","","","","","","","","","","","","","","","","","",""
"1144","","image-button-response","165","819890","0.0-164.0-0.0","A3VICGAIVOTX4U","img_art/22.jpg","1","","","","","","","","","","","","","","","","","","","","","","","","",""
"null","","html-keyboard-response","166","820391","0.0-165.0","A3VICGAIVOTX4U","<p style=""font-size: 48px;"">+</p>","","","","","null","allTrialResponses","500","1","17","img_art/22.jpg","10","interesting color design","Nathan,Carlos,James,Christian,Dustin,Isaiah","A bit colorful, but slightly enjoyable, almost gives off castle/sunset vibes,10,200,20","The colors are pleasant, the shapes are inviting.,21,80,20","Like the black key and the rainbow color theme.,31,380,20","colorful water (in front of castle?),17,140,20","Too much red. The red/yellow/orange make me think of heat/fire, which makes me anxious.,-10,20,20","The painting makes me feel a little sad.,12,300,20","Christian","colorful water (in front of castle?),17,140,20","Dustin","Too much red. The red/yellow/orange make me think of heat/fire, which makes me anxious.,-10,20,20","Carlos","The colors are pleasant, the shapes are inviting.,21,80,20","2"
"23317","","survey-text","167","843712","0.0-166.0-0.0","A3VICGAIVOTX4U","","","","{""Q0"":""I like this one, reminds me of music""}","","","","","","","","","","","","","","","","","","","","","","",""
"2958.300000000745","","image-slider-response","168","846672","0.0-167.0","A3VICGAIVOTX4U","","","","","23","","","","","","","","","","","","","","","","","","","","","",""
"4526","","image-button-response","169","851674","0.0-168.0","A3VICGAIVOTX4U","img_art/10.jpg","2","","","","","","","","","","","","","","","","","","","","","","","","",""
"829","","image-button-response","170","852504","0.0-169.0","A3VICGAIVOTX4U","img_art/10.jpg","5","","","","","","","","","","","","","","","","","","","","","","","","",""
"1711","","image-button-response","171","854216","0.0-170.0-0.0","A3VICGAIVOTX4U","img_art/10.jpg","3","","","","","","","","","","","","","","","","","","","","","","","","",""
"1479","","image-button-response","172","855696","0.0-171.0-0.0","A3VICGAIVOTX4U","img_art/10.jpg","0","","","","","","","","","","","","","","","","","","","","","","","","",""
"null","","html-keyboard-response","173","857202","0.0-172.0","A3VICGAIVOTX4U","<p style=""font-size: 48px;"">+</p>","","","","","null","allTrialResponses","1500","1","18","img_art/10.jpg","23","I like this one, reminds me of music","Tanner,Carlos,Richard,Christian,Dustin,Malik","music, serenity, love,33,180,20","The colors and shapes are soothing but also disconcerting.,21,80,20","interesting portrayal of a violin?,10,340,20","gives a sense of a roller coaster unit splashed in water. it's not but i love it nevertheless,44,140,20","Dark and weird. Unidentifiable shape. I can't tell what it is, so I don't like it.,-50,20,20","Good texture, expressive,18,40,20","Malik","Good texture, expressive,18,40,20","Christian","gives a sense of a roller coaster unit splashed in water. it's not but i love it nevertheless,44,140,20","Tanner","music, serenity, love,33,180,20","2"
"11083","","survey-text","174","868289","0.0-173.0-0.0","A3VICGAIVOTX4U","","","","{""Q0"":""now that is pretty scary looking""}","","","","","","","","","","","","","","","","","","","","","","",""
"4134.900000002235","","image-slider-response","175","872425","0.0-174.0","A3VICGAIVOTX4U","","","","","-32","","","","","","","","","","","","","","","","","","","","","",""
"null","","image-button-response","176","877427","0.0-175.0","A3VICGAIVOTX4U","img_art/3.jpg","null","","","","","","","","","","","","","","","","","","","","","","","","",""
"716","","image-button-response","177","878144","0.0-176.0","A3VICGAIVOTX4U","img_art/3.jpg","1","","","","","","","","","","","","","","","","","","","","","","","","",""
"1287","","image-button-response","178","879432","0.0-177.0-0.0","A3VICGAIVOTX4U","img_art/3.jpg","0","","","","","","","","","","","","","","","","","","","","","","","","",""
"4087","","image-button-response","179","883520","0.0-178.0-0.0","A3VICGAIVOTX4U","img_art/3.jpg","5","","","","","","","","","","","","","","","","","","","","","","","","",""
"null","","html-keyboard-response","180","885035","0.0-179.0","A3VICGAIVOTX4U","<p style=""font-size: 48px;"">+</p>","","","","","null","allTrialResponses","1500","1","19","img_art/3.jpg","-32","now that is pretty scary looking","Tanner,Jorge,Noah,Christian,Shawn,Malik","anger, blood, death,-24,180,20","This makes me feel vulnerable,-32,180,20","I struggle to see the art,-20,260,20","sorry do not understand,-26,140,20","Powerful lines but seems incomplete,-10,100,20","Unaure what the artist  was doing, needs context,11,40,20","Jorge","This makes me feel vulnerable,-32,180,20","Tanner","anger, blood, death,-24,180,20","Malik","Unaure what the artist  was doing, needs context,11,40,20","2"
"18529","","survey-text","181","903568","0.0-180.0-0.0","A3VICGAIVOTX4U","","","","{""Q0"":""is that a mouse sitting at the dinner table/""}","","","","","","","","","","","","","","","","","","","","","","",""
"3278.5","","image-slider-response","182","906848","0.0-181.0","A3VICGAIVOTX4U","","","","","-18","","","","","","","","","","","","","","","","","","","","","",""
"null","","image-button-response","183","911849","0.0-182.0","A3VICGAIVOTX4U","img_art/28.jpg","null","","","","","","","","","","","","","","","","","","","","","","","","",""
"4294","","image-button-response","184","916144","0.0-183.0","A3VICGAIVOTX4U","img_art/28.jpg","3","","","","","","","","","","","","","","","","","","","","","","","","",""
"2391","","image-button-response","185","918537","0.0-184.0-0.0","A3VICGAIVOTX4U","img_art/28.jpg","5","","","","","","","","","","","","","","","","","","","","","","","","",""
"2397","","image-button-response","186","920936","0.0-185.0-0.0","A3VICGAIVOTX4U","img_art/28.jpg","0","","","","","","","","","","","","","","","","","","","","","","","","",""
"null","","html-keyboard-response","187","921437","0.0-186.0","A3VICGAIVOTX4U","<p style=""font-size: 48px;"">+</p>","","","","","null","allTrialResponses","500","1","20","img_art/28.jpg","-18","is that a mouse sitting at the dinner table/","Tanner,Jorge,Isaac,Brandon,Scott,Malik","almost reminds me of thomas becket getting his head cut off,21,180,20","nostalgic from a memory,11,180,20","It is too messy.,-38,280,20","Interesting. I like the ""old woman"" on the left. Lots of different entities to look at,21,320,20","I don't like the color choice,-30,20,20","Invokes curiosity, I want to know it's story.,15,40,20","Brandon","Interesting. I like the ""old woman"" on the left. Lots of different entities to look at,21,320,20","Malik","Invokes curiosity, I want to know it's story.,15,40,20","Tanner","almost reminds me of thomas becket getting his head cut off,21,180,20","2"
"3692","","survey-text","188","925136","0.0-187.0-0.0","A3VICGAIVOTX4U","","","","{""Q0"":""we""}","","","","","","","","","","","","","","","","","","","","","","",""
"20590","","survey-text","189","945728","0.0-188.0-0.0","A3VICGAIVOTX4U","","","","{""Q0"":""I like the man looking out over things""}","","","","","","","","","","","","","","","","","","","","","","",""
"4630.89999999851","","image-slider-response","190","950360","0.0-189.0","A3VICGAIVOTX4U","","","","","24","","","","","","","","","","","","","","","","","","","","","",""
"null","","image-button-response","191","955611","0.0-190.0","A3VICGAIVOTX4U","img_art/19.jpg","null","","","","","","","","","","","","","","","","","","","","","","","","",""
"38419","","image-button-response","192","994032","0.0-191.0","A3VICGAIVOTX4U","img_art/19.jpg","0","","","","","","","","","","","","","","","","","","","","","","","","",""
"3246","","image-button-response","193","997280","0.0-192.0-0.0","A3VICGAIVOTX4U","img_art/19.jpg","5","","","","","","","","","","","","","","","","","","","","","","","","",""
"1215","","image-button-response","194","998496","0.0-193.0-0.0","A3VICGAIVOTX4U","img_art/19.jpg","2","","","","","","","","","","","","","","","","","","","","","","","","",""
"null","","html-keyboard-response","195","999506","0.0-194.0","A3VICGAIVOTX4U","<p style=""font-size: 48px;"">+</p>","","","","","null","allTrialResponses","1000","1","21","img_art/19.jpg","24","I like the man looking out over things","Tanner,Daniel,Kevin,Brandon,Sean,Malik","city, stress of urbanism, slightly panicked,2,180,20","Simple, scratchy lack of negative space.,-10,320,20","Thats a lazy town,-8,320,20","Not a fan of the blobbiness,-22,320,20","the picture gave me anxiety,-38,40,20","Very dreamlike,26,40,20","Tanner","city, stress of urbanism, slightly panicked,2,180,20","Malik","Very dreamlike,26,40,20","Kevin","Thats a lazy town,-8,320,20","2"
"13354","","survey-text","196","1012864","0.0-195.0-0.0","A3VICGAIVOTX4U","","","","{""Q0"":""don't like the color scheme""}","","","","","","","","","","","","","","","","","","","","","","",""
"3686.10000000149","","image-slider-response","197","1016551","0.0-196.0","A3VICGAIVOTX4U","","","","","-39","","","","","","","","","","","","","","","","","","","","","",""
"null","","image-button-response","198","1021553","0.0-197.0","A3VICGAIVOTX4U","img_art/12.jpg","null","","","","","","","","","","","","","","","","","","","","","","","","",""
"982","","image-button-response","199","1022536","0.0-198.0","A3VICGAIVOTX4U","img_art/12.jpg","5","","","","","","","","","","","","","","","","","","","","","","","","",""
"6958","","image-button-response","200","1029496","0.0-199.0-0.0","A3VICGAIVOTX4U","img_art/12.jpg","4","","","","","","","","","","","","","","","","","","","","","","","","",""
"4549","","image-button-response","201","1034048","0.0-200.0-0.0","A3VICGAIVOTX4U","img_art/12.jpg","1","","","","","","","","","","","","","","","","","","","","","","","","",""
"null","","html-keyboard-response","202","1035050","0.0-201.0","A3VICGAIVOTX4U","<p style=""font-size: 48px;"">+</p>","","","","","null","allTrialResponses","1000","1","22","img_art/12.jpg","-39","don't like the color scheme","Tanner,Jose,Kevin,Travis,Shane,Malik","stressful, upsetting,-10,180,20","Not sure why but this is my favorite. I'd put it on my wall,50,200,20","That is a warn quilt grama made.,11,320,20","Neutral...just blocks.,3,260,20","Something you would see in a government building hallway,3,80,20","I don't like it, but I appreciate the effort and technique,11,40,20","Malik","I don't like it, but I appreciate the effort and technique,11,40,20","Shane","Something you would see in a government building hallway,3,80,20","Jose","Not sure why but this is my favorite. I'd put it on my wall,50,200,20","2"
"15587","","survey-text","203","1050641","0.0-202.0-0.0","A3VICGAIVOTX4U","","","","{""Q0"":""maybe a forest fire?""}","","","","","","","","","","","","","","","","","","","","","","",""
"7453.199999999255","","image-slider-response","204","1058096","0.0-203.0","A3VICGAIVOTX4U","","","","","-34","","","","","","","","","","","","","","","","","","","","","",""
"null","","image-button-response","205","1063610","0.0-204.0","A3VICGAIVOTX4U","img_art/27.jpg","null","","","","","","","","","","","","","","","","","","","","","","","","",""
"13549","","image-button-response","206","1077161","0.0-205.0","A3VICGAIVOTX4U","img_art/27.jpg","3","","","","","","","","","","","","","","","","","","","","","","","","",""
"4934","","image-button-response","207","1082096","0.0-206.0-0.0","A3VICGAIVOTX4U","img_art/27.jpg","1","","","","","","","","","","","","","","","","","","","","","","","","",""
"534","","image-button-response","208","1082632","0.0-207.0-0.0","A3VICGAIVOTX4U","img_art/27.jpg","0","","","","","","","","","","","","","","","","","","","","","","","","",""
"null","","html-keyboard-response","209","1083649","0.0-208.0","A3VICGAIVOTX4U","<p style=""font-size: 48px;"">+</p>","","","","","null","allTrialResponses","1000","1","23","img_art/27.jpg","-34","maybe a forest fire?","Alexander,Jose,Nicholas,Andrew,Shane,Malik","Messy field of various plants.,-5,120,20","it's like a weird version of heaven,16,200,20","I like all it has going but i wouldnt put it in my house unless my child did it,25,240,20","Reminds me of a town on fire,-15,160,20","Makes me feel warm inside,21,80,20","Nice color, but too vague,-12,40,20","Andrew","Reminds me of a town on fire,-15,160,20","Jose","it's like a weird version of heaven,16,200,20","Alexander","Messy field of various plants.,-5,120,20","2"
"11115","","survey-text","210","1094768","0.0-209.0-0.0","A3VICGAIVOTX4U","","","","{""Q0"":""a backbone of something""}","","","","","","","","","","","","","","","","","","","","","","",""
"2534.5","","image-slider-response","211","1097304","0.0-210.0","A3VICGAIVOTX4U","","","","","21","","","","","","","","","","","","","","","","","","","","","",""
"null","","image-button-response","212","1102317","0.0-211.0","A3VICGAIVOTX4U","img_art/23.jpg","null","","","","","","","","","","","","","","","","","","","","","","","","",""
"2506","","image-button-response","213","1104824","0.0-212.0","A3VICGAIVOTX4U","img_art/23.jpg","1","","","","","","","","","","","","","","","","","","","","","","","","",""
"1558","","image-button-response","214","1106385","0.0-213.0-0.0","A3VICGAIVOTX4U","img_art/23.jpg","4","","","","","","","","","","","","","","","","","","","","","","","","",""
"2814","","image-button-response","215","1109201","0.0-214.0-0.0","A3VICGAIVOTX4U","img_art/23.jpg","5","","","","","","","","","","","","","","","","","","","","","","","","",""
"null","","html-keyboard-response","216","1110709","0.0-215.0","A3VICGAIVOTX4U","<p style=""font-size: 48px;"">+</p>","","","","","null","allTrialResponses","1500","1","24","img_art/23.jpg","21","a backbone of something","Alexander,Jose,Logan,Andrew,Jordan,Charles","Unicorns flying through a colorful space.,25,120,20","This one is awesome, kinda looks like a cake with sprinkles but in a different universe,50,200,20","This looks like the cover art for a scene band,-29,360,20","The color contrast makes me happy,40,160,20","I like the contrast,29,160,20","Look at all the dancers,26,100,20","Jose","This one is awesome, kinda looks like a cake with sprinkles but in a different universe,50,200,20","Jordan","I like the contrast,29,160,20","Charles","Look at all the dancers,26,100,20","2"
"19350","","survey-text","217","1130064","0.0-216.0-0.0","A3VICGAIVOTX4U","","","","{""Q0"":""could be hanging in a bar or something ""}","","","","","","","","","","","","","","","","","","","","","","",""
"3191.199999999255","","image-slider-response","218","1133257","0.0-217.0","A3VICGAIVOTX4U","","","","","15","","","","","","","","","","","","","","","","","","","","","",""
"null","","image-button-response","219","1138259","0.0-218.0","A3VICGAIVOTX4U","img_art/16.jpg","null","","","","","","","","","","","","","","","","","","","","","","","","",""
"1627","","image-button-response","220","1139887","0.0-219.0","A3VICGAIVOTX4U","img_art/16.jpg","4","","","","","","","","","","","","","","","","","","","","","","","","",""
"871","","image-button-response","221","1140760","0.0-220.0-0.0","A3VICGAIVOTX4U","img_art/16.jpg","5","","","","","","","","","","","","","","","","","","","","","","","","",""
"2246","","image-button-response","222","1143008","0.0-221.0-0.0","A3VICGAIVOTX4U","img_art/16.jpg","1","","","","","","","","","","","","","","","","","","","","","","","","",""
"null","","html-keyboard-response","223","1143510","0.0-222.0","A3VICGAIVOTX4U","<p style=""font-size: 48px;"">+</p>","","","","","null","allTrialResponses","500","1","25","img_art/16.jpg","15","could be hanging in a bar or something ","Tristan,Jose,Vincent,Dakota,Jordan,Charles","visceral and a little disturbing.,10,300,20","Super weird. Id like to know more about it,24,200,20","Toys toys toys. Happy playful free spirit,30,360,20","depressing and confrontational,-9,280,20","The bear makes me very uncomfortable,-50,160,20","Weird and creepy,-30,100,20","Jordan","The bear makes me very uncomfortable,-50,160,20","Charles","Weird and creepy,-30,100,20","Jose","Super weird. Id like to know more about it,24,200,20","2"
"4328","","survey-text","224","1147848","0.0-223.0-0.0","A3VICGAIVOTX4U","","","","{""Q0"":""table""}","","","","","","","","","","","","","","","","","","","","","","",""
"20646","","survey-text","225","1168495","0.0-224.0-0.0","A3VICGAIVOTX4U","","","","{""Q0"":""clean and refreshing""}","","","","","","","","","","","","","","","","","","","","","","",""
"2743.2000000029802","","image-slider-response","226","1171240","0.0-225.0","A3VICGAIVOTX4U","","","","","17","","","","","","","","","","","","","","","","","","","","","",""
"null","","image-button-response","227","1176241","0.0-226.0","A3VICGAIVOTX4U","img_art/17.jpg","null","","","","","","","","","","","","","","","","","","","","","","","","",""
"1277","","image-button-response","228","1177520","0.0-227.0","A3VICGAIVOTX4U","img_art/17.jpg","3","","","","","","","","","","","","","","","","","","","","","","","","",""
"1310","","image-button-response","229","1178832","0.0-228.0-0.0","A3VICGAIVOTX4U","img_art/17.jpg","2","","","","","","","","","","","","","","","","","","","","","","","","",""
"3581","","image-button-response","230","1182416","0.0-229.0-0.0","A3VICGAIVOTX4U","img_art/17.jpg","1","","","","","","","","","","","","","","","","","","","","","","","","",""
"null","","html-keyboard-response","231","1183919","0.0-230.0","A3VICGAIVOTX4U","<p style=""font-size: 48px;"">+</p>","","","","","null","allTrialResponses","1500","1","26","img_art/17.jpg","17","clean and refreshing","Bryan,Jose,Dalton,Christopher,Jordan,Charles","Reminds me of winters in Minnesota.,48,400,20","Looks like a weird blurry heaven again! I dig,32,200,20","Beautiful simply beautiful. i would love this,,50,300,20","i like the delicate wispy part, but overall i don't love it,10,160,20","Really love the branches. The bottom made it not perfect,42,160,20","I like the trees, but the doors less so,19,100,20","Christopher","i like the delicate wispy part, but overall i don't love it,10,160,20","Dalton","Beautiful simply beautiful. i would love this,,50,300,20","Jose","Looks like a weird blurry heaven again! I dig,32,200,20","2"
"12099","","survey-text","232","1196024","0.0-231.0-0.0","A3VICGAIVOTX4U","","","","{""Q0"":""could be a scene in a war novel""}","","","","","","","","","","","","","","","","","","","","","","",""
"2742.2000000029802","","image-slider-response","233","1198768","0.0-232.0","A3VICGAIVOTX4U","","","","","30","","","","","","","","","","","","","","","","","","","","","",""
"null","","image-button-response","234","1203770","0.0-233.0","A3VICGAIVOTX4U","img_art/21.jpg","null","","","","","","","","","","","","","","","","","","","","","","","","",""
"3172","","image-button-response","235","1206944","0.0-234.0","A3VICGAIVOTX4U","img_art/21.jpg","1","","","","","","","","","","","","","","","","","","","","","","","","",""
"1295","","image-button-response","236","1208241","0.0-235.0-0.0","A3VICGAIVOTX4U","img_art/21.jpg","2","","","","","","","","","","","","","","","","","","","","","","","","",""
"1278","","image-button-response","237","1209521","0.0-236.0-0.0","A3VICGAIVOTX4U","img_art/21.jpg","3","","","","","","","","","","","","","","","","","","","","","","","","",""
"null","","html-keyboard-response","238","1211027","0.0-237.0","A3VICGAIVOTX4U","<p style=""font-size: 48px;"">+</p>","","","","","null","allTrialResponses","1500","1","27","img_art/21.jpg","30","could be a scene in a war novel","Adam,Jose,Dalton,Christopher,John,Edward","I like color mix here,15,40,20","I can't explain why this struck me as absolutely gorgeous. Like the clashing between 2 different worlds,43,200,20","The color spectrum is just beautiful.,32,300,20","I love the section of blues, the colors overall are really lovely,31,160,20","I like the colors that were used and the stark contrast between the two sides,25,120,20","I love how vague it is but how you can imagine a story anyway, like clouds,45,60,20","Jose","I can't explain why this struck me as absolutely gorgeous. Like the clashing between 2 different worlds,43,200,20","Dalton","The color spectrum is just beautiful.,32,300,20","Christopher","I love the section of blues, the colors overall are really lovely,31,160,20","2"
"6168","","survey-text","239","1217200","0.0-238.0-0.0","A3VICGAIVOTX4U","","","","{""Q0"":""too dull for me""}","","","","","","","","","","","","","","","","","","","","","","",""
"2390.300000000745","","image-slider-response","240","1219592","0.0-239.0","A3VICGAIVOTX4U","","","","","-42","","","","","","","","","","","","","","","","","","","","","",""
"null","","image-button-response","241","1224605","0.0-240.0","A3VICGAIVOTX4U","img_art/26.jpg","null","","","","","","","","","","","","","","","","","","","","","","","","",""
"1370","","image-button-response","242","1225976","0.0-241.0","A3VICGAIVOTX4U","img_art/26.jpg","2","","","","","","","","","","","","","","","","","","","","","","","","",""
"1862","","image-button-response","243","1227840","0.0-242.0-0.0","A3VICGAIVOTX4U","img_art/26.jpg","4","","","","","","","","","","","","","","","","","","","","","","","","",""
"1742","","image-button-response","244","1229584","0.0-243.0-0.0","A3VICGAIVOTX4U","img_art/26.jpg","3","","","","","","","","","","","","","","","","","","","","","","","","",""
"null","","html-keyboard-response","245","1230590","0.0-244.0","A3VICGAIVOTX4U","<p style=""font-size: 48px;"">+</p>","","","","","null","allTrialResponses","1000","1","28","img_art/26.jpg","-42","too dull for me","Colton,Jose,Dalton,Christopher,Trevor,Stephen","very impressionistic,11,220,20","This style of objects that are supposed to be something but then are blurry is interesting.,38,200,20","neighborhood and trees. i wonder if this is water paint.,1,300,20","too hard to figure out if it's meant to be actual objects or impressions,-36,160,20","looks like a little kids painting,-17,280,20","No strong reaction but the color scheme is nice,10,140,20","Dalton","neighborhood and trees. i wonder if this is water paint.,1,300,20","Trevor","looks like a little kids painting,-17,280,20","Christopher","too hard to figure out if it's meant to be actual objects or impressions,-36,160,20","2"
"19860","","survey-text","246","1250455","0.0-245.0-0.0","A3VICGAIVOTX4U","","","","{""Q0"":""looks interesting but I have no idea what it is""}","","","","","","","","","","","","","","","","","","","","","","",""
"3790.199999999255","","image-slider-response","247","1254247","0.0-246.0","A3VICGAIVOTX4U","","","","","16","","","","","","","","","","","","","","","","","","","","","",""
"null","","image-button-response","248","1259257","0.0-247.0","A3VICGAIVOTX4U","img_art/24.jpg","null","","","","","","","","","","","","","","","","","","","","","","","","",""
"1141","","image-button-response","249","1260399","0.0-248.0","A3VICGAIVOTX4U","img_art/24.jpg","2","","","","","","","","","","","","","","","","","","","","","","","","",""
"1175","","image-button-response","250","1261575","0.0-249.0-0.0","A3VICGAIVOTX4U","img_art/24.jpg","3","","","","","","","","","","","","","","","","","","","","","","","","",""
"1309","","image-button-response","251","1262887","0.0-250.0-0.0","A3VICGAIVOTX4U","img_art/24.jpg","4","","","","","","","","","","","","","","","","","","","","","","","","",""
"null","","html-keyboard-response","252","1263901","0.0-251.0","A3VICGAIVOTX4U","<p style=""font-size: 48px;"">+</p>","","","","","null","allTrialResponses","1000","1","29","img_art/24.jpg","16","looks interesting but I have no idea what it is","Ryan,Evan,Dalton,Christopher,Trevor,Antonio","Beautiful,  peaceful,50,380,20","It feels very serene,19,140,20","i feel peace and wanting. i love waterfalls,50,300,20","it's fine, the colors are pleasing, but not my taste,9,160,20","I like how it looks like a waterfall in an exotic place,50,280,20","Waterfalls and spring and gives me a sense of renewal,34,220,20","Dalton","i feel peace and wanting. i love waterfalls,50,300,20","Christopher","it's fine, the colors are pleasing, but not my taste,9,160,20","Trevor","I like how it looks like a waterfall in an exotic place,50,280,20","2"
"8341","","survey-text","253","1272247","0.0-252.0-0.0","A3VICGAIVOTX4U","","","","{""Q0"":""a seed sprouting ""}","","","","","","","","","","","","","","","","","","","","","","",""
"2902.5","","image-slider-response","254","1275151","0.0-253.0","A3VICGAIVOTX4U","","","","","27","","","","","","","","","","","","","","","","","","","","","",""
"null","","image-button-response","255","1280166","0.0-254.0","A3VICGAIVOTX4U","img_art/6.jpg","null","","","","","","","","","","","","","","","","","","","","","","","","",""
"568","","image-button-response","256","1280735","0.0-255.0","A3VICGAIVOTX4U","img_art/6.jpg","1","","","","","","","","","","","","","","","","","","","","","","","","",""
"815","","image-button-response","257","1281552","0.0-256.0-0.0","A3VICGAIVOTX4U","img_art/6.jpg","4","","","","","","","","","","","","","","","","","","","","","","","","",""
"3525","","image-button-response","258","1285079","0.0-257.0-0.0","A3VICGAIVOTX4U","img_art/6.jpg","2","","","","","","","","","","","","","","","","","","","","","","","","",""
"null","","html-keyboard-response","259","1285581","0.0-258.0","A3VICGAIVOTX4U","<p style=""font-size: 48px;"">+</p>","","","","","null","allTrialResponses","500","1","30","img_art/6.jpg","27","a seed sprouting ","Jesse,Zachary,Dalton,Christopher,Trevor,Luke","Nothing grabs at me here,-11,80,20","Reminds me of a plant poking through the soil. It reminds me of new life.,31,400,20","it looks like a stick holding a wig on a cliff,21,300,20","it's interesting but I don't love it,10,160,20","i like the simplicity of the tree and the colors,50,280,20","i like it but it is very neutral,9,20,20","Zachary","Reminds me of a plant poking through the soil. It reminds me of new life.,31,400,20","Trevor","i like the simplicity of the tree and the colors,50,280,20","Dalton","it looks like a stick holding a wig on a cliff,21,300,20","2"
"3478","","image-button-response_instructions","260","1289063","0.0-259.0","A3VICGAIVOTX4U","","0","instructions","","","","","","","","","","","","","","","","","","","","","","","",""
"1106","","image-button-response","261","1290175","0.0-260.0","A3VICGAIVOTX4U","","0","","","","","","","","","","","","","","","","","","","","","","","","",""
