"rt","url","trial_type","trial_index","time_elapsed","internal_node_id","participant_id","stimulus","button_pressed","Name","responses","response","key_press","variableName","fixationTime","condition","trial","photo","subjectRating","subjectResponse","agentsNames","agent_1_Response","agent_2_Response","agent_3_Response","agent_4_Response","agent_5_Response","agent_6_Response","kept_1_name","kept_1_response","kept_2_name","kept_2_response","kept_3_name","kept_3_response","errorCounter"
"22249","external_page_harvard.html","external-html","0","22291","0.0-0.0","A49WTQG4MBT9Z","","","","","","","","","","","","","","","","","","","","","","","","","","",""
"1327","","image-button-response","1","23619","0.0-1.0","A49WTQG4MBT9Z","","0","","","","","","","","","","","","","","","","","","","","","","","","",""
"2208","","image-button-response","2","25831","0.0-2.0-0.0","A49WTQG4MBT9Z","","1","phone","","","","","","","","","","","","","","","","","","","","","","","",""
"10154","","survey-text","3","35987","0.0-3.0-0.0","A49WTQG4MBT9Z","","","","{""Q0"":""A49WTQG4MBT9Z""}","","","","","","","","","","","","","","","","","","","","","","",""
"5105","","image-button-response_instructions","4","41093","0.0-4.0","A49WTQG4MBT9Z","","0","instructions","","","","","","","","","","","","","","","","","","","","","","","",""
"203601","","image-button-response_instructions","5","244695","0.0-5.0","A49WTQG4MBT9Z","img_art/ins/popularity/ins1.png","0","instructions","","","","","","","","","","","","","","","","","","","","","","","",""
"4694","","image-button-response_instructions","6","249390","0.0-6.0","A49WTQG4MBT9Z","img_art/ins/popularity/ins2.png","0","instructions","","","","","","","","","","","","","","","","","","","","","","","",""
"3669","","image-button-response_instructions","7","253059","0.0-7.0","A49WTQG4MBT9Z","img_art/ins/popularity/ins2Extreme.png","0","instructions","","","","","","","","","","","","","","","","","","","","","","","",""
"13251","","image-button-response_instructions","8","266311","0.0-8.0","A49WTQG4MBT9Z","img_art/ins/popularity/ins3KEEPpop.PNG","0","instructions","","","","","","","","","","","","","","","","","","","","","","","",""
"4654","","image-button-response_instructions","9","270966","0.0-9.0","A49WTQG4MBT9Z","img_art/ins/popularity/ins3ANamepop.PNG","0","instructions","","","","","","","","","","","","","","","","","","","","","","","",""
"2709","","image-button-response_instructions","10","273676","0.0-10.0","A49WTQG4MBT9Z","img_art/ins/popularity/ins3ARatingpop.png","0","instructions","","","","","","","","","","","","","","","","","","","","","","","",""
"2707","","image-button-response_instructions","11","276384","0.0-11.0","A49WTQG4MBT9Z","img_art/ins/popularity/ins3ATextpop.png","0","instructions","","","","","","","","","","","","","","","","","","","","","","","",""
"5705","","image-button-response_instructions","12","282089","0.0-12.0","A49WTQG4MBT9Z","img_art/ins/popularity/ins3ALikespop.png","0","instructions","","","","","","","","","","","","","","","","","","","","","","","",""
"8323","","image-button-response_instructions","13","290414","0.0-13.0","A49WTQG4MBT9Z","img_art/ins/popularity/ins3KEEPpop.PNG","0","instructions","","","","","","","","","","","","","","","","","","","","","","","",""
"5705","","image-button-response_instructions","14","296120","0.0-14.0","A49WTQG4MBT9Z","img_art/ins/popularity/ins3_5RED.png","0","instructions","","","","","","","","","","","","","","","","","","","","","","","",""
"2507","","image-button-response_instructions","15","298627","0.0-15.0","A49WTQG4MBT9Z","img_art/ins/popularity/ins3KEEPpop.PNG","0","instructions","","","","","","","","","","","","","","","","","","","","","","","",""
"9307","","image-button-response_instructions","16","307935","0.0-16.0","A49WTQG4MBT9Z","img_art/ins/popularity/ins4KEEPpop.PNG","0","instructions","","","","","","","","","","","","","","","","","","","","","","","",""
"3445","","image-button-response_instructions","17","311381","0.0-17.0","A49WTQG4MBT9Z","img_art/ins/popularity/ins5KEEPpop.PNG","0","instructions","","","","","","","","","","","","","","","","","","","","","","","",""
"1239","","image-button-response_instructions","18","312621","0.0-18.0","A49WTQG4MBT9Z","","0","instructions","","","","","","","","","","","","","","","","","","","","","","","",""
"6763","","survey-text","19","319401","0.0-19.0-0.0","A49WTQG4MBT9Z","","","","{""Q0"":""but""}","","","","","","","","","","","","","","","","","","","","","","",""
"31976","","survey-text","20","351379","0.0-20.0-0.0","A49WTQG4MBT9Z","","","","{""Q0"":""I like the colors and it's very peaceful. I think anyone who enjoys serenity would appreciate it.""}","","","","","","","","","","","","","","","","","","","","","","",""
"4116.29999999702","","image-slider-response","21","355497","0.0-21.0","A49WTQG4MBT9Z","","","","","29","","","","","","","","","","","","","","","","","","","","","",""
"3866","","image-button-response","22","360502","0.0-22.0","A49WTQG4MBT9Z","img_art/ins/1.jpg","3","","","","","","","","","","","","","","","","","","","","","","","","",""
"2845","","image-button-response","23","363350","0.0-23.0","A49WTQG4MBT9Z","img_art/ins/1.jpg","3","","","","","","","","","","","","","","","","","","","","","","","","",""
"2423","","image-button-response","24","365775","0.0-24.0-0.0","A49WTQG4MBT9Z","img_art/ins/1.jpg","5","","","","","","","","","","","","","","","","","","","","","","","","",""
"3005","","image-button-response","25","368782","0.0-25.0-0.0","A49WTQG4MBT9Z","img_art/ins/1.jpg","1","","","","","","","","","","","","","","","","","","","","","","","","",""
"null","","html-keyboard-response","26","370286","0.0-26.0","A49WTQG4MBT9Z","<p style=""font-size: 48px;"">+</p>","","","","","null","allTrialResponses","1500","1","-2","img_art/ins/1.jpg","29","I like the colors and it's very peaceful. I think anyone who enjoys serenity would appreciate it.","Adam,Alex,Ben,Carl,Daniel,Jack","Seems like doodles,-20,20,20","very creative work.,36,40,20","This color reminds me of poo,-46,60,20","very calming artwork,42,80,20","It looks like a murder scene.,-48,100,20","I like the sophisticated brushwork,40,120,20","Carl","very calming artwork,42,80,20","Jack","I like the sophisticated brushwork,40,120,20","Alex","very creative work.,36,40,20","0"
"34735","","survey-text","27","405030","0.0-27.0-0.0","A49WTQG4MBT9Z","","","","{""Q0"":""It looks dark and mysterious but I kind of like it. The bright red colors are alluring if not scary too. ""}","","","","","","","","","","","","","","","","","","","","","","",""
"2906","","image-slider-response","28","407937","0.0-28.0","A49WTQG4MBT9Z","","","","","10","","","","","","","","","","","","","","","","","","","","","",""
"null","","image-button-response","29","412941","0.0-29.0","A49WTQG4MBT9Z","img_art/ins/2.jpg","null","","","","","","","","","","","","","","","","","","","","","","","","",""
"601","","image-button-response","30","413545","0.0-30.0","A49WTQG4MBT9Z","img_art/ins/2.jpg","1","","","","","","","","","","","","","","","","","","","","","","","","",""
"1784","","image-button-response","31","415332","0.0-31.0-0.0","A49WTQG4MBT9Z","img_art/ins/2.jpg","4","","","","","","","","","","","","","","","","","","","","","","","","",""
"536","","image-button-response","32","415870","0.0-32.0-0.0","A49WTQG4MBT9Z","img_art/ins/2.jpg","3","","","","","","","","","","","","","","","","","","","","","","","","",""
"null","","html-keyboard-response","33","417372","0.0-33.0","A49WTQG4MBT9Z","<p style=""font-size: 48px;"">+</p>","","","","","null","allTrialResponses","1500","1","-1","img_art/ins/2.jpg","10","It looks dark and mysterious but I kind of like it. The bright red colors are alluring if not scary too. ","James,Alex,Kyle,Carl,John,Jack","looks too angry,-50,140,20","I like the blocks of color arrangements,30,40,20","Idk, it is just annoying,-32,180,20","I can feel the artist's passion in it,45,80,20","love the texture of paint,48,160,20","I would never be able to compose a sophisticated pallete like this,48,120,20","Alex","I like the blocks of color arrangements,30,40,20","John","love the texture of paint,48,160,20","Carl","I can feel the artist's passion in it,45,80,20","0"
"29806","","survey-text","34","447182","0.0-34.0-0.0","A49WTQG4MBT9Z","","","","{""Q0"":""The blue colors are really cool and I like the style of the artwork. This is a great painting and I think anyone with style will like it.""}","","","","","","","","","","","","","","","","","","","","","","",""
"3890.2999999970198","","image-slider-response","35","451074","0.0-35.0","A49WTQG4MBT9Z","","","","","40","","","","","","","","","","","","","","","","","","","","","",""
"1890","","image-button-response","36","456077","0.0-36.0","A49WTQG4MBT9Z","img_art/ins/3.jpg","4","","","","","","","","","","","","","","","","","","","","","","","","",""
"930","","image-button-response","37","457010","0.0-37.0","A49WTQG4MBT9Z","img_art/ins/3.jpg","4","","","","","","","","","","","","","","","","","","","","","","","","",""
"944","","image-button-response","38","457956","0.0-38.0-0.0","A49WTQG4MBT9Z","img_art/ins/3.jpg","1","","","","","","","","","","","","","","","","","","","","","","","","",""
"510","","image-button-response","39","458468","0.0-39.0-0.0","A49WTQG4MBT9Z","img_art/ins/3.jpg","0","","","","","","","","","","","","","","","","","","","","","","","","",""
"null","","html-keyboard-response","40","459969","0.0-40.0","A49WTQG4MBT9Z","<p style=""font-size: 48px;"">+</p>","","","","","null","allTrialResponses","1500","1","0","img_art/ins/3.jpg","40","The blue colors are really cool and I like the style of the artwork. This is a great painting and I think anyone with style will like it.","Mike,Alex,Ron,Carl,John,Sam","enjoy the different shades of blue,22,200,20","calming blue is very nice,36,40,20","It looks depressing,-26,220,20","It's an alright work,15,80,20","I like the overlapping of brushes,41,160,20","I can feel a rainy day from this painting,18,240,20","John","I like the overlapping of brushes,41,160,20","Alex","calming blue is very nice,36,40,20","Mike","enjoy the different shades of blue,22,200,20","0"
"6380","","image-button-response_instructions","41","466354","0.0-41.0","A49WTQG4MBT9Z","","0","instructions","","","","","","","","","","","","","","","","","","","","","","","",""
"10887","","survey-likert","42","477242","0.0-42.0-0.0","A49WTQG4MBT9Z","","","","{""Q0"":"""",""Q1"":0,""Q2"":1}","","","","","","","","","","","","","","","","","","","","","","",""
"3935","","survey-text","43","481184","0.0-43.0-0.0","A49WTQG4MBT9Z","","","","{""Q0"":""rock""}","","","","","","","","","","","","","","","","","","","","","","",""
"17485","","survey-text","44","498671","0.0-44.0-0.0","A49WTQG4MBT9Z","","","","{""Q0"":""It has great symmetry and the colors are awesome to look at.""}","","","","","","","","","","","","","","","","","","","","","","",""
"2938.60000000149","","image-slider-response","45","501611","0.0-45.0","A49WTQG4MBT9Z","","","","","41","","","","","","","","","","","","","","","","","","","","","",""
"4766","","image-button-response","46","506641","0.0-46.0","A49WTQG4MBT9Z","img_art/30.jpg","5","","","","","","","","","","","","","","","","","","","","","","","","",""
"302","","image-button-response","47","506945","0.0-47.0","A49WTQG4MBT9Z","img_art/30.jpg","5","","","","","","","","","","","","","","","","","","","","","","","","",""
"2354","","image-button-response","48","509301","0.0-48.0-0.0","A49WTQG4MBT9Z","img_art/30.jpg","2","","","","","","","","","","","","","","","","","","","","","","","","",""
"1281","","image-button-response","49","510583","0.0-49.0-0.0","A49WTQG4MBT9Z","img_art/30.jpg","3","","","","","","","","","","","","","","","","","","","","","","","","",""
"null","","html-keyboard-response","50","512085","0.0-50.0","A49WTQG4MBT9Z","<p style=""font-size: 48px;"">+</p>","","","","","null","allTrialResponses","1500","1","1","img_art/30.jpg","41","It has great symmetry and the colors are awesome to look at.","Chase,Elijah,Dustin,Isaiah,John,David","Too dark and ugly with all the black smears,-20,120,20","Paint scribbled on canvas,-25,80,20","Soothing color palette, but doesn't look like anything. All I see are random brush strokes.,1,20,20","The painting doesn't elicit any response from me.,0,300,20","ugly nasty colors,-10,120,20","I like how the strokes invokes a sense of fluidity.,20,340,20","David","I like how the strokes invokes a sense of fluidity.,20,340,20","Dustin","Soothing color palette, but doesn't look like anything. All I see are random brush strokes.,1,20,20","Isaiah","The painting doesn't elicit any response from me.,0,300,20","0"
"26288","","survey-text","51","538383","0.0-51.0-0.0","A49WTQG4MBT9Z","","","","{""Q0"":""This has a naturesque look to it that I like. The colors are very nice and so serene.""}","","","","","","","","","","","","","","","","","","","","","","",""
"3075.2999999970198","","image-slider-response","52","541459","0.0-52.0","A49WTQG4MBT9Z","","","","","40","","","","","","","","","","","","","","","","","","","","","",""
"2872","","image-button-response","53","546464","0.0-53.0","A49WTQG4MBT9Z","img_art/24.jpg","5","","","","","","","","","","","","","","","","","","","","","","","","",""
"599","","image-button-response","54","547067","0.0-54.0","A49WTQG4MBT9Z","img_art/24.jpg","4","","","","","","","","","","","","","","","","","","","","","","","","",""
"671","","image-button-response","55","547739","0.0-55.0-0.0","A49WTQG4MBT9Z","img_art/24.jpg","5","","","","","","","","","","","","","","","","","","","","","","","","",""
"2201","","image-button-response","56","549941","0.0-56.0-0.0","A49WTQG4MBT9Z","img_art/24.jpg","0","","","","","","","","","","","","","","","","","","","","","","","","",""
"null","","html-keyboard-response","57","551443","0.0-57.0","A49WTQG4MBT9Z","<p style=""font-size: 48px;"">+</p>","","","","","null","allTrialResponses","1500","1","2","img_art/24.jpg","40","This has a naturesque look to it that I like. The colors are very nice and so serene.","Garrett,Connor,Dustin,Isaiah,Caleb,David","I like the way the colors are put together, and I can imagine this picture in real life.,40,180,20","Too literal, not abstract,-29,240,20","I see a waterfall, which is relaxing and peaceful!  I like the blue coloring,30,20,20","I feel relaxed and happy, looking at the stream, but it feels hollow, like something is fake.,5,300,20","This is gorgeous. Strong, saturated colors and clear meaning.,50,40,20","Invokes a strong sense of nature, since the piece can interpreted as a stream or an abstracted bird.,40,340,20","Caleb","This is gorgeous. Strong, saturated colors and clear meaning.,50,40,20","David","Invokes a strong sense of nature, since the piece can interpreted as a stream or an abstracted bird.,40,340,20","Garrett","I like the way the colors are put together, and I can imagine this picture in real life.,40,180,20","0"
"31700","","survey-text","58","583149","0.0-58.0-0.0","A49WTQG4MBT9Z","","","","{""Q0"":""This is kind of dull and I'm not getting anything from it. The yellow is too much and I can't make out what the artist is saying here.""}","","","","","","","","","","","","","","","","","","","","","","",""
"2410.9000000059605","","image-slider-response","59","585562","0.0-59.0","A49WTQG4MBT9Z","","","","","-22","","","","","","","","","","","","","","","","","","","","","",""
"4803","","image-button-response","60","590565","0.0-60.0","A49WTQG4MBT9Z","img_art/5.jpg","3","","","","","","","","","","","","","","","","","","","","","","","","",""
"561","","image-button-response","61","591128","0.0-61.0","A49WTQG4MBT9Z","img_art/5.jpg","3","","","","","","","","","","","","","","","","","","","","","","","","",""
"2722","","image-button-response","62","593852","0.0-62.0-0.0","A49WTQG4MBT9Z","img_art/5.jpg","0","","","","","","","","","","","","","","","","","","","","","","","","",""
"2738","","image-button-response","63","596591","0.0-63.0-0.0","A49WTQG4MBT9Z","img_art/5.jpg","0","","","","","","","","","","","","","","","","","","","","","","","","",""
"1313","","image-button-response","64","601288","0.0-63.1-0.1","A49WTQG4MBT9Z","img_art/5.jpg","4","","","","","","","","","","","","","","","","","","","","","","","","",""
"null","","html-keyboard-response","65","601790","0.0-64.0","A49WTQG4MBT9Z","<p style=""font-size: 48px;"">+</p>","","","","","null","allTrialResponses","500","1","3","img_art/5.jpg","-22","This is kind of dull and I'm not getting anything from it. The yellow is too much and I can't make out what the artist is saying here.","Garrett,Grant,Mark,Christian,Caleb,David","I don't know what it's supposed to be and it looks ugly the way the colors are on the yellow cube.,-50,180,20","This elicits no reaction in me.,0,200,20","Perfume bottle, reminds of fancy nights out.,11,80,20","sorry not my style,-37,140,20","Boring and appears low effort,-41,40,20","I like the simplicity of the design, but I can't tell what the image is trying to depict.,10,340,20","Christian","sorry not my style,-37,140,20","Garrett","I don't know what it's supposed to be and it looks ugly the way the colors are on the yellow cube.,-50,180,20","Caleb","Boring and appears low effort,-41,40,20","2"
"26640","","survey-text","66","628446","0.0-65.0-0.0","A49WTQG4MBT9Z","","","","{""Q0"":""Very dark and terrifying which is my aesthetic. However as a painting I don't think it gels well. It's too dark and very creepy.""}","","","","","","","","","","","","","","","","","","","","","","",""
"3282.2999999970198","","image-slider-response","67","631730","0.0-66.0","A49WTQG4MBT9Z","","","","","-13","","","","","","","","","","","","","","","","","","","","","",""
"2729","","image-button-response","68","636734","0.0-67.0","A49WTQG4MBT9Z","img_art/16.jpg","4","","","","","","","","","","","","","","","","","","","","","","","","",""
"578","","image-button-response","69","637314","0.0-68.0","A49WTQG4MBT9Z","img_art/16.jpg","3","","","","","","","","","","","","","","","","","","","","","","","","",""
"1931","","image-button-response","70","639246","0.0-69.0-0.0","A49WTQG4MBT9Z","img_art/16.jpg","4","","","","","","","","","","","","","","","","","","","","","","","","",""
"1904","","image-button-response","71","641152","0.0-70.0-0.0","A49WTQG4MBT9Z","img_art/16.jpg","2","","","","","","","","","","","","","","","","","","","","","","","","",""
"null","","html-keyboard-response","72","642155","0.0-71.0","A49WTQG4MBT9Z","<p style=""font-size: 48px;"">+</p>","","","","","null","allTrialResponses","1000","1","4","img_art/16.jpg","-13","Very dark and terrifying which is my aesthetic. However as a painting I don't think it gels well. It's too dark and very creepy.","Garrett,Paul,Ian,Christian,Caleb,Ethan","I think this picture is weird and the colors are very boring.,-50,180,20","Don't know if there's a meaning but I like how seemingly random objects were stuck together and called art,20,300,20","This looks like it was made by an art student filled with angst,-30,260,20","don't know how to feel, I mean I respect it but I honestly don't know about this,-12,140,20","A strange collage made by a child. Do not like the colored face of the bear.,-29,40,20","This is a neat piece. Sort of shocking. I think it's too monochromatic though.,19,120,20","Christian","don't know how to feel, I mean I respect it but I honestly don't know about this,-12,140,20","Caleb","A strange collage made by a child. Do not like the colored face of the bear.,-29,40,20","Ian","This looks like it was made by an art student filled with angst,-30,260,20","2"
"28297","","survey-text","73","670460","0.0-72.0-0.0","A49WTQG4MBT9Z","","","","{""Q0"":""It's trippy and the color palette is clever. There's not a ton of colors used but the limited amount makes the piece shine. ""}","","","","","","","","","","","","","","","","","","","","","","",""
"3442.5","","image-slider-response","74","673904","0.0-73.0","A49WTQG4MBT9Z","","","","","9","","","","","","","","","","","","","","","","","","","","","",""
"3499","","image-button-response","75","678908","0.0-74.0","A49WTQG4MBT9Z","img_art/10.jpg","0","","","","","","","","","","","","","","","","","","","","","","","","",""
"1114","","image-button-response","76","680026","0.0-75.0","A49WTQG4MBT9Z","img_art/10.jpg","0","","","","","","","","","","","","","","","","","","","","","","","","",""
"4092","","image-button-response","77","684120","0.0-76.0-0.0","A49WTQG4MBT9Z","img_art/10.jpg","3","","","","","","","","","","","","","","","","","","","","","","","","",""
"1679","","image-button-response","78","685802","0.0-77.0-0.0","A49WTQG4MBT9Z","img_art/10.jpg","5","","","","","","","","","","","","","","","","","","","","","","","","",""
"null","","html-keyboard-response","79","687304","0.0-78.0","A49WTQG4MBT9Z","<p style=""font-size: 48px;"">+</p>","","","","","null","allTrialResponses","1500","1","5","img_art/10.jpg","9","It's trippy and the color palette is clever. There's not a ton of colors used but the limited amount makes the piece shine. ","Mason,Cameron,Ian,Christian,Caleb,Travis","It's art. (for some),7,100,20","artistic cello piece?,30,60,20","It reminds me of how my dog has to run all over the place just to poop in one specific location.,-20,260,20","gives a sense of a roller coaster unit splashed in water. it's not but i love it nevertheless,44,140,20","This is a scribble of a mad man. Appears low effort.,-33,40,20","I liked it...it looked somewhat like a guitar.,32,260,20","Mason","It's art. (for some),7,100,20","Christian","gives a sense of a roller coaster unit splashed in water. it's not but i love it nevertheless,44,140,20","Travis","I liked it...it looked somewhat like a guitar.,32,260,20","2"
"3494","","survey-text","80","690809","0.0-79.0-0.0","A49WTQG4MBT9Z","","","","{""Q0"":""sky""}","","","","","","","","","","","","","","","","","","","","","","",""
"31289","","survey-text","81","722100","0.0-80.0-0.0","A49WTQG4MBT9Z","","","","{""Q0"":""Very jumbled and I don't like the green scribbles on the outside. I can't tell what's going on inside but it looks like a volcano of some sort. Not really my style but I like the creativity.""}","","","","","","","","","","","","","","","","","","","","","","",""
"3289.8000000044703","","image-slider-response","82","725391","0.0-81.0","A49WTQG4MBT9Z","","","","","-13","","","","","","","","","","","","","","","","","","","","","",""
"4789","","image-button-response","83","730393","0.0-82.0","A49WTQG4MBT9Z","img_art/9.jpg","2","","","","","","","","","","","","","","","","","","","","","","","","",""
"531","","image-button-response","84","730927","0.0-83.0","A49WTQG4MBT9Z","img_art/9.jpg","2","","","","","","","","","","","","","","","","","","","","","","","","",""
"758","","image-button-response","85","731687","0.0-84.0-0.0","A49WTQG4MBT9Z","img_art/9.jpg","4","","","","","","","","","","","","","","","","","","","","","","","","",""
"2642","","image-button-response","86","734332","0.0-85.0-0.0","A49WTQG4MBT9Z","img_art/9.jpg","3","","","","","","","","","","","","","","","","","","","","","","","","",""
"null","","html-keyboard-response","87","735333","0.0-86.0","A49WTQG4MBT9Z","<p style=""font-size: 48px;"">+</p>","","","","","null","allTrialResponses","1000","1","6","img_art/9.jpg","-13","Very jumbled and I don't like the green scribbles on the outside. I can't tell what's going on inside but it looks like a volcano of some sort. Not really my style but I like the creativity.","Mason,Daniel,Marcus,Christian,Blake,Travis","Abstract titanic scene. It's nice though. I like how it makes me feel.,28,100,20","A troubled painter was influenced by anger and mad at the woman in the middle, color not bad,-32,320,20","This painting feels too jumbled for me to like it.,-12,60,20","love the color palette, but I'm gonna be honest, I don't really understand it,14,140,20","looks like a woman in bed and its ok,8,280,20","Stuipid looking...dumb,-48,260,20","Marcus","This painting feels too jumbled for me to like it.,-12,60,20","Blake","looks like a woman in bed and its ok,8,280,20","Christian","love the color palette, but I'm gonna be honest, I don't really understand it,14,140,20","2"
"29557","","survey-text","88","764897","0.0-87.0-0.0","A49WTQG4MBT9Z","","","","{""Q0"":""This doesn't look like much. I'm getting blood stains and a murder scene here. I don't care for it at all unfortunately and it's way too simple.""}","","","","","","","","","","","","","","","","","","","","","","",""
"3357","","image-slider-response","89","768255","0.0-88.0","A49WTQG4MBT9Z","","","","","-41","","","","","","","","","","","","","","","","","","","","","",""
"4420","","image-button-response","90","773259","0.0-89.0","A49WTQG4MBT9Z","img_art/3.jpg","1","","","","","","","","","","","","","","","","","","","","","","","","",""
"1938","","image-button-response","91","775202","0.0-90.0","A49WTQG4MBT9Z","img_art/3.jpg","1","","","","","","","","","","","","","","","","","","","","","","","","",""
"1222","","image-button-response","92","776425","0.0-91.0-0.0","A49WTQG4MBT9Z","img_art/3.jpg","4","","","","","","","","","","","","","","","","","","","","","","","","",""
"2186","","image-button-response","93","778614","0.0-92.0-0.0","A49WTQG4MBT9Z","img_art/3.jpg","3","","","","","","","","","","","","","","","","","","","","","","","","",""
"null","","html-keyboard-response","94","779116","0.0-93.0","A49WTQG4MBT9Z","<p style=""font-size: 48px;"">+</p>","","","","","null","allTrialResponses","500","1","7","img_art/3.jpg","-41","This doesn't look like much. I'm getting blood stains and a murder scene here. I don't care for it at all unfortunately and it's way too simple.","Jonathan,Brendan,Marcus,Christian,Blake,Austin","Something I'd paint when I'm mad. I feel that,20,140,20","i really cant get it,-44,340,20","Like the colors and energy of this work.,10,60,20","sorry do not understand,-26,140,20","painted by a 2 year old. cold and boring,-30,280,20","It doesn't invoke any excitement,-21,240,20","Brendan","i really cant get it,-44,340,20","Blake","painted by a 2 year old. cold and boring,-30,280,20","Christian","sorry do not understand,-26,140,20","2"
"31759","","survey-text","95","810882","0.0-94.0-0.0","A49WTQG4MBT9Z","","","","{""Q0"":""The blending of colors here is really intriguing. Love how all the colors are being utilized and the air brushing is stylish and different. I don't know what's happening but that's okay.""}","","","","","","","","","","","","","","","","","","","","","","",""
"2825.8000000044703","","image-slider-response","96","813709","0.0-95.0","A49WTQG4MBT9Z","","","","","15","","","","","","","","","","","","","","","","","","","","","",""
"3851","","image-button-response","97","818712","0.0-96.0","A49WTQG4MBT9Z","img_art/22.jpg","3","","","","","","","","","","","","","","","","","","","","","","","","",""
"829","","image-button-response","98","819542","0.0-97.0","A49WTQG4MBT9Z","img_art/22.jpg","3","","","","","","","","","","","","","","","","","","","","","","","","",""
"1345","","image-button-response","99","820888","0.0-98.0-0.0","A49WTQG4MBT9Z","img_art/22.jpg","5","","","","","","","","","","","","","","","","","","","","","","","","",""
"1077","","image-button-response","100","821968","0.0-99.0-0.0","A49WTQG4MBT9Z","img_art/22.jpg","4","","","","","","","","","","","","","","","","","","","","","","","","",""
"null","","html-keyboard-response","101","822971","0.0-100.0","A49WTQG4MBT9Z","<p style=""font-size: 48px;"">+</p>","","","","","null","allTrialResponses","1000","1","8","img_art/22.jpg","15","The blending of colors here is really intriguing. Love how all the colors are being utilized and the air brushing is stylish and different. I don't know what's happening but that's okay.","Aaron,Brendan,Logan,Christian,Blake,Matthew","Boring, typical abstract art,-30,20,20","its just ugly for me,-50,340,20","so boring. Wow you made some circles some squares very nice,-40,360,20","colorful water (in front of castle?),17,140,20","a lost balloon in outer space,12,280,20","Another servicable piece of abstract art?,20,120,20","Christian","colorful water (in front of castle?),17,140,20","Matthew","Another servicable piece of abstract art?,20,120,20","Blake","a lost balloon in outer space,12,280,20","2"
"38602","","survey-text","102","861581","0.0-101.0-0.0","A49WTQG4MBT9Z","","","","{""Q0"":""I can see what's going on but I also can't. I can't tell if it's a picture of a house, a barn or something else. I like the darker tones used but I'm not a fan of the overall concept.""}","","","","","","","","","","","","","","","","","","","","","","",""
"2634.4000000059605","","image-slider-response","103","864217","0.0-102.0","A49WTQG4MBT9Z","","","","","-10","","","","","","","","","","","","","","","","","","","","","",""
"3521","","image-button-response","104","869221","0.0-103.0","A49WTQG4MBT9Z","img_art/20.jpg","1","","","","","","","","","","","","","","","","","","","","","","","","",""
"616","","image-button-response","105","869841","0.0-104.0","A49WTQG4MBT9Z","img_art/20.jpg","1","","","","","","","","","","","","","","","","","","","","","","","","",""
"510","","image-button-response","106","870354","0.0-105.0-0.0","A49WTQG4MBT9Z","img_art/20.jpg","2","","","","","","","","","","","","","","","","","","","","","","","","",""
"1359","","image-button-response","107","871716","0.0-106.0-0.0","A49WTQG4MBT9Z","img_art/20.jpg","4","","","","","","","","","","","","","","","","","","","","","","","","",""
"null","","html-keyboard-response","108","873218","0.0-107.0","A49WTQG4MBT9Z","<p style=""font-size: 48px;"">+</p>","","","","","null","allTrialResponses","1500","1","9","img_art/20.jpg","-10","I can see what's going on but I also can't. I can't tell if it's a picture of a house, a barn or something else. I like the darker tones used but I'm not a fan of the overall concept.","Dakota,Carlos,Devon,Christian,Blake,Matthew","very fluid and mysterious,37,280,20","It feels like it ""almost"" several things.,-10,80,20","i can feel the intensity in this,11,400,20","reminds me of georgia o'keeffe's skull,22,140,20","reminds me of a dead animal in the west. ugly,-25,280,20","Painting within a painting, abstract.,32,120,20","Carlos","It feels like it ""almost"" several things.,-10,80,20","Devon","i can feel the intensity in this,11,400,20","Blake","reminds me of a dead animal in the west. ugly,-25,280,20","2"
"31253","","survey-text","109","904479","0.0-108.0-0.0","A49WTQG4MBT9Z","","","","{""Q0"":""I can feel the city come to life but I hate the colors used here. They're so muddied and uninspiring. I would've liked different colors and then it could've popped.""}","","","","","","","","","","","","","","","","","","","","","","",""
"2730.6999999955297","","image-slider-response","110","907211","0.0-109.0","A49WTQG4MBT9Z","","","","","-17","","","","","","","","","","","","","","","","","","","","","",""
"4612","","image-button-response","111","912216","0.0-110.0","A49WTQG4MBT9Z","img_art/11.jpg","5","","","","","","","","","","","","","","","","","","","","","","","","",""
"1120","","image-button-response","112","913340","0.0-111.0","A49WTQG4MBT9Z","img_art/11.jpg","5","","","","","","","","","","","","","","","","","","","","","","","","",""
"1480","","image-button-response","113","914822","0.0-112.0-0.0","A49WTQG4MBT9Z","img_art/11.jpg","0","","","","","","","","","","","","","","","","","","","","","","","","",""
"1648","","image-button-response","114","916472","0.0-113.0-0.0","A49WTQG4MBT9Z","img_art/11.jpg","3","","","","","","","","","","","","","","","","","","","","","","","","",""
"null","","html-keyboard-response","115","917474","0.0-114.0","A49WTQG4MBT9Z","<p style=""font-size: 48px;"">+</p>","","","","","null","allTrialResponses","1000","1","10","img_art/11.jpg","-17","I can feel the city come to life but I hate the colors used here. They're so muddied and uninspiring. I would've liked different colors and then it could've popped.","Adam,Carlos,Devon,Brian,Blake,Peter","Kind of reminds me of DNA.,9,40,20","The colors are lovely. February getting ready to yield to March.,41,80,20","a beautiful piece of art,33,400,20","this looks like a beautiful rainy day in a hellish urban mountain city,14,380,20","a train going around the country,14,280,20","Smoggy, oily, industrial. Don't like,1,320,20","Peter","Smoggy, oily, industrial. Don't like,1,320,20","Adam","Kind of reminds me of DNA.,9,40,20","Brian","this looks like a beautiful rainy day in a hellish urban mountain city,14,380,20","2"
"3334","","survey-text","116","920821","0.0-115.0-0.0","A49WTQG4MBT9Z","","","","{""Q0"":""our""}","","","","","","","","","","","","","","","","","","","","","","",""
"39919","","survey-text","117","960741","0.0-116.0-0.0","A49WTQG4MBT9Z","","","","{""Q0"":""I really enjoy this piece. Love how the colors invoke strong crushing emotions. It doesn't even look like a painting and although I don't get what it's trying to say I respect the effort.""}","","","","","","","","","","","","","","","","","","","","","","",""
"3531.10000000149","","image-slider-response","118","964274","0.0-117.0","A49WTQG4MBT9Z","","","","","20","","","","","","","","","","","","","","","","","","","","","",""
"null","","image-button-response","119","969278","0.0-118.0","A49WTQG4MBT9Z","img_art/13.jpg","null","","","","","","","","","","","","","","","","","","","","","","","","",""
"760","","image-button-response","120","970042","0.0-119.0","A49WTQG4MBT9Z","img_art/13.jpg","0","","","","","","","","","","","","","","","","","","","","","","","","",""
"1208","","image-button-response","121","971252","0.0-120.0-0.0","A49WTQG4MBT9Z","img_art/13.jpg","2","","","","","","","","","","","","","","","","","","","","","","","","",""
"2272","","image-button-response","122","973526","0.0-121.0-0.0","A49WTQG4MBT9Z","img_art/13.jpg","4","","","","","","","","","","","","","","","","","","","","","","","","",""
"null","","html-keyboard-response","123","974528","0.0-122.0","A49WTQG4MBT9Z","<p style=""font-size: 48px;"">+</p>","","","","","null","allTrialResponses","1000","1","11","img_art/13.jpg","20","I really enjoy this piece. Love how the colors invoke strong crushing emotions. It doesn't even look like a painting and although I don't get what it's trying to say I respect the effort.","Adam,Christopher,Charles,Brian,Victor,Peter","Generic mix of colors. Cool and messy.,10,40,20","this is an appealing mix of textures to me and the color scheme is harmonious,36,160,20","It's like a pattern on a bus seat,10,100,20","I don't really care for splatter paintings; the spectral colors underneath are nice.,-18,380,20","Great color balance. I like the splatter, and how the vertical lines go from sharper to more blended.,31,340,20","Reminds me of the aquarium,4,320,20","Adam","Generic mix of colors. Cool and messy.,10,40,20","Charles","It's like a pattern on a bus seat,10,100,20","Victor","Great color balance. I like the splatter, and how the vertical lines go from sharper to more blended.,31,340,20","2"
"29017","","survey-text","124","1003564","0.0-123.0-0.0","A49WTQG4MBT9Z","","","","{""Q0"":""It looks like my niece painted it which is alright I guess. Very dull and the colors are dreary but maybe some will like the simplicity.""}","","","","","","","","","","","","","","","","","","","","","","",""
"2152.3000000044703","","image-slider-response","125","1005717","0.0-124.0","A49WTQG4MBT9Z","","","","","-11","","","","","","","","","","","","","","","","","","","","","",""
"4356","","image-button-response","126","1010721","0.0-125.0","A49WTQG4MBT9Z","img_art/27.jpg","1","","","","","","","","","","","","","","","","","","","","","","","","",""
"1582","","image-button-response","127","1012304","0.0-126.0","A49WTQG4MBT9Z","img_art/27.jpg","0","","","","","","","","","","","","","","","","","","","","","","","","",""
"382","","image-button-response","128","1012688","0.0-127.0-0.0","A49WTQG4MBT9Z","img_art/27.jpg","1","","","","","","","","","","","","","","","","","","","","","","","","",""
"502","","image-button-response","129","1013191","0.0-128.0-0.0","A49WTQG4MBT9Z","img_art/27.jpg","2","","","","","","","","","","","","","","","","","","","","","","","","",""
"null","","html-keyboard-response","130","1013693","0.0-129.0","A49WTQG4MBT9Z","<p style=""font-size: 48px;"">+</p>","","","","","null","allTrialResponses","500","1","12","img_art/27.jpg","-11","It looks like my niece painted it which is alright I guess. Very dull and the colors are dreary but maybe some will like the simplicity.","Adam,Stephen,Charles,Jake,Victor,Benjamin","Warn colors are pretty, but too blotchy for me.,3,40,20","This one does nothing for me.,2,140,20","Nothing stands out,-23,100,20","This looks like a poor copy of Cy Twombly's style.,-3,360,20","doesn't look like any effort was put into this piece.,-19,340,20","I like the colors.,6,260,20","Adam","Warn colors are pretty, but too blotchy for me.,3,40,20","Stephen","This one does nothing for me.,2,140,20","Charles","Nothing stands out,-23,100,20","2"
"20226","","survey-text","131","1033928","0.0-130.0-0.0","A49WTQG4MBT9Z","","","","{""Q0"":""I don't get this at all. Looks like one big pretzel spilling out of a container. I don't see much of a story.""}","","","","","","","","","","","","","","","","","","","","","","",""
"3042.7000000029802","","image-slider-response","132","1036972","0.0-131.0","A49WTQG4MBT9Z","","","","","-21","","","","","","","","","","","","","","","","","","","","","",""
"null","","image-button-response","133","1041975","0.0-132.0","A49WTQG4MBT9Z","img_art/4.jpg","null","","","","","","","","","","","","","","","","","","","","","","","","",""
"313","","image-button-response","134","1042292","0.0-133.0","A49WTQG4MBT9Z","img_art/4.jpg","0","","","","","","","","","","","","","","","","","","","","","","","","",""
"961","","image-button-response","135","1043254","0.0-134.0-0.0","A49WTQG4MBT9Z","img_art/4.jpg","3","","","","","","","","","","","","","","","","","","","","","","","","",""
"718","","image-button-response","136","1043974","0.0-135.0-0.0","A49WTQG4MBT9Z","img_art/4.jpg","1","","","","","","","","","","","","","","","","","","","","","","","","",""
"null","","html-keyboard-response","137","1044476","0.0-136.0","A49WTQG4MBT9Z","<p style=""font-size: 48px;"">+</p>","","","","","null","allTrialResponses","500","1","13","img_art/4.jpg","-21","I don't get this at all. Looks like one big pretzel spilling out of a container. I don't see much of a story.","Adam,Stephen,Charles,Bryan,Cody,Jose","McDonald's French Fries.,-10,40,20","Just doesn't look nice.,-40,140,20","It's ok, theres nothing that draws me away from it I guess,0,100,20","McDonald's golden arches on steroids.,-20,400,20","Interesting but maybe a little creepy,0,180,20","I like how many different ways there are to interpret this.,27,200,20","Adam","McDonald's French Fries.,-10,40,20","Bryan","McDonald's golden arches on steroids.,-20,400,20","Stephen","Just doesn't look nice.,-40,140,20","2"
"28696","","survey-text","138","1073194","0.0-137.0-0.0","A49WTQG4MBT9Z","","","","{""Q0"":""This is isolating but it's not too bad. It's extremely low brow and basic but asks more questions than anything. Not a fan though sorry.""}","","","","","","","","","","","","","","","","","","","","","","",""
"3372.39999999851","","image-slider-response","139","1076568","0.0-138.0","A49WTQG4MBT9Z","","","","","-14","","","","","","","","","","","","","","","","","","","","","",""
"null","","image-button-response","140","1081572","0.0-139.0","A49WTQG4MBT9Z","img_art/6.jpg","null","","","","","","","","","","","","","","","","","","","","","","","","",""
"239","","image-button-response","141","1081814","0.0-140.0","A49WTQG4MBT9Z","img_art/6.jpg","1","","","","","","","","","","","","","","","","","","","","","","","","",""
"1257","","image-button-response","142","1083072","0.0-141.0-0.0","A49WTQG4MBT9Z","img_art/6.jpg","4","","","","","","","","","","","","","","","","","","","","","","","","",""
"1703","","image-button-response","143","1084778","0.0-142.0-0.0","A49WTQG4MBT9Z","img_art/6.jpg","0","","","","","","","","","","","","","","","","","","","","","","","","",""
"null","","html-keyboard-response","144","1086279","0.0-143.0","A49WTQG4MBT9Z","<p style=""font-size: 48px;"">+</p>","","","","","null","allTrialResponses","1500","1","14","img_art/6.jpg","-14","This is isolating but it's not too bad. It's extremely low brow and basic but asks more questions than anything. Not a fan though sorry.","Adam,Stephen,Jordan,Bryan,Anthony,Tanner","Simple desert scene.,5,40,20","Good painting but too simple to care about it for very long.,-15,140,20","This picture is weird,-6,160,20","Growth in the desert?  Don't care for it very much.,-26,400,20","I am neutral towards this piece.,0,200,20","loneliness, fragile, forever alone, a girl who's been there for eternity, only think tracking time is the length of her hair,9,180,20","Stephen","Good painting but too simple to care about it for very long.,-15,140,20","Anthony","I am neutral towards this piece.,0,200,20","Adam","Simple desert scene.,5,40,20","2"
"40671","","survey-text","145","1126973","0.0-144.0-0.0","A49WTQG4MBT9Z","","","","{""Q0"":""This isn't my prefered style. I don't like the dark colors and how they're used. I can't make out what the piece is trying to be. It doesn't do anything for me.""}","","","","","","","","","","","","","","","","","","","","","","",""
"3714.7000000029802","","image-slider-response","146","1130689","0.0-145.0","A49WTQG4MBT9Z","","","","","-34","","","","","","","","","","","","","","","","","","","","","",""
"4203","","image-button-response","147","1135693","0.0-146.0","A49WTQG4MBT9Z","img_art/15.jpg","5","","","","","","","","","","","","","","","","","","","","","","","","",""
"457","","image-button-response","148","1136153","0.0-147.0","A49WTQG4MBT9Z","img_art/15.jpg","5","","","","","","","","","","","","","","","","","","","","","","","","",""
"631","","image-button-response","149","1136786","0.0-148.0-0.0","A49WTQG4MBT9Z","img_art/15.jpg","3","","","","","","","","","","","","","","","","","","","","","","","","",""
"2002","","image-button-response","150","1138790","0.0-149.0-0.0","A49WTQG4MBT9Z","img_art/15.jpg","2","","","","","","","","","","","","","","","","","","","","","","","","",""
"null","","html-keyboard-response","151","1139292","0.0-150.0","A49WTQG4MBT9Z","<p style=""font-size: 48px;"">+</p>","","","","","null","allTrialResponses","500","1","15","img_art/15.jpg","-34","This isn't my prefered style. I don't like the dark colors and how they're used. I can't make out what the piece is trying to be. It doesn't do anything for me.","Adam,Stephen,Richard,Alexis,Anthony,Shane","Eyes hunt for the blue in the black.,5,40,20","I like how the black and blue clash.,14,140,20","dark and provoking,-50,340,20","it is dark and gloomy,-9,140,20","This piece isn't particularly attractive, but it's not ugly either.,1,200,20","Too intense with the black dotting,-22,80,20","Shane","Too intense with the black dotting,-22,80,20","Alexis","it is dark and gloomy,-9,140,20","Richard","dark and provoking,-50,340,20","2"
"3830","","survey-text","152","1143155","0.0-151.0-0.0","A49WTQG4MBT9Z","","","","{""Q0"":""course""}","","","","","","","","","","","","","","","","","","","","","","",""
"32933","","survey-text","153","1176090","0.0-152.0-0.0","A49WTQG4MBT9Z","","","","{""Q0"":""Great looking piece and good mix of intense colors. Love the shadowy tones and brighter colors mixed in at the edges. It looks like a chaotic mess and I like it.""}","","","","","","","","","","","","","","","","","","","","","","",""
"2402.39999999851","","image-slider-response","154","1178494","0.0-153.0","A49WTQG4MBT9Z","","","","","29","","","","","","","","","","","","","","","","","","","","","",""
"4036","","image-button-response","155","1183498","0.0-154.0","A49WTQG4MBT9Z","img_art/29.jpg","3","","","","","","","","","","","","","","","","","","","","","","","","",""
"713","","image-button-response","156","1184215","0.0-155.0","A49WTQG4MBT9Z","img_art/29.jpg","3","","","","","","","","","","","","","","","","","","","","","","","","",""
"990","","image-button-response","157","1185207","0.0-156.0-0.0","A49WTQG4MBT9Z","img_art/29.jpg","2","","","","","","","","","","","","","","","","","","","","","","","","",""
"1696","","image-button-response","158","1186905","0.0-157.0-0.0","A49WTQG4MBT9Z","img_art/29.jpg","4","","","","","","","","","","","","","","","","","","","","","","","","",""
"null","","html-keyboard-response","159","1187407","0.0-158.0","A49WTQG4MBT9Z","<p style=""font-size: 48px;"">+</p>","","","","","null","allTrialResponses","500","1","16","img_art/29.jpg","29","Great looking piece and good mix of intense colors. Love the shadowy tones and brighter colors mixed in at the edges. It looks like a chaotic mess and I like it.","Spencer,Tyler,Richard,Alexis,Timothy,Shane","Scrawled graffiti, with a red x as saying it was a mistake,-40,120,20","Well if the artist themself is crossing it out, why should I pay any mind?,-30,320,20","it's OK, no clue to what's going on but good use of light and dark,4,340,20","I like that it looks like a scene from perhaps a failed painted project,10,140,20","Doesnt say much for me,0,240,20","Darkness and torment,-50,80,20","Alexis","I like that it looks like a scene from perhaps a failed painted project,10,140,20","Richard","it's OK, no clue to what's going on but good use of light and dark,4,340,20","Timothy","Doesnt say much for me,0,240,20","2"
"23431","","survey-text","160","1210848","0.0-159.0-0.0","A49WTQG4MBT9Z","","","","{""Q0"":""I'm not a fan of the color scheme. This is a case where muddy colors don't add up. I can't make out the story.""}","","","","","","","","","","","","","","","","","","","","","","",""
"2770.60000000149","","image-slider-response","161","1213620","0.0-160.0","A49WTQG4MBT9Z","","","","","-15","","","","","","","","","","","","","","","","","","","","","",""
"4939","","image-button-response","162","1218623","0.0-161.0","A49WTQG4MBT9Z","img_art/28.jpg","2","","","","","","","","","","","","","","","","","","","","","","","","",""
"745","","image-button-response","163","1219372","0.0-162.0","A49WTQG4MBT9Z","img_art/28.jpg","0","","","","","","","","","","","","","","","","","","","","","","","","",""
"686","","image-button-response","164","1220060","0.0-163.0-0.0","A49WTQG4MBT9Z","img_art/28.jpg","4","","","","","","","","","","","","","","","","","","","","","","","","",""
"633","","image-button-response","165","1220694","0.0-164.0-0.0","A49WTQG4MBT9Z","img_art/28.jpg","2","","","","","","","","","","","","","","","","","","","","","","","","",""
"null","","html-keyboard-response","166","1221198","0.0-165.0","A49WTQG4MBT9Z","<p style=""font-size: 48px;"">+</p>","","","","","null","allTrialResponses","500","1","17","img_art/28.jpg","-15","I'm not a fan of the color scheme. This is a case where muddy colors don't add up. I can't make out the story.","Trevor,Angel,Richard,Alexis,Timothy,Brett","very blah colors and it's not fun,-27,280,20","My immediate reaction was to think of smog. It recalls choking on dirty air.,-20,180,20","bland coloring but pattern interesting,2,340,20","The brown and green colors used look dull and unappealing,-30,140,20","This one gives me an uneasy feeling,-10,240,20","Overpopulated city,35,360,20","Trevor","very blah colors and it's not fun,-27,280,20","Timothy","This one gives me an uneasy feeling,-10,240,20","Richard","bland coloring but pattern interesting,2,340,20","2"
"22602","","survey-text","167","1243810","0.0-166.0-0.0","A49WTQG4MBT9Z","","","","{""Q0"":""Cool style with the purple overtones. Love the smooth line work on the bottom. Looks like a tree bursting to life.""}","","","","","","","","","","","","","","","","","","","","","","",""
"6696.19999999553","","image-slider-response","168","1250508","0.0-167.0","A49WTQG4MBT9Z","","","","","33","","","","","","","","","","","","","","","","","","","","","",""
"4515","","image-button-response","169","1255511","0.0-168.0","A49WTQG4MBT9Z","img_art/17.jpg","2","","","","","","","","","","","","","","","","","","","","","","","","",""
"612","","image-button-response","170","1256124","0.0-169.0","A49WTQG4MBT9Z","img_art/17.jpg","2","","","","","","","","","","","","","","","","","","","","","","","","",""
"870","","image-button-response","171","1256996","0.0-170.0-0.0","A49WTQG4MBT9Z","img_art/17.jpg","4","","","","","","","","","","","","","","","","","","","","","","","","",""
"494","","image-button-response","172","1257493","0.0-171.0-0.0","A49WTQG4MBT9Z","img_art/17.jpg","5","","","","","","","","","","","","","","","","","","","","","","","","",""
"null","","html-keyboard-response","173","1258995","0.0-172.0","A49WTQG4MBT9Z","<p style=""font-size: 48px;"">+</p>","","","","","null","allTrialResponses","1500","1","18","img_art/17.jpg","33","Cool style with the purple overtones. Love the smooth line work on the bottom. Looks like a tree bursting to life.","Trevor,Jesse,Richard,Corey,Timothy,Luis","I like how it looks like a tree. The colors are too muted though,12,280,20","Doesnt completely turn me off but wouldnt look twice,-3,80,20","nice composition and colors, fairy land,28,340,20","gentle watercolor vibes,12,260,20","This feels like creativity and limitlessness,30,240,20","Messy shadow of loss and love,50,400,20","Richard","nice composition and colors, fairy land,28,340,20","Timothy","This feels like creativity and limitlessness,30,240,20","Luis","Messy shadow of loss and love,50,400,20","2"
"17250","","survey-text","174","1276254","0.0-173.0-0.0","A49WTQG4MBT9Z","","","","{""Q0"":""Colors are cool but don't add up. I want something to invoke emotion and this ain't it.""}","","","","","","","","","","","","","","","","","","","","","","",""
"2490.60000000149","","image-slider-response","175","1278746","0.0-174.0","A49WTQG4MBT9Z","","","","","-9","","","","","","","","","","","","","","","","","","","","","",""
"null","","image-button-response","176","1283751","0.0-175.0","A49WTQG4MBT9Z","img_art/2.jpg","null","","","","","","","","","","","","","","","","","","","","","","","","",""
"632","","image-button-response","177","1284386","0.0-176.0","A49WTQG4MBT9Z","img_art/2.jpg","3","","","","","","","","","","","","","","","","","","","","","","","","",""
"519","","image-button-response","178","1284906","0.0-177.0-0.0","A49WTQG4MBT9Z","img_art/2.jpg","4","","","","","","","","","","","","","","","","","","","","","","","","",""
"367","","image-button-response","179","1285274","0.0-178.0-0.0","A49WTQG4MBT9Z","img_art/2.jpg","5","","","","","","","","","","","","","","","","","","","","","","","","",""
"null","","html-keyboard-response","180","1285777","0.0-179.0","A49WTQG4MBT9Z","<p style=""font-size: 48px;"">+</p>","","","","","null","allTrialResponses","500","1","19","img_art/2.jpg","-9","Colors are cool but don't add up. I want something to invoke emotion and this ain't it.","Gregory,Alejandro,Richard,Mitchell,Timothy,Luis","Awful color coordination and design,-35,220,20","Looks contrived and like someone tried to hard to make it abstract,-31,80,20","doctor's office art work, nice colors and not offensive,23,340,20","Dependence. Things relying on each other. Caring,-4,180,20","The contrasting colors are a bit harsh,-10,240,20","I dont like the expression of this,-19,400,20","Mitchell","Dependence. Things relying on each other. Caring,-4,180,20","Timothy","The contrasting colors are a bit harsh,-10,240,20","Luis","I dont like the expression of this,-19,400,20","2"
"26850","","survey-text","181","1312642","0.0-180.0-0.0","A49WTQG4MBT9Z","","","","{""Q0"":""This is a spooky look and the green actually works for it. I don't know if it's one of my favorites but there's something mysterious about it.""}","","","","","","","","","","","","","","","","","","","","","","",""
"2962.60000000149","","image-slider-response","182","1315606","0.0-181.0","A49WTQG4MBT9Z","","","","","11","","","","","","","","","","","","","","","","","","","","","",""
"null","","image-button-response","183","1320610","0.0-182.0","A49WTQG4MBT9Z","img_art/25.jpg","null","","","","","","","","","","","","","","","","","","","","","","","","",""
"849","","image-button-response","184","1321462","0.0-183.0","A49WTQG4MBT9Z","img_art/25.jpg","4","","","","","","","","","","","","","","","","","","","","","","","","",""
"984","","image-button-response","185","1322448","0.0-184.0-0.0","A49WTQG4MBT9Z","img_art/25.jpg","3","","","","","","","","","","","","","","","","","","","","","","","","",""
"679","","image-button-response","186","1323128","0.0-185.0-0.0","A49WTQG4MBT9Z","img_art/25.jpg","0","","","","","","","","","","","","","","","","","","","","","","","","",""
"null","","html-keyboard-response","187","1323630","0.0-186.0","A49WTQG4MBT9Z","<p style=""font-size: 48px;"">+</p>","","","","","null","allTrialResponses","500","1","20","img_art/25.jpg","11","This is a spooky look and the green actually works for it. I don't know if it's one of my favorites but there's something mysterious about it.","Alex,Antonio,Sean,Mitchell,Timothy,Luis","I can get behind this but only because I like the green. it reminds me of a graveyard,11,100,20","Makes me think of Baphomet, As above so below and is scary,-50,220,20","my response to the picture its weird,-9,40,20","culture, tradition. Village people with an honored elder.,40,180,20","This makes me feel uneasy,-20,240,20","New life, rising from your personal battles,50,400,20","Timothy","This makes me feel uneasy,-20,240,20","Mitchell","culture, tradition. Village people with an honored elder.,40,180,20","Alex","I can get behind this but only because I like the green. it reminds me of a graveyard,11,100,20","2"
"3859","","survey-text","188","1327526","0.0-187.0-0.0","A49WTQG4MBT9Z","","","","{""Q0"":""we""}","","","","","","","","","","","","","","","","","","","","","","",""
"22605","","survey-text","189","1350132","0.0-188.0-0.0","A49WTQG4MBT9Z","","","","{""Q0"":""Bright, passionate and good mixing of tones and colors. I don't know what's happening but the colors won me over.""}","","","","","","","","","","","","","","","","","","","","","","",""
"2184.39999999851","","image-slider-response","190","1352317","0.0-189.0","A49WTQG4MBT9Z","","","","","6","","","","","","","","","","","","","","","","","","","","","",""
"4877","","image-button-response","191","1357320","0.0-190.0","A49WTQG4MBT9Z","img_art/21.jpg","0","","","","","","","","","","","","","","","","","","","","","","","","",""
"949","","image-button-response","192","1358270","0.0-191.0","A49WTQG4MBT9Z","img_art/21.jpg","0","","","","","","","","","","","","","","","","","","","","","","","","",""
"1065","","image-button-response","193","1359336","0.0-192.0-0.0","A49WTQG4MBT9Z","img_art/21.jpg","5","","","","","","","","","","","","","","","","","","","","","","","","",""
"1169","","image-button-response","194","1360506","0.0-193.0-0.0","A49WTQG4MBT9Z","img_art/21.jpg","1","","","","","","","","","","","","","","","","","","","","","","","","",""
"null","","html-keyboard-response","195","1361509","0.0-194.0","A49WTQG4MBT9Z","<p style=""font-size: 48px;"">+</p>","","","","","null","allTrialResponses","1000","1","21","img_art/21.jpg","6","Bright, passionate and good mixing of tones and colors. I don't know what's happening but the colors won me over.","Alex,Jared,Tristan,Mitchell,Timothy,Malik","The colors are very nice. I like the dots because they remind me of pearls,5,100,20","i like the way the colors divide the canvas.,16,400,20","A landscape that leaves me inspired and hopeful.,20,300,20","Nature, water, ever changing. Cold then warm. Reaction is mostly positive and some negative,30,180,20","Very calming and soft, makes me feel good,31,240,20","Indistinct, but beautiful hues,10,40,20","Alex","The colors are very nice. I like the dots because they remind me of pearls,5,100,20","Malik","Indistinct, but beautiful hues,10,40,20","Jared","i like the way the colors divide the canvas.,16,400,20","2"
"26458","","survey-text","196","1387986","0.0-195.0-0.0","A49WTQG4MBT9Z","","","","{""Q0"":""This is like an autumn scene and I really like it for that purpose. Not sure it does anything else for me but the nostalgic tie-ins are great.""}","","","","","","","","","","","","","","","","","","","","","","",""
"2752.60000000149","","image-slider-response","197","1390740","0.0-196.0","A49WTQG4MBT9Z","","","","","18","","","","","","","","","","","","","","","","","","","","","",""
"null","","image-button-response","198","1395743","0.0-197.0","A49WTQG4MBT9Z","img_art/1.jpg","null","","","","","","","","","","","","","","","","","","","","","","","","",""
"620","","image-button-response","199","1396364","0.0-198.0","A49WTQG4MBT9Z","img_art/1.jpg","3","","","","","","","","","","","","","","","","","","","","","","","","",""
"512","","image-button-response","200","1396878","0.0-199.0-0.0","A49WTQG4MBT9Z","img_art/1.jpg","4","","","","","","","","","","","","","","","","","","","","","","","","",""
"885","","image-button-response","201","1397766","0.0-200.0-0.0","A49WTQG4MBT9Z","img_art/1.jpg","2","","","","","","","","","","","","","","","","","","","","","","","","",""
"null","","html-keyboard-response","202","1399267","0.0-201.0","A49WTQG4MBT9Z","<p style=""font-size: 48px;"">+</p>","","","","","null","allTrialResponses","1500","1","22","img_art/1.jpg","18","This is like an autumn scene and I really like it for that purpose. Not sure it does anything else for me but the nostalgic tie-ins are great.","Alex,Jared,Edward,Colton,Steven,Malik","Random paint does not make art,-5,100,20","there isnt anything clear to look at,-2,400,20","That one piece in the middle gives it depth and it's really neat,21,60,20","the colors are nice,8,220,20","It's fine, but its like something you'd see in the restroom of a cheap restaurant,10,160,20","Vague and directionless,-14,40,20","Colton","the colors are nice,8,220,20","Steven","It's fine, but its like something you'd see in the restroom of a cheap restaurant,10,160,20","Edward","That one piece in the middle gives it depth and it's really neat,21,60,20","2"
"23048","","survey-text","203","1422326","0.0-202.0-0.0","A49WTQG4MBT9Z","","","","{""Q0"":""I don't know what I'm looking at but the colors used here are interesting. The chocolate hues are a nice touch.""}","","","","","","","","","","","","","","","","","","","","","","",""
"2019","","image-slider-response","204","1424346","0.0-203.0","A49WTQG4MBT9Z","","","","","7","","","","","","","","","","","","","","","","","","","","","",""
"null","","image-button-response","205","1429351","0.0-204.0","A49WTQG4MBT9Z","img_art/7.jpg","null","","","","","","","","","","","","","","","","","","","","","","","","",""
"442","","image-button-response","206","1429794","0.0-205.0","A49WTQG4MBT9Z","img_art/7.jpg","4","","","","","","","","","","","","","","","","","","","","","","","","",""
"861","","image-button-response","207","1430658","0.0-206.0-0.0","A49WTQG4MBT9Z","img_art/7.jpg","2","","","","","","","","","","","","","","","","","","","","","","","","",""
"679","","image-button-response","208","1431340","0.0-207.0-0.0","A49WTQG4MBT9Z","img_art/7.jpg","5","","","","","","","","","","","","","","","","","","","","","","","","",""
"null","","html-keyboard-response","209","1432341","0.0-208.0","A49WTQG4MBT9Z","<p style=""font-size: 48px;"">+</p>","","","","","null","allTrialResponses","1000","1","23","img_art/7.jpg","7","I don't know what I'm looking at but the colors used here are interesting. The chocolate hues are a nice touch.","Nathan,Brandon,Edward,Colton,Steven,Alexander","I don't like this kind of color scheme or look they went for,-50,200,20","Looks like bad wallpaper,-29,320,20","It looks like maybe some seeds?,14,60,20","reminds me of a cave wall,-21,220,20","looks like the surface of the moon.,1,160,20","Dead bugs on an insect battleground.,-10,120,20","Steven","looks like the surface of the moon.,1,160,20","Edward","It looks like maybe some seeds?,14,60,20","Alexander","Dead bugs on an insect battleground.,-10,120,20","2"
"23114","","survey-text","210","1455466","0.0-209.0-0.0","A49WTQG4MBT9Z","","","","{""Q0"":""I can see the story sprouting to life and there's a lot of detail in the center piece but it doesn't grab me.""}","","","","","","","","","","","","","","","","","","","","","","",""
"3805","","image-slider-response","211","1459272","0.0-210.0","A49WTQG4MBT9Z","","","","","2","","","","","","","","","","","","","","","","","","","","","",""
"3780","","image-button-response","212","1464276","0.0-211.0","A49WTQG4MBT9Z","img_art/14.jpg","3","","","","","","","","","","","","","","","","","","","","","","","","",""
"592","","image-button-response","213","1464872","0.0-212.0","A49WTQG4MBT9Z","img_art/14.jpg","3","","","","","","","","","","","","","","","","","","","","","","","","",""
"1080","","image-button-response","214","1465954","0.0-213.0-0.0","A49WTQG4MBT9Z","img_art/14.jpg","1","","","","","","","","","","","","","","","","","","","","","","","","",""
"766","","image-button-response","215","1466723","0.0-214.0-0.0","A49WTQG4MBT9Z","img_art/14.jpg","5","","","","","","","","","","","","","","","","","","","","","","","","",""
"null","","html-keyboard-response","216","1468224","0.0-215.0","A49WTQG4MBT9Z","<p style=""font-size: 48px;"">+</p>","","","","","null","allTrialResponses","1500","1","24","img_art/14.jpg","2","I can see the story sprouting to life and there's a lot of detail in the center piece but it doesn't grab me.","Bryce,Justin,Edward,Taylor,Steven,Alexander","The red looks like blood and im not a huge fan,15,20,20","The colors are good and the design is intriguing.,15,280,20","I just really like light and wispy things,33,60,20","Are they blowing up a tree?,-5,200,20","this one isn't bad, reminds me a tree that gives life, and people are waiting for someone new to be born,27,160,20","Angled, colored, boxy.,10,120,20","Taylor","Are they blowing up a tree?,-5,200,20","Justin","The colors are good and the design is intriguing.,15,280,20","Alexander","Angled, colored, boxy.,10,120,20","2"
"30471","","survey-text","217","1498708","0.0-216.0-0.0","A49WTQG4MBT9Z","","","","{""Q0"":""The center is like a rave with wild colors all around. This is by far the most unique color scheme of the lot and it's quite striking. ""}","","","","","","","","","","","","","","","","","","","","","","",""
"2579","","image-slider-response","218","1501288","0.0-217.0","A49WTQG4MBT9Z","","","","","38","","","","","","","","","","","","","","","","","","","","","",""
"4387","","image-button-response","219","1506291","0.0-218.0","A49WTQG4MBT9Z","img_art/23.jpg","1","","","","","","","","","","","","","","","","","","","","","","","","",""
"692","","image-button-response","220","1506984","0.0-219.0","A49WTQG4MBT9Z","img_art/23.jpg","1","","","","","","","","","","","","","","","","","","","","","","","","",""
"669","","image-button-response","221","1507656","0.0-220.0-0.0","A49WTQG4MBT9Z","img_art/23.jpg","4","","","","","","","","","","","","","","","","","","","","","","","","",""
"360","","image-button-response","222","1508018","0.0-221.0-0.0","A49WTQG4MBT9Z","img_art/23.jpg","5","","","","","","","","","","","","","","","","","","","","","","","","",""
"null","","html-keyboard-response","223","1508520","0.0-222.0","A49WTQG4MBT9Z","<p style=""font-size: 48px;"">+</p>","","","","","null","allTrialResponses","500","1","25","img_art/23.jpg","38","The center is like a rave with wild colors all around. This is by far the most unique color scheme of the lot and it's quite striking. ","Kevin,Justin,Bradley,Taylor,Vincent,Alexander","Looks like fish fossils,12,320,20","The white paint through the middle really draws the eye.,30,280,20","I like the contrast and the bright colors in this one.,6,300,20","SOME thought was put into this one.,5,200,20","Very happy , busy , free, and full of Hope,28,360,20","Unicorns flying through a colorful space.,25,120,20","Justin","The white paint through the middle really draws the eye.,30,280,20","Vincent","Very happy , busy , free, and full of Hope,28,360,20","Alexander","Unicorns flying through a colorful space.,25,120,20","2"
"3325","","survey-text","224","1511864","0.0-223.0-0.0","A49WTQG4MBT9Z","","","","{""Q0"":""table""}","","","","","","","","","","","","","","","","","","","","","","",""
"24367","","survey-text","225","1536232","0.0-224.0-0.0","A49WTQG4MBT9Z","","","","{""Q0"":""Looks like a collage filled with cities, forests and more. It has a good color scheme and my eye is dancing around it.""}","","","","","","","","","","","","","","","","","","","","","","",""
"2794.5","","image-slider-response","226","1539028","0.0-225.0","A49WTQG4MBT9Z","","","","","18","","","","","","","","","","","","","","","","","","","","","",""
"4084","","image-button-response","227","1544032","0.0-226.0","A49WTQG4MBT9Z","img_art/12.jpg","0","","","","","","","","","","","","","","","","","","","","","","","","",""
"457","","image-button-response","228","1544493","0.0-227.0","A49WTQG4MBT9Z","img_art/12.jpg","0","","","","","","","","","","","","","","","","","","","","","","","","",""
"502","","image-button-response","229","1544997","0.0-228.0-0.0","A49WTQG4MBT9Z","img_art/12.jpg","2","","","","","","","","","","","","","","","","","","","","","","","","",""
"631","","image-button-response","230","1545630","0.0-229.0-0.0","A49WTQG4MBT9Z","img_art/12.jpg","3","","","","","","","","","","","","","","","","","","","","","","","","",""
"null","","html-keyboard-response","231","1546631","0.0-230.0","A49WTQG4MBT9Z","<p style=""font-size: 48px;"">+</p>","","","","","null","allTrialResponses","1000","1","26","img_art/12.jpg","18","Looks like a collage filled with cities, forests and more. It has a good color scheme and my eye is dancing around it.","Thomas,Justin,Isaac,Robert,Vincent,Alexander","Very interesting. Makes me want to look at it for a long time.,16,220,20","Too blocky and not interesting enough.,-15,280,20","I like the gradient of little color on the top to colorful on the bottom.,24,280,20","I like the pattern to it.,31,360,20","I have seen some like this before very popular and full of life,42,360,20","Ugly color combinations, no focus.,-25,120,20","Thomas","Very interesting. Makes me want to look at it for a long time.,16,220,20","Isaac","I like the gradient of little color on the top to colorful on the bottom.,24,280,20","Robert","I like the pattern to it.,31,360,20","2"
"21886","","survey-text","232","1568530","0.0-231.0-0.0","A49WTQG4MBT9Z","","","","{""Q0"":""I like the vision the artist was trying to say. It's cool, it's different and the line work is good.""}","","","","","","","","","","","","","","","","","","","","","","",""
"2233.2999999970198","","image-slider-response","233","1570764","0.0-232.0","A49WTQG4MBT9Z","","","","","18","","","","","","","","","","","","","","","","","","","","","",""
"4782","","image-button-response","234","1575767","0.0-233.0","A49WTQG4MBT9Z","img_art/18.jpg","2","","","","","","","","","","","","","","","","","","","","","","","","",""
"948","","image-button-response","235","1576716","0.0-234.0","A49WTQG4MBT9Z","img_art/18.jpg","2","","","","","","","","","","","","","","","","","","","","","","","","",""
"352","","image-button-response","236","1577070","0.0-235.0-0.0","A49WTQG4MBT9Z","img_art/18.jpg","1","","","","","","","","","","","","","","","","","","","","","","","","",""
"678","","image-button-response","237","1577750","0.0-236.0-0.0","A49WTQG4MBT9Z","img_art/18.jpg","5","","","","","","","","","","","","","","","","","","","","","","","","",""
"null","","html-keyboard-response","238","1578252","0.0-237.0","A49WTQG4MBT9Z","<p style=""font-size: 48px;"">+</p>","","","","","null","allTrialResponses","500","1","27","img_art/18.jpg","18","I like the vision the artist was trying to say. It's cool, it's different and the line work is good.","Thomas,Luke,Isaac,Robert,Patrick,Seth","I could stare at this for long stretches of time and still find new details. I love it.,40,220,20","the harsh lines with the smooth lines makes me think of wild animals,20,20,20","I like the detail but I wouldn't hang this up on my wall.,14,280,20","It made me think of a car crash,-39,360,20","Too abstract and swirly,-21,280,20","This painting reminds me of the 4 horsemen of the apocalypse. It feels haunting.,31,60,20","Isaac","I like the detail but I wouldn't hang this up on my wall.,14,280,20","Luke","the harsh lines with the smooth lines makes me think of wild animals,20,20,20","Seth","This painting reminds me of the 4 horsemen of the apocalypse. It feels haunting.,31,60,20","2"
"23791","","survey-text","239","1602054","0.0-238.0-0.0","A49WTQG4MBT9Z","","","","{""Q0"":""I think I could create something like this. It wouldn't stand out at all but I like what they were going for with the various hues.""}","","","","","","","","","","","","","","","","","","","","","","",""
"3588.7999999970198","","image-slider-response","240","1605644","0.0-239.0","A49WTQG4MBT9Z","","","","","-3","","","","","","","","","","","","","","","","","","","","","",""
"4018","","image-button-response","241","1610647","0.0-240.0","A49WTQG4MBT9Z","img_art/26.jpg","4","","","","","","","","","","","","","","","","","","","","","","","","",""
"465","","image-button-response","242","1611114","0.0-241.0","A49WTQG4MBT9Z","img_art/26.jpg","4","","","","","","","","","","","","","","","","","","","","","","","","",""
"745","","image-button-response","243","1611860","0.0-242.0-0.0","A49WTQG4MBT9Z","img_art/26.jpg","0","","","","","","","","","","","","","","","","","","","","","","","","",""
"685","","image-button-response","244","1612548","0.0-243.0-0.0","A49WTQG4MBT9Z","img_art/26.jpg","5","","","","","","","","","","","","","","","","","","","","","","","","",""
"null","","html-keyboard-response","245","1614050","0.0-244.0","A49WTQG4MBT9Z","<p style=""font-size: 48px;"">+</p>","","","","","null","allTrialResponses","1500","1","28","img_art/26.jpg","-3","I think I could create something like this. It wouldn't stand out at all but I like what they were going for with the various hues.","Devin,Luke,Isaac,Adrian,Lucas,Seth","I like the shapes but needs more detail i think,3,380,20","makes me happy and reminds me of a paris courtyard,29,20,20","I wish it were more pastel but I think it is relaxing to look at.,30,280,20","I see a suburban neighborhood with townhouses and trees. Not a fan of the colors or style.,-16,60,20","Nothing to say.,0,380,20","I'm not sure if this is the image of a furniture store or not.,-20,60,20","Lucas","Nothing to say.,0,380,20","Devin","I like the shapes but needs more detail i think,3,380,20","Seth","I'm not sure if this is the image of a furniture store or not.,-20,60,20","2"
"30995","","survey-text","246","1645056","0.0-245.0-0.0","A49WTQG4MBT9Z","","","","{""Q0"":""A lot more active. I see tons of things going on. I like the backgrounds but I don't care for the hues here. There's too much going on and nothing ties it together.""}","","","","","","","","","","","","","","","","","","","","","","",""
"2018.5","","image-slider-response","247","1647076","0.0-246.0","A49WTQG4MBT9Z","","","","","-7","","","","","","","","","","","","","","","","","","","","","",""
"null","","image-button-response","248","1652081","0.0-247.0","A49WTQG4MBT9Z","img_art/19.jpg","null","","","","","","","","","","","","","","","","","","","","","","","","",""
"95","","image-button-response","249","1652178","0.0-248.0","A49WTQG4MBT9Z","img_art/19.jpg","0","","","","","","","","","","","","","","","","","","","","","","","","",""
"921","","image-button-response","250","1653100","0.0-249.0-0.0","A49WTQG4MBT9Z","img_art/19.jpg","1","","","","","","","","","","","","","","","","","","","","","","","","",""
"678","","image-button-response","251","1653780","0.0-250.0-0.0","A49WTQG4MBT9Z","img_art/19.jpg","2","","","","","","","","","","","","","","","","","","","","","","","","",""
"null","","html-keyboard-response","252","1655283","0.0-251.0","A49WTQG4MBT9Z","<p style=""font-size: 48px;"">+</p>","","","","","null","allTrialResponses","1500","1","29","img_art/19.jpg","-7","A lot more active. I see tons of things going on. I like the backgrounds but I don't care for the hues here. There's too much going on and nothing ties it together.","Devin,William,Michael,Jeffrey,Lucas,Seth","Looks a bit too loose,-2,380,20","to much going on,-22,380,20","Loks like an amature did it, Not pleasing.,-45,140,20","very lively and colourful,21,40,20","I can see kind of beach and sea full of people and buildings.,25,380,20","I wasn't sure if I liked it or hated it. It oddly reminds me of a clothing store.,11,60,20","Devin","Looks a bit too loose,-2,380,20","William","to much going on,-22,380,20","Michael","Loks like an amature did it, Not pleasing.,-45,140,20","2"
"34233","","survey-text","253","1689528","0.0-252.0-0.0","A49WTQG4MBT9Z","","","","{""Q0"":""The line work is really great and I can see tons of shapes and figures pop. This is a very complex painting and love the character in the top left. This has great spirit.""}","","","","","","","","","","","","","","","","","","","","","","",""
"18898.60000000149","","image-slider-response","254","1708428","0.0-253.0","A49WTQG4MBT9Z","","","","","48","","","","","","","","","","","","","","","","","","","","","",""
"2921","","image-button-response","255","1713431","0.0-254.0","A49WTQG4MBT9Z","img_art/8.jpg","5","","","","","","","","","","","","","","","","","","","","","","","","",""
"538","","image-button-response","256","1713972","0.0-255.0","A49WTQG4MBT9Z","img_art/8.jpg","3","","","","","","","","","","","","","","","","","","","","","","","","",""
"454","","image-button-response","257","1714428","0.0-256.0-0.0","A49WTQG4MBT9Z","img_art/8.jpg","4","","","","","","","","","","","","","","","","","","","","","","","","",""
"336","","image-button-response","258","1714766","0.0-257.0-0.0","A49WTQG4MBT9Z","img_art/8.jpg","5","","","","","","","","","","","","","","","","","","","","","","","","",""
"null","","html-keyboard-response","259","1716268","0.0-258.0","A49WTQG4MBT9Z","<p style=""font-size: 48px;"">+</p>","","","","","null","allTrialResponses","1500","1","30","img_art/8.jpg","48","The line work is really great and I can see tons of shapes and figures pop. This is a very complex painting and love the character in the top left. This has great spirit.","Devin,William,Michael,Cole,Jesus,Ryan","Very nice detail and colors!,10,380,20","makes me think of a busy city,-18,380,20","It is interesting to look at. Abstract but ordered.,9,140,20","Its abstract and interesting,24,200,20","The different shapes are fun to look for.,30,100,20","I love architectural paintings,46,380,20","Cole","Its abstract and interesting,24,200,20","Jesus","The different shapes are fun to look for.,30,100,20","Ryan","I love architectural paintings,46,380,20","2"
"2237","","image-button-response_instructions","260","1718514","0.0-259.0","A49WTQG4MBT9Z","","0","instructions","","","","","","","","","","","","","","","","","","","","","","","",""
"1172","","image-button-response","261","1719700","0.0-260.0","A49WTQG4MBT9Z","","0","","","","","","","","","","","","","","","","","","","","","","","","",""
