"rt","url","trial_type","trial_index","time_elapsed","internal_node_id","participant_id","stimulus","button_pressed","Name","responses","response","key_press","variableName","fixationTime","condition","trial","photo","subjectRating","subjectResponse","agentsNames","agent_1_Response","agent_2_Response","agent_3_Response","agent_4_Response","agent_5_Response","agent_6_Response","kept_1_name","kept_1_response","kept_2_name","kept_2_response","kept_3_name","kept_3_response","errorCounter"
"6502","external_page_harvard.html","external-html","0","6564","0.0-0.0","A5P12YJP805RG","","","","","","","","","","","","","","","","","","","","","","","","","","",""
"1012","","image-button-response","1","7578","0.0-1.0","A5P12YJP805RG","","0","","","","","","","","","","","","","","","","","","","","","","","","",""
"1713","","image-button-response","2","9296","0.0-2.0-0.0","A5P12YJP805RG","","1","phone","","","","","","","","","","","","","","","","","","","","","","","",""
"2512","","survey-text","3","11810","0.0-3.0-0.0","A5P12YJP805RG","","","","{""Q0"":""A5P12YJP805RG""}","","","","","","","","","","","","","","","","","","","","","","",""
"3312","","image-button-response_instructions","4","15123","0.0-4.0","A5P12YJP805RG","","0","instructions","","","","","","","","","","","","","","","","","","","","","","","",""
"4829","","image-button-response_instructions","5","19954","0.0-5.0","A5P12YJP805RG","img_art/ins/popularity/ins1.png","0","instructions","","","","","","","","","","","","","","","","","","","","","","","",""
"3526","","image-button-response_instructions","6","23483","0.0-6.0","A5P12YJP805RG","img_art/ins/popularity/ins2.png","0","instructions","","","","","","","","","","","","","","","","","","","","","","","",""
"4854","","image-button-response_instructions","7","28338","0.0-7.0","A5P12YJP805RG","img_art/ins/popularity/ins2Extreme.png","0","instructions","","","","","","","","","","","","","","","","","","","","","","","",""
"7319","","image-button-response_instructions","8","35658","0.0-8.0","A5P12YJP805RG","img_art/ins/popularity/ins3KEEPpop.PNG","0","instructions","","","","","","","","","","","","","","","","","","","","","","","",""
"3967","","image-button-response_instructions","9","39626","0.0-9.0","A5P12YJP805RG","img_art/ins/popularity/ins3ANamepop.PNG","0","instructions","","","","","","","","","","","","","","","","","","","","","","","",""
"2959","","image-button-response_instructions","10","42586","0.0-10.0","A5P12YJP805RG","img_art/ins/popularity/ins3ARatingpop.png","0","instructions","","","","","","","","","","","","","","","","","","","","","","","",""
"2535","","image-button-response_instructions","11","45122","0.0-11.0","A5P12YJP805RG","img_art/ins/popularity/ins3ATextpop.png","0","instructions","","","","","","","","","","","","","","","","","","","","","","","",""
"4791","","image-button-response_instructions","12","49914","0.0-12.0","A5P12YJP805RG","img_art/ins/popularity/ins3ALikespop.png","0","instructions","","","","","","","","","","","","","","","","","","","","","","","",""
"9288","","image-button-response_instructions","13","59203","0.0-13.0","A5P12YJP805RG","img_art/ins/popularity/ins3KEEPpop.PNG","0","instructions","","","","","","","","","","","","","","","","","","","","","","","",""
"14327","","image-button-response_instructions","14","73531","0.0-14.0","A5P12YJP805RG","img_art/ins/popularity/ins3_5RED.png","0","instructions","","","","","","","","","","","","","","","","","","","","","","","",""
"3886","","image-button-response_instructions","15","77419","0.0-15.0","A5P12YJP805RG","img_art/ins/popularity/ins3KEEPpop.PNG","0","instructions","","","","","","","","","","","","","","","","","","","","","","","",""
"6015","","image-button-response_instructions","16","83435","0.0-16.0","A5P12YJP805RG","img_art/ins/popularity/ins4KEEPpop.PNG","0","instructions","","","","","","","","","","","","","","","","","","","","","","","",""
"2903","","image-button-response_instructions","17","86339","0.0-17.0","A5P12YJP805RG","img_art/ins/popularity/ins5KEEPpop.PNG","0","instructions","","","","","","","","","","","","","","","","","","","","","","","",""
"1175","","image-button-response_instructions","18","87515","0.0-18.0","A5P12YJP805RG","","0","instructions","","","","","","","","","","","","","","","","","","","","","","","",""
"3993","","survey-text","19","91531","0.0-19.0-0.0","A5P12YJP805RG","","","","{""Q0"":""but""}","","","","","","","","","","","","","","","","","","","","","","",""
"5558","","survey-text","20","97091","0.0-20.0-0.0","A5P12YJP805RG","","","","{""Q0"":""bit of a mess""}","","","","","","","","","","","","","","","","","","","","","","",""
"2925.899999856949","","image-slider-response","21","100019","0.0-21.0","A5P12YJP805RG","","","","","-13","","","","","","","","","","","","","","","","","","","","","",""
"2037","","image-button-response","22","105023","0.0-22.0","A5P12YJP805RG","img_art/ins/1.jpg","0","","","","","","","","","","","","","","","","","","","","","","","","",""
"800","","image-button-response","23","105827","0.0-23.0","A5P12YJP805RG","img_art/ins/1.jpg","2","","","","","","","","","","","","","","","","","","","","","","","","",""
"1286","","image-button-response","24","107115","0.0-24.0-0.0","A5P12YJP805RG","img_art/ins/1.jpg","0","","","","","","","","","","","","","","","","","","","","","","","","",""
"1246","","image-button-response","25","108363","0.0-25.0-0.0","A5P12YJP805RG","img_art/ins/1.jpg","0","","","","","","","","","","","","","","","","","","","","","","","","",""
"2511","","image-button-response","26","113748","0.0-25.1-0.1","A5P12YJP805RG","img_art/ins/1.jpg","4","","","","","","","","","","","","","","","","","","","","","","","","",""
"null","","html-keyboard-response","27","114750","0.0-26.0","A5P12YJP805RG","<p style=""font-size: 48px;"">+</p>","","","","","null","allTrialResponses","1000","1","-2","img_art/ins/1.jpg","-13","bit of a mess","Adam,Alex,Ben,Carl,Daniel,Jack","Seems like doodles,-20,20,20","very creative work.,36,40,20","This color reminds me of poo,-46,60,20","very calming artwork,42,80,20","It looks like a murder scene.,-48,100,20","I like the sophisticated brushwork,40,120,20","Ben","This color reminds me of poo,-46,60,20","Adam","Seems like doodles,-20,20,20","Daniel","It looks like a murder scene.,-48,100,20","2"
"10434","","survey-text","28","125194","0.0-27.0-0.0","A5P12YJP805RG","","","","{""Q0"":""like stone, cave paintings""}","","","","","","","","","","","","","","","","","","","","","","",""
"3110.5999999046326","","image-slider-response","29","128306","0.0-28.0","A5P12YJP805RG","","","","","17","","","","","","","","","","","","","","","","","","","","","",""
"null","","image-button-response","30","133309","0.0-29.0","A5P12YJP805RG","img_art/ins/2.jpg","null","","","","","","","","","","","","","","","","","","","","","","","","",""
"2770","","image-button-response","31","136083","0.0-30.0","A5P12YJP805RG","img_art/ins/2.jpg","5","","","","","","","","","","","","","","","","","","","","","","","","",""
"646","","image-button-response","32","136730","0.0-31.0-0.0","A5P12YJP805RG","img_art/ins/2.jpg","4","","","","","","","","","","","","","","","","","","","","","","","","",""
"1446","","image-button-response","33","138178","0.0-32.0-0.0","A5P12YJP805RG","img_art/ins/2.jpg","0","","","","","","","","","","","","","","","","","","","","","","","","",""
"null","","html-keyboard-response","34","139180","0.0-33.0","A5P12YJP805RG","<p style=""font-size: 48px;"">+</p>","","","","","null","allTrialResponses","1000","1","-1","img_art/ins/2.jpg","17","like stone, cave paintings","Adam,John,Ben,James,Daniel,Kyle","too much color,-18,20,20","love the texture of paint,48,160,20","meaningless painting,-45,60,20","looks too angry,-50,140,20","One of my pet peevs,-48,100,20","Idk, it is just annoying,-32,180,20","Kyle","Idk, it is just annoying,-32,180,20","Daniel","One of my pet peevs,-48,100,20","Adam","too much color,-18,20,20","2"
"22039","","survey-text","35","161226","0.0-34.0-0.0","A5P12YJP805RG","","","","{""Q0"":""a poor attempt at writing. and blue""}","","","","","","","","","","","","","","","","","","","","","","",""
"3094.7000000476837","","image-slider-response","36","164322","0.0-35.0","A5P12YJP805RG","","","","","-3","","","","","","","","","","","","","","","","","","","","","",""
"3806","","image-button-response","37","169326","0.0-36.0","A5P12YJP805RG","img_art/ins/3.jpg","1","","","","","","","","","","","","","","","","","","","","","","","","",""
"1106","","image-button-response","38","170434","0.0-37.0","A5P12YJP805RG","img_art/ins/3.jpg","0","","","","","","","","","","","","","","","","","","","","","","","","",""
"495","","image-button-response","39","170930","0.0-38.0-0.0","A5P12YJP805RG","img_art/ins/3.jpg","1","","","","","","","","","","","","","","","","","","","","","","","","",""
"3357","","image-button-response","40","174290","0.0-39.0-0.0","A5P12YJP805RG","img_art/ins/3.jpg","4","","","","","","","","","","","","","","","","","","","","","","","","",""
"null","","html-keyboard-response","41","174793","0.0-40.0","A5P12YJP805RG","<p style=""font-size: 48px;"">+</p>","","","","","null","allTrialResponses","500","1","0","img_art/ins/3.jpg","-3","a poor attempt at writing. and blue","Adam,Ron,Sam,Mike,Daniel,Kyle","My daily routine, it's depressing,-20,20,20","It looks depressing,-26,220,20","I can feel a rainy day from this painting,18,240,20","enjoy the different shades of blue,22,200,20","looks like a murder room,-35,100,20","It looks like a playground for bats,-36,180,20","Adam","My daily routine, it's depressing,-20,20,20","Ron","It looks depressing,-26,220,20","Daniel","looks like a murder room,-35,100,20","2"
"4360","","image-button-response_instructions","42","179162","0.0-41.0","A5P12YJP805RG","","0","instructions","","","","","","","","","","","","","","","","","","","","","","","",""
"7943","","survey-likert","43","187106","0.0-42.0-0.0","A5P12YJP805RG","","","","{""Q0"":"""",""Q1"":0,""Q2"":1}","","","","","","","","","","","","","","","","","","","","","","",""
"3179","","survey-text","44","190290","0.0-43.0-0.0","A5P12YJP805RG","","","","{""Q0"":""rock""}","","","","","","","","","","","","","","","","","","","","","","",""
"15622","","survey-text","45","205914","0.0-44.0-0.0","A5P12YJP805RG","","","","{""Q0"":""a paramecium, some sort of microbe""}","","","","","","","","","","","","","","","","","","","","","","",""
"2998.399999856949","","image-slider-response","46","208914","0.0-45.0","A5P12YJP805RG","","","","","-2","","","","","","","","","","","","","","","","","","","","","",""
"null","","image-button-response","47","213953","0.0-46.0","A5P12YJP805RG","img_art/10.jpg","null","","","","","","","","","","","","","","","","","","","","","","","","",""
"1286","","image-button-response","48","215243","0.0-47.0","A5P12YJP805RG","img_art/10.jpg","4","","","","","","","","","","","","","","","","","","","","","","","","",""
"1206","","image-button-response","49","216450","0.0-48.0-0.0","A5P12YJP805RG","img_art/10.jpg","5","","","","","","","","","","","","","","","","","","","","","","","","",""
"2182","","image-button-response","50","218634","0.0-49.0-0.0","A5P12YJP805RG","img_art/10.jpg","0","","","","","","","","","","","","","","","","","","","","","","","","",""
"null","","html-keyboard-response","51","219141","0.0-50.0","A5P12YJP805RG","<p style=""font-size: 48px;"">+</p>","","","","","null","allTrialResponses","500","1","1","img_art/10.jpg","-2","a paramecium, some sort of microbe","Stephen,Angel,Tyler,Isaac,Alejandro,Cameron","Very nice painting, would like it more with different color choice.,6,140,20","This piece makes me think of music. The music is dark; I like dark music so it edges toward good.,10,180,20","In proper lighting I might enjoy this,11,320,20","It looks intricate.,15,280,20","The contrast between the messy dots/dabs vs the straight affluent lines is unappealing,-20,80,20","artistic cello piece?,30,60,20","Alejandro","The contrast between the messy dots/dabs vs the straight affluent lines is unappealing,-20,80,20","Cameron","artistic cello piece?,30,60,20","Stephen","Very nice painting, would like it more with different color choice.,6,140,20","2"
"20556","","survey-text","52","239706","0.0-51.0-0.0","A5P12YJP805RG","","","","{""Q0"":""calming and colorful, looks tranquil""}","","","","","","","","","","","","","","","","","","","","","","",""
"6302.599999904633","","image-slider-response","53","246010","0.0-52.0","A5P12YJP805RG","","","","","23","","","","","","","","","","","","","","","","","","","","","",""
"1750","","image-button-response","54","251027","0.0-53.0","A5P12YJP805RG","img_art/24.jpg","0","","","","","","","","","","","","","","","","","","","","","","","","",""
"1013","","image-button-response","55","252042","0.0-54.0","A5P12YJP805RG","img_art/24.jpg","3","","","","","","","","","","","","","","","","","","","","","","","","",""
"718","","image-button-response","56","252762","0.0-55.0-0.0","A5P12YJP805RG","img_art/24.jpg","0","","","","","","","","","","","","","","","","","","","","","","","","",""
"1205","","image-button-response","57","253970","0.0-56.0-0.0","A5P12YJP805RG","img_art/24.jpg","2","","","","","","","","","","","","","","","","","","","","","","","","",""
"null","","html-keyboard-response","58","254977","0.0-57.0","A5P12YJP805RG","<p style=""font-size: 48px;"">+</p>","","","","","null","allTrialResponses","1000","1","2","img_art/24.jpg","23","calming and colorful, looks tranquil","Stephen,Dustin,Spencer,Trevor,Alejandro,Cameron","I like how the colors mix in this one.,20,140,20","I see a waterfall, which is relaxing and peaceful!  I like the blue coloring,30,20,20","Happy, the forest as I would love to see it,50,120,20","I like how it looks like a waterfall in an exotic place,50,280,20","I don't like this painting because of its blottedness. It lacks conviction, direction and purpose.,-31,80,20","Mountain stream pineapple texture?,30,60,20","Trevor","I like how it looks like a waterfall in an exotic place,50,280,20","Stephen","I like how the colors mix in this one.,20,140,20","Spencer","Happy, the forest as I would love to see it,50,120,20","2"
"16417","","survey-text","59","271402","0.0-58.0-0.0","A5P12YJP805RG","","","","{""Q0"":""Looks like a very rough draft of a cartoon""}","","","","","","","","","","","","","","","","","","","","","","",""
"3070.0999999046326","","image-slider-response","60","274474","0.0-59.0","A5P12YJP805RG","","","","","-11","","","","","","","","","","","","","","","","","","","","","",""
"null","","image-button-response","61","279479","0.0-60.0","A5P12YJP805RG","img_art/28.jpg","null","","","","","","","","","","","","","","","","","","","","","","","","",""
"1966","","image-button-response","62","281450","0.0-61.0","A5P12YJP805RG","img_art/28.jpg","3","","","","","","","","","","","","","","","","","","","","","","","","",""
"646","","image-button-response","63","282098","0.0-62.0-0.0","A5P12YJP805RG","img_art/28.jpg","5","","","","","","","","","","","","","","","","","","","","","","","","",""
"1390","","image-button-response","64","283490","0.0-63.0-0.0","A5P12YJP805RG","img_art/28.jpg","2","","","","","","","","","","","","","","","","","","","","","","","","",""
"null","","html-keyboard-response","65","284492","0.0-64.0","A5P12YJP805RG","<p style=""font-size: 48px;"">+</p>","","","","","null","allTrialResponses","1000","1","3","img_art/28.jpg","-11","Looks like a very rough draft of a cartoon","Stephen,Jeffrey,Spencer,Trevor,Christopher,Joshua","Good use of shapes.,7,140,20","Nothing calls my attention,15,40,20","Too me it's a mish mash, true abstract,-37,120,20","very blah colors and it's not fun,-27,280,20","something about all the off-greys is pretty interesting,5,160,20","The colors are drab and a little depressing.,-20,240,20","Trevor","very blah colors and it's not fun,-27,280,20","Joshua","The colors are drab and a little depressing.,-20,240,20","Spencer","Too me it's a mish mash, true abstract,-37,120,20","2"
"26421","","survey-text","66","310922","0.0-65.0-0.0","A5P12YJP805RG","","","","{""Q0"":""Looks like someone just flicked their paintbrush a bunch""}","","","","","","","","","","","","","","","","","","","","","","",""
"2686.399999856949","","image-slider-response","67","313610","0.0-66.0","A5P12YJP805RG","","","","","-28","","","","","","","","","","","","","","","","","","","","","",""
"null","","image-button-response","68","318613","0.0-67.0","A5P12YJP805RG","img_art/13.jpg","null","","","","","","","","","","","","","","","","","","","","","","","","",""
"871","","image-button-response","69","319491","0.0-68.0","A5P12YJP805RG","img_art/13.jpg","4","","","","","","","","","","","","","","","","","","","","","","","","",""
"3222","","image-button-response","70","322715","0.0-69.0-0.0","A5P12YJP805RG","img_art/13.jpg","5","","","","","","","","","","","","","","","","","","","","","","","","",""
"1422","","image-button-response","71","324139","0.0-70.0-0.0","A5P12YJP805RG","img_art/13.jpg","3","","","","","","","","","","","","","","","","","","","","","","","","",""
"null","","html-keyboard-response","72","324641","0.0-71.0","A5P12YJP805RG","<p style=""font-size: 48px;"">+</p>","","","","","null","allTrialResponses","500","1","4","img_art/13.jpg","-28","Looks like someone just flicked their paintbrush a bunch","Jose,Brett,Spencer,Trevor,Brendan,Joshua","Best color combo. i love this.,50,200,20","Very abstract and soothing,40,360,20","Like it a lot, reminds me of rainy day on glass,43,120,20","i like the colors but it looks like something that would hang in a hotel,18,280,20","its crazy to the point that i cant get it,-28,340,20","Like this a lot and would hang in my house.,27,240,20","Brendan","its crazy to the point that i cant get it,-28,340,20","Joshua","Like this a lot and would hang in my house.,27,240,20","Trevor","i like the colors but it looks like something that would hang in a hotel,18,280,20","2"
"25593","","survey-text","73","350242","0.0-72.0-0.0","A5P12YJP805RG","","","","{""Q0"":""good nature painting, almost looks like its underwater""}","","","","","","","","","","","","","","","","","","","","","","",""
"2687.5","","image-slider-response","74","352931","0.0-73.0","A5P12YJP805RG","","","","","14","","","","","","","","","","","","","","","","","","","","","",""
"2309","","image-button-response","75","357949","0.0-74.0","A5P12YJP805RG","img_art/17.jpg","0","","","","","","","","","","","","","","","","","","","","","","","","",""
"1138","","image-button-response","76","359091","0.0-75.0","A5P12YJP805RG","img_art/17.jpg","1","","","","","","","","","","","","","","","","","","","","","","","","",""
"342","","image-button-response","77","359435","0.0-76.0-0.0","A5P12YJP805RG","img_art/17.jpg","0","","","","","","","","","","","","","","","","","","","","","","","","",""
"2670","","image-button-response","78","362106","0.0-77.0-0.0","A5P12YJP805RG","img_art/17.jpg","5","","","","","","","","","","","","","","","","","","","","","","","","",""
"null","","html-keyboard-response","79","363114","0.0-78.0","A5P12YJP805RG","<p style=""font-size: 48px;"">+</p>","","","","","null","allTrialResponses","1000","1","5","img_art/17.jpg","14","good nature painting, almost looks like its underwater","Mitchell,Zachary,Jack,Trevor,Brendan,Joshua","Nature coming to the inside of your space that you are locked into.,50,180,20","Reminds me of a beautiful tree growing in a courtyard. I like the light and airy technique used.,34,400,20","stunning. makes me feel happy, hopeful, serene, and a little wistful.,50,320,20","I like how it looks like a tree. The colors are too muted though,12,280,20","colorful tree really cool,27,340,20","Looks like an abandoned building that is being overtaken by nature.,-10,240,20","Zachary","Reminds me of a beautiful tree growing in a courtyard. I like the light and airy technique used.,34,400,20","Mitchell","Nature coming to the inside of your space that you are locked into.,50,180,20","Joshua","Looks like an abandoned building that is being overtaken by nature.,-10,240,20","2"
"2722","","survey-text","80","365842","0.0-79.0-0.0","A5P12YJP805RG","","","","{""Q0"":""sky""}","","","","","","","","","","","","","","","","","","","","","","",""
"12719","","survey-text","81","378562","0.0-80.0-0.0","A5P12YJP805RG","","","","{""Q0"":""rectangular with colors mixed in""}","","","","","","","","","","","","","","","","","","","","","","",""
"2606.4000000953674","","image-slider-response","82","381170","0.0-81.0","A5P12YJP805RG","","","","","-19","","","","","","","","","","","","","","","","","","","","","",""
"null","","image-button-response","83","386172","0.0-82.0","A5P12YJP805RG","img_art/22.jpg","null","","","","","","","","","","","","","","","","","","","","","","","","",""
"1653","","image-button-response","84","387826","0.0-83.0","A5P12YJP805RG","img_art/22.jpg","2","","","","","","","","","","","","","","","","","","","","","","","","",""
"1222","","image-button-response","85","389050","0.0-84.0-0.0","A5P12YJP805RG","img_art/22.jpg","0","","","","","","","","","","","","","","","","","","","","","","","","",""
"1263","","image-button-response","86","390315","0.0-85.0-0.0","A5P12YJP805RG","img_art/22.jpg","4","","","","","","","","","","","","","","","","","","","","","","","","",""
"null","","html-keyboard-response","87","391816","0.0-86.0","A5P12YJP805RG","<p style=""font-size: 48px;"">+</p>","","","","","null","allTrialResponses","1500","1","6","img_art/22.jpg","-19","rectangular with colors mixed in","Mitchell,Zachary,Steven,Christian,Antonio,Joshua","Scary monsters lurking causing confusion.,-40,180,20","I like the vivid colors.,11,400,20","not a fan of this, it's boring,1,160,20","colorful water (in front of castle?),17,140,20","Felt blah. Bunch of nothingness,-42,220,20","This one would work in the right frame. It's nice.,20,240,20","Steven","not a fan of this, it's boring,1,160,20","Mitchell","Scary monsters lurking causing confusion.,-40,180,20","Antonio","Felt blah. Bunch of nothingness,-42,220,20","2"
"11338","","survey-text","88","403162","0.0-87.0-0.0","A5P12YJP805RG","","","","{""Q0"":""someone dropped something, now there's a mess""}","","","","","","","","","","","","","","","","","","","","","","",""
"4102.600000143051","","image-slider-response","89","407266","0.0-88.0","A5P12YJP805RG","","","","","-5","","","","","","","","","","","","","","","","","","","","","",""
"null","","image-button-response","90","412273","0.0-89.0","A5P12YJP805RG","img_art/14.jpg","null","","","","","","","","","","","","","","","","","","","","","","","","",""
"1280","","image-button-response","91","413554","0.0-90.0","A5P12YJP805RG","img_art/14.jpg","0","","","","","","","","","","","","","","","","","","","","","","","","",""
"3383","","image-button-response","92","416939","0.0-91.0-0.0","A5P12YJP805RG","img_art/14.jpg","2","","","","","","","","","","","","","","","","","","","","","","","","",""
"1661","","image-button-response","93","418602","0.0-92.0-0.0","A5P12YJP805RG","img_art/14.jpg","5","","","","","","","","","","","","","","","","","","","","","","","","",""
"null","","html-keyboard-response","94","419605","0.0-93.0","A5P12YJP805RG","<p style=""font-size: 48px;"">+</p>","","","","","null","allTrialResponses","1000","1","7","img_art/14.jpg","-5","someone dropped something, now there's a mess","Mitchell,Mark,Steven,Carlos,Antonio,Jeremy","Tornado, nature. trees falling and displaced creatures. Love the colors though.,1,180,20","Cute little plant.,15,80,20","this one isn't bad, reminds me a tree that gives life, and people are waiting for someone new to be born,27,160,20","The lighting feels like spring.,20,80,20","Makes me think of trees and spring. A good feeling,26,220,20","It didn't really do anything to excite me.,21,60,20","Mitchell","Tornado, nature. trees falling and displaced creatures. Love the colors though.,1,180,20","Steven","this one isn't bad, reminds me a tree that gives life, and people are waiting for someone new to be born,27,160,20","Jeremy","It didn't really do anything to excite me.,21,60,20","2"
"34744","","survey-text","95","454354","0.0-94.0-0.0","A5P12YJP805RG","","","","{""Q0"":""the color highlights fail to make an impression among the blackness""}","","","","","","","","","","","","","","","","","","","","","","",""
"1854.4000000953674","","image-slider-response","96","456210","0.0-95.0","A5P12YJP805RG","","","","","-17","","","","","","","","","","","","","","","","","","","","","",""
"null","","image-button-response","97","461475","0.0-96.0","A5P12YJP805RG","img_art/15.jpg","null","","","","","","","","","","","","","","","","","","","","","","","","",""
"10181","","image-button-response","98","471658","0.0-97.0","A5P12YJP805RG","img_art/15.jpg","0","","","","","","","","","","","","","","","","","","","","","","","","",""
"1702","","image-button-response","99","473363","0.0-98.0-0.0","A5P12YJP805RG","img_art/15.jpg","4","","","","","","","","","","","","","","","","","","","","","","","","",""
"1406","","image-button-response","100","474770","0.0-99.0-0.0","A5P12YJP805RG","img_art/15.jpg","2","","","","","","","","","","","","","","","","","","","","","","","","",""
"null","","html-keyboard-response","101","476280","0.0-100.0","A5P12YJP805RG","<p style=""font-size: 48px;"">+</p>","","","","","null","allTrialResponses","1500","1","8","img_art/15.jpg","-17","the color highlights fail to make an impression among the blackness","Mitchell,Paul,Steven,Luke,Joseph,Jeremy","ants on the ground playing with bubble gum. They may be thinking of how they can use it to build something,-30,180,20","I don't feel much of anything when looking at this, it's just a random pattern,1,300,20","I'm just not into it,-5,160,20","it looks like trees but they are up to interpretation,16,20,20","Bushes, good! Life, good!,12,220,20","I feel nothing when looking at this,1,60,20","Mitchell","ants on the ground playing with bubble gum. They may be thinking of how they can use it to build something,-30,180,20","Joseph","Bushes, good! Life, good!,12,220,20","Steven","I'm just not into it,-5,160,20","2"
"21075","","survey-text","102","497363","0.0-101.0-0.0","A5P12YJP805RG","","","","{""Q0"":""like a musical piece but made art. Almost looks like ships with masts sailing""}","","","","","","","","","","","","","","","","","","","","","","",""
"2206.2999999523163","","image-slider-response","103","499570","0.0-102.0","A5P12YJP805RG","","","","","18","","","","","","","","","","","","","","","","","","","","","",""
"null","","image-button-response","104","504573","0.0-103.0","A5P12YJP805RG","img_art/11.jpg","null","","","","","","","","","","","","","","","","","","","","","","","","",""
"1210","","image-button-response","105","505787","0.0-104.0","A5P12YJP805RG","img_art/11.jpg","2","","","","","","","","","","","","","","","","","","","","","","","","",""
"590","","image-button-response","106","506379","0.0-105.0-0.0","A5P12YJP805RG","img_art/11.jpg","0","","","","","","","","","","","","","","","","","","","","","","","","",""
"1496","","image-button-response","107","507876","0.0-106.0-0.0","A5P12YJP805RG","img_art/11.jpg","5","","","","","","","","","","","","","","","","","","","","","","","","",""
"null","","html-keyboard-response","108","508378","0.0-107.0","A5P12YJP805RG","<p style=""font-size: 48px;"">+</p>","","","","","null","allTrialResponses","500","1","9","img_art/11.jpg","18","like a musical piece but made art. Almost looks like ships with masts sailing","Mitchell,Jordan,Steven,Samuel,Joseph,Cole","Busy city life. transportation, anxiety.,10,180,20","Rainy highways in RI,20,160,20","Oh, I love this one, it says to me that life is very busy,50,160,20","business of traffic,10,400,20","I like that it could be train tracks, or telephone wires, etc. It's always a means of getting from a to b.,15,220,20","Grays arent my thing,-25,200,20","Steven","Oh, I love this one, it says to me that life is very busy,50,160,20","Mitchell","Busy city life. transportation, anxiety.,10,180,20","Cole","Grays arent my thing,-25,200,20","2"
"21374","","survey-text","109","529762","0.0-108.0-0.0","A5P12YJP805RG","","","","{""Q0"":""a child's angry scribbles, but respectfully kept in the bounds of a rough rectangle""}","","","","","","","","","","","","","","","","","","","","","","",""
"2902.4000000953674","","image-slider-response","110","532666","0.0-109.0","A5P12YJP805RG","","","","","-30","","","","","","","","","","","","","","","","","","","","","",""
"null","","image-button-response","111","537670","0.0-110.0","A5P12YJP805RG","img_art/3.jpg","null","","","","","","","","","","","","","","","","","","","","","","","","",""
"1003","","image-button-response","112","538675","0.0-111.0","A5P12YJP805RG","img_art/3.jpg","2","","","","","","","","","","","","","","","","","","","","","","","","",""
"446","","image-button-response","113","539123","0.0-112.0-0.0","A5P12YJP805RG","img_art/3.jpg","1","","","","","","","","","","","","","","","","","","","","","","","","",""
"1422","","image-button-response","114","540546","0.0-113.0-0.0","A5P12YJP805RG","img_art/3.jpg","0","","","","","","","","","","","","","","","","","","","","","","","","",""
"null","","html-keyboard-response","115","541057","0.0-114.0","A5P12YJP805RG","<p style=""font-size: 48px;"">+</p>","","","","","null","allTrialResponses","500","1","10","img_art/3.jpg","-30","a child's angry scribbles, but respectfully kept in the bounds of a rough rectangle","Mitchell,Blake,Steven,Bryce,Travis,Cole","Anger, like something a serial killer may paint.,-30,180,20","painted by a 2 year old. cold and boring,-30,280,20","i don't like this, just looks like scribbles,-50,160,20","Scary. Looks like blood.,-45,20,20","I hate this...just a scribble of red.,-50,260,20","Sharp peaks look like sharp teeth,-37,200,20","Steven","i don't like this, just looks like scribbles,-50,160,20","Blake","painted by a 2 year old. cold and boring,-30,280,20","Mitchell","Anger, like something a serial killer may paint.,-30,180,20","2"
"2655","","survey-text","116","543730","0.0-115.0-0.0","A5P12YJP805RG","","","","{""Q0"":""our""}","","","","","","","","","","","","","","","","","","","","","","",""
"13951","","survey-text","117","557682","0.0-116.0-0.0","A5P12YJP805RG","","","","{""Q0"":""Someone started to draw a head, then gave up and made this""}","","","","","","","","","","","","","","","","","","","","","","",""
"2726.399999856949","","image-slider-response","118","560410","0.0-117.0","A5P12YJP805RG","","","","","-23","","","","","","","","","","","","","","","","","","","","","",""
"null","","image-button-response","119","565413","0.0-118.0","A5P12YJP805RG","img_art/4.jpg","null","","","","","","","","","","","","","","","","","","","","","","","","",""
"850","","image-button-response","120","566267","0.0-119.0","A5P12YJP805RG","img_art/4.jpg","2","","","","","","","","","","","","","","","","","","","","","","","","",""
"366","","image-button-response","121","566635","0.0-120.0-0.0","A5P12YJP805RG","img_art/4.jpg","1","","","","","","","","","","","","","","","","","","","","","","","","",""
"3246","","image-button-response","122","569883","0.0-121.0-0.0","A5P12YJP805RG","img_art/4.jpg","0","","","","","","","","","","","","","","","","","","","","","","","","",""
"null","","html-keyboard-response","123","570398","0.0-122.0","A5P12YJP805RG","<p style=""font-size: 48px;"">+</p>","","","","","null","allTrialResponses","500","1","11","img_art/4.jpg","-23","Someone started to draw a head, then gave up and made this","Mitchell,Blake,Steven,Lucas,Scott,Marcus","Hearts, family connected. They are standing on a narrow base and could fall to pieces at anytime.,40,180,20","ugly puke yellow is cold and dark,-29,280,20","The colors remind me of mcdonalds,-33,160,20","Not bad at all.,20,380,20","feels free flowing and relaxed,21,20,20","Really like the colors, but don't like the object/squiggle in darker gold and black,4,60,20","Steven","The colors remind me of mcdonalds,-33,160,20","Blake","ugly puke yellow is cold and dark,-29,280,20","Mitchell","Hearts, family connected. They are standing on a narrow base and could fall to pieces at anytime.,40,180,20","2"
"21539","","survey-text","124","591946","0.0-123.0-0.0","A5P12YJP805RG","","","","{""Q0"":""Lots of houses interconnected. A community perhaps watched over by god""}","","","","","","","","","","","","","","","","","","","","","","",""
"2038.7999999523163","","image-slider-response","125","593986","0.0-124.0","A5P12YJP805RG","","","","","13","","","","","","","","","","","","","","","","","","","","","",""
"null","","image-button-response","126","599475","0.0-125.0","A5P12YJP805RG","img_art/8.jpg","null","","","","","","","","","","","","","","","","","","","","","","","","",""
"3204","","image-button-response","127","602682","0.0-126.0","A5P12YJP805RG","img_art/8.jpg","3","","","","","","","","","","","","","","","","","","","","","","","","",""
"1311","","image-button-response","128","603994","0.0-127.0-0.0","A5P12YJP805RG","img_art/8.jpg","0","","","","","","","","","","","","","","","","","","","","","","","","",""
"791","","image-button-response","129","604787","0.0-128.0-0.0","A5P12YJP805RG","img_art/8.jpg","5","","","","","","","","","","","","","","","","","","","","","","","","",""
"null","","html-keyboard-response","130","605289","0.0-129.0","A5P12YJP805RG","<p style=""font-size: 48px;"">+</p>","","","","","null","allTrialResponses","500","1","12","img_art/8.jpg","13","Lots of houses interconnected. A community perhaps watched over by god","Mitchell,Blake,Steven,James,Dylan,Charles","Lost in a big city confuse as to where to go to next. No matter if you live in a mansion or homeless. Being bigger than what is going on around you,30,180,20","cold city controlled by evil gods,-17,280,20","very nice, i love what's going on here,21,160,20","It's very odd and I don't really like it,-30,380,20","The colors are nice but the big face in the sky is creepy,-11,40,20","Feels very 90's but I like the doorway,15,100,20","James","It's very odd and I don't really like it,-30,380,20","Mitchell","Lost in a big city confuse as to where to go to next. No matter if you live in a mansion or homeless. Being bigger than what is going on around you,30,180,20","Charles","Feels very 90's but I like the doorway,15,100,20","2"
"18176","","survey-text","131","623474","0.0-130.0-0.0","A5P12YJP805RG","","","","{""Q0"":""a mish mash mess in a community setting, a village""}","","","","","","","","","","","","","","","","","","","","","","",""
"3062.600000143051","","image-slider-response","132","626538","0.0-131.0","A5P12YJP805RG","","","","","-18","","","","","","","","","","","","","","","","","","","","","",""
"null","","image-button-response","133","631549","0.0-132.0","A5P12YJP805RG","img_art/19.jpg","null","","","","","","","","","","","","","","","","","","","","","","","","",""
"1594","","image-button-response","134","633146","0.0-133.0","A5P12YJP805RG","img_art/19.jpg","1","","","","","","","","","","","","","","","","","","","","","","","","",""
"735","","image-button-response","135","633882","0.0-134.0-0.0","A5P12YJP805RG","img_art/19.jpg","3","","","","","","","","","","","","","","","","","","","","","","","","",""
"2422","","image-button-response","136","636307","0.0-135.0-0.0","A5P12YJP805RG","img_art/19.jpg","2","","","","","","","","","","","","","","","","","","","","","","","","",""
"null","","html-keyboard-response","137","637814","0.0-136.0","A5P12YJP805RG","<p style=""font-size: 48px;"">+</p>","","","","","null","allTrialResponses","1500","1","13","img_art/19.jpg","-18","a mish mash mess in a community setting, a village","Mitchell,Robert,John,James,William,Charles","Higher power looking down at its creation with a half smile and some hurt.,45,180,20","A dreary town in the fall.,-4,360,20","There's alot of elements to it bordering on clutter and chaotic,-20,120,20","I don't know what's going on, and I realise that I don't like it,-21,380,20","to much going on,-22,380,20","The blue makes it look like it has depth,11,100,20","Robert","A dreary town in the fall.,-4,360,20","James","I don't know what's going on, and I realise that I don't like it,-21,380,20","John","There's alot of elements to it bordering on clutter and chaotic,-20,120,20","2"
"21722","","survey-text","138","659546","0.0-137.0-0.0","A5P12YJP805RG","","","","{""Q0"":""just another day of conflict in heaven? not sure what this is""}","","","","","","","","","","","","","","","","","","","","","","",""
"1950.7000000476837","","image-slider-response","139","661498","0.0-138.0","A5P12YJP805RG","","","","","-6","","","","","","","","","","","","","","","","","","","","","",""
"null","","image-button-response","140","666514","0.0-139.0","A5P12YJP805RG","img_art/18.jpg","null","","","","","","","","","","","","","","","","","","","","","","","","",""
"1246","","image-button-response","141","667763","0.0-140.0","A5P12YJP805RG","img_art/18.jpg","1","","","","","","","","","","","","","","","","","","","","","","","","",""
"486","","image-button-response","142","668251","0.0-141.0-0.0","A5P12YJP805RG","img_art/18.jpg","2","","","","","","","","","","","","","","","","","","","","","","","","",""
"1614","","image-button-response","143","669867","0.0-142.0-0.0","A5P12YJP805RG","img_art/18.jpg","5","","","","","","","","","","","","","","","","","","","","","","","","",""
"null","","html-keyboard-response","144","670882","0.0-143.0","A5P12YJP805RG","<p style=""font-size: 48px;"">+</p>","","","","","null","allTrialResponses","1000","1","14","img_art/18.jpg","-6","just another day of conflict in heaven? not sure what this is","Daniel,Robert,John,James,Devon,Justin","Nice palette with complexity becoming nice at the center,34,320,20","It made me think of a car crash,-39,360,20","There are alot of elements to this painting and a good mix of colors,32,120,20","Very eerie and it's spooky,11,380,20","I really like this one - there seems to be a story behind it,32,400,20","This is really interesting to look at. I like the colors and the spectral look.,27,280,20","Robert","It made me think of a car crash,-39,360,20","John","There are alot of elements to this painting and a good mix of colors,32,120,20","Justin","This is really interesting to look at. I like the colors and the spectral look.,27,280,20","2"
"18909","","survey-text","145","689803","0.0-144.0-0.0","A5P12YJP805RG","","","","{""Q0"":""Nice smooth brush strokes. Not anything, but certainly not bad to look at""}","","","","","","","","","","","","","","","","","","","","","","",""
"2518.600000143051","","image-slider-response","146","692323","0.0-145.0","A5P12YJP805RG","","","","","8","","","","","","","","","","","","","","","","","","","","","",""
"null","","image-button-response","147","697334","0.0-146.0","A5P12YJP805RG","img_art/30.jpg","null","","","","","","","","","","","","","","","","","","","","","","","","",""
"1923","","image-button-response","148","699260","0.0-147.0","A5P12YJP805RG","img_art/30.jpg","2","","","","","","","","","","","","","","","","","","","","","","","","",""
"349","","image-button-response","149","699611","0.0-148.0-0.0","A5P12YJP805RG","img_art/30.jpg","1","","","","","","","","","","","","","","","","","","","","","","","","",""
"1062","","image-button-response","150","700675","0.0-149.0-0.0","A5P12YJP805RG","img_art/30.jpg","4","","","","","","","","","","","","","","","","","","","","","","","","",""
"null","","html-keyboard-response","151","702183","0.0-150.0","A5P12YJP805RG","<p style=""font-size: 48px;"">+</p>","","","","","null","allTrialResponses","1500","1","15","img_art/30.jpg","8","Nice smooth brush strokes. Not anything, but certainly not bad to look at","Timothy,Robert,John,Brian,Dalton,Justin","It's pleasent but otherwise unprovoking,8,240,20","My kindergarten class could do this,-50,360,20","ugly nasty colors,-10,120,20","this is probably part of a neat series, but the abstraction doesn't speak to me,-17,380,20","beautiful paint brush strokes,1,300,20","The colors and the brushstrokes are interesting enough.,17,280,20","John","ugly nasty colors,-10,120,20","Robert","My kindergarten class could do this,-50,360,20","Dalton","beautiful paint brush strokes,1,300,20","2"
"2614","","survey-text","152","704811","0.0-151.0-0.0","A5P12YJP805RG","","","","{""Q0"":""course""}","","","","","","","","","","","","","","","","","","","","","","",""
"23846","","survey-text","153","728658","0.0-152.0-0.0","A5P12YJP805RG","","","","{""Q0"":""a bird thing with skinny legs standing in the desert. simple and neutral""}","","","","","","","","","","","","","","","","","","","","","","",""
"2542.899999856949","","image-slider-response","154","731202","0.0-153.0","A5P12YJP805RG","","","","","4","","","","","","","","","","","","","","","","","","","","","",""
"null","","image-button-response","155","736205","0.0-154.0","A5P12YJP805RG","img_art/6.jpg","null","","","","","","","","","","","","","","","","","","","","","","","","",""
"723","","image-button-response","156","736931","0.0-155.0","A5P12YJP805RG","img_art/6.jpg","1","","","","","","","","","","","","","","","","","","","","","","","","",""
"758","","image-button-response","157","737691","0.0-156.0-0.0","A5P12YJP805RG","img_art/6.jpg","0","","","","","","","","","","","","","","","","","","","","","","","","",""
"1662","","image-button-response","158","739355","0.0-157.0-0.0","A5P12YJP805RG","img_art/6.jpg","5","","","","","","","","","","","","","","","","","","","","","","","","",""
"null","","html-keyboard-response","159","740365","0.0-158.0","A5P12YJP805RG","<p style=""font-size: 48px;"">+</p>","","","","","null","allTrialResponses","1000","1","16","img_art/6.jpg","4","a bird thing with skinny legs standing in the desert. simple and neutral","Alex,Robert,John,Gregory,Dalton,Vincent","Definitely belongs at a doctor's office, I think it's a crow or a tree?,-3,100,20","Nevermore!  A black raven sitting on a pumpkin. Halloween,-35,360,20","It makes me stop and think about what the artist is trying to say.It creates a feeling of solitude and tranqulity,30,120,20","Tree growing in a desert. Gives me feelings of hope,5,220,20","it looks like a stick holding a wig on a cliff,21,300,20","Calm and catching,30,360,20","Robert","Nevermore!  A black raven sitting on a pumpkin. Halloween,-35,360,20","Alex","Definitely belongs at a doctor's office, I think it's a crow or a tree?,-3,100,20","Vincent","Calm and catching,30,360,20","2"
"17673","","survey-text","160","758050","0.0-159.0-0.0","A5P12YJP805RG","","","","{""Q0"":""it's just a mess. What is this?""}","","","","","","","","","","","","","","","","","","","","","","",""
"3494.5999999046326","","image-slider-response","161","761546","0.0-160.0","A5P12YJP805RG","","","","","-37","","","","","","","","","","","","","","","","","","","","","",""
"null","","image-button-response","162","766548","0.0-161.0","A5P12YJP805RG","img_art/27.jpg","null","","","","","","","","","","","","","","","","","","","","","","","","",""
"629","","image-button-response","163","767179","0.0-162.0","A5P12YJP805RG","img_art/27.jpg","3","","","","","","","","","","","","","","","","","","","","","","","","",""
"1294","","image-button-response","164","768475","0.0-163.0-0.0","A5P12YJP805RG","img_art/27.jpg","0","","","","","","","","","","","","","","","","","","","","","","","","",""
"1078","","image-button-response","165","769555","0.0-164.0-0.0","A5P12YJP805RG","img_art/27.jpg","5","","","","","","","","","","","","","","","","","","","","","","","","",""
"null","","html-keyboard-response","166","770557","0.0-165.0","A5P12YJP805RG","<p style=""font-size: 48px;"">+</p>","","","","","null","allTrialResponses","1000","1","17","img_art/27.jpg","-37","it's just a mess. What is this?","Alex,Robert,Nicholas,Dakota,Derek,Vincent","very abstract, I don't understand it, but I like the bright, cheerful colors,14,100,20","The black sketchy over the colors doesn't fit.,-4,360,20","I like all it has going but i wouldnt put it in my house unless my child did it,25,240,20","feels like a bar scene, tucked away in the corner of a small town,-40,280,20","I love the mood of this painting,30,360,20","A beautiful day full of Hope and Inspiritation. The warmth of hot cocoa with the family gathering around,33,360,20","Dakota","feels like a bar scene, tucked away in the corner of a small town,-40,280,20","Alex","very abstract, I don't understand it, but I like the bright, cheerful colors,14,100,20","Vincent","A beautiful day full of Hope and Inspiritation. The warmth of hot cocoa with the family gathering around,33,360,20","2"
"15715","","survey-text","167","786283","0.0-166.0-0.0","A5P12YJP805RG","","","","{""Q0"":""mish mash of colors another abstract""}","","","","","","","","","","","","","","","","","","","","","","",""
"3086","","image-slider-response","168","789370","0.0-167.0","A5P12YJP805RG","","","","","-20","","","","","","","","","","","","","","","","","","","","","",""
"null","","image-button-response","169","794373","0.0-168.0","A5P12YJP805RG","img_art/1.jpg","null","","","","","","","","","","","","","","","","","","","","","","","","",""
"90","","image-button-response","170","794467","0.0-169.0","A5P12YJP805RG","img_art/1.jpg","2","","","","","","","","","","","","","","","","","","","","","","","","",""
"639","","image-button-response","171","795106","0.0-170.0-0.0","A5P12YJP805RG","img_art/1.jpg","0","","","","","","","","","","","","","","","","","","","","","","","","",""
"2423","","image-button-response","172","797530","0.0-171.0-0.0","A5P12YJP805RG","img_art/1.jpg","1","","","","","","","","","","","","","","","","","","","","","","","","",""
"null","","html-keyboard-response","173","798538","0.0-172.0","A5P12YJP805RG","<p style=""font-size: 48px;"">+</p>","","","","","null","allTrialResponses","1000","1","18","img_art/1.jpg","-20","mish mash of colors another abstract","Alex,Ethan,Nathan,Dakota,Richard,Vincent","Random paint does not make art,-5,100,20","This piece feels soft and romantic to me. I do not care for so much orange though.,3,120,20","Not a fan of the mood, overly party-ish and bright colors do not suit my taste,-40,200,20","soft and touchable, muddled,15,280,20","nice piece, fall like,31,340,20","I love the detail and colors like a beautiful autumn day,35,360,20","Nathan","Not a fan of the mood, overly party-ish and bright colors do not suit my taste,-40,200,20","Alex","Random paint does not make art,-5,100,20","Ethan","This piece feels soft and romantic to me. I do not care for so much orange though.,3,120,20","2"
"12988","","survey-text","174","811538","0.0-173.0-0.0","A5P12YJP805RG","","","","{""Q0"":""like photos were cut out and pasted onto a black canvas""}","","","","","","","","","","","","","","","","","","","","","","",""
"5702.5","","image-slider-response","175","817242","0.0-174.0","A5P12YJP805RG","","","","","-3","","","","","","","","","","","","","","","","","","","","","",""
"3847","","image-button-response","176","822248","0.0-175.0","A5P12YJP805RG","img_art/16.jpg","4","","","","","","","","","","","","","","","","","","","","","","","","",""
"504","","image-button-response","177","822755","0.0-176.0","A5P12YJP805RG","img_art/16.jpg","4","","","","","","","","","","","","","","","","","","","","","","","","",""
"310","","image-button-response","178","823067","0.0-177.0-0.0","A5P12YJP805RG","img_art/16.jpg","5","","","","","","","","","","","","","","","","","","","","","","","","",""
"2158","","image-button-response","179","825226","0.0-178.0-0.0","A5P12YJP805RG","img_art/16.jpg","0","","","","","","","","","","","","","","","","","","","","","","","","",""
"null","","html-keyboard-response","180","826728","0.0-179.0","A5P12YJP805RG","<p style=""font-size: 48px;"">+</p>","","","","","null","allTrialResponses","1500","1","19","img_art/16.jpg","-3","like photos were cut out and pasted onto a black canvas","Alex,Ethan,Nathan,Kyle,Jason,David","I'm a fan of collage and of reminiscing about childhood so this was nice,10,100,20","This is a neat piece. Sort of shocking. I think it's too monochromatic though.,19,120,20","I enjoy how slightly strange this is, while seeming to still have some message,20,200,20","I like it because it's quite different from the rest,23,340,20","The bear is a weird choice,-22,20,20","The colored teddy bear clashes with the color scheme.,-20,340,20","Jason","The bear is a weird choice,-22,20,20","David","The colored teddy bear clashes with the color scheme.,-20,340,20","Alex","I'm a fan of collage and of reminiscing about childhood so this was nice,10,100,20","2"
"25590","","survey-text","181","852330","0.0-180.0-0.0","A5P12YJP805RG","","","","{""Q0"":""if art got scrambled and cubed into a mish mash jigsaw puzzle""}","","","","","","","","","","","","","","","","","","","","","","",""
"2918.5","","image-slider-response","182","855250","0.0-181.0","A5P12YJP805RG","","","","","-8","","","","","","","","","","","","","","","","","","","","","",""
"null","","image-button-response","183","860252","0.0-182.0","A5P12YJP805RG","img_art/12.jpg","null","","","","","","","","","","","","","","","","","","","","","","","","",""
"468","","image-button-response","184","860723","0.0-183.0","A5P12YJP805RG","img_art/12.jpg","1","","","","","","","","","","","","","","","","","","","","","","","","",""
"302","","image-button-response","185","861027","0.0-184.0-0.0","A5P12YJP805RG","img_art/12.jpg","0","","","","","","","","","","","","","","","","","","","","","","","","",""
"2758","","image-button-response","186","863787","0.0-185.0-0.0","A5P12YJP805RG","img_art/12.jpg","5","","","","","","","","","","","","","","","","","","","","","","","","",""
"null","","html-keyboard-response","187","865290","0.0-186.0","A5P12YJP805RG","<p style=""font-size: 48px;"">+</p>","","","","","null","allTrialResponses","1500","1","20","img_art/12.jpg","-8","if art got scrambled and cubed into a mish mash jigsaw puzzle","Alex,Juan,Alexis,Corey,Jason,David","eww hate everything about this, looks like it belongs in a dentist's office,-14,100,20","This is too abstract and the colors are too worn out.,-23,260,20","In my opinion, this photo has an old school vibe,22,140,20","I like the bottom half and hate the top half,7,260,20","The shapes present in the picture make it very interesting,17,20,20","This doesn't invoke anything. Just a mosaic of random images.,0,340,20","Juan","This is too abstract and the colors are too worn out.,-23,260,20","Alex","eww hate everything about this, looks like it belongs in a dentist's office,-14,100,20","David","This doesn't invoke anything. Just a mosaic of random images.,0,340,20","2"
"3892","","survey-text","188","869210","0.0-187.0-0.0","A5P12YJP805RG","","","","{""Q0"":""we""}","","","","","","","","","","","","","","","","","","","","","","",""
"17935","","survey-text","189","887146","0.0-188.0-0.0","A5P12YJP805RG","","","","{""Q0"":""a sewed shut mouth and a face of pure chaos""}","","","","","","","","","","","","","","","","","","","","","","",""
"5238.399999856949","","image-slider-response","190","892386","0.0-189.0","A5P12YJP805RG","","","","","6","","","","","","","","","","","","","","","","","","","","","",""
"null","","image-button-response","191","897402","0.0-190.0","A5P12YJP805RG","img_art/23.jpg","null","","","","","","","","","","","","","","","","","","","","","","","","",""
"1095","","image-button-response","192","898499","0.0-191.0","A5P12YJP805RG","img_art/23.jpg","4","","","","","","","","","","","","","","","","","","","","","","","","",""
"662","","image-button-response","193","899163","0.0-192.0-0.0","A5P12YJP805RG","img_art/23.jpg","1","","","","","","","","","","","","","","","","","","","","","","","","",""
"1542","","image-button-response","194","900707","0.0-193.0-0.0","A5P12YJP805RG","img_art/23.jpg","0","","","","","","","","","","","","","","","","","","","","","","","","",""
"null","","html-keyboard-response","195","901717","0.0-194.0","A5P12YJP805RG","<p style=""font-size: 48px;"">+</p>","","","","","null","allTrialResponses","1000","1","21","img_art/23.jpg","6","a sewed shut mouth and a face of pure chaos","Alex,Juan,Jacob,Jesse,Eric,David","This is nice, the colorful background is fun and the white looks like dancing figures,5,100,20","This is ugly and weird.,-50,260,20","This is very cool!,24,340,20","Makes me want to stare at it for hours. Like there is something deeper to find.,37,80,20","The piece seems chaotic, and I dislike the random pop of white within so many colors.,-10,100,20","I like the symmetrical design and how it portrays the liveliness of a musical environment.,30,340,20","Eric","The piece seems chaotic, and I dislike the random pop of white within so many colors.,-10,100,20","Juan","This is ugly and weird.,-50,260,20","Alex","This is nice, the colorful background is fun and the white looks like dancing figures,5,100,20","2"
"28912","","survey-text","196","930643","0.0-195.0-0.0","A5P12YJP805RG","","","","{""Q0"":""Looks like someone is trying to bash through artist's block. or wall in this case""}","","","","","","","","","","","","","","","","","","","","","","",""
"2038.7000000476837","","image-slider-response","197","932683","0.0-196.0","A5P12YJP805RG","","","","","10","","","","","","","","","","","","","","","","","","","","","",""
"null","","image-button-response","198","937696","0.0-197.0","A5P12YJP805RG","img_art/29.jpg","null","","","","","","","","","","","","","","","","","","","","","","","","",""
"872","","image-button-response","199","938571","0.0-198.0","A5P12YJP805RG","img_art/29.jpg","1","","","","","","","","","","","","","","","","","","","","","","","","",""
"1206","","image-button-response","200","939779","0.0-199.0-0.0","A5P12YJP805RG","img_art/29.jpg","2","","","","","","","","","","","","","","","","","","","","","","","","",""
"1150","","image-button-response","201","940931","0.0-200.0-0.0","A5P12YJP805RG","img_art/29.jpg","0","","","","","","","","","","","","","","","","","","","","","","","","",""
"null","","html-keyboard-response","202","941942","0.0-201.0","A5P12YJP805RG","<p style=""font-size: 48px;"">+</p>","","","","","null","allTrialResponses","1000","1","22","img_art/29.jpg","10","Looks like someone is trying to bash through artist's block. or wall in this case","Alex,Juan,Shane,Edward,Eric,Connor","The texture really stands out, this is an interesting composition,6,100,20","I hate the red x over everything, hate the black hate how hopeless this is.,-50,260,20","Darkness and torment,-50,80,20","Like a crime scene. It's neat and different,30,60,20","I like that the colors are toned down even though they're everywhere.,5,100,20","Red X is scary, like the bricks,7,240,20","Juan","I hate the red x over everything, hate the black hate how hopeless this is.,-50,260,20","Shane","Darkness and torment,-50,80,20","Alex","The texture really stands out, this is an interesting composition,6,100,20","2"
"15680","","survey-text","203","957635","0.0-202.0-0.0","A5P12YJP805RG","","","","{""Q0"":""very cramped feeling and a bit depressing""}","","","","","","","","","","","","","","","","","","","","","","",""
"2582.5","","image-slider-response","204","960219","0.0-203.0","A5P12YJP805RG","","","","","-19","","","","","","","","","","","","","","","","","","","","","",""
"null","","image-button-response","205","965222","0.0-204.0","A5P12YJP805RG","img_art/9.jpg","null","","","","","","","","","","","","","","","","","","","","","","","","",""
"250","","image-button-response","206","965475","0.0-205.0","A5P12YJP805RG","img_art/9.jpg","2","","","","","","","","","","","","","","","","","","","","","","","","",""
"494","","image-button-response","207","965971","0.0-206.0-0.0","A5P12YJP805RG","img_art/9.jpg","1","","","","","","","","","","","","","","","","","","","","","","","","",""
"606","","image-button-response","208","966579","0.0-207.0-0.0","A5P12YJP805RG","img_art/9.jpg","3","","","","","","","","","","","","","","","","","","","","","","","","",""
"null","","html-keyboard-response","209","967081","0.0-208.0","A5P12YJP805RG","<p style=""font-size: 48px;"">+</p>","","","","","null","allTrialResponses","500","1","23","img_art/9.jpg","-19","very cramped feeling and a bit depressing","Alex,Juan,Shane,Ryan,Nathaniel,Patrick","Alright, I can see a reclining lady, I'm just glad to be able to tell what's in the picture,5,100,20","It's too abstract for my taste. I wish there were more definition.,-9,260,20","Angry beast mouth,-37,80,20","Makes me feel angry, its not very clear,-50,380,20","Not very enticing. No real substance other than a lady laying down,-35,220,20","Spiral patterns are not my thing,-30,280,20","Shane","Angry beast mouth,-37,80,20","Juan","It's too abstract for my taste. I wish there were more definition.,-9,260,20","Ryan","Makes me feel angry, its not very clear,-50,380,20","2"
"18189","","survey-text","210","985282","0.0-209.0-0.0","A5P12YJP805RG","","","","{""Q0"":""a collage of soft childish colors and faint objects""}","","","","","","","","","","","","","","","","","","","","","","",""
"3206.399999856949","","image-slider-response","211","988490","0.0-210.0","A5P12YJP805RG","","","","","-6","","","","","","","","","","","","","","","","","","","","","",""
"null","","image-button-response","212","993493","0.0-211.0","A5P12YJP805RG","img_art/2.jpg","null","","","","","","","","","","","","","","","","","","","","","","","","",""
"363","","image-button-response","213","993859","0.0-212.0","A5P12YJP805RG","img_art/2.jpg","0","","","","","","","","","","","","","","","","","","","","","","","","",""
"310","","image-button-response","214","994171","0.0-213.0-0.0","A5P12YJP805RG","img_art/2.jpg","1","","","","","","","","","","","","","","","","","","","","","","","","",""
"1734","","image-button-response","215","995907","0.0-214.0-0.0","A5P12YJP805RG","img_art/2.jpg","4","","","","","","","","","","","","","","","","","","","","","","","","",""
"null","","html-keyboard-response","216","997409","0.0-215.0","A5P12YJP805RG","<p style=""font-size: 48px;"">+</p>","","","","","null","allTrialResponses","1500","1","24","img_art/2.jpg","-6","a collage of soft childish colors and faint objects","Grant,Juan,Shane,Ryan,Thomas,Anthony","The colors are entirely unappealing and very unpleasant to look at.,-20,200,20","I don't like the abstract nature of this painting or the colors used.,-50,260,20","Feels like a playground or park vibe,27,80,20","Very simple and childish,40,380,20","My first thought was that it looks like a children's art project,-30,220,20","Ugly color scheme,-50,200,20","Grant","The colors are entirely unappealing and very unpleasant to look at.,-20,200,20","Juan","I don't like the abstract nature of this painting or the colors used.,-50,260,20","Thomas","My first thought was that it looks like a children's art project,-30,220,20","2"
"20779","","survey-text","217","1018194","0.0-216.0-0.0","A5P12YJP805RG","","","","{""Q0"":""seems cool and calm""}","","","","","","","","","","","","","","","","","","","","","","",""
"1965.6999998092651","","image-slider-response","218","1020162","0.0-217.0","A5P12YJP805RG","","","","","15","","","","","","","","","","","","","","","","","","","","","",""
"3303","","image-button-response","219","1025165","0.0-218.0","A5P12YJP805RG","img_art/21.jpg","0","","","","","","","","","","","","","","","","","","","","","","","","",""
"58","","image-button-response","220","1025226","0.0-219.0","A5P12YJP805RG","img_art/21.jpg","0","","","","","","","","","","","","","","","","","","","","","","","","",""
"455","","image-button-response","221","1025683","0.0-220.0-0.0","A5P12YJP805RG","img_art/21.jpg","1","","","","","","","","","","","","","","","","","","","","","","","","",""
"2078","","image-button-response","222","1027763","0.0-221.0-0.0","A5P12YJP805RG","img_art/21.jpg","5","","","","","","","","","","","","","","","","","","","","","","","","",""
"null","","html-keyboard-response","223","1029278","0.0-222.0","A5P12YJP805RG","<p style=""font-size: 48px;"">+</p>","","","","","null","allTrialResponses","1500","1","25","img_art/21.jpg","15","seems cool and calm","Grant,Juan,Ian,Malik,Thomas,Bradley","The colors make me think of a perilous scene at sea, and are pretty interesting.,15,200,20","The colors and softness work together to make something that's lovely.,42,260,20","This looks very interesting because something is happening but I can't tell what.,28,260,20","Indistinct, but beautiful hues,10,40,20","Again, I love the use of color,50,220,20","Indifferent toward this one.,6,300,20","Grant","The colors make me think of a perilous scene at sea, and are pretty interesting.,15,200,20","Juan","The colors and softness work together to make something that's lovely.,42,260,20","Bradley","Indifferent toward this one.,6,300,20","2"
"3035","","survey-text","224","1032338","0.0-223.0-0.0","A5P12YJP805RG","","","","{""Q0"":""table""}","","","","","","","","","","","","","","","","","","","","","","",""
"19623","","survey-text","225","1051962","0.0-224.0-0.0","A5P12YJP805RG","","","","{""Q0"":""production facility polluting the local water""}","","","","","","","","","","","","","","","","","","","","","","",""
"2374.699999809265","","image-slider-response","226","1054338","0.0-225.0","A5P12YJP805RG","","","","","-17","","","","","","","","","","","","","","","","","","","","","",""
"null","","image-button-response","227","1059482","0.0-226.0","A5P12YJP805RG","img_art/20.jpg","null","","","","","","","","","","","","","","","","","","","","","","","","",""
"5542","","image-button-response","228","1065027","0.0-227.0","A5P12YJP805RG","img_art/20.jpg","1","","","","","","","","","","","","","","","","","","","","","","","","",""
"4422","","image-button-response","229","1069451","0.0-228.0-0.0","A5P12YJP805RG","img_art/20.jpg","5","","","","","","","","","","","","","","","","","","","","","","","","",""
"1701","","image-button-response","230","1071154","0.0-229.0-0.0","A5P12YJP805RG","img_art/20.jpg","0","","","","","","","","","","","","","","","","","","","","","","","","",""
"null","","html-keyboard-response","231","1072157","0.0-230.0","A5P12YJP805RG","<p style=""font-size: 48px;"">+</p>","","","","","null","allTrialResponses","1000","1","26","img_art/20.jpg","-17","production facility polluting the local water","Grant,Juan,Kenneth,Miguel,Garrett,Bradley","This elicits no reaction in me.,0,200,20","I like the deep blues, but I don't like the way this picture makes me feel.,-13,260,20","I want to like this more, but i wish it was more detailed. It's hard for me to see what it is.,5,300,20","It's ok. Very abstract.,18,160,20","I really like this. There are lots of objects the artist wanted to show and the colors are good.,38,180,20","A truck rolled over?  I do like the pictures and the technique though.,25,300,20","Juan","I like the deep blues, but I don't like the way this picture makes me feel.,-13,260,20","Bradley","A truck rolled over?  I do like the pictures and the technique though.,25,300,20","Grant","This elicits no reaction in me.,0,200,20","2"
"26390","","survey-text","232","1098562","0.0-231.0-0.0","A5P12YJP805RG","","","","{""Q0"":""meh. another day in your room except it's not in 1080p""}","","","","","","","","","","","","","","","","","","","","","","",""
"2518.5999999046326","","image-slider-response","233","1101082","0.0-232.0","A5P12YJP805RG","","","","","1","","","","","","","","","","","","","","","","","","","","","",""
"null","","image-button-response","234","1106088","0.0-233.0","A5P12YJP805RG","img_art/26.jpg","null","","","","","","","","","","","","","","","","","","","","","","","","",""
"1664","","image-button-response","235","1107755","0.0-234.0","A5P12YJP805RG","img_art/26.jpg","4","","","","","","","","","","","","","","","","","","","","","","","","",""
"517","","image-button-response","236","1108275","0.0-235.0-0.0","A5P12YJP805RG","img_art/26.jpg","3","","","","","","","","","","","","","","","","","","","","","","","","",""
"1462","","image-button-response","237","1109739","0.0-236.0-0.0","A5P12YJP805RG","img_art/26.jpg","5","","","","","","","","","","","","","","","","","","","","","","","","",""
"null","","html-keyboard-response","238","1111244","0.0-237.0","A5P12YJP805RG","<p style=""font-size: 48px;"">+</p>","","","","","null","allTrialResponses","1500","1","27","img_art/26.jpg","1","meh. another day in your room except it's not in 1080p","Grant,Juan,Matthew,Aaron,Cody,Bradley","It's a cute city scene. I like the trees.,10,200,20","Something I'd see in a thrift store. It looks like not much effort was used to paint this.,9,260,20","Telented watercolor artist or second grader.,18,120,20","It looks like a watercolor I did when I was 6.,-30,20,20","Looks unfinished,-31,180,20","I like this. Looks like a city street and I can use my imagination to make it come alive.,15,300,20","Cody","Looks unfinished,-31,180,20","Aaron","It looks like a watercolor I did when I was 6.,-30,20,20","Bradley","I like this. Looks like a city street and I can use my imagination to make it come alive.,15,300,20","2"
"27344","","survey-text","239","1138602","0.0-238.0-0.0","A5P12YJP805RG","","","","{""Q0"":""a pyramid's inhabitor being awoken. very roughly drawn""}","","","","","","","","","","","","","","","","","","","","","","",""
"3062.5","","image-slider-response","240","1141666","0.0-239.0","A5P12YJP805RG","","","","","-7","","","","","","","","","","","","","","","","","","","","","",""
"null","","image-button-response","241","1146678","0.0-240.0","A5P12YJP805RG","img_art/5.jpg","null","","","","","","","","","","","","","","","","","","","","","","","","",""
"1482","","image-button-response","242","1148163","0.0-241.0","A5P12YJP805RG","img_art/5.jpg","2","","","","","","","","","","","","","","","","","","","","","","","","",""
"495","","image-button-response","243","1148658","0.0-242.0-0.0","A5P12YJP805RG","img_art/5.jpg","0","","","","","","","","","","","","","","","","","","","","","","","","",""
"279","","image-button-response","244","1148938","0.0-243.0-0.0","A5P12YJP805RG","img_art/5.jpg","1","","","","","","","","","","","","","","","","","","","","","","","","",""
"null","","html-keyboard-response","245","1150440","0.0-244.0","A5P12YJP805RG","<p style=""font-size: 48px;"">+</p>","","","","","null","allTrialResponses","1500","1","28","img_art/5.jpg","-7","a pyramid's inhabitor being awoken. very roughly drawn","Mason,Elijah,Michael,Aaron,Cody,Bradley","pointless, ugly, not creative.,-50,100,20","Makes me feel weird,-16,80,20","Complete garbage. Looks like a kid drew it.,-50,140,20","It's kind of boring.,-20,20,20","Kind of ugly ....,-21,180,20","Looks like a tied up trash bag.,-10,300,20","Michael","Complete garbage. Looks like a kid drew it.,-50,140,20","Mason","pointless, ugly, not creative.,-50,100,20","Elijah","Makes me feel weird,-16,80,20","2"
"14809","","survey-text","246","1165266","0.0-245.0-0.0","A5P12YJP805RG","","","","{""Q0"":""looks like some tracks made on a different planet""}","","","","","","","","","","","","","","","","","","","","","","",""
"1838.7999999523163","","image-slider-response","247","1167106","0.0-246.0","A5P12YJP805RG","","","","","10","","","","","","","","","","","","","","","","","","","","","",""
"null","","image-button-response","248","1172109","0.0-247.0","A5P12YJP805RG","img_art/7.jpg","null","","","","","","","","","","","","","","","","","","","","","","","","",""
"898","","image-button-response","249","1173010","0.0-248.0","A5P12YJP805RG","img_art/7.jpg","0","","","","","","","","","","","","","","","","","","","","","","","","",""
"599","","image-button-response","250","1173611","0.0-249.0-0.0","A5P12YJP805RG","img_art/7.jpg","2","","","","","","","","","","","","","","","","","","","","","","","","",""
"790","","image-button-response","251","1174403","0.0-250.0-0.0","A5P12YJP805RG","img_art/7.jpg","3","","","","","","","","","","","","","","","","","","","","","","","","",""
"null","","html-keyboard-response","252","1175911","0.0-251.0","A5P12YJP805RG","<p style=""font-size: 48px;"">+</p>","","","","","null","allTrialResponses","1500","1","29","img_art/7.jpg","10","looks like some tracks made on a different planet","Mason,Elijah,Michael,Jared,Colton,Andrew","I don't get it. looks like a picture of the ground.,-42,100,20","Not highly impressed,-5,80,20","Ugly. I don't like the colors or the scattering.,-50,140,20","it looks like a dog ran through some wet cement,-22,400,20","reminds me of a cave wall,-21,220,20","It makes me think of new archaeology discoveries,15,160,20","Mason","I don't get it. looks like a picture of the ground.,-42,100,20","Michael","Ugly. I don't like the colors or the scattering.,-50,140,20","Jared","it looks like a dog ran through some wet cement,-22,400,20","2"
"16184","","survey-text","253","1192106","0.0-252.0-0.0","A5P12YJP805RG","","","","{""Q0"":""seems mysterious but otherwise neutral""}","","","","","","","","","","","","","","","","","","","","","","",""
"2670.5","","image-slider-response","254","1194778","0.0-253.0","A5P12YJP805RG","","","","","3","","","","","","","","","","","","","","","","","","","","","",""
"null","","image-button-response","255","1199782","0.0-254.0","A5P12YJP805RG","img_art/25.jpg","null","","","","","","","","","","","","","","","","","","","","","","","","",""
"33","","image-button-response","256","1199818","0.0-255.0","A5P12YJP805RG","img_art/25.jpg","2","","","","","","","","","","","","","","","","","","","","","","","","",""
"646","","image-button-response","257","1200467","0.0-256.0-0.0","A5P12YJP805RG","img_art/25.jpg","1","","","","","","","","","","","","","","","","","","","","","","","","",""
"1734","","image-button-response","258","1202203","0.0-257.0-0.0","A5P12YJP805RG","img_art/25.jpg","3","","","","","","","","","","","","","","","","","","","","","","","","",""
"null","","html-keyboard-response","259","1203713","0.0-258.0","A5P12YJP805RG","<p style=""font-size: 48px;"">+</p>","","","","","null","allTrialResponses","1500","1","30","img_art/25.jpg","3","seems mysterious but otherwise neutral","Mason,Jonathan,Michael,Jared,Gabriel,Bryan","death. childish nightmare.,-29,100,20","This painting is cool but it gives off an evil vibe,-10,140,20","Low skill not impressed.,-14,140,20","the green is serene. the figure is scare crow like,7,400,20","quite unnerving,-15,160,20","Scary. Something out of a Stephen King book/movie.,-31,400,20","Michael","Low skill not impressed.,-14,140,20","Jonathan","This painting is cool but it gives off an evil vibe,-10,140,20","Jared","the green is serene. the figure is scare crow like,7,400,20","2"
"3291","","image-button-response_instructions","260","1207019","0.0-259.0","A5P12YJP805RG","","0","instructions","","","","","","","","","","","","","","","","","","","","","","","",""
"939","","image-button-response","261","1207963","0.0-260.0","A5P12YJP805RG","","0","","","","","","","","","","","","","","","","","","","","","","","","",""
