"rt","url","trial_type","trial_index","time_elapsed","internal_node_id","participant_id","stimulus","button_pressed","Name","responses","response","key_press","variableName","fixationTime","condition","trial","photo","subjectRating","subjectResponse","agentsNames","agent_1_Response","agent_2_Response","agent_3_Response","agent_4_Response","agent_5_Response","agent_6_Response","kept_1_name","kept_1_response","kept_2_name","kept_2_response","kept_3_name","kept_3_response","errorCounter"
"12141","external_page_harvard.html","external-html","0","12252","0.0-0.0","A68J20100VW4W","","","","","","","","","","","","","","","","","","","","","","","","","","",""
"2344","","image-button-response","1","14599","0.0-1.0","A68J20100VW4W","","1","","","","","","","","","","","","","","","","","","","","","","","","",""
"1651","","image-button-response","2","16264","0.0-2.0-0.0","A68J20100VW4W","","1","phone","","","","","","","","","","","","","","","","","","","","","","","",""
"8700","","survey-text","3","24967","0.0-3.0-0.0","A68J20100VW4W","","","","{""Q0"":""A68J20100VW4W""}","","","","","","","","","","","","","","","","","","","","","","",""
"6234","","image-button-response_instructions","4","31204","0.0-4.0","A68J20100VW4W","","0","instructions","","","","","","","","","","","","","","","","","","","","","","","",""
"16782","","image-button-response_instructions","5","47989","0.0-5.0","A68J20100VW4W","img_art/ins/popularity/ins1.png","0","instructions","","","","","","","","","","","","","","","","","","","","","","","",""
"9211","","image-button-response_instructions","6","57202","0.0-6.0","A68J20100VW4W","img_art/ins/popularity/ins2.png","0","instructions","","","","","","","","","","","","","","","","","","","","","","","",""
"8317","","image-button-response_instructions","7","65520","0.0-7.0","A68J20100VW4W","img_art/ins/popularity/ins2Extreme.png","0","instructions","","","","","","","","","","","","","","","","","","","","","","","",""
"5255","","image-button-response_instructions","8","70778","0.0-8.0","A68J20100VW4W","img_art/ins/popularity/ins3KEEPpop.PNG","0","instructions","","","","","","","","","","","","","","","","","","","","","","","",""
"4071","","image-button-response_instructions","9","74851","0.0-9.0","A68J20100VW4W","img_art/ins/popularity/ins3ANamepop.PNG","0","instructions","","","","","","","","","","","","","","","","","","","","","","","",""
"4254","","image-button-response_instructions","10","79106","0.0-10.0","A68J20100VW4W","img_art/ins/popularity/ins3ARatingpop.png","0","instructions","","","","","","","","","","","","","","","","","","","","","","","",""
"3097","","image-button-response_instructions","11","82205","0.0-11.0","A68J20100VW4W","img_art/ins/popularity/ins3ATextpop.png","0","instructions","","","","","","","","","","","","","","","","","","","","","","","",""
"4016","","image-button-response_instructions","12","86223","0.0-12.0","A68J20100VW4W","img_art/ins/popularity/ins3ALikespop.png","0","instructions","","","","","","","","","","","","","","","","","","","","","","","",""
"6465","","image-button-response_instructions","13","92691","0.0-13.0","A68J20100VW4W","img_art/ins/popularity/ins3KEEPpop.PNG","0","instructions","","","","","","","","","","","","","","","","","","","","","","","",""
"9258","","image-button-response_instructions","14","101951","0.0-14.0","A68J20100VW4W","img_art/ins/popularity/ins3_5RED.png","0","instructions","","","","","","","","","","","","","","","","","","","","","","","",""
"4416","","image-button-response_instructions","15","106369","0.0-15.0","A68J20100VW4W","img_art/ins/popularity/ins3KEEPpop.PNG","0","instructions","","","","","","","","","","","","","","","","","","","","","","","",""
"6227","","image-button-response_instructions","16","112598","0.0-16.0","A68J20100VW4W","img_art/ins/popularity/ins4KEEPpop.PNG","0","instructions","","","","","","","","","","","","","","","","","","","","","","","",""
"3484","","image-button-response_instructions","17","116083","0.0-17.0","A68J20100VW4W","img_art/ins/popularity/ins5KEEPpop.PNG","0","instructions","","","","","","","","","","","","","","","","","","","","","","","",""
"1918","","image-button-response_instructions","18","118004","0.0-18.0","A68J20100VW4W","","0","instructions","","","","","","","","","","","","","","","","","","","","","","","",""
"8745","","survey-text","19","126792","0.0-19.0-0.0","A68J20100VW4W","","","","{""Q0"":""BUT""}","","","","","","","","","","","","","","","","","","","","","","",""
"11402","","survey-text","20","141526","0.0-19.1-0.1","A68J20100VW4W","","","","{""Q0"":""but""}","","","","","","","","","","","","","","","","","","","","","","",""
"12943","","survey-text","21","154472","0.0-20.0-0.0","A68J20100VW4W","","","","{""Q0"":""it is calming and pretty""}","","","","","","","","","","","","","","","","","","","","","","",""
"10143.39999999106","","image-slider-response","22","164620","0.0-21.0","A68J20100VW4W","","","","","2","","","","","","","","","","","","","","","","","","","","","",""
"null","","image-button-response","23","169626","0.0-22.0","A68J20100VW4W","img_art/ins/1.jpg","null","","","","","","","","","","","","","","","","","","","","","","","","",""
"9792","","image-button-response","24","179423","0.0-23.0","A68J20100VW4W","img_art/ins/1.jpg","5","","","","","","","","","","","","","","","","","","","","","","","","",""
"952","","image-button-response","25","180379","0.0-24.0-0.0","A68J20100VW4W","img_art/ins/1.jpg","4","","","","","","","","","","","","","","","","","","","","","","","","",""
"1252","","image-button-response","26","181635","0.0-25.0-0.0","A68J20100VW4W","img_art/ins/1.jpg","0","","","","","","","","","","","","","","","","","","","","","","","","",""
"null","","html-keyboard-response","27","182141","0.0-26.0","A68J20100VW4W","<p style=""font-size: 48px;"">+</p>","","","","","null","allTrialResponses","500","1","-2","img_art/ins/1.jpg","2","it is calming and pretty","Allison,Ashley,Beth,Dora,Erika,Jen","looks like a lot of things going on in the mist,20,20,20","I just don't get why these type of art would be popular,-32,40,20","This color reminds me of poo,-46,60,20","looks like what my niece in 3rd grade did this afternoon,-50,80,20","I like the sophisticated brushwork,40,100,20","It reminds me of a candy land dream I had,36,120,20","Jen","It reminds me of a candy land dream I had,36,120,20","Erika","I like the sophisticated brushwork,40,100,20","Allison","looks like a lot of things going on in the mist,20,20,20","1"
"16629","","survey-text","28","198778","0.0-27.0-0.0","A68J20100VW4W","","","","{""Q0"":""rough and dark""}","","","","","","","","","","","","","","","","","","","","","","",""
"6259.699999988079","","image-slider-response","29","205040","0.0-28.0","A68J20100VW4W","","","","","-24","","","","","","","","","","","","","","","","","","","","","",""
"null","","image-button-response","30","210044","0.0-29.0","A68J20100VW4W","img_art/ins/2.jpg","null","","","","","","","","","","","","","","","","","","","","","","","","",""
"7008","","image-button-response","31","217055","0.0-30.0","A68J20100VW4W","img_art/ins/2.jpg","5","","","","","","","","","","","","","","","","","","","","","","","","",""
"1190","","image-button-response","32","218248","0.0-31.0-0.0","A68J20100VW4W","img_art/ins/2.jpg","0","","","","","","","","","","","","","","","","","","","","","","","","",""
"1592","","image-button-response","33","219844","0.0-32.0-0.0","A68J20100VW4W","img_art/ins/2.jpg","1","","","","","","","","","","","","","","","","","","","","","","","","",""
"null","","html-keyboard-response","34","221356","0.0-33.0","A68J20100VW4W","<p style=""font-size: 48px;"">+</p>","","","","","null","allTrialResponses","1500","1","-1","img_art/ins/2.jpg","-24","rough and dark","Allison,Kara,Katie,Jenna,Erika,Jen","I don't have strong feelings about this,10,20,20","I like the blocks of color arrangements,30,160,20","too much color!,-28,180,20","One of my pet peevs,-48,140,20","I would never be able to compose a sophisticated pallete like this,48,100,20","It reminds me of a fireplace,36,120,20","Jen","It reminds me of a fireplace,36,120,20","Allison","I don't have strong feelings about this,10,20,20","Kara","I like the blocks of color arrangements,30,160,20","1"
"7904","","survey-text","35","229266","0.0-34.0-0.0","A68J20100VW4W","","","","{""Q0"":""pretty blues""}","","","","","","","","","","","","","","","","","","","","","","",""
"6351.0999999940395","","image-slider-response","36","235620","0.0-35.0","A68J20100VW4W","","","","","10","","","","","","","","","","","","","","","","","","","","","",""
"null","","image-button-response","37","240627","0.0-36.0","A68J20100VW4W","img_art/ins/3.jpg","null","","","","","","","","","","","","","","","","","","","","","","","","",""
"3755","","image-button-response","38","244387","0.0-37.0","A68J20100VW4W","img_art/ins/3.jpg","4","","","","","","","","","","","","","","","","","","","","","","","","",""
"898","","image-button-response","39","245289","0.0-38.0-0.0","A68J20100VW4W","img_art/ins/3.jpg","1","","","","","","","","","","","","","","","","","","","","","","","","",""
"567","","image-button-response","40","245860","0.0-39.0-0.0","A68J20100VW4W","img_art/ins/3.jpg","0","","","","","","","","","","","","","","","","","","","","","","","","",""
"null","","html-keyboard-response","41","247366","0.0-40.0","A68J20100VW4W","<p style=""font-size: 48px;"">+</p>","","","","","null","allTrialResponses","1500","1","0","img_art/ins/3.jpg","10","pretty blues","Allison,Kara,Rose,Leslie,Mary,Jen","enjoy the different shades of blue,22,20,20","calming blue is very nice,36,160,20","My daily routine, it's depressing,-20,240,20","It's an alright work,15,200,20","I like the overlapping of brushes,41,220,20","I can feel a rainy day from this painting,18,120,20","Mary","I like the overlapping of brushes,41,220,20","Kara","calming blue is very nice,36,160,20","Allison","enjoy the different shades of blue,22,20,20","1"
"5265","","image-button-response_instructions","42","252644","0.0-41.0","A68J20100VW4W","","0","instructions","","","","","","","","","","","","","","","","","","","","","","","",""
"15003","","survey-likert","43","267650","0.0-42.0-0.0","A68J20100VW4W","","","","{""Q0"":"""",""Q1"":0,""Q2"":1}","","","","","","","","","","","","","","","","","","","","","","",""
"5494","","survey-text","44","273154","0.0-43.0-0.0","A68J20100VW4W","","","","{""Q0"":""rock""}","","","","","","","","","","","","","","","","","","","","","","",""
"13145","","survey-text","45","286302","0.0-44.0-0.0","A68J20100VW4W","","","","{""Q0"":""all over the place""}","","","","","","","","","","","","","","","","","","","","","","",""
"3535.6000000089407","","image-slider-response","46","289840","0.0-45.0","A68J20100VW4W","","","","","-34","","","","","","","","","","","","","","","","","","","","","",""
"null","","image-button-response","47","294892","0.0-46.0","A68J20100VW4W","img_art/16.jpg","null","","","","","","","","","","","","","","","","","","","","","","","","",""
"7035","","image-button-response","48","301933","0.0-47.0","A68J20100VW4W","img_art/16.jpg","5","","","","","","","","","","","","","","","","","","","","","","","","",""
"1060","","image-button-response","49","302996","0.0-48.0-0.0","A68J20100VW4W","img_art/16.jpg","0","","","","","","","","","","","","","","","","","","","","","","","","",""
"3256","","image-button-response","50","306256","0.0-49.0-0.0","A68J20100VW4W","img_art/16.jpg","2","","","","","","","","","","","","","","","","","","","","","","","","",""
"null","","html-keyboard-response","51","306760","0.0-50.0","A68J20100VW4W","<p style=""font-size: 48px;"">+</p>","","","","","null","allTrialResponses","500","1","1","img_art/16.jpg","-34","all over the place","Allison,Alexa,Kaylee,Amanda,Jessica,Crystal","Hard contrast, but no emotions towards any of the objects.,-6,140,20","I can't figure out the meaning of this painting but it is pleasant to look at,40,40,20","cool teddy bear,50,200,20","Very modern, reminds me of bansky,43,180,20","Cool but the bear creeps me out?,8,400,20","Garble and nonsense,-50,300,20","Crystal","Garble and nonsense,-50,300,20","Allison","Hard contrast, but no emotions towards any of the objects.,-6,140,20","Kaylee","cool teddy bear,50,200,20","1"
"6438","","survey-text","52","313220","0.0-51.0-0.0","A68J20100VW4W","","","","{""Q0"":""it's a mess""}","","","","","","","","","","","","","","","","","","","","","","",""
"5609.20000000298","","image-slider-response","53","318832","0.0-52.0","A68J20100VW4W","","","","","-29","","","","","","","","","","","","","","","","","","","","","",""
"null","","image-button-response","54","323849","0.0-53.0","A68J20100VW4W","img_art/21.jpg","null","","","","","","","","","","","","","","","","","","","","","","","","",""
"7572","","image-button-response","55","331425","0.0-54.0","A68J20100VW4W","img_art/21.jpg","5","","","","","","","","","","","","","","","","","","","","","","","","",""
"1008","","image-button-response","56","332436","0.0-55.0-0.0","A68J20100VW4W","img_art/21.jpg","2","","","","","","","","","","","","","","","","","","","","","","","","",""
"765","","image-button-response","57","333204","0.0-56.0-0.0","A68J20100VW4W","img_art/21.jpg","4","","","","","","","","","","","","","","","","","","","","","","","","",""
"null","","html-keyboard-response","58","334709","0.0-57.0","A68J20100VW4W","<p style=""font-size: 48px;"">+</p>","","","","","null","allTrialResponses","1500","1","2","img_art/21.jpg","-29","it's a mess","Allison,Mackenzie,Kaylee,Leah,Kaitlin,Crystal","I like color mix here,15,140,20","The shapes and colors are very interesting to look at.,41,20,20","looks like a sea during some war,27,200,20","Love the colors, uplifting and stormy at the same time,32,360,20","waterpaint is attractive,13,60,20","Feels like a clash between land and sea,31,300,20","Crystal","Feels like a clash between land and sea,31,300,20","Kaylee","looks like a sea during some war,27,200,20","Kaitlin","waterpaint is attractive,13,60,20","1"
"9317","","survey-text","59","344044","0.0-58.0-0.0","A68J20100VW4W","","","","{""Q0"":""i like the different colors""}","","","","","","","","","","","","","","","","","","","","","","",""
"7839.100000008941","","image-slider-response","60","351886","0.0-59.0","A68J20100VW4W","","","","","12","","","","","","","","","","","","","","","","","","","","","",""
"null","","image-button-response","61","356891","0.0-60.0","A68J20100VW4W","img_art/19.jpg","null","","","","","","","","","","","","","","","","","","","","","","","","",""
"1037","","image-button-response","62","357932","0.0-61.0","A68J20100VW4W","img_art/19.jpg","2","","","","","","","","","","","","","","","","","","","","","","","","",""
"2157","","image-button-response","63","360092","0.0-62.0-0.0","A68J20100VW4W","img_art/19.jpg","4","","","","","","","","","","","","","","","","","","","","","","","","",""
"1660","","image-button-response","64","361756","0.0-63.0-0.0","A68J20100VW4W","img_art/19.jpg","3","","","","","","","","","","","","","","","","","","","","","","","","",""
"null","","html-keyboard-response","65","362760","0.0-64.0","A68J20100VW4W","<p style=""font-size: 48px;"">+</p>","","","","","null","allTrialResponses","1000","1","3","img_art/19.jpg","12","i like the different colors","Monica,Gabrielle,Kaylee,Sara,Kaitlin,Crystal","The shapes make me recall a city scene but it looks dirty,-22,360,20","not professional looking but not bad either,13,160,20","beautiful old town,37,200,20","I like the vibrant color blocks,13,160,20","this looks like a busy city lifestyle,24,60,20","It is an interesting piece but there are too many muted tones,22,300,20","Kaylee","beautiful old town,37,200,20","Kaitlin","this looks like a busy city lifestyle,24,60,20","Sara","I like the vibrant color blocks,13,160,20","1"
"11429","","survey-text","66","374215","0.0-65.0-0.0","A68J20100VW4W","","","","{""Q0"":""spooky guy ruins it""}","","","","","","","","","","","","","","","","","","","","","","",""
"6233.5","","image-slider-response","67","380452","0.0-66.0","A68J20100VW4W","","","","","-8","","","","","","","","","","","","","","","","","","","","","",""
"null","","image-button-response","68","385473","0.0-67.0","A68J20100VW4W","img_art/8.jpg","null","","","","","","","","","","","","","","","","","","","","","","","","",""
"1786","","image-button-response","69","387284","0.0-68.0","A68J20100VW4W","img_art/8.jpg","3","","","","","","","","","","","","","","","","","","","","","","","","",""
"1061","","image-button-response","70","388348","0.0-69.0-0.0","A68J20100VW4W","img_art/8.jpg","4","","","","","","","","","","","","","","","","","","","","","","","","",""
"905","","image-button-response","71","389256","0.0-70.0-0.0","A68J20100VW4W","img_art/8.jpg","5","","","","","","","","","","","","","","","","","","","","","","","","",""
"null","","html-keyboard-response","72","390772","0.0-71.0","A68J20100VW4W","<p style=""font-size: 48px;"">+</p>","","","","","null","allTrialResponses","1500","1","4","img_art/8.jpg","-8","spooky guy ruins it","Morgan,Cynthia,Kaylee,Sara,Kaitlin,Jamie","Falling into a city's heart.,10,380,20","New power in the community,22,320,20","beautiful buildings,32,200,20","Very interesting use of blocks,21,160,20","wow - the colors were very well mixed,12,60,20","Cool designs and color schemes,44,320,20","Sara","Very interesting use of blocks,21,160,20","Kaitlin","wow - the colors were very well mixed,12,60,20","Jamie","Cool designs and color schemes,44,320,20","1"
"10681","","survey-text","73","401462","0.0-72.0-0.0","A68J20100VW4W","","","","{""Q0"":""guitar or a roller coaster""}","","","","","","","","","","","","","","","","","","","","","","",""
"6505.0999999940395","","image-slider-response","74","407970","0.0-73.0","A68J20100VW4W","","","","","-42","","","","","","","","","","","","","","","","","","","","","",""
"null","","image-button-response","75","412973","0.0-74.0","A68J20100VW4W","img_art/10.jpg","null","","","","","","","","","","","","","","","","","","","","","","","","",""
"1094","","image-button-response","76","414071","0.0-75.0","A68J20100VW4W","img_art/10.jpg","0","","","","","","","","","","","","","","","","","","","","","","","","",""
"3142","","image-button-response","77","417216","0.0-76.0-0.0","A68J20100VW4W","img_art/10.jpg","1","","","","","","","","","","","","","","","","","","","","","","","","",""
"6814","","image-button-response","78","424032","0.0-77.0-0.0","A68J20100VW4W","img_art/10.jpg","3","","","","","","","","","","","","","","","","","","","","","","","","",""
"null","","html-keyboard-response","79","424539","0.0-78.0","A68J20100VW4W","<p style=""font-size: 48px;"">+</p>","","","","","null","allTrialResponses","500","1","5","img_art/10.jpg","-42","guitar or a roller coaster","Mikayla,Marissa,Jenna,Sara,Kaitlin,Jamie","Kinda creepy not my favorite,-26,300,20","My immediate thought is WTF is this,-20,160,20","this piece is okay. I wish it was more colorful, but it is certainly intriguing.,23,360,20","I don't like the colors,-20,160,20","awww... this looks very nice,32,60,20","Well done designs for being considered abstract,45,320,20","Mikayla","Kinda creepy not my favorite,-26,300,20","Marissa","My immediate thought is WTF is this,-20,160,20","Sara","I don't like the colors,-20,160,20","1"
"8536","","survey-text","80","433100","0.0-79.0-0.0","A68J20100VW4W","","","","{""Q0"":""sky""}","","","","","","","","","","","","","","","","","","","","","","",""
"8903","","survey-text","81","442006","0.0-80.0-0.0","A68J20100VW4W","","","","{""Q0"":""finger painting""}","","","","","","","","","","","","","","","","","","","","","","",""
"5571.300000011921","","image-slider-response","82","447580","0.0-81.0","A68J20100VW4W","","","","","-44","","","","","","","","","","","","","","","","","","","","","",""
"null","","image-button-response","83","452592","0.0-82.0","A68J20100VW4W","img_art/3.jpg","null","","","","","","","","","","","","","","","","","","","","","","","","",""
"1413","","image-button-response","84","454011","0.0-83.0","A68J20100VW4W","img_art/3.jpg","2","","","","","","","","","","","","","","","","","","","","","","","","",""
"4023","","image-button-response","85","458036","0.0-84.0-0.0","A68J20100VW4W","img_art/3.jpg","4","","","","","","","","","","","","","","","","","","","","","","","","",""
"1101","","image-button-response","86","459142","0.0-85.0-0.0","A68J20100VW4W","img_art/3.jpg","3","","","","","","","","","","","","","","","","","","","","","","","","",""
"null","","html-keyboard-response","87","460156","0.0-86.0","A68J20100VW4W","<p style=""font-size: 48px;"">+</p>","","","","","null","allTrialResponses","1000","1","6","img_art/3.jpg","-44","finger painting","Mikayla,Marissa,Caitlin,Sara,Cassidy,Mariah","Scary. Looks like blood.,-45,300,20","It feels like a half assed and failed imitation of Japanese signatures on old paintings,-22,160,20","Why kids with color crayons is called art is beyond me. People pay for this???,-40,80,20","Random use of red and looks scary,-50,160,20","Again, looks like a child's work. I don't get these types of pieces. Too simple,-47,140,20","The composition keeps the eye moving, the colors are satisfying.,31,140,20","Caitlin","Why kids with color crayons is called art is beyond me. People pay for this???,-40,80,20","Cassidy","Again, looks like a child's work. I don't get these types of pieces. Too simple,-47,140,20","Sara","Random use of red and looks scary,-50,160,20","1"
"9276","","survey-text","88","469437","0.0-87.0-0.0","A68J20100VW4W","","","","{""Q0"":""i like the uniformity""}","","","","","","","","","","","","","","","","","","","","","","",""
"5201.5","","image-slider-response","89","474642","0.0-88.0","A68J20100VW4W","","","","","22","","","","","","","","","","","","","","","","","","","","","",""
"null","","image-button-response","90","479645","0.0-89.0","A68J20100VW4W","img_art/12.jpg","null","","","","","","","","","","","","","","","","","","","","","","","","",""
"2867","","image-button-response","91","482514","0.0-90.0","A68J20100VW4W","img_art/12.jpg","1","","","","","","","","","","","","","","","","","","","","","","","","",""
"2396","","image-button-response","92","484912","0.0-91.0-0.0","A68J20100VW4W","img_art/12.jpg","4","","","","","","","","","","","","","","","","","","","","","","","","",""
"5225","","image-button-response","93","490140","0.0-92.0-0.0","A68J20100VW4W","img_art/12.jpg","2","","","","","","","","","","","","","","","","","","","","","","","","",""
"null","","html-keyboard-response","94","490649","0.0-93.0","A68J20100VW4W","<p style=""font-size: 48px;"">+</p>","","","","","null","allTrialResponses","500","1","7","img_art/12.jpg","22","i like the uniformity","Victoria,Kelly,Caitlin,Sara,Cassidy,Vanessa","to contemporary for me,3,400,20","It's pretty, I find it interesting to look at.,10,220,20","Just wish it was more colorful.,20,80,20","I don't like the blocking,-20,160,20","I like the colors and pattern,21,140,20","This is too abstract and the colors are too worn out.,-23,380,20","Kelly","It's pretty, I find it interesting to look at.,10,220,20","Cassidy","I like the colors and pattern,21,140,20","Caitlin","Just wish it was more colorful.,20,80,20","1"
"14306","","survey-text","95","504973","0.0-94.0-0.0","A68J20100VW4W","","","","{""Q0"":""looks like embryos""}","","","","","","","","","","","","","","","","","","","","","","",""
"2895.2999999970198","","image-slider-response","96","507871","0.0-95.0","A68J20100VW4W","","","","","-41","","","","","","","","","","","","","","","","","","","","","",""
"3751","","image-button-response","97","512890","0.0-96.0","A68J20100VW4W","img_art/28.jpg","0","","","","","","","","","","","","","","","","","","","","","","","","",""
"374","","image-button-response","98","513268","0.0-97.0","A68J20100VW4W","img_art/28.jpg","1","","","","","","","","","","","","","","","","","","","","","","","","",""
"4160","","image-button-response","99","517432","0.0-98.0-0.0","A68J20100VW4W","img_art/28.jpg","4","","","","","","","","","","","","","","","","","","","","","","","","",""
"3982","","image-button-response","100","521418","0.0-99.0-0.0","A68J20100VW4W","img_art/28.jpg","0","","","","","","","","","","","","","","","","","","","","","","","","",""
"null","","html-keyboard-response","101","522427","0.0-100.0","A68J20100VW4W","<p style=""font-size: 48px;"">+</p>","","","","","null","allTrialResponses","1000","1","8","img_art/28.jpg","-41","looks like embryos","Hannah,Kelly,Caitlin,Cassandra,Cassidy,Jennifer","The colors are drab and a little depressing.,-20,240,20","This one is too bleak, not a fan of the image or colors.,-28,220,20","Bug meets bug in a dark alley.,-20,80,20","Hate it...brown and drab,-37,120,20","Almost looks like child's artwork, sloppy and chaotic,6,140,20","This picture doesn't really stand out to me,1,380,20","Kelly","This one is too bleak, not a fan of the image or colors.,-28,220,20","Cassidy","Almost looks like child's artwork, sloppy and chaotic,6,140,20","Hannah","The colors are drab and a little depressing.,-20,240,20","1"
"5657","","survey-text","102","528098","0.0-101.0-0.0","A68J20100VW4W","","","","{""Q0"":""like the colors""}","","","","","","","","","","","","","","","","","","","","","","",""
"3828.7999999970198","","image-slider-response","103","531933","0.0-102.0","A68J20100VW4W","","","","","13","","","","","","","","","","","","","","","","","","","","","",""
"null","","image-button-response","104","536956","0.0-103.0","A68J20100VW4W","img_art/9.jpg","null","","","","","","","","","","","","","","","","","","","","","","","","",""
"2733","","image-button-response","105","539697","0.0-104.0","A68J20100VW4W","img_art/9.jpg","3","","","","","","","","","","","","","","","","","","","","","","","","",""
"1917","","image-button-response","106","541617","0.0-105.0-0.0","A68J20100VW4W","img_art/9.jpg","4","","","","","","","","","","","","","","","","","","","","","","","","",""
"3651","","image-button-response","107","545271","0.0-106.0-0.0","A68J20100VW4W","img_art/9.jpg","2","","","","","","","","","","","","","","","","","","","","","","","","",""
"null","","html-keyboard-response","108","546773","0.0-107.0","A68J20100VW4W","<p style=""font-size: 48px;"">+</p>","","","","","null","allTrialResponses","1500","1","9","img_art/9.jpg","13","like the colors","Hannah,Kelly,Samantha,Briana,Cassidy,Erin","Someone lying in bed?  Don't care for it.,-14,240,20","It looks like a child drew it.,-28,220,20","Some nice colors but i do not like it,-18,140,20","I see a foot. Idk colors are pleasant,12,400,20","The colors are okay, but this looks like someone scribbled with a crayon,1,140,20","Framing is overwhelming,-35,120,20","Briana","I see a foot. Idk colors are pleasant,12,400,20","Cassidy","The colors are okay, but this looks like someone scribbled with a crayon,1,140,20","Samantha","Some nice colors but i do not like it,-18,140,20","1"
"11241","","survey-text","109","558024","0.0-108.0-0.0","A68J20100VW4W","","","","{""Q0"":""i like the contrast""}","","","","","","","","","","","","","","","","","","","","","","",""
"3051.199999988079","","image-slider-response","110","561078","0.0-109.0","A68J20100VW4W","","","","","3","","","","","","","","","","","","","","","","","","","","","",""
"null","","image-button-response","111","566129","0.0-110.0","A68J20100VW4W","img_art/23.jpg","null","","","","","","","","","","","","","","","","","","","","","","","","",""
"5080","","image-button-response","112","571211","0.0-111.0","A68J20100VW4W","img_art/23.jpg","2","","","","","","","","","","","","","","","","","","","","","","","","",""
"3983","","image-button-response","113","575197","0.0-112.0-0.0","A68J20100VW4W","img_art/23.jpg","4","","","","","","","","","","","","","","","","","","","","","","","","",""
"3620","","image-button-response","114","578821","0.0-113.0-0.0","A68J20100VW4W","img_art/23.jpg","0","","","","","","","","","","","","","","","","","","","","","","","","",""
"null","","html-keyboard-response","115","579324","0.0-114.0","A68J20100VW4W","<p style=""font-size: 48px;"">+</p>","","","","","null","allTrialResponses","500","1","10","img_art/23.jpg","3","i like the contrast","Madison,Brittany,Samantha,Briana,Cassidy,Andrea","Looks celebratory and joyful! However, the photograph does not do the original work's colors justice.,27,60,20","The white paint through the middle really draws the eye.,30,40,20","The more i look at it the more i like it  the dots of color and very interesting,50,140,20","White in the middle look like people dancing naked,19,400,20","I like the colors, the tiny dots, and the contrast between the white and background,28,140,20","I see souls in torment and that makes me feel uneasy.,-21,240,20","Samantha","The more i look at it the more i like it  the dots of color and very interesting,50,140,20","Cassidy","I like the colors, the tiny dots, and the contrast between the white and background,28,140,20","Madison","Looks celebratory and joyful! However, the photograph does not do the original work's colors justice.,27,60,20","1"
"3744","","survey-text","116","583077","0.0-115.0-0.0","A68J20100VW4W","","","","{""Q0"":""our""}","","","","","","","","","","","","","","","","","","","","","","",""
"7816","","survey-text","117","590896","0.0-116.0-0.0","A68J20100VW4W","","","","{""Q0"":""rainy day""}","","","","","","","","","","","","","","","","","","","","","","",""
"3507.0999999940395","","image-slider-response","118","594407","0.0-117.0","A68J20100VW4W","","","","","4","","","","","","","","","","","","","","","","","","","","","",""
"null","","image-button-response","119","599427","0.0-118.0","A68J20100VW4W","img_art/13.jpg","null","","","","","","","","","","","","","","","","","","","","","","","","",""
"1401","","image-button-response","120","600834","0.0-119.0","A68J20100VW4W","img_art/13.jpg","2","","","","","","","","","","","","","","","","","","","","","","","","",""
"3745","","image-button-response","121","604583","0.0-120.0-0.0","A68J20100VW4W","img_art/13.jpg","3","","","","","","","","","","","","","","","","","","","","","","","","",""
"2025","","image-button-response","122","606611","0.0-121.0-0.0","A68J20100VW4W","img_art/13.jpg","5","","","","","","","","","","","","","","","","","","","","","","","","",""
"null","","html-keyboard-response","123","608114","0.0-122.0","A68J20100VW4W","<p style=""font-size: 48px;"">+</p>","","","","","null","allTrialResponses","1500","1","11","img_art/13.jpg","4","rainy day","Madison,Brooke,Samantha,Chelsea,Cassidy,Christina","Pollock? Love the juxtaposition of colors. Soothing and stirring, a beautiful inexplicable paradox.,50,60,20","Like the use of color, not a fan of the splatter,29,60,20","Nice colors. beautiful blue,50,140,20","The colors are okay but I don't like the shapes here.,-18,180,20","Great color balance. I like the splatter, and how the vertical lines go from sharper to more blended.,31,140,20","i like the colors but it looks like something that would hang in a hotel,18,240,20","Samantha","Nice colors. beautiful blue,50,140,20","Chelsea","The colors are okay but I don't like the shapes here.,-18,180,20","Christina","i like the colors but it looks like something that would hang in a hotel,18,240,20","1"
"8263","","survey-text","124","616389","0.0-123.0-0.0","A68J20100VW4W","","","","{""Q0"":""too muted""}","","","","","","","","","","","","","","","","","","","","","","",""
"3080.7000000029802","","image-slider-response","125","619473","0.0-124.0","A68J20100VW4W","","","","","-8","","","","","","","","","","","","","","","","","","","","","",""
"4223","","image-button-response","126","624478","0.0-125.0","A68J20100VW4W","img_art/1.jpg","0","","","","","","","","","","","","","","","","","","","","","","","","",""
"3191","","image-button-response","127","627677","0.0-126.0","A68J20100VW4W","img_art/1.jpg","4","","","","","","","","","","","","","","","","","","","","","","","","",""
"2103","","image-button-response","128","629783","0.0-127.0-0.0","A68J20100VW4W","img_art/1.jpg","0","","","","","","","","","","","","","","","","","","","","","","","","",""
"1253","","image-button-response","129","631040","0.0-128.0-0.0","A68J20100VW4W","img_art/1.jpg","2","","","","","","","","","","","","","","","","","","","","","","","","",""
"null","","html-keyboard-response","130","632556","0.0-129.0","A68J20100VW4W","<p style=""font-size: 48px;"">+</p>","","","","","null","allTrialResponses","1500","1","12","img_art/1.jpg","-8","too muted","Makayla,Angela,Samantha,Chelsea,Rebecca,Christina","Nothing whatsoever,2,80,20","Like the colors very much, and this piece makes me feel peaceful.,29,260,20","Love the colors but it makes me feel like someone is looking at me through it,38,140,20","The colors are a little too intense.,1,180,20","bamboo boat in sunset,12,100,20","nice colors but kinds of blah,1,240,20","Rebecca","bamboo boat in sunset,12,100,20","Makayla","Nothing whatsoever,2,80,20","Samantha","Love the colors but it makes me feel like someone is looking at me through it,38,140,20","1"
"12099","","survey-text","131","644667","0.0-130.0-0.0","A68J20100VW4W","","","","{""Q0"":""finger painting""}","","","","","","","","","","","","","","","","","","","","","","",""
"6181.20000000298","","image-slider-response","132","650850","0.0-131.0","A68J20100VW4W","","","","","-39","","","","","","","","","","","","","","","","","","","","","",""
"3566","","image-button-response","133","655865","0.0-132.0","A68J20100VW4W","img_art/30.jpg","1","","","","","","","","","","","","","","","","","","","","","","","","",""
"581","","image-button-response","134","656448","0.0-133.0","A68J20100VW4W","img_art/30.jpg","2","","","","","","","","","","","","","","","","","","","","","","","","",""
"1839","","image-button-response","135","658290","0.0-134.0-0.0","A68J20100VW4W","img_art/30.jpg","1","","","","","","","","","","","","","","","","","","","","","","","","",""
"1971","","image-button-response","136","660264","0.0-135.0-0.0","A68J20100VW4W","img_art/30.jpg","0","","","","","","","","","","","","","","","","","","","","","","","","",""
"null","","html-keyboard-response","137","661271","0.0-136.0","A68J20100VW4W","<p style=""font-size: 48px;"">+</p>","","","","","null","allTrialResponses","1000","1","13","img_art/30.jpg","-39","finger painting","Makayla,Alexis,Samantha,Paige,Rebecca,Maria","I feel nothing towards,-1,80,20","Too abstract, looks like something I could paint,-50,100,20","Too much like childrens finger paint. I dont like the smear of blended colors,-50,140,20","Happy. Makes me think of childhood finger painting,49,60,20","don't know but it somehow speaks to me,29,100,20","uplifted and yet calmed,15,120,20","Samantha","Too much like childrens finger paint. I dont like the smear of blended colors,-50,140,20","Alexis","Too abstract, looks like something I could paint,-50,100,20","Makayla","I feel nothing towards,-1,80,20","1"
"10287","","survey-text","138","671578","0.0-137.0-0.0","A68J20100VW4W","","","","{""Q0"":""solitude""}","","","","","","","","","","","","","","","","","","","","","","",""
"2819.5999999940395","","image-slider-response","139","674400","0.0-138.0","A68J20100VW4W","","","","","10","","","","","","","","","","","","","","","","","","","","","",""
"null","","image-button-response","140","679405","0.0-139.0","A68J20100VW4W","img_art/6.jpg","null","","","","","","","","","","","","","","","","","","","","","","","","",""
"12372","","image-button-response","141","691782","0.0-140.0","A68J20100VW4W","img_art/6.jpg","2","","","","","","","","","","","","","","","","","","","","","","","","",""
"1615","","image-button-response","142","693400","0.0-141.0-0.0","A68J20100VW4W","img_art/6.jpg","1","","","","","","","","","","","","","","","","","","","","","","","","",""
"2506","","image-button-response","143","695909","0.0-142.0-0.0","A68J20100VW4W","img_art/6.jpg","1","","","","","","","","","","","","","","","","","","","","","","","","",""
"770","","image-button-response","144","701307","0.0-142.1-0.1","A68J20100VW4W","img_art/6.jpg","0","","","","","","","","","","","","","","","","","","","","","","","","",""
"null","","html-keyboard-response","145","702831","0.0-143.0","A68J20100VW4W","<p style=""font-size: 48px;"">+</p>","","","","","null","allTrialResponses","1500","1","14","img_art/6.jpg","10","solitude","Makayla,Alexis,Samantha,Destiny,Megan,Sabrina","Don't like the black space,2,80,20","The feeling of isolation with so little objects. Great,20,100,20","It isnt bad but sort of too bland,0,140,20","boring. don't really like birds,1,360,20","Odd desert, nice sand color with headless bird,11,200,20","I love the representation of death and life.,50,120,20","Samantha","It isnt bad but sort of too bland,0,140,20","Alexis","The feeling of isolation with so little objects. Great,20,100,20","Makayla","Don't like the black space,2,80,20","3"
"7076","","survey-text","146","709915","0.0-144.0-0.0","A68J20100VW4W","","","","{""Q0"":""very pretty""}","","","","","","","","","","","","","","","","","","","","","","",""
"3080.7000000029802","","image-slider-response","147","712999","0.0-145.0","A68J20100VW4W","","","","","3","","","","","","","","","","","","","","","","","","","","","",""
"null","","image-button-response","148","718006","0.0-146.0","A68J20100VW4W","img_art/14.jpg","null","","","","","","","","","","","","","","","","","","","","","","","","",""
"1744","","image-button-response","149","719756","0.0-147.0","A68J20100VW4W","img_art/14.jpg","2","","","","","","","","","","","","","","","","","","","","","","","","",""
"3259","","image-button-response","150","723019","0.0-148.0-0.0","A68J20100VW4W","img_art/14.jpg","4","","","","","","","","","","","","","","","","","","","","","","","","",""
"2476","","image-button-response","151","725499","0.0-149.0-0.0","A68J20100VW4W","img_art/14.jpg","0","","","","","","","","","","","","","","","","","","","","","","","","",""
"null","","html-keyboard-response","152","726521","0.0-150.0","A68J20100VW4W","<p style=""font-size: 48px;"">+</p>","","","","","null","allTrialResponses","1000","1","15","img_art/14.jpg","3","very pretty","Makayla,Alexis,Samantha,Alexandria,Caroline,Danielle","I like that it's like a snippet of a field in the desert,21,80,20","Don't like the colors on this. Too simple,-20,100,20","I love the feeling of the tree and people. Makes me happy,50,140,20","looks like it's symbolizing rebirth which is hopeful,22,80,20","Makes me think of trees and spring. A good feeling,26,100,20","Too much yellow in this image, i'm not a fan of art that is overly-saturated with yellow,-30,340,20","Samantha","I love the feeling of the tree and people. Makes me happy,50,140,20","Caroline","Makes me think of trees and spring. A good feeling,26,100,20","Makayla","I like that it's like a snippet of a field in the desert,21,80,20","3"
"3619","","survey-text","153","730157","0.0-151.0-0.0","A68J20100VW4W","","","","{""Q0"":""course""}","","","","","","","","","","","","","","","","","","","","","","",""
"7660","","survey-text","154","737821","0.0-152.0-0.0","A68J20100VW4W","","","","{""Q0"":""love waterfalls""}","","","","","","","","","","","","","","","","","","","","","","",""
"3304.9000000059605","","image-slider-response","155","741129","0.0-153.0","A68J20100VW4W","","","","","44","","","","","","","","","","","","","","","","","","","","","",""
"3291","","image-button-response","156","746133","0.0-154.0","A68J20100VW4W","img_art/24.jpg","4","","","","","","","","","","","","","","","","","","","","","","","","",""
"846","","image-button-response","157","746984","0.0-155.0","A68J20100VW4W","img_art/24.jpg","4","","","","","","","","","","","","","","","","","","","","","","","","",""
"4375","","image-button-response","158","751361","0.0-156.0-0.0","A68J20100VW4W","img_art/24.jpg","0","","","","","","","","","","","","","","","","","","","","","","","","",""
"1547","","image-button-response","159","752912","0.0-157.0-0.0","A68J20100VW4W","img_art/24.jpg","2","","","","","","","","","","","","","","","","","","","","","","","","",""
"null","","html-keyboard-response","160","754420","0.0-158.0","A68J20100VW4W","<p style=""font-size: 48px;"">+</p>","","","","","null","allTrialResponses","1500","1","16","img_art/24.jpg","44","love waterfalls","Makayla,Erika,Samantha,Dominique,Caroline,Kylie","Looks like a serene waterfall and woods,29,80,20","Very nice textures and subject,38,100,20","Happy and relaxing bubbling brook,37,140,20","Spending a day in nature,21,400,20","Waterfalls and spring and gives me a sense of renewal,34,100,20","Forest waterfall,40,300,20","Caroline","Waterfalls and spring and gives me a sense of renewal,34,100,20","Makayla","Looks like a serene waterfall and woods,29,80,20","Samantha","Happy and relaxing bubbling brook,37,140,20","3"
"10020","","survey-text","161","764463","0.0-159.0-0.0","A68J20100VW4W","","","","{""Q0"":""desert and sand""}","","","","","","","","","","","","","","","","","","","","","","",""
"2395.2999999970198","","image-slider-response","162","766861","0.0-160.0","A68J20100VW4W","","","","","-47","","","","","","","","","","","","","","","","","","","","","",""
"null","","image-button-response","163","771877","0.0-161.0","A68J20100VW4W","img_art/7.jpg","null","","","","","","","","","","","","","","","","","","","","","","","","",""
"1731","","image-button-response","164","773611","0.0-162.0","A68J20100VW4W","img_art/7.jpg","3","","","","","","","","","","","","","","","","","","","","","","","","",""
"1955","","image-button-response","165","775570","0.0-163.0-0.0","A68J20100VW4W","img_art/7.jpg","4","","","","","","","","","","","","","","","","","","","","","","","","",""
"598","","image-button-response","166","776171","0.0-164.0-0.0","A68J20100VW4W","img_art/7.jpg","5","","","","","","","","","","","","","","","","","","","","","","","","",""
"null","","html-keyboard-response","167","777675","0.0-165.0","A68J20100VW4W","<p style=""font-size: 48px;"">+</p>","","","","","null","allTrialResponses","1500","1","17","img_art/7.jpg","-47","desert and sand","Makayla,Katelyn,Samantha,Laura,Caroline,Jacqueline","It's just like sand from the beach,2,80,20","Makes me think of the beach which makes me happy,14,100,20","Makes me want to feel it,19,140,20","I feel thirsty - reminds me of desert sand,11,320,20","Looks like dirt on the ground. Makes me feel unclean,-37,100,20","Just looks like rocks or some kind of mineral.,0,300,20","Laura","I feel thirsty - reminds me of desert sand,11,320,20","Caroline","Looks like dirt on the ground. Makes me feel unclean,-37,100,20","Jacqueline","Just looks like rocks or some kind of mineral.,0,300,20","3"
"6393","","survey-text","168","784081","0.0-166.0-0.0","A68J20100VW4W","","","","{""Q0"":""love the colors""}","","","","","","","","","","","","","","","","","","","","","","",""
"3204.0999999940395","","image-slider-response","169","787288","0.0-167.0","A68J20100VW4W","","","","","7","","","","","","","","","","","","","","","","","","","","","",""
"3552","","image-button-response","170","792308","0.0-168.0","A68J20100VW4W","img_art/18.jpg","0","","","","","","","","","","","","","","","","","","","","","","","","",""
"1437","","image-button-response","171","793752","0.0-169.0","A68J20100VW4W","img_art/18.jpg","0","","","","","","","","","","","","","","","","","","","","","","","","",""
"2386","","image-button-response","172","796141","0.0-170.0-0.0","A68J20100VW4W","img_art/18.jpg","0","","","","","","","","","","","","","","","","","","","","","","","","",""
"1562","","image-button-response","173","801529","0.0-170.1-0.1","A68J20100VW4W","img_art/18.jpg","0","","","","","","","","","","","","","","","","","","","","","","","","",""
"860","","image-button-response","174","809299","0.0-170.2-0.2","A68J20100VW4W","img_art/18.jpg","5","","","","","","","","","","","","","","","","","","","","","","","","",""
"2697","","image-button-response","175","811999","0.0-171.0-0.0","A68J20100VW4W","img_art/18.jpg","2","","","","","","","","","","","","","","","","","","","","","","","","",""
"null","","html-keyboard-response","176","812517","0.0-172.0","A68J20100VW4W","<p style=""font-size: 48px;"">+</p>","","","","","null","allTrialResponses","500","1","18","img_art/18.jpg","7","love the colors","Haley,Diana,Nicole,Laura,Caroline,Jacqueline","I could stare at this for long stretches of time and still find new details. I love it.,40,220,20","This painting reminds me of the 4 horsemen of the apocalypse. It feels haunting.,31,380,20","There's danger in this painting and it's awesome,40,20,20","afraid and anxious,21,320,20","I think of the ocean and a boat tossed about on the waves. In the upper left is a figure. It is pleasant,30,100,20","Kinda neat, looks like cavalry, or a knight.,15,300,20","Haley","I could stare at this for long stretches of time and still find new details. I love it.,40,220,20","Jacqueline","Kinda neat, looks like cavalry, or a knight.,15,300,20","Nicole","There's danger in this painting and it's awesome,40,20,20","7"
"8079","","survey-text","177","820602","0.0-173.0-0.0","A68J20100VW4W","","","","{""Q0"":""some kind of fire""}","","","","","","","","","","","","","","","","","","","","","","",""
"2896.0999999940395","","image-slider-response","178","823501","0.0-174.0","A68J20100VW4W","","","","","-50","","","","","","","","","","","","","","","","","","","","","",""
"4801","","image-button-response","179","828510","0.0-175.0","A68J20100VW4W","img_art/4.jpg","1","","","","","","","","","","","","","","","","","","","","","","","","",""
"2106","","image-button-response","180","830625","0.0-176.0","A68J20100VW4W","img_art/4.jpg","0","","","","","","","","","","","","","","","","","","","","","","","","",""
"769","","image-button-response","181","831397","0.0-177.0-0.0","A68J20100VW4W","img_art/4.jpg","1","","","","","","","","","","","","","","","","","","","","","","","","",""
"2106","","image-button-response","182","833509","0.0-178.0-0.0","A68J20100VW4W","img_art/4.jpg","3","","","","","","","","","","","","","","","","","","","","","","","","",""
"null","","html-keyboard-response","183","834013","0.0-179.0","A68J20100VW4W","<p style=""font-size: 48px;"">+</p>","","","","","null","allTrialResponses","500","1","19","img_art/4.jpg","-50","some kind of fire","Haley,Anna,Nicole,Alicia,Abigail,Jacqueline","This image doesn't invoke anything in me,-9,220,20","It doesn't make me feel anything it just looks like a kid did it.,-30,300,20","Mcdonald's french fries :(,-40,20,20","ordinary, bland. unmoving.,-6,120,20","A hand reaching for something it cannot obtain,-9,20,20","It looks like smeared poop.,-27,300,20","Haley","This image doesn't invoke anything in me,-9,220,20","Anna","It doesn't make me feel anything it just looks like a kid did it.,-30,300,20","Alicia","ordinary, bland. unmoving.,-6,120,20","7"
"7089","","survey-text","184","841108","0.0-180.0-0.0","A68J20100VW4W","","","","{""Q0"":""kids drawing""}","","","","","","","","","","","","","","","","","","","","","","",""
"2747.5","","image-slider-response","185","843860","0.0-181.0","A68J20100VW4W","","","","","-50","","","","","","","","","","","","","","","","","","","","","",""
"2804","","image-button-response","186","848864","0.0-182.0","A68J20100VW4W","img_art/5.jpg","1","","","","","","","","","","","","","","","","","","","","","","","","",""
"1137","","image-button-response","187","850004","0.0-183.0","A68J20100VW4W","img_art/5.jpg","3","","","","","","","","","","","","","","","","","","","","","","","","",""
"2025","","image-button-response","188","852033","0.0-184.0-0.0","A68J20100VW4W","img_art/5.jpg","1","","","","","","","","","","","","","","","","","","","","","","","","",""
"720","","image-button-response","189","852757","0.0-185.0-0.0","A68J20100VW4W","img_art/5.jpg","0","","","","","","","","","","","","","","","","","","","","","","","","",""
"null","","html-keyboard-response","190","853769","0.0-186.0","A68J20100VW4W","<p style=""font-size: 48px;"">+</p>","","","","","null","allTrialResponses","1000","1","20","img_art/5.jpg","-50","kids drawing","Haley,Anna,Julia,Alicia,Elizabeth,Alexandra","I'm confused by what I am looking at,-3,220,20","It's kind of boring.,-20,300,20","I like this one but wish it had more context around it,18,40,20","pointless, ugly, not creative.,-50,120,20","Perfect for art exhibition,39,20,20","This looks like a twelve year old did it,-40,60,20","Alicia","pointless, ugly, not creative.,-50,120,20","Anna","It's kind of boring.,-20,300,20","Haley","I'm confused by what I am looking at,-3,220,20","7"
"3119","","survey-text","191","856920","0.0-187.0-0.0","A68J20100VW4W","","","","{""Q0"":""we""}","","","","","","","","","","","","","","","","","","","","","","",""
"16434","","survey-text","192","873356","0.0-188.0-0.0","A68J20100VW4W","","","","{""Q0"":""a deserted town""}","","","","","","","","","","","","","","","","","","","","","","",""
"2565.2000000029802","","image-slider-response","193","875924","0.0-189.0","A68J20100VW4W","","","","","-23","","","","","","","","","","","","","","","","","","","","","",""
"null","","image-button-response","194","880949","0.0-190.0","A68J20100VW4W","img_art/20.jpg","null","","","","","","","","","","","","","","","","","","","","","","","","",""
"4431","","image-button-response","195","885385","0.0-191.0","A68J20100VW4W","img_art/20.jpg","4","","","","","","","","","","","","","","","","","","","","","","","","",""
"1182","","image-button-response","196","886570","0.0-192.0-0.0","A68J20100VW4W","img_art/20.jpg","2","","","","","","","","","","","","","","","","","","","","","","","","",""
"1222","","image-button-response","197","887797","0.0-193.0-0.0","A68J20100VW4W","img_art/20.jpg","1","","","","","","","","","","","","","","","","","","","","","","","","",""
"null","","html-keyboard-response","198","888813","0.0-194.0","A68J20100VW4W","<p style=""font-size: 48px;"">+</p>","","","","","null","allTrialResponses","1000","1","21","img_art/20.jpg","-23","a deserted town","Haley,Anna,Katherine,Alicia,Claire,Shannon","I really enjoy the contrast of colors (blue/red/orange),30,220,20","I would like it more without the frame.,10,300,20","More dark colors and blurry objects.,13,120,20","Very cool, and calming (again) Love it.,47,120,20","reminds me of Salvadore Dali,24,260,20","I really like this. There are lots of objects the artist wanted to show and the colors are good.,38,220,20","Claire","reminds me of Salvadore Dali,24,260,20","Katherine","More dark colors and blurry objects.,13,120,20","Anna","I would like it more without the frame.,10,300,20","7"
"10982","","survey-text","199","899816","0.0-195.0-0.0","A68J20100VW4W","","","","{""Q0"":""she's huge""}","","","","","","","","","","","","","","","","","","","","","","",""
"2979.9000000059605","","image-slider-response","200","902798","0.0-196.0","A68J20100VW4W","","","","","-43","","","","","","","","","","","","","","","","","","","","","",""
"null","","image-button-response","201","907818","0.0-197.0","A68J20100VW4W","img_art/25.jpg","null","","","","","","","","","","","","","","","","","","","","","","","","",""
"1984","","image-button-response","202","909807","0.0-198.0","A68J20100VW4W","img_art/25.jpg","1","","","","","","","","","","","","","","","","","","","","","","","","",""
"1941","","image-button-response","203","911751","0.0-199.0-0.0","A68J20100VW4W","img_art/25.jpg","2","","","","","","","","","","","","","","","","","","","","","","","","",""
"3751","","image-button-response","204","915505","0.0-200.0-0.0","A68J20100VW4W","img_art/25.jpg","4","","","","","","","","","","","","","","","","","","","","","","","","",""
"null","","html-keyboard-response","205","917021","0.0-201.0","A68J20100VW4W","<p style=""font-size: 48px;"">+</p>","","","","","null","allTrialResponses","1500","1","22","img_art/25.jpg","-43","she's huge","Gabriela,Anna,Katherine,Stephanie,Claire,Madeline","It looks like a person at a graveyard,18,140,20","I love the green and the texture,50,300,20","That's pretty awesome. I love the green and black combo, reminds me of one of those cartoon creepy movies,47,120,20","It made me think of healing.,22,300,20","the colors are pretty,11,260,20","It looks a bit strange to me, neck too long,-19,40,20","Anna","I love the green and the texture,50,300,20","Katherine","That's pretty awesome. I love the green and black combo, reminds me of one of those cartoon creepy movies,47,120,20","Claire","the colors are pretty,11,260,20","7"
"6099","","survey-text","206","923144","0.0-202.0-0.0","A68J20100VW4W","","","","{""Q0"":""wind""}","","","","","","","","","","","","","","","","","","","","","","",""
"4067","","survey-text","207","929034","0.0-202.1-0.1","A68J20100VW4W","","","","{""Q0"":""wind""}","","","","","","","","","","","","","","","","","","","","","","",""
"5734","","survey-text","208","937908","0.0-202.2-0.2","A68J20100VW4W","","","","{""Q0"":""a windy day""}","","","","","","","","","","","","","","","","","","","","","","",""
"2948.7000000029802","","image-slider-response","209","940860","0.0-203.0","A68J20100VW4W","","","","","29","","","","","","","","","","","","","","","","","","","","","",""
"3519","","image-button-response","210","945875","0.0-204.0","A68J20100VW4W","img_art/17.jpg","3","","","","","","","","","","","","","","","","","","","","","","","","",""
"1871","","image-button-response","211","947753","0.0-205.0","A68J20100VW4W","img_art/17.jpg","3","","","","","","","","","","","","","","","","","","","","","","","","",""
"1208","","image-button-response","212","948964","0.0-206.0-0.0","A68J20100VW4W","img_art/17.jpg","4","","","","","","","","","","","","","","","","","","","","","","","","",""
"1307","","image-button-response","213","950275","0.0-207.0-0.0","A68J20100VW4W","img_art/17.jpg","5","","","","","","","","","","","","","","","","","","","","","","","","",""
"null","","html-keyboard-response","214","951277","0.0-208.0","A68J20100VW4W","<p style=""font-size: 48px;"">+</p>","","","","","null","allTrialResponses","1000","1","23","img_art/17.jpg","29","a windy day","Ashley,Anna,Katherine,Hailey,Claire,Lindsey","taste the rainbow, feel the flavor.,23,320,20","it brings a clear picture to my minds eye:,45,300,20","Looks like a weird blurry heaven again! I dig,32,120,20","soft and warm light colors are relaxing,12,200,20","its whimsical and light,50,260,20","Pretty composition and I like the colors.,20,400,20","Hailey","soft and warm light colors are relaxing,12,200,20","Claire","its whimsical and light,50,260,20","Lindsey","Pretty composition and I like the colors.,20,400,20","7"
"9152","","survey-text","215","960437","0.0-209.0-0.0","A68J20100VW4W","","","","{""Q0"":""a key to the world""}","","","","","","","","","","","","","","","","","","","","","","",""
"3828.5","","image-slider-response","216","964268","0.0-210.0","A68J20100VW4W","","","","","50","","","","","","","","","","","","","","","","","","","","","",""
"3551","","image-button-response","217","969272","0.0-211.0","A68J20100VW4W","img_art/22.jpg","4","","","","","","","","","","","","","","","","","","","","","","","","",""
"1470","","image-button-response","218","970745","0.0-212.0","A68J20100VW4W","img_art/22.jpg","0","","","","","","","","","","","","","","","","","","","","","","","","",""
"1498","","image-button-response","219","972247","0.0-213.0-0.0","A68J20100VW4W","img_art/22.jpg","2","","","","","","","","","","","","","","","","","","","","","","","","",""
"907","","image-button-response","220","973157","0.0-214.0-0.0","A68J20100VW4W","img_art/22.jpg","4","","","","","","","","","","","","","","","","","","","","","","","","",""
"null","","html-keyboard-response","221","974677","0.0-215.0","A68J20100VW4W","<p style=""font-size: 48px;"">+</p>","","","","","null","allTrialResponses","1500","1","24","img_art/22.jpg","50","a key to the world","Rachel,Lauren,Meghan,Hailey,Claire,Lindsey","I like the vivid colors.,11,80,20","This doesn't invoke anything, since I can't tell what the piece represents.,0,340,20","really beautiful colors and contrast,30,220,20","a lost balloon in outer space,12,200,20","I enjoy the colors used,24,260,20","Too much contrasting colors makes me feel anxious. I don't like it.,-20,400,20","Rachel","I like the vivid colors.,11,80,20","Meghan","really beautiful colors and contrast,30,220,20","Claire","I enjoy the colors used,24,260,20","7"
"10647","","survey-text","222","985346","0.0-216.0-0.0","A68J20100VW4W","","","","{""Q0"":""a fish and a mess""}","","","","","","","","","","","","","","","","","","","","","","",""
"2293.2999999970198","","image-slider-response","223","987642","0.0-217.0","A68J20100VW4W","","","","","-50","","","","","","","","","","","","","","","","","","","","","",""
"null","","image-button-response","224","992656","0.0-218.0","A68J20100VW4W","img_art/27.jpg","null","","","","","","","","","","","","","","","","","","","","","","","","",""
"4351","","image-button-response","225","997011","0.0-219.0","A68J20100VW4W","img_art/27.jpg","0","","","","","","","","","","","","","","","","","","","","","","","","",""
"3171","","image-button-response","226","1000187","0.0-220.0-0.0","A68J20100VW4W","img_art/27.jpg","3","","","","","","","","","","","","","","","","","","","","","","","","",""
"1632","","image-button-response","227","1001822","0.0-221.0-0.0","A68J20100VW4W","img_art/27.jpg","4","","","","","","","","","","","","","","","","","","","","","","","","",""
"null","","html-keyboard-response","228","1003340","0.0-222.0","A68J20100VW4W","<p style=""font-size: 48px;"">+</p>","","","","","null","allTrialResponses","1500","1","25","img_art/27.jpg","-50","a fish and a mess","Rachel,Jordan,Meghan,Miranda,Claire,Natalie","Color story is boring in nature, and I feel nothing but boredom from this piece.,-20,80,20","two warring cities, separated by a small desert,50,20,20","again looks like childrens artwork,-40,220,20","I'm not a fan. It looks like something my nephews (1 and 2) would make,-8,320,20","looks like a little kid did it,-30,260,20","also gives me anxiety,-21,400,20","Rachel","Color story is boring in nature, and I feel nothing but boredom from this piece.,-20,80,20","Miranda","I'm not a fan. It looks like something my nephews (1 and 2) would make,-8,320,20","Claire","looks like a little kid did it,-30,260,20","7"
"4656","","survey-text","229","1008034","0.0-223.0-0.0","A68J20100VW4W","","","","{""Q0"":""table""}","","","","","","","","","","","","","","","","","","","","","","",""
"8718","","survey-text","230","1016754","0.0-224.0-0.0","A68J20100VW4W","","","","{""Q0"":""crowded""}","","","","","","","","","","","","","","","","","","","","","","",""
"2879.8999999910593","","image-slider-response","231","1019637","0.0-225.0","A68J20100VW4W","","","","","-45","","","","","","","","","","","","","","","","","","","","","",""
"null","","image-button-response","232","1024648","0.0-226.0","A68J20100VW4W","img_art/15.jpg","null","","","","","","","","","","","","","","","","","","","","","","","","",""
"3585","","image-button-response","233","1028241","0.0-227.0","A68J20100VW4W","img_art/15.jpg","1","","","","","","","","","","","","","","","","","","","","","","","","",""
"631","","image-button-response","234","1028875","0.0-228.0-0.0","A68J20100VW4W","img_art/15.jpg","2","","","","","","","","","","","","","","","","","","","","","","","","",""
"897","","image-button-response","235","1029777","0.0-229.0-0.0","A68J20100VW4W","img_art/15.jpg","4","","","","","","","","","","","","","","","","","","","","","","","","",""
"null","","html-keyboard-response","236","1031280","0.0-230.0","A68J20100VW4W","<p style=""font-size: 48px;"">+</p>","","","","","null","allTrialResponses","1500","1","26","img_art/15.jpg","-45","crowded","Rachel,Emily,Leslie,Miranda,Claire,Chloe","Reminds me of blue birds in a tree at night. I love nature.,40,80,20","Looks incomplete.,-19,40,20","This elicits no reaction in me.,0,380,20","This gives a skin crawling feeling. Like something that you could see under a mircoscope,10,320,20","it's alright but a little cluttered,14,260,20","Like the composition and lines,26,220,20","Emily","Looks incomplete.,-19,40,20","Leslie","This elicits no reaction in me.,0,380,20","Claire","it's alright but a little cluttered,14,260,20","7"
"7754","","survey-text","237","1039043","0.0-231.0-0.0","A68J20100VW4W","","","","{""Q0"":""busy highway""}","","","","","","","","","","","","","","","","","","","","","","",""
"2364","","image-slider-response","238","1041411","0.0-232.0","A68J20100VW4W","","","","","8","","","","","","","","","","","","","","","","","","","","","",""
"null","","image-button-response","239","1046419","0.0-233.0","A68J20100VW4W","img_art/11.jpg","null","","","","","","","","","","","","","","","","","","","","","","","","",""
"4849","","image-button-response","240","1051271","0.0-234.0","A68J20100VW4W","img_art/11.jpg","5","","","","","","","","","","","","","","","","","","","","","","","","",""
"1896","","image-button-response","241","1053171","0.0-235.0-0.0","A68J20100VW4W","img_art/11.jpg","2","","","","","","","","","","","","","","","","","","","","","","","","",""
"2876","","image-button-response","242","1056051","0.0-236.0-0.0","A68J20100VW4W","img_art/11.jpg","4","","","","","","","","","","","","","","","","","","","","","","","","",""
"null","","html-keyboard-response","243","1056565","0.0-237.0","A68J20100VW4W","<p style=""font-size: 48px;"">+</p>","","","","","null","allTrialResponses","500","1","27","img_art/11.jpg","8","busy highway","Breanna,Emily,Leslie,Melissa,Claire,Grace","Very cool, makes me feel good,39,380,20","It's kind of cool and I see it looks clean.,22,40,20","This elicits no reaction in me.,0,380,20","reminds me of home,5,240,20","the wavy lines are nice and pleasing,13,260,20","Rainy asian city scape.,31,180,20","Grace","Rainy asian city scape.,31,180,20","Leslie","This elicits no reaction in me.,0,380,20","Claire","the wavy lines are nice and pleasing,13,260,20","7"
"9138","","survey-text","244","1065727","0.0-238.0-0.0","A68J20100VW4W","","","","{""Q0"":""outdoors in a city""}","","","","","","","","","","","","","","","","","","","","","","",""
"2997.2000000029802","","image-slider-response","245","1068727","0.0-239.0","A68J20100VW4W","","","","","5","","","","","","","","","","","","","","","","","","","","","",""
"null","","image-button-response","246","1073748","0.0-240.0","A68J20100VW4W","img_art/26.jpg","null","","","","","","","","","","","","","","","","","","","","","","","","",""
"3694","","image-button-response","247","1077447","0.0-241.0","A68J20100VW4W","img_art/26.jpg","0","","","","","","","","","","","","","","","","","","","","","","","","",""
"783","","image-button-response","248","1078234","0.0-242.0-0.0","A68J20100VW4W","img_art/26.jpg","2","","","","","","","","","","","","","","","","","","","","","","","","",""
"1006","","image-button-response","249","1079243","0.0-243.0-0.0","A68J20100VW4W","img_art/26.jpg","3","","","","","","","","","","","","","","","","","","","","","","","","",""
"null","","html-keyboard-response","250","1080745","0.0-244.0","A68J20100VW4W","<p style=""font-size: 48px;"">+</p>","","","","","null","allTrialResponses","1500","1","28","img_art/26.jpg","5","outdoors in a city","Taylor,Mary,Leslie,Jasmine,Claire,Grace","Makes me want to walk down a cool street,20,340,20","I can tell it's some sort of outdoor scene. It looks very amateurish.,-9,180,20","It's a cute city scene. I like the trees.,10,380,20","This seems like a quiet painting,11,340,20","very impressionistic,11,260,20","Like the muted colors & the scene which seems to be serene.,14,180,20","Taylor","Makes me want to walk down a cool street,20,340,20","Leslie","It's a cute city scene. I like the trees.,10,380,20","Jasmine","This seems like a quiet painting,11,340,20","7"
"9243","","survey-text","251","1089999","0.0-245.0-0.0","A68J20100VW4W","","","","{""Q0"":""this is a mess""}","","","","","","","","","","","","","","","","","","","","","","",""
"4721.5999999940395","","image-slider-response","252","1094725","0.0-246.0","A68J20100VW4W","","","","","-50","","","","","","","","","","","","","","","","","","","","","",""
"null","","image-button-response","253","1099736","0.0-247.0","A68J20100VW4W","img_art/2.jpg","null","","","","","","","","","","","","","","","","","","","","","","","","",""
"2228","","image-button-response","254","1101974","0.0-248.0","A68J20100VW4W","img_art/2.jpg","3","","","","","","","","","","","","","","","","","","","","","","","","",""
"2848","","image-button-response","255","1104827","0.0-249.0-0.0","A68J20100VW4W","img_art/2.jpg","5","","","","","","","","","","","","","","","","","","","","","","","","",""
"3426","","image-button-response","256","1108257","0.0-250.0-0.0","A68J20100VW4W","img_art/2.jpg","1","","","","","","","","","","","","","","","","","","","","","","","","",""
"null","","html-keyboard-response","257","1108764","0.0-251.0","A68J20100VW4W","<p style=""font-size: 48px;"">+</p>","","","","","null","allTrialResponses","500","1","29","img_art/2.jpg","-50","this is a mess","Taylor,Katie,Leslie,Jasmine,Cheyenne,Bailey","Doesn't give me a reaction,10,340,20","Doesn't look like anything. Just a blob of colors.,1,160,20","The colors are entirely unappealing and very unpleasant to look at.,-20,380,20","Color picks are a bad mesh with each other,-17,340,20","Colors mix nicely.,5,200,20","Too gloopy and unfocused,-38,360,20","Jasmine","Color picks are a bad mesh with each other,-17,340,20","Bailey","Too gloopy and unfocused,-38,360,20","Katie","Doesn't look like anything. Just a blob of colors.,1,160,20","7"
"9698","","survey-text","258","1118489","0.0-252.0-0.0","A68J20100VW4W","","","","{""Q0"":""very dark and dreary""}","","","","","","","","","","","","","","","","","","","","","","",""
"2373.2000000029802","","image-slider-response","259","1120865","0.0-253.0","A68J20100VW4W","","","","","-50","","","","","","","","","","","","","","","","","","","","","",""
"null","","image-button-response","260","1125876","0.0-254.0","A68J20100VW4W","img_art/29.jpg","null","","","","","","","","","","","","","","","","","","","","","","","","",""
"3491","","image-button-response","261","1129377","0.0-255.0","A68J20100VW4W","img_art/29.jpg","1","","","","","","","","","","","","","","","","","","","","","","","","",""
"3675","","image-button-response","262","1133055","0.0-256.0-0.0","A68J20100VW4W","img_art/29.jpg","2","","","","","","","","","","","","","","","","","","","","","","","","",""
"673","","image-button-response","263","1133734","0.0-257.0-0.0","A68J20100VW4W","img_art/29.jpg","0","","","","","","","","","","","","","","","","","","","","","","","","",""
"null","","html-keyboard-response","264","1134236","0.0-258.0","A68J20100VW4W","<p style=""font-size: 48px;"">+</p>","","","","","null","allTrialResponses","500","1","30","img_art/29.jpg","-50","very dark and dreary","Erica,Katie,Kathryn,Jasmine,Alyssa,Bailey","Looks like an accident more than an art to me,-26,80,20","Don't get it! Too dark and random. Perhaps it was the start of something but the artist stopped and cancelled out the work.,-50,160,20","This piece feels gross. Makes me think of pollution/litter strewn across a dirty street.,-20,140,20","I like the usage of blacks and greys in this,8,340,20","Its interesting although doesnt illicit any strong emotions from me,10,160,20","Giant messy blob. Looks like it tries to be edgy, but fails.,-40,360,20","Katie","Don't get it! Too dark and random. Perhaps it was the start of something but the artist stopped and cancelled out the work.,-50,160,20","Kathryn","This piece feels gross. Makes me think of pollution/litter strewn across a dirty street.,-20,140,20","Erica","Looks like an accident more than an art to me,-26,80,20","7"
"3611","","image-button-response_instructions","265","1137856","0.0-259.0","A68J20100VW4W","","0","instructions","","","","","","","","","","","","","","","","","","","","","","","",""
"1456","","image-button-response","266","1139322","0.0-260.0","A68J20100VW4W","","0","","","","","","","","","","","","","","","","","","","","","","","","",""
