"rt","url","trial_type","trial_index","time_elapsed","internal_node_id","participant_id","stimulus","button_pressed","Name","responses","response","key_press","variableName","fixationTime","condition","trial","photo","subjectRating","subjectResponse","agentsNames","agent_1_Response","agent_2_Response","agent_3_Response","agent_4_Response","agent_5_Response","agent_6_Response","kept_1_name","kept_1_response","kept_2_name","kept_2_response","kept_3_name","kept_3_response","errorCounter"
"6389","external_page_harvard.html","external-html","0","6538","0.0-0.0","A6OBT1RD68EMZ","","","","","","","","","","","","","","","","","","","","","","","","","","",""
"2136","","image-button-response","1","8680","0.0-1.0","A6OBT1RD68EMZ","","1","","","","","","","","","","","","","","","","","","","","","","","","",""
"3362","","image-button-response","2","12051","0.0-2.0-0.0","A6OBT1RD68EMZ","","1","phone","","","","","","","","","","","","","","","","","","","","","","","",""
"15625","","survey-text","3","27681","0.0-3.0-0.0","A6OBT1RD68EMZ","","","","{""Q0"":""A6OBT1RD68EMZ""}","","","","","","","","","","","","","","","","","","","","","","",""
"8594","","image-button-response_instructions","4","36280","0.0-4.0","A6OBT1RD68EMZ","","0","instructions","","","","","","","","","","","","","","","","","","","","","","","",""
"17305","","image-button-response_instructions","5","53590","0.0-5.0","A6OBT1RD68EMZ","img_art/ins/popularity/ins1.png","0","instructions","","","","","","","","","","","","","","","","","","","","","","","",""
"8337","","image-button-response_instructions","6","61930","0.0-6.0","A6OBT1RD68EMZ","img_art/ins/popularity/ins2.png","0","instructions","","","","","","","","","","","","","","","","","","","","","","","",""
"6115","","image-button-response_instructions","7","68052","0.0-7.0","A6OBT1RD68EMZ","img_art/ins/popularity/ins2Extreme.png","0","instructions","","","","","","","","","","","","","","","","","","","","","","","",""
"21597","","image-button-response_instructions","8","89651","0.0-8.0","A6OBT1RD68EMZ","img_art/ins/popularity/ins3KEEPpop.PNG","0","instructions","","","","","","","","","","","","","","","","","","","","","","","",""
"4347","","image-button-response_instructions","9","94004","0.0-9.0","A6OBT1RD68EMZ","img_art/ins/popularity/ins3ANamepop.PNG","0","instructions","","","","","","","","","","","","","","","","","","","","","","","",""
"6925","","image-button-response_instructions","10","100933","0.0-10.0","A6OBT1RD68EMZ","img_art/ins/popularity/ins3ARatingpop.png","0","instructions","","","","","","","","","","","","","","","","","","","","","","","",""
"5691","","image-button-response_instructions","11","106629","0.0-11.0","A6OBT1RD68EMZ","img_art/ins/popularity/ins3ATextpop.png","0","instructions","","","","","","","","","","","","","","","","","","","","","","","",""
"8271","","image-button-response_instructions","12","114905","0.0-12.0","A6OBT1RD68EMZ","img_art/ins/popularity/ins3ALikespop.png","0","instructions","","","","","","","","","","","","","","","","","","","","","","","",""
"12536","","image-button-response_instructions","13","127445","0.0-13.0","A6OBT1RD68EMZ","img_art/ins/popularity/ins3KEEPpop.PNG","0","instructions","","","","","","","","","","","","","","","","","","","","","","","",""
"9596","","image-button-response_instructions","14","137046","0.0-14.0","A6OBT1RD68EMZ","img_art/ins/popularity/ins3_5RED.png","0","instructions","","","","","","","","","","","","","","","","","","","","","","","",""
"7229","","image-button-response_instructions","15","144278","0.0-15.0","A6OBT1RD68EMZ","img_art/ins/popularity/ins3KEEPpop.PNG","0","instructions","","","","","","","","","","","","","","","","","","","","","","","",""
"9594","","image-button-response_instructions","16","153873","0.0-16.0","A6OBT1RD68EMZ","img_art/ins/popularity/ins4KEEPpop.PNG","0","instructions","","","","","","","","","","","","","","","","","","","","","","","",""
"6227","","image-button-response_instructions","17","160102","0.0-17.0","A6OBT1RD68EMZ","img_art/ins/popularity/ins5KEEPpop.PNG","0","instructions","","","","","","","","","","","","","","","","","","","","","","","",""
"2732","","image-button-response_instructions","18","162838","0.0-18.0","A6OBT1RD68EMZ","","0","instructions","","","","","","","","","","","","","","","","","","","","","","","",""
"7524","","survey-text","19","170390","0.0-19.0-0.0","A6OBT1RD68EMZ","","","","{""Q0"":""but""}","","","","","","","","","","","","","","","","","","","","","","",""
"14730","","survey-text","20","185123","0.0-20.0-0.0","A6OBT1RD68EMZ","","","","{""Q0"":""This doesn't make sense to me""}","","","","","","","","","","","","","","","","","","","","","","",""
"9282","","image-slider-response","21","194417","0.0-21.0","A6OBT1RD68EMZ","","","","","-40","","","","","","","","","","","","","","","","","","","","","",""
"null","","image-button-response","22","199422","0.0-22.0","A6OBT1RD68EMZ","img_art/ins/1.jpg","null","","","","","","","","","","","","","","","","","","","","","","","","",""
"216","","image-button-response","23","199641","0.0-23.0","A6OBT1RD68EMZ","img_art/ins/1.jpg","3","","","","","","","","","","","","","","","","","","","","","","","","",""
"10245","","image-button-response","24","209890","0.0-24.0-0.0","A6OBT1RD68EMZ","img_art/ins/1.jpg","1","","","","","","","","","","","","","","","","","","","","","","","","",""
"1960","","image-button-response","25","211855","0.0-25.0-0.0","A6OBT1RD68EMZ","img_art/ins/1.jpg","2","","","","","","","","","","","","","","","","","","","","","","","","",""
"null","","html-keyboard-response","26","212862","0.0-26.0","A6OBT1RD68EMZ","<p style=""font-size: 48px;"">+</p>","","","","","null","allTrialResponses","1000","1","-2","img_art/ins/1.jpg","-40","This doesn't make sense to me","Allison,Ashley,Beth,Dora,Erika,Jen","looks like a lot of things going on in the mist,20,20,20","I just don't get why these type of art would be popular,-32,40,20","This color reminds me of poo,-46,60,20","looks like what my niece in 3rd grade did this afternoon,-50,80,20","I like the sophisticated brushwork,40,100,20","It reminds me of a candy land dream I had,36,120,20","Dora","looks like what my niece in 3rd grade did this afternoon,-50,80,20","Ashley","I just don't get why these type of art would be popular,-32,40,20","Beth","This color reminds me of poo,-46,60,20","0"
"26687","","survey-text","27","239567","0.0-27.0-0.0","A6OBT1RD68EMZ","","","","{""Q0"":""Interesting but just not my cup of tea""}","","","","","","","","","","","","","","","","","","","","","","",""
"3832","","image-slider-response","28","243404","0.0-28.0","A6OBT1RD68EMZ","","","","","-42","","","","","","","","","","","","","","","","","","","","","",""
"null","","image-button-response","29","248410","0.0-29.0","A6OBT1RD68EMZ","img_art/ins/2.jpg","null","","","","","","","","","","","","","","","","","","","","","","","","",""
"1742","","image-button-response","30","250156","0.0-30.0","A6OBT1RD68EMZ","img_art/ins/2.jpg","2","","","","","","","","","","","","","","","","","","","","","","","","",""
"1533","","image-button-response","31","251694","0.0-31.0-0.0","A6OBT1RD68EMZ","img_art/ins/2.jpg","1","","","","","","","","","","","","","","","","","","","","","","","","",""
"2491","","image-button-response","32","254190","0.0-32.0-0.0","A6OBT1RD68EMZ","img_art/ins/2.jpg","3","","","","","","","","","","","","","","","","","","","","","","","","",""
"null","","html-keyboard-response","33","254695","0.0-33.0","A6OBT1RD68EMZ","<p style=""font-size: 48px;"">+</p>","","","","","null","allTrialResponses","500","1","-1","img_art/ins/2.jpg","-42","Interesting but just not my cup of tea","Jenna,Ashley,Beth,Dora,Kara,Katie","One of my pet peevs,-48,140,20","Idk, it is just annoying,-32,40,20","meaningless painting,-45,60,20","looks too angry,-50,80,20","I like the blocks of color arrangements,30,160,20","too much color!,-28,180,20","Beth","meaningless painting,-45,60,20","Ashley","Idk, it is just annoying,-32,40,20","Dora","looks too angry,-50,80,20","0"
"24537","","survey-text","34","279244","0.0-34.0-0.0","A6OBT1RD68EMZ","","","","{""Q0"":""I like the different shades of blue. It's soothing""}","","","","","","","","","","","","","","","","","","","","","","",""
"3074","","image-slider-response","35","282322","0.0-35.0","A6OBT1RD68EMZ","","","","","19","","","","","","","","","","","","","","","","","","","","","",""
"null","","image-button-response","36","287327","0.0-36.0","A6OBT1RD68EMZ","img_art/ins/3.jpg","null","","","","","","","","","","","","","","","","","","","","","","","","",""
"771","","image-button-response","37","288102","0.0-37.0","A6OBT1RD68EMZ","img_art/ins/3.jpg","0","","","","","","","","","","","","","","","","","","","","","","","","",""
"3369","","image-button-response","38","291474","0.0-38.0-0.0","A6OBT1RD68EMZ","img_art/ins/3.jpg","4","","","","","","","","","","","","","","","","","","","","","","","","",""
"4369","","image-button-response","39","295848","0.0-39.0-0.0","A6OBT1RD68EMZ","img_art/ins/3.jpg","0","","","","","","","","","","","","","","","","","","","","","","","","",""
"6350","","image-button-response","40","305970","0.0-39.1-0.1","A6OBT1RD68EMZ","img_art/ins/3.jpg","2","","","","","","","","","","","","","","","","","","","","","","","","",""
"null","","html-keyboard-response","41","306974","0.0-40.0","A6OBT1RD68EMZ","<p style=""font-size: 48px;"">+</p>","","","","","null","allTrialResponses","1000","1","0","img_art/ins/3.jpg","19","I like the different shades of blue. It's soothing","Leslie,Ashley,Beth,Dora,Mary,Rose","It's an alright work,15,200,20","It looks like a playground for bats,-36,40,20","This thing gives me anxiety,-41,60,20","My worst nightmare,-42,80,20","I like the overlapping of brushes,41,220,20","My daily routine, it's depressing,-20,240,20","Leslie","It's an alright work,15,200,20","Mary","I like the overlapping of brushes,41,220,20","Beth","This thing gives me anxiety,-41,60,20","2"
"8052","","image-button-response_instructions","42","315038","0.0-41.0","A6OBT1RD68EMZ","","0","instructions","","","","","","","","","","","","","","","","","","","","","","","",""
"11748","","survey-likert","43","326791","0.0-42.0-0.0","A6OBT1RD68EMZ","","","","{""Q0"":"""",""Q1"":0,""Q2"":1}","","","","","","","","","","","","","","","","","","","","","","",""
"5806","","survey-text","44","332605","0.0-43.0-0.0","A6OBT1RD68EMZ","","","","{""Q0"":""rock""}","","","","","","","","","","","","","","","","","","","","","","",""
"20517","","survey-text","45","353125","0.0-44.0-0.0","A6OBT1RD68EMZ","","","","{""Q0"":""Interesting. Kind of to busy though""}","","","","","","","","","","","","","","","","","","","","","","",""
"4271","","image-slider-response","46","357400","0.0-45.0","A6OBT1RD68EMZ","","","","","-18","","","","","","","","","","","","","","","","","","","","","",""
"null","","image-button-response","47","362445","0.0-46.0","A6OBT1RD68EMZ","img_art/23.jpg","null","","","","","","","","","","","","","","","","","","","","","","","","",""
"2598","","image-button-response","48","365044","0.0-47.0","A6OBT1RD68EMZ","img_art/23.jpg","3","","","","","","","","","","","","","","","","","","","","","","","","",""
"2515","","image-button-response","49","367563","0.0-48.0-0.0","A6OBT1RD68EMZ","img_art/23.jpg","4","","","","","","","","","","","","","","","","","","","","","","","","",""
"2254","","image-button-response","50","369822","0.0-49.0-0.0","A6OBT1RD68EMZ","img_art/23.jpg","5","","","","","","","","","","","","","","","","","","","","","","","","",""
"null","","html-keyboard-response","51","371327","0.0-50.0","A6OBT1RD68EMZ","<p style=""font-size: 48px;"">+</p>","","","","","null","allTrialResponses","1500","1","1","img_art/23.jpg","-18","Interesting. Kind of to busy though","Kelly,Kathryn,Cheyenne,Chloe,Kaylee,Kaitlin","Love this. I love the white, really pops with the colors surrounding it.,44,220,20","I feel positive community and comfort. Singing along at a concert, united with a bunch of strangers through shared joy.,20,140,20","Solid colors but the white throws it off for me.,4,200,20","Poster shop camp.,-40,220,20","i completely dont get it,-47,200,20","i cannot breath in this,-10,60,20","Chloe","Poster shop camp.,-40,220,20","Kaylee","i completely dont get it,-47,200,20","Kaitlin","i cannot breath in this,-10,60,20","2"
"13338","","survey-text","52","384675","0.0-51.0-0.0","A6OBT1RD68EMZ","","","","{""Q0"":""Spooky""}","","","","","","","","","","","","","","","","","","","","","","",""
"4085","","image-slider-response","53","388763","0.0-52.0","A6OBT1RD68EMZ","","","","","-36","","","","","","","","","","","","","","","","","","","","","",""
"null","","image-button-response","54","393767","0.0-53.0","A6OBT1RD68EMZ","img_art/8.jpg","null","","","","","","","","","","","","","","","","","","","","","","","","",""
"3462","","image-button-response","55","397231","0.0-54.0","A6OBT1RD68EMZ","img_art/8.jpg","3","","","","","","","","","","","","","","","","","","","","","","","","",""
"10023","","image-button-response","56","407257","0.0-55.0-0.0","A6OBT1RD68EMZ","img_art/8.jpg","0","","","","","","","","","","","","","","","","","","","","","","","","",""
"1978","","image-button-response","57","409239","0.0-56.0-0.0","A6OBT1RD68EMZ","img_art/8.jpg","1","","","","","","","","","","","","","","","","","","","","","","","","",""
"null","","html-keyboard-response","58","410242","0.0-57.0","A6OBT1RD68EMZ","<p style=""font-size: 48px;"">+</p>","","","","","null","allTrialResponses","1000","1","2","img_art/8.jpg","-36","Spooky","Diana,Cassidy,Sabrina,Chloe,Kaylee,Kaitlin","I don't care for the piece, but I appreciate the talent that it took to create it.,22,380,20","I like the colors,10,140,20","I love the expressiveness of this,50,120,20","Cheesy. A little too knock you over the dead with its message without making it emotional,-31,220,20","beautiful buildings,32,200,20","wow - the colors were very well mixed,12,60,20","Chloe","Cheesy. A little too knock you over the dead with its message without making it emotional,-31,220,20","Diana","I don't care for the piece, but I appreciate the talent that it took to create it.,22,380,20","Cassidy","I like the colors,10,140,20","2"
"38039","","survey-text","59","448293","0.0-58.0-0.0","A6OBT1RD68EMZ","","","","{""Q0"":""I like the mix of colors. Very vibrant""}","","","","","","","","","","","","","","","","","","","","","","",""
"4377","","image-slider-response","60","452675","0.0-59.0","A6OBT1RD68EMZ","","","","","20","","","","","","","","","","","","","","","","","","","","","",""
"1946","","image-button-response","61","457680","0.0-60.0","A6OBT1RD68EMZ","img_art/1.jpg","3","","","","","","","","","","","","","","","","","","","","","","","","",""
"881","","image-button-response","62","458563","0.0-61.0","A6OBT1RD68EMZ","img_art/1.jpg","5","","","","","","","","","","","","","","","","","","","","","","","","",""
"3260","","image-button-response","63","461826","0.0-62.0-0.0","A6OBT1RD68EMZ","img_art/1.jpg","1","","","","","","","","","","","","","","","","","","","","","","","","",""
"5869","","image-button-response","64","467699","0.0-63.0-0.0","A6OBT1RD68EMZ","img_art/1.jpg","2","","","","","","","","","","","","","","","","","","","","","","","","",""
"null","","html-keyboard-response","65","468703","0.0-64.0","A6OBT1RD68EMZ","<p style=""font-size: 48px;"">+</p>","","","","","null","allTrialResponses","1000","1","3","img_art/1.jpg","20","I like the mix of colors. Very vibrant","Diana,Cassidy,Brianna,Chloe,Abigail,Laura","Might be a person rowing their boat across the lake. Not sure if the background is trees or not.,12,380,20","I like the colors and layers,25,140,20","It's very colorful, and I like it,11,20,20","Powerful colors.,31,220,20","I like the warmth of the picture,21,20,20","soft and touchable, muddled,15,320,20","Laura","soft and touchable, muddled,15,320,20","Cassidy","I like the colors and layers,25,140,20","Brianna","It's very colorful, and I like it,11,20,20","2"
"38577","","survey-text","66","507291","0.0-65.0-0.0","A6OBT1RD68EMZ","","","","{""Q0"":""There is a lot going on in this. I could look at it for hours""}","","","","","","","","","","","","","","","","","","","","","","",""
"2560","","image-slider-response","67","509855","0.0-66.0","A6OBT1RD68EMZ","","","","","40","","","","","","","","","","","","","","","","","","","","","",""
"null","","image-button-response","68","514860","0.0-67.0","A6OBT1RD68EMZ","img_art/27.jpg","null","","","","","","","","","","","","","","","","","","","","","","","","",""
"2731","","image-button-response","69","517593","0.0-68.0","A6OBT1RD68EMZ","img_art/27.jpg","0","","","","","","","","","","","","","","","","","","","","","","","","",""
"3578","","image-button-response","70","521176","0.0-69.0-0.0","A6OBT1RD68EMZ","img_art/27.jpg","2","","","","","","","","","","","","","","","","","","","","","","","","",""
"8743","","image-button-response","71","529923","0.0-70.0-0.0","A6OBT1RD68EMZ","img_art/27.jpg","1","","","","","","","","","","","","","","","","","","","","","","","","",""
"null","","html-keyboard-response","72","530426","0.0-71.0","A6OBT1RD68EMZ","<p style=""font-size: 48px;"">+</p>","","","","","null","allTrialResponses","500","1","4","img_art/27.jpg","40","There is a lot going on in this. I could look at it for hours","Amanda,Cassidy,Brianna,Alexandra,Haley,Laura","I love the childish aspect to it,37,180,20","doesn't look like any effort was put into this piece.,-19,140,20","This painting is very unique,21,20,20","This is ugly and looks like a child did this,-36,60,20","First thought is again, that this looks like a child's art assignment,-20,220,20","feels like a bar scene, tucked away in the corner of a small town,-40,320,20","Amanda","I love the childish aspect to it,37,180,20","Brianna","This painting is very unique,21,20,20","Cassidy","doesn't look like any effort was put into this piece.,-19,140,20","2"
"32925","","survey-text","73","563362","0.0-72.0-0.0","A6OBT1RD68EMZ","","","","{""Q0"":""Very simplistic yet artful""}","","","","","","","","","","","","","","","","","","","","","","",""
"2821","","image-slider-response","74","566188","0.0-73.0","A6OBT1RD68EMZ","","","","","49","","","","","","","","","","","","","","","","","","","","","",""
"null","","image-button-response","75","571190","0.0-74.0","A6OBT1RD68EMZ","img_art/6.jpg","null","","","","","","","","","","","","","","","","","","","","","","","","",""
"2352","","image-button-response","76","573544","0.0-75.0","A6OBT1RD68EMZ","img_art/6.jpg","0","","","","","","","","","","","","","","","","","","","","","","","","",""
"3889","","image-button-response","77","577436","0.0-76.0-0.0","A6OBT1RD68EMZ","img_art/6.jpg","1","","","","","","","","","","","","","","","","","","","","","","","","",""
"2140","","image-button-response","78","579580","0.0-77.0-0.0","A6OBT1RD68EMZ","img_art/6.jpg","2","","","","","","","","","","","","","","","","","","","","","","","","",""
"null","","html-keyboard-response","79","581084","0.0-78.0","A6OBT1RD68EMZ","<p style=""font-size: 48px;"">+</p>","","","","","null","allTrialResponses","1500","1","5","img_art/6.jpg","49","Very simplistic yet artful","Amanda,Cassidy,Brianna,Katelyn,Brittany,Madeline","Makes me feel lonely,-22,180,20","The background on the upper half is nice. I also like the contrast of the top and bottom halves,5,140,20","Nice desert scene,10,20,20","Nothing grabs at me here,-11,100,20","It's alright. I imagined the peach from James and the Giant Peach.,1,40,20","Looks a bit like a pickle or something?,-16,40,20","Amanda","Makes me feel lonely,-22,180,20","Cassidy","The background on the upper half is nice. I also like the contrast of the top and bottom halves,5,140,20","Brianna","Nice desert scene,10,20,20","2"
"5801","","survey-text","80","586900","0.0-79.0-0.0","A6OBT1RD68EMZ","","","","{""Q0"":""sky""}","","","","","","","","","","","","","","","","","","","","","","",""
"17907","","survey-text","81","604809","0.0-80.0-0.0","A6OBT1RD68EMZ","","","","{""Q0"":""Interesting take on a guitar. Like it""}","","","","","","","","","","","","","","","","","","","","","","",""
"2902","","image-slider-response","82","607716","0.0-81.0","A6OBT1RD68EMZ","","","","","50","","","","","","","","","","","","","","","","","","","","","",""
"null","","image-button-response","83","612720","0.0-82.0","A6OBT1RD68EMZ","img_art/10.jpg","null","","","","","","","","","","","","","","","","","","","","","","","","",""
"1343","","image-button-response","84","614066","0.0-83.0","A6OBT1RD68EMZ","img_art/10.jpg","5","","","","","","","","","","","","","","","","","","","","","","","","",""
"8901","","image-button-response","85","622970","0.0-84.0-0.0","A6OBT1RD68EMZ","img_art/10.jpg","0","","","","","","","","","","","","","","","","","","","","","","","","",""
"2714","","image-button-response","86","625689","0.0-85.0-0.0","A6OBT1RD68EMZ","img_art/10.jpg","3","","","","","","","","","","","","","","","","","","","","","","","","",""
"null","","html-keyboard-response","87","627189","0.0-86.0","A6OBT1RD68EMZ","<p style=""font-size: 48px;"">+</p>","","","","","null","allTrialResponses","1500","1","6","img_art/10.jpg","50","Interesting take on a guitar. Like it","Amanda,Cassidy,Brianna,Meghan,Makayla,Alexa","Reminds me of a beautiful ship wreck,36,180,20","Looks like someone just smeared some paint and called it good. Do not like.,-6,140,20","I have no opinions on this one,0,20,20","kind of reminds me of a map,1,220,20","I don't hate but don't like it because it looks like a oil slick,2,80,20","Cute and has a vintage feel to it,45,40,20","Alexa","Cute and has a vintage feel to it,45,40,20","Amanda","Reminds me of a beautiful ship wreck,36,180,20","Meghan","kind of reminds me of a map,1,220,20","2"
"41074","","survey-text","88","668271","0.0-87.0-0.0","A6OBT1RD68EMZ","","","","{""Q0"":""Very colorful view of everyday life""}","","","","","","","","","","","","","","","","","","","","","","",""
"2160","","image-slider-response","89","670436","0.0-88.0","A6OBT1RD68EMZ","","","","","21","","","","","","","","","","","","","","","","","","","","","",""
"3984","","image-button-response","90","675440","0.0-89.0","A6OBT1RD68EMZ","img_art/19.jpg","0","","","","","","","","","","","","","","","","","","","","","","","","",""
"1652","","image-button-response","91","677096","0.0-90.0","A6OBT1RD68EMZ","img_art/19.jpg","3","","","","","","","","","","","","","","","","","","","","","","","","",""
"4059","","image-button-response","92","681160","0.0-91.0-0.0","A6OBT1RD68EMZ","img_art/19.jpg","5","","","","","","","","","","","","","","","","","","","","","","","","",""
"3110","","image-button-response","93","684275","0.0-92.0-0.0","A6OBT1RD68EMZ","img_art/19.jpg","1","","","","","","","","","","","","","","","","","","","","","","","","",""
"null","","html-keyboard-response","94","685776","0.0-93.0","A6OBT1RD68EMZ","<p style=""font-size: 48px;"">+</p>","","","","","null","allTrialResponses","1500","1","7","img_art/19.jpg","21","Very colorful view of everyday life","Amanda,Rachel,Sydney,Meghan,Angelica,Alexa","Its just a nice painting, nothing too special but nothing negative,25,180,20","Reminds me of a busy town. Chaotic in nature.,-11,80,20","I like the color and the mix of sketches along with paint.,30,320,20","looks like a shopping center,20,220,20","This is like an ugly version of a Basquiat.,-24,280,20","It has a chaotic energy about it that draws me in,40,40,20","Meghan","looks like a shopping center,20,220,20","Alexa","It has a chaotic energy about it that draws me in,40,40,20","Rachel","Reminds me of a busy town. Chaotic in nature.,-11,80,20","2"
"15916","","survey-text","95","701696","0.0-94.0-0.0","A6OBT1RD68EMZ","","","","{""Q0"":""Nice shades of color""}","","","","","","","","","","","","","","","","","","","","","","",""
"2319","","image-slider-response","96","704020","0.0-95.0","A6OBT1RD68EMZ","","","","","13","","","","","","","","","","","","","","","","","","","","","",""
"1835","","image-button-response","97","709025","0.0-96.0","A6OBT1RD68EMZ","img_art/22.jpg","3","","","","","","","","","","","","","","","","","","","","","","","","",""
"852","","image-button-response","98","709879","0.0-97.0","A6OBT1RD68EMZ","img_art/22.jpg","4","","","","","","","","","","","","","","","","","","","","","","","","",""
"1922","","image-button-response","99","711805","0.0-98.0-0.0","A6OBT1RD68EMZ","img_art/22.jpg","5","","","","","","","","","","","","","","","","","","","","","","","","",""
"1541","","image-button-response","100","713352","0.0-99.0-0.0","A6OBT1RD68EMZ","img_art/22.jpg","2","","","","","","","","","","","","","","","","","","","","","","","","",""
"null","","html-keyboard-response","101","713856","0.0-100.0","A6OBT1RD68EMZ","<p style=""font-size: 48px;"">+</p>","","","","","null","allTrialResponses","500","1","8","img_art/22.jpg","13","Nice shades of color","Megan,Rachel,Christina,Meghan,Mackenzie,Alexa","Organic sun spot on a flexible grid,18,200,20","I like the vivid colors.,11,80,20","i like the colors but it looks too 80s for me,7,240,20","really beautiful colors and contrast,30,220,20","Different shapes within the image make it interesting to look at,20,20,20","Really pretty. Love the colors.,30,40,20","Mackenzie","Different shapes within the image make it interesting to look at,20,20,20","Alexa","Really pretty. Love the colors.,30,40,20","Christina","i like the colors but it looks too 80s for me,7,240,20","2"
"22561","","survey-text","102","736424","0.0-101.0-0.0","A6OBT1RD68EMZ","","","","{""Q0"":""The horseman of death?""}","","","","","","","","","","","","","","","","","","","","","","",""
"1947","","image-slider-response","103","738376","0.0-102.0","A6OBT1RD68EMZ","","","","","-21","","","","","","","","","","","","","","","","","","","","","",""
"null","","image-button-response","104","743380","0.0-103.0","A6OBT1RD68EMZ","img_art/18.jpg","null","","","","","","","","","","","","","","","","","","","","","","","","",""
"3732","","image-button-response","105","747115","0.0-104.0","A6OBT1RD68EMZ","img_art/18.jpg","0","","","","","","","","","","","","","","","","","","","","","","","","",""
"3773","","image-button-response","106","750890","0.0-105.0-0.0","A6OBT1RD68EMZ","img_art/18.jpg","2","","","","","","","","","","","","","","","","","","","","","","","","",""
"5052","","image-button-response","107","755948","0.0-106.0-0.0","A6OBT1RD68EMZ","img_art/18.jpg","5","","","","","","","","","","","","","","","","","","","","","","","","",""
"null","","html-keyboard-response","108","756452","0.0-107.0","A6OBT1RD68EMZ","<p style=""font-size: 48px;"">+</p>","","","","","null","allTrialResponses","500","1","9","img_art/18.jpg","-21","The horseman of death?","Natalie,Dominique,Christina,Samantha,Mackenzie,Alexa","my response to the picture is a little bit of anxiety but I like the detail,16,400,20","Very conversational and can see many different looks and feels from this .,34,400,20","it looks dreary and not uplifting,-10,240,20","Id love to see this piece closer. So much extra details hidden it it.,50,140,20","The shapes are very fun to interpret,30,20,20","Very wild and abstract. I love it and would definitely hang this up in my home,50,40,20","Natalie","my response to the picture is a little bit of anxiety but I like the detail,16,400,20","Christina","it looks dreary and not uplifting,-10,240,20","Alexa","Very wild and abstract. I love it and would definitely hang this up in my home,50,40,20","2"
"21386","","survey-text","109","777851","0.0-108.0-0.0","A6OBT1RD68EMZ","","","","{""Q0"":""Beautiful. A watefall in motion. Would hang in my bedroom""}","","","","","","","","","","","","","","","","","","","","","","",""
"2600","","image-slider-response","110","780455","0.0-109.0","A6OBT1RD68EMZ","","","","","50","","","","","","","","","","","","","","","","","","","","","",""
"null","","image-button-response","111","785460","0.0-110.0","A6OBT1RD68EMZ","img_art/13.jpg","null","","","","","","","","","","","","","","","","","","","","","","","","",""
"1091","","image-button-response","112","786553","0.0-111.0","A6OBT1RD68EMZ","img_art/13.jpg","5","","","","","","","","","","","","","","","","","","","","","","","","",""
"1858","","image-button-response","113","788413","0.0-112.0-0.0","A6OBT1RD68EMZ","img_art/13.jpg","0","","","","","","","","","","","","","","","","","","","","","","","","",""
"4313","","image-button-response","114","792731","0.0-113.0-0.0","A6OBT1RD68EMZ","img_art/13.jpg","3","","","","","","","","","","","","","","","","","","","","","","","","",""
"null","","html-keyboard-response","115","794234","0.0-114.0","A6OBT1RD68EMZ","<p style=""font-size: 48px;"">+</p>","","","","","null","allTrialResponses","1500","1","10","img_art/13.jpg","50","Beautiful. A watefall in motion. Would hang in my bedroom","Natalie,Alicia,Christina,Erica,Rebecca,Alexa","I like the colors,7,400,20","meh, 80's. retro,-9,120,20","i like the colors but it looks like something that would hang in a hotel,18,240,20","Messy but organised, helps me to relax and observe,8,80,20","love the style but not very novel,9,100,20","This looks like a staple bedroom or bathroom piece,41,40,20","Alexa","This looks like a staple bedroom or bathroom piece,41,40,20","Natalie","I like the colors,7,400,20","Erica","Messy but organised, helps me to relax and observe,8,80,20","2"
"4505","","survey-text","116","798751","0.0-115.0-0.0","A6OBT1RD68EMZ","","","","{""Q0"":""our""}","","","","","","","","","","","","","","","","","","","","","","",""
"45569","","survey-text","117","844323","0.0-116.0-0.0","A6OBT1RD68EMZ","","","","{""Q0"":""Simple but intriguing. Nice conversation piece""}","","","","","","","","","","","","","","","","","","","","","","",""
"3540","","image-slider-response","118","847867","0.0-117.0","A6OBT1RD68EMZ","","","","","36","","","","","","","","","","","","","","","","","","","","","",""
"null","","image-button-response","119","852871","0.0-118.0","A6OBT1RD68EMZ","img_art/25.jpg","null","","","","","","","","","","","","","","","","","","","","","","","","",""
"588","","image-button-response","120","853461","0.0-119.0","A6OBT1RD68EMZ","img_art/25.jpg","5","","","","","","","","","","","","","","","","","","","","","","","","",""
"6119","","image-button-response","121","859584","0.0-120.0-0.0","A6OBT1RD68EMZ","img_art/25.jpg","2","","","","","","","","","","","","","","","","","","","","","","","","",""
"1908","","image-button-response","122","861495","0.0-121.0-0.0","A6OBT1RD68EMZ","img_art/25.jpg","1","","","","","","","","","","","","","","","","","","","","","","","","",""
"null","","html-keyboard-response","123","862999","0.0-122.0","A6OBT1RD68EMZ","<p style=""font-size: 48px;"">+</p>","","","","","null","allTrialResponses","1500","1","11","img_art/25.jpg","36","Simple but intriguing. Nice conversation piece","Natalie,Bailey,Taylor,Erica,Shannon,Alexa","my response to the picture its weird,-9,400,20","I love the background color and it's creepy...but cool.,30,360,20","It makes me feel a little uneasy, but I like the painting,11,340,20","reminds me of a demon,-25,80,20","I like the way the persons clothes look, there could be more color though.,10,220,20","It's really neat and cool looking,20,40,20","Alexa","It's really neat and cool looking,20,40,20","Taylor","It makes me feel a little uneasy, but I like the painting,11,340,20","Bailey","I love the background color and it's creepy...but cool.,30,360,20","2"
"20926","","survey-text","124","883937","0.0-123.0-0.0","A6OBT1RD68EMZ","","","","{""Q0"":""Unsettling""}","","","","","","","","","","","","","","","","","","","","","","",""
"2700","","image-slider-response","125","886641","0.0-124.0","A6OBT1RD68EMZ","","","","","-50","","","","","","","","","","","","","","","","","","","","","",""
"4922","","image-button-response","126","891646","0.0-125.0","A6OBT1RD68EMZ","img_art/16.jpg","4","","","","","","","","","","","","","","","","","","","","","","","","",""
"1193","","image-button-response","127","892841","0.0-126.0","A6OBT1RD68EMZ","img_art/16.jpg","4","","","","","","","","","","","","","","","","","","","","","","","","",""
"6050","","image-button-response","128","898897","0.0-127.0-0.0","A6OBT1RD68EMZ","img_art/16.jpg","1","","","","","","","","","","","","","","","","","","","","","","","","",""
"2947","","image-button-response","129","901847","0.0-128.0-0.0","A6OBT1RD68EMZ","img_art/16.jpg","1","","","","","","","","","","","","","","","","","","","","","","","","",""
"1806","","image-button-response","130","905958","0.0-128.1-0.1","A6OBT1RD68EMZ","img_art/16.jpg","2","","","","","","","","","","","","","","","","","","","","","","","","",""
"null","","html-keyboard-response","131","907461","0.0-129.0","A6OBT1RD68EMZ","<p style=""font-size: 48px;"">+</p>","","","","","null","allTrialResponses","1500","1","12","img_art/16.jpg","-50","Unsettling","Danielle,Bailey,Taylor,Alexandria,Caroline,Alexa","I enjoy how slightly strange this is, while seeming to still have some message,20,340,20","Creeps me out. Like..really creeps me out.,-48,360,20","It just makes me feel uncomfortable,-25,340,20","while simple, it seems to have a deeper meaning on childhood,33,80,20","Did not like at all. I think something sinister going on in the background and the bear a diversion,-50,100,20","I can't figure out the meaning of this painting but it is pleasant to look at,40,40,20","Caroline","Did not like at all. I think something sinister going on in the background and the bear a diversion,-50,100,20","Bailey","Creeps me out. Like..really creeps me out.,-48,360,20","Taylor","It just makes me feel uncomfortable,-25,340,20","4"
"28653","","survey-text","132","936126","0.0-130.0-0.0","A6OBT1RD68EMZ","","","","{""Q0"":""I could get lost in its depth ""}","","","","","","","","","","","","","","","","","","","","","","",""
"3446","","image-slider-response","133","939576","0.0-131.0","A6OBT1RD68EMZ","","","","","45","","","","","","","","","","","","","","","","","","","","","",""
"null","","image-button-response","134","944580","0.0-132.0","A6OBT1RD68EMZ","img_art/29.jpg","null","","","","","","","","","","","","","","","","","","","","","","","","",""
"2661","","image-button-response","135","947242","0.0-133.0","A6OBT1RD68EMZ","img_art/29.jpg","0","","","","","","","","","","","","","","","","","","","","","","","","",""
"8990","","image-button-response","136","956234","0.0-134.0-0.0","A6OBT1RD68EMZ","img_art/29.jpg","5","","","","","","","","","","","","","","","","","","","","","","","","",""
"4953","","image-button-response","137","961193","0.0-135.0-0.0","A6OBT1RD68EMZ","img_art/29.jpg","2","","","","","","","","","","","","","","","","","","","","","","","","",""
"null","","html-keyboard-response","138","961695","0.0-136.0","A6OBT1RD68EMZ","<p style=""font-size: 48px;"">+</p>","","","","","null","allTrialResponses","500","1","13","img_art/29.jpg","45","I could get lost in its depth ","Amy,Bailey,Taylor,Cynthia,Caroline,Nicole","The textures bring this painting alive. A window to another existence with infinite possibility.,25,220,20","Giant messy blob. Looks like it tries to be edgy, but fails.,-40,360,20","It seems like there's anger in the painting.,-20,340,20","makes me feel busy and unorganized,4,320,20","Depressing and with that big red x on it just makes me not like it.,-33,100,20","This one feels scary in a good way,30,20,20","Amy","The textures bring this painting alive. A window to another existence with infinite possibility.,25,220,20","Nicole","This one feels scary in a good way,30,20,20","Taylor","It seems like there's anger in the painting.,-20,340,20","4"
"31494","","survey-text","139","993202","0.0-137.0-0.0","A6OBT1RD68EMZ","","","","{""Q0"":""I don't get it. To busy and disorganized ""}","","","","","","","","","","","","","","","","","","","","","","",""
"3490","","image-slider-response","140","996698","0.0-138.0","A6OBT1RD68EMZ","","","","","-50","","","","","","","","","","","","","","","","","","","","","",""
"null","","image-button-response","141","1001702","0.0-139.0","A6OBT1RD68EMZ","img_art/11.jpg","null","","","","","","","","","","","","","","","","","","","","","","","","",""
"4730","","image-button-response","142","1006434","0.0-140.0","A6OBT1RD68EMZ","img_art/11.jpg","3","","","","","","","","","","","","","","","","","","","","","","","","",""
"2155","","image-button-response","143","1008594","0.0-141.0-0.0","A6OBT1RD68EMZ","img_art/11.jpg","4","","","","","","","","","","","","","","","","","","","","","","","","",""
"1099","","image-button-response","144","1009698","0.0-142.0-0.0","A6OBT1RD68EMZ","img_art/11.jpg","5","","","","","","","","","","","","","","","","","","","","","","","","",""
"null","","html-keyboard-response","145","1011202","0.0-143.0","A6OBT1RD68EMZ","<p style=""font-size: 48px;"">+</p>","","","","","null","allTrialResponses","1500","1","14","img_art/11.jpg","-50","I don't get it. To busy and disorganized ","Amy,Angela,Taylor,Leslie,Gabriela,Nicole","Simple and complex. Hopeful yet dark. I love this,35,220,20","I like this one very much, especially the shades of gray.,30,260,20","It's a really cool painting, but it reminds me of bad traffic,-20,340,20","This elicits no reaction in me.,0,380,20","This photo makes me feel bleak,-16,140,20","Those vertical strokes are to die for and I love these colors !!!,50,20,20","Leslie","This elicits no reaction in me.,0,380,20","Gabriela","This photo makes me feel bleak,-16,140,20","Nicole","Those vertical strokes are to die for and I love these colors !!!,50,20,20","4"
"16415","","survey-text","146","1027631","0.0-144.0-0.0","A6OBT1RD68EMZ","","","","{""Q0"":""Classic waterfall. Not very inspiring""}","","","","","","","","","","","","","","","","","","","","","","",""
"2107","","image-slider-response","147","1029742","0.0-145.0","A6OBT1RD68EMZ","","","","","-13","","","","","","","","","","","","","","","","","","","","","",""
"2297","","image-button-response","148","1034746","0.0-146.0","A6OBT1RD68EMZ","img_art/24.jpg","3","","","","","","","","","","","","","","","","","","","","","","","","",""
"3571","","image-button-response","149","1038320","0.0-147.0","A6OBT1RD68EMZ","img_art/24.jpg","0","","","","","","","","","","","","","","","","","","","","","","","","",""
"2567","","image-button-response","150","1040892","0.0-148.0-0.0","A6OBT1RD68EMZ","img_art/24.jpg","2","","","","","","","","","","","","","","","","","","","","","","","","",""
"1419","","image-button-response","151","1042315","0.0-149.0-0.0","A6OBT1RD68EMZ","img_art/24.jpg","1","","","","","","","","","","","","","","","","","","","","","","","","",""
"null","","html-keyboard-response","152","1042818","0.0-150.0","A6OBT1RD68EMZ","<p style=""font-size: 48px;"">+</p>","","","","","null","allTrialResponses","500","1","15","img_art/24.jpg","-13","Classic waterfall. Not very inspiring","Kayla,Amber,Morgan,Leslie,Gabriela,Nicole","It looks like a poor dead bunny in a field of flowers. I don't want the bunny to be dead.,-37,180,20","peaceful and calm yet joyous.,50,200,20","Water through the fruit.,15,380,20","The colors look nice, but the painting bores me.,-20,380,20","I love how bold and vibrant the colors are,40,140,20","The colors and brush strokes make it feel adventurous,20,20,20","Kayla","It looks like a poor dead bunny in a field of flowers. I don't want the bunny to be dead.,-37,180,20","Morgan","Water through the fruit.,15,380,20","Amber","peaceful and calm yet joyous.,50,200,20","4"
"5332","","survey-text","153","1048172","0.0-151.0-0.0","A6OBT1RD68EMZ","","","","{""Q0"":""course""}","","","","","","","","","","","","","","","","","","","","","","",""
"14945","","survey-text","154","1063120","0.0-152.0-0.0","A6OBT1RD68EMZ","","","","{""Q0"":""Depressing""}","","","","","","","","","","","","","","","","","","","","","","",""
"2107","","image-slider-response","155","1065232","0.0-153.0","A6OBT1RD68EMZ","","","","","-46","","","","","","","","","","","","","","","","","","","","","",""
"null","","image-button-response","156","1070238","0.0-154.0","A6OBT1RD68EMZ","img_art/20.jpg","null","","","","","","","","","","","","","","","","","","","","","","","","",""
"4448","","image-button-response","157","1074689","0.0-155.0","A6OBT1RD68EMZ","img_art/20.jpg","5","","","","","","","","","","","","","","","","","","","","","","","","",""
"2124","","image-button-response","158","1076816","0.0-156.0-0.0","A6OBT1RD68EMZ","img_art/20.jpg","1","","","","","","","","","","","","","","","","","","","","","","","","",""
"3050","","image-button-response","159","1079871","0.0-157.0-0.0","A6OBT1RD68EMZ","img_art/20.jpg","0","","","","","","","","","","","","","","","","","","","","","","","","",""
"null","","html-keyboard-response","160","1080875","0.0-158.0","A6OBT1RD68EMZ","<p style=""font-size: 48px;"">+</p>","","","","","null","allTrialResponses","1000","1","16","img_art/20.jpg","-46","Depressing","Kayla,Amber,Morgan,Jordan,Anna,Brooke","Something fell over and is burning, but it's kinda dope, you know?,14,180,20","Bold strokes and colors.,6,200,20","The beach and industry.,12,380,20","It's okay, I see what looks like a truck laying on it's side. Meh,10,20,20","I would like it more without the frame.,10,300,20","Dinosaur skill and some dark shadow above,-30,60,20","Brooke","Dinosaur skill and some dark shadow above,-30,60,20","Amber","Bold strokes and colors.,6,200,20","Kayla","Something fell over and is burning, but it's kinda dope, you know?,14,180,20","4"
"18218","","survey-text","161","1099106","0.0-159.0-0.0","A6OBT1RD68EMZ","","","","{""Q0"":""An explosion of color. Nice detail""}","","","","","","","","","","","","","","","","","","","","","","",""
"2325","","image-slider-response","162","1101436","0.0-160.0","A6OBT1RD68EMZ","","","","","26","","","","","","","","","","","","","","","","","","","","","",""
"2164","","image-button-response","163","1106441","0.0-161.0","A6OBT1RD68EMZ","img_art/17.jpg","3","","","","","","","","","","","","","","","","","","","","","","","","",""
"1209","","image-button-response","164","1107653","0.0-162.0","A6OBT1RD68EMZ","img_art/17.jpg","4","","","","","","","","","","","","","","","","","","","","","","","","",""
"1401","","image-button-response","165","1109059","0.0-163.0-0.0","A6OBT1RD68EMZ","img_art/17.jpg","3","","","","","","","","","","","","","","","","","","","","","","","","",""
"2164","","image-button-response","166","1111227","0.0-164.0-0.0","A6OBT1RD68EMZ","img_art/17.jpg","5","","","","","","","","","","","","","","","","","","","","","","","","",""
"null","","html-keyboard-response","167","1111730","0.0-165.0","A6OBT1RD68EMZ","<p style=""font-size: 48px;"">+</p>","","","","","null","allTrialResponses","500","1","17","img_art/17.jpg","26","An explosion of color. Nice detail","Kayla,Amber,Tiffany,Gabrielle,Breanna,Brooke","I like the way the forest is taking over the buildings.,21,180,20","Don't really like pastels.,-10,200,20","The painting makes me feel relaxed, and a bit lonely, like I'm sitting at a park waiting for someone.,30,360,20","nice composition and colors, fairy land,28,160,20","Very cool, makes me feel calm,43,380,20","doorways and trees are pleasant,30,60,20","Breanna","Very cool, makes me feel calm,43,380,20","Gabrielle","nice composition and colors, fairy land,28,160,20","Brooke","doorways and trees are pleasant,30,60,20","4"
"14894","","survey-text","168","1126631","0.0-166.0-0.0","A6OBT1RD68EMZ","","","","{""Q0"":""I do not like the color blend""}","","","","","","","","","","","","","","","","","","","","","","",""
"1775","","image-slider-response","169","1128411","0.0-167.0","A6OBT1RD68EMZ","","","","","-31","","","","","","","","","","","","","","","","","","","","","",""
"3383","","image-button-response","170","1133415","0.0-168.0","A6OBT1RD68EMZ","img_art/28.jpg","4","","","","","","","","","","","","","","","","","","","","","","","","",""
"766","","image-button-response","171","1134183","0.0-169.0","A6OBT1RD68EMZ","img_art/28.jpg","5","","","","","","","","","","","","","","","","","","","","","","","","",""
"1574","","image-button-response","172","1135761","0.0-170.0-0.0","A6OBT1RD68EMZ","img_art/28.jpg","4","","","","","","","","","","","","","","","","","","","","","","","","",""
"2504","","image-button-response","173","1138269","0.0-171.0-0.0","A6OBT1RD68EMZ","img_art/28.jpg","0","","","","","","","","","","","","","","","","","","","","","","","","",""
"null","","html-keyboard-response","174","1139272","0.0-172.0","A6OBT1RD68EMZ","<p style=""font-size: 48px;"">+</p>","","","","","null","allTrialResponses","1000","1","18","img_art/28.jpg","-31","I do not like the color blend","Elizabeth,Maria,Shelby,Gabrielle,Breanna,Brooke","Not really exciting,23,20,20","I want to like it, but I'm not really sure what to make of it,2,120,20","This one gives me an uneasy feeling,-10,240,20","bland coloring but pattern interesting,2,160,20","The colors are depressing,-5,380,20","dislike the colors. it looks like a bike, but misshapen wheels like it was wrecked.,-10,60,20","Brooke","dislike the colors. it looks like a bike, but misshapen wheels like it was wrecked.,-10,60,20","Breanna","The colors are depressing,-5,380,20","Elizabeth","Not really exciting,23,20,20","4"
"7853","","survey-text","175","1147139","0.0-173.0-0.0","A6OBT1RD68EMZ","","","","{""Q0"":""Boring""}","","","","","","","","","","","","","","","","","","","","","","",""
"2720","","image-slider-response","176","1149865","0.0-174.0","A6OBT1RD68EMZ","","","","","-50","","","","","","","","","","","","","","","","","","","","","",""
"null","","image-button-response","177","1154870","0.0-175.0","A6OBT1RD68EMZ","img_art/26.jpg","null","","","","","","","","","","","","","","","","","","","","","","","","",""
"3103","","image-button-response","178","1157975","0.0-176.0","A6OBT1RD68EMZ","img_art/26.jpg","2","","","","","","","","","","","","","","","","","","","","","","","","",""
"7999","","image-button-response","179","1165977","0.0-177.0-0.0","A6OBT1RD68EMZ","img_art/26.jpg","5","","","","","","","","","","","","","","","","","","","","","","","","",""
"4217","","image-button-response","180","1170196","0.0-178.0-0.0","A6OBT1RD68EMZ","img_art/26.jpg","1","","","","","","","","","","","","","","","","","","","","","","","","",""
"null","","html-keyboard-response","181","1171200","0.0-179.0","A6OBT1RD68EMZ","<p style=""font-size: 48px;"">+</p>","","","","","null","allTrialResponses","1000","1","19","img_art/26.jpg","-50","Boring","Elizabeth,Jamie,Hannah,Sierra,Breanna,Brooke","Like the soft blend of colors,26,20,20","Street corner on a sunny day,5,320,20","This is boring.,-15,240,20","soothing and subtle,1,260,20","Splash of paint in an ordered way,7,380,20","street scene is okay?,15,60,20","Hannah","This is boring.,-15,240,20","Brooke","street scene is okay?,15,60,20","Jamie","Street corner on a sunny day,5,320,20","4"
"34325","","survey-text","182","1205541","0.0-180.0-0.0","A6OBT1RD68EMZ","","","","{""Q0"":""Nice color blend. Many details to sort through""}","","","","","","","","","","","","","","","","","","","","","","",""
"2839","","image-slider-response","183","1208386","0.0-181.0","A6OBT1RD68EMZ","","","","","35","","","","","","","","","","","","","","","","","","","","","",""
"null","","image-button-response","184","1213390","0.0-182.0","A6OBT1RD68EMZ","img_art/21.jpg","null","","","","","","","","","","","","","","","","","","","","","","","","",""
"5601","","image-button-response","185","1218994","0.0-183.0","A6OBT1RD68EMZ","img_art/21.jpg","1","","","","","","","","","","","","","","","","","","","","","","","","",""
"4673","","image-button-response","186","1223671","0.0-184.0-0.0","A6OBT1RD68EMZ","img_art/21.jpg","3","","","","","","","","","","","","","","","","","","","","","","","","",""
"1113","","image-button-response","187","1224787","0.0-185.0-0.0","A6OBT1RD68EMZ","img_art/21.jpg","4","","","","","","","","","","","","","","","","","","","","","","","","",""
"null","","html-keyboard-response","188","1225788","0.0-186.0","A6OBT1RD68EMZ","<p style=""font-size: 48px;"">+</p>","","","","","null","allTrialResponses","1000","1","20","img_art/21.jpg","35","Nice color blend. Many details to sort through","Briana,Jamie,Hannah,Katherine,Sara,Brooke","Unfinished. Confusing to look at,-12,400,20","Contrast of fire and water looks cool,20,320,20","Boring colors and look. Too much 1980s.,-20,240,20","I can't explain why this struck me as absolutely gorgeous. Like the clashing between 2 different worlds,43,120,20","It looks confusing,-21,160,20","Like the colors. Don't like the white dots on the right side of the painting though.,15,60,20","Jamie","Contrast of fire and water looks cool,20,320,20","Katherine","I can't explain why this struck me as absolutely gorgeous. Like the clashing between 2 different worlds,43,120,20","Sara","It looks confusing,-21,160,20","4"
"4042","","survey-text","189","1229839","0.0-187.0-0.0","A6OBT1RD68EMZ","","","","{""Q0"":""we""}","","","","","","","","","","","","","","","","","","","","","","",""
"41089","","survey-text","190","1270931","0.0-188.0-0.0","A6OBT1RD68EMZ","","","","{""Q0"":""Depresses me""}","","","","","","","","","","","","","","","","","","","","","","",""
"2605","","image-slider-response","191","1273542","0.0-189.0","A6OBT1RD68EMZ","","","","","-50","","","","","","","","","","","","","","","","","","","","","",""
"3111","","image-button-response","192","1278546","0.0-190.0","A6OBT1RD68EMZ","img_art/15.jpg","3","","","","","","","","","","","","","","","","","","","","","","","","",""
"524","","image-button-response","193","1279073","0.0-191.0","A6OBT1RD68EMZ","img_art/15.jpg","4","","","","","","","","","","","","","","","","","","","","","","","","",""
"2125","","image-button-response","194","1281203","0.0-192.0-0.0","A6OBT1RD68EMZ","img_art/15.jpg","5","","","","","","","","","","","","","","","","","","","","","","","","",""
"1051","","image-button-response","195","1282259","0.0-193.0-0.0","A6OBT1RD68EMZ","img_art/15.jpg","3","","","","","","","","","","","","","","","","","","","","","","","","",""
"null","","html-keyboard-response","196","1283263","0.0-194.0","A6OBT1RD68EMZ","<p style=""font-size: 48px;"">+</p>","","","","","null","allTrialResponses","1000","1","21","img_art/15.jpg","-50","Depresses me","Alexis,Jamie,Crystal,Katherine,Sara,Alyssa","Not a fan of abstract, but the black is very striking,10,100,20","Black and blue is my favorite color combination,35,320,20","The blotted black spots create a nice contrast between the brush strokes within the center and sides. I like it.,41,300,20","black dots too ant-like,-25,120,20","I don't like the black dots,-19,160,20","Uninteresting and too much black,-30,160,20","Sara","I don't like the black dots,-19,160,20","Alyssa","Uninteresting and too much black,-30,160,20","Katherine","black dots too ant-like,-25,120,20","4"
"21139","","survey-text","197","1304418","0.0-195.0-0.0","A6OBT1RD68EMZ","","","","{""Q0"":""Bland and boring""}","","","","","","","","","","","","","","","","","","","","","","",""
"1952","","image-slider-response","198","1306376","0.0-196.0","A6OBT1RD68EMZ","","","","","-50","","","","","","","","","","","","","","","","","","","","","",""
"2561","","image-button-response","199","1311379","0.0-197.0","A6OBT1RD68EMZ","img_art/7.jpg","3","","","","","","","","","","","","","","","","","","","","","","","","",""
"1094","","image-button-response","200","1312476","0.0-198.0","A6OBT1RD68EMZ","img_art/7.jpg","3","","","","","","","","","","","","","","","","","","","","","","","","",""
"1455","","image-button-response","201","1313936","0.0-199.0-0.0","A6OBT1RD68EMZ","img_art/7.jpg","4","","","","","","","","","","","","","","","","","","","","","","","","",""
"1221","","image-button-response","202","1315164","0.0-200.0-0.0","A6OBT1RD68EMZ","img_art/7.jpg","5","","","","","","","","","","","","","","","","","","","","","","","","",""
"null","","html-keyboard-response","203","1316667","0.0-201.0","A6OBT1RD68EMZ","<p style=""font-size: 48px;"">+</p>","","","","","null","allTrialResponses","1500","1","22","img_art/7.jpg","-50","Bland and boring","Sophia,Monica,Savannah,Katherine,Sara,Alyssa","Is this cookie dough?  Yum!,-10,280,20","It looks like bloody scabs on skin, I don't like it,-42,360,20","More saturated color, even more interpretations to have.,44,200,20","Reminds me of bugs, I hate bugs,-7,120,20","It feels cold and hard,-40,160,20","It looks like someone took a picture of a muddy ground and called it art.,-41,160,20","Katherine","Reminds me of bugs, I hate bugs,-7,120,20","Sara","It feels cold and hard,-40,160,20","Alyssa","It looks like someone took a picture of a muddy ground and called it art.,-41,160,20","4"
"12131","","survey-text","204","1328816","0.0-202.0-0.0","A6OBT1RD68EMZ","","","","{""Q0"":""Soothing and relaxing""}","","","","","","","","","","","","","","","","","","","","","","",""
"4378","","image-slider-response","205","1333197","0.0-203.0","A6OBT1RD68EMZ","","","","","42","","","","","","","","","","","","","","","","","","","","","",""
"2258","","image-button-response","206","1338203","0.0-204.0","A6OBT1RD68EMZ","img_art/9.jpg","0","","","","","","","","","","","","","","","","","","","","","","","","",""
"1217","","image-button-response","207","1339422","0.0-205.0","A6OBT1RD68EMZ","img_art/9.jpg","0","","","","","","","","","","","","","","","","","","","","","","","","",""
"7058","","image-button-response","208","1346484","0.0-206.0-0.0","A6OBT1RD68EMZ","img_art/9.jpg","2","","","","","","","","","","","","","","","","","","","","","","","","",""
"2972","","image-button-response","209","1349459","0.0-207.0-0.0","A6OBT1RD68EMZ","img_art/9.jpg","0","","","","","","","","","","","","","","","","","","","","","","","","",""
"1382","","image-button-response","210","1353066","0.0-207.1-0.1","A6OBT1RD68EMZ","img_art/9.jpg","4","","","","","","","","","","","","","","","","","","","","","","","","",""
"null","","html-keyboard-response","211","1353569","0.0-208.0","A6OBT1RD68EMZ","<p style=""font-size: 48px;"">+</p>","","","","","null","allTrialResponses","500","1","23","img_art/9.jpg","42","Soothing and relaxing","Jenna,Chelsea,Erika,Katherine,Sara,Alyssa","gorgeous colors, love the little details,42,360,20","I don't like the obvious lines of colored pencil on the border.,-24,180,20","Colorful and expressive,15,100,20","Idk what is in the middle but the blurry image makes it seem like the subject is of the painters interest,22,120,20","Spiral patterns are not my thing,-30,160,20","Unpleasant, alot of dark colors and strange lines,-26,160,20","Jenna","gorgeous colors, love the little details,42,360,20","Erika","Colorful and expressive,15,100,20","Sara","Spiral patterns are not my thing,-30,160,20","6"
"35348","","survey-text","212","1388925","0.0-209.0-0.0","A6OBT1RD68EMZ","","","","{""Q0"":""Interesting. A hand reaching out?""}","","","","","","","","","","","","","","","","","","","","","","",""
"2132","","image-slider-response","213","1391062","0.0-210.0","A6OBT1RD68EMZ","","","","","36","","","","","","","","","","","","","","","","","","","","","",""
"null","","image-button-response","214","1396066","0.0-211.0","A6OBT1RD68EMZ","img_art/4.jpg","null","","","","","","","","","","","","","","","","","","","","","","","","",""
"5968","","image-button-response","215","1402036","0.0-212.0","A6OBT1RD68EMZ","img_art/4.jpg","1","","","","","","","","","","","","","","","","","","","","","","","","",""
"2697","","image-button-response","216","1404738","0.0-213.0-0.0","A6OBT1RD68EMZ","img_art/4.jpg","4","","","","","","","","","","","","","","","","","","","","","","","","",""
"2121","","image-button-response","217","1406861","0.0-214.0-0.0","A6OBT1RD68EMZ","img_art/4.jpg","2","","","","","","","","","","","","","","","","","","","","","","","","",""
"null","","html-keyboard-response","218","1407864","0.0-215.0","A6OBT1RD68EMZ","<p style=""font-size: 48px;"">+</p>","","","","","null","allTrialResponses","1000","1","24","img_art/4.jpg","36","Interesting. A hand reaching out?","Jenna,Erin,Erika,Claire,Sara,Marissa","creepy, looks like a deformed hand, but the background is pretty,5,360,20","Seems simplistic,-8,120,20","Reminds me of late night frustrated paintings of my own made of coffee,12,100,20","I really don't like the colors,-26,260,20","Random swirls again,-30,160,20","I'm disappointed that such a simple piece, with very little effort spent, could be grouped with other detailed pieces,-31,160,20","Erin","Seems simplistic,-8,120,20","Sara","Random swirls again,-30,160,20","Erika","Reminds me of late night frustrated paintings of my own made of coffee,12,100,20","6"
"19642","","survey-text","219","1427525","0.0-216.0-0.0","A6OBT1RD68EMZ","","","","{""Q0"":""Hard to understand. ""}","","","","","","","","","","","","","","","","","","","","","","",""
"2381","","image-slider-response","220","1429910","0.0-217.0","A6OBT1RD68EMZ","","","","","-38","","","","","","","","","","","","","","","","","","","","","",""
"null","","image-button-response","221","1434914","0.0-218.0","A6OBT1RD68EMZ","img_art/12.jpg","null","","","","","","","","","","","","","","","","","","","","","","","","",""
"3179","","image-button-response","222","1438095","0.0-219.0","A6OBT1RD68EMZ","img_art/12.jpg","4","","","","","","","","","","","","","","","","","","","","","","","","",""
"2608","","image-button-response","223","1440706","0.0-220.0-0.0","A6OBT1RD68EMZ","img_art/12.jpg","5","","","","","","","","","","","","","","","","","","","","","","","","",""
"2396","","image-button-response","224","1443106","0.0-221.0-0.0","A6OBT1RD68EMZ","img_art/12.jpg","2","","","","","","","","","","","","","","","","","","","","","","","","",""
"null","","html-keyboard-response","225","1444109","0.0-222.0","A6OBT1RD68EMZ","<p style=""font-size: 48px;"">+</p>","","","","","null","allTrialResponses","1000","1","25","img_art/12.jpg","-38","Hard to understand. ","Victoria,Erin,Erika,Grace,Sara,Julia","to contemporary for me,3,400,20","City scape but palette is odd,4,120,20","I don't like it, but I appreciate the effort and technique,11,100,20","Love the colors & the abstractness.,31,180,20","I don't like the blocking,-20,160,20","this is pretty, but I wouldn't hang it on my wall.,15,40,20","Sara","I don't like the blocking,-20,160,20","Julia","this is pretty, but I wouldn't hang it on my wall.,15,40,20","Erika","I don't like it, but I appreciate the effort and technique,11,100,20","6"
"5299","","survey-text","226","1449421","0.0-223.0-0.0","A6OBT1RD68EMZ","","","","{""Q0"":""table""}","","","","","","","","","","","","","","","","","","","","","","",""
"12024","","survey-text","227","1461448","0.0-224.0-0.0","A6OBT1RD68EMZ","","","","{""Q0"":""No. To child like""}","","","","","","","","","","","","","","","","","","","","","","",""
"2147","","image-slider-response","228","1463600","0.0-225.0","A6OBT1RD68EMZ","","","","","-50","","","","","","","","","","","","","","","","","","","","","",""
"null","","image-button-response","229","1468605","0.0-226.0","A6OBT1RD68EMZ","img_art/5.jpg","null","","","","","","","","","","","","","","","","","","","","","","","","",""
"4721","","image-button-response","230","1473328","0.0-227.0","A6OBT1RD68EMZ","img_art/5.jpg","3","","","","","","","","","","","","","","","","","","","","","","","","",""
"1572","","image-button-response","231","1474904","0.0-228.0-0.0","A6OBT1RD68EMZ","img_art/5.jpg","0","","","","","","","","","","","","","","","","","","","","","","","","",""
"1270","","image-button-response","232","1476179","0.0-229.0-0.0","A6OBT1RD68EMZ","img_art/5.jpg","2","","","","","","","","","","","","","","","","","","","","","","","","",""
"null","","html-keyboard-response","233","1476682","0.0-230.0","A6OBT1RD68EMZ","<p style=""font-size: 48px;"">+</p>","","","","","null","allTrialResponses","500","1","26","img_art/5.jpg","-50","No. To child like","Jennifer,Catherine,Erika,Courtney,Sara,Julia","This piece doesn't really stand out.,0,380,20","Building remnants in the sand.,1,160,20","Not sure what I'm looking at,-16,100,20","A rabbits head.,4,280,20","It looks random,-10,160,20","I like this one but wish it had more context around it,18,40,20","Courtney","A rabbits head.,4,280,20","Jennifer","This piece doesn't really stand out.,0,380,20","Erika","Not sure what I'm looking at,-16,100,20","6"
"28241","","survey-text","234","1504932","0.0-231.0-0.0","A6OBT1RD68EMZ","","","","{""Q0"":""I don't really like the color combination. Bad green color""}","","","","","","","","","","","","","","","","","","","","","","",""
"1883","","image-slider-response","235","1506821","0.0-232.0","A6OBT1RD68EMZ","","","","","-27","","","","","","","","","","","","","","","","","","","","","",""
"2808","","image-button-response","236","1511825","0.0-233.0","A6OBT1RD68EMZ","img_art/2.jpg","0","","","","","","","","","","","","","","","","","","","","","","","","",""
"2711","","image-button-response","237","1514537","0.0-234.0","A6OBT1RD68EMZ","img_art/2.jpg","4","","","","","","","","","","","","","","","","","","","","","","","","",""
"1464","","image-button-response","238","1516004","0.0-235.0-0.0","A6OBT1RD68EMZ","img_art/2.jpg","0","","","","","","","","","","","","","","","","","","","","","","","","",""
"1984","","image-button-response","239","1517993","0.0-236.0-0.0","A6OBT1RD68EMZ","img_art/2.jpg","5","","","","","","","","","","","","","","","","","","","","","","","","",""
"null","","html-keyboard-response","240","1518996","0.0-237.0","A6OBT1RD68EMZ","<p style=""font-size: 48px;"">+</p>","","","","","null","allTrialResponses","1000","1","27","img_art/2.jpg","-27","I don't really like the color combination. Bad green color","Jennifer,Heather,Erika,Courtney,Sarah,Mikayla","Ugly color scheme,-50,380,20","i like the colors and again can make out my own picture,38,260,20","Indistinct and too bright,-21,100,20","That looks look a cartoon character of some kind.,11,280,20","nope. just looks like a mess,-28,180,20","I love the colors in this.,29,300,20","Sarah","nope. just looks like a mess,-28,180,20","Jennifer","Ugly color scheme,-50,380,20","Mikayla","I love the colors in this.,29,300,20","6"
"17800","","survey-text","241","1536813","0.0-238.0-0.0","A6OBT1RD68EMZ","","","","{""Q0"":""Tangled life""}","","","","","","","","","","","","","","","","","","","","","","",""
"2528","","image-slider-response","242","1539344","0.0-239.0","A6OBT1RD68EMZ","","","","","39","","","","","","","","","","","","","","","","","","","","","",""
"2604","","image-button-response","243","1544348","0.0-240.0","A6OBT1RD68EMZ","img_art/3.jpg","3","","","","","","","","","","","","","","","","","","","","","","","","",""
"1925","","image-button-response","244","1546277","0.0-241.0","A6OBT1RD68EMZ","img_art/3.jpg","3","","","","","","","","","","","","","","","","","","","","","","","","",""
"3578","","image-button-response","245","1549859","0.0-242.0-0.0","A6OBT1RD68EMZ","img_art/3.jpg","1","","","","","","","","","","","","","","","","","","","","","","","","",""
"5783","","image-button-response","246","1555647","0.0-243.0-0.0","A6OBT1RD68EMZ","img_art/3.jpg","5","","","","","","","","","","","","","","","","","","","","","","","","",""
"null","","html-keyboard-response","247","1557150","0.0-244.0","A6OBT1RD68EMZ","<p style=""font-size: 48px;"">+</p>","","","","","null","allTrialResponses","1500","1","28","img_art/3.jpg","39","Tangled life","Jennifer,Kylie,Kaitlyn,Molly,Sarah,Mikayla","This looks like something a child created in 5 minutes.,-50,380,20","Confusion and mayhem,-10,300,20","Too much red; very bland,-26,80,20","Mysterious, remarkable.,30,340,20","the red is impactful but the work overall doesn't say anything to me,-8,180,20","Scary. Looks like blood.,-45,300,20","Molly","Mysterious, remarkable.,30,340,20","Kylie","Confusion and mayhem,-10,300,20","Mikayla","Scary. Looks like blood.,-45,300,20","6"
"43681","","survey-text","248","1600851","0.0-245.0-0.0","A6OBT1RD68EMZ","","","","{""Q0"":""Nice color blend. Peaceful""}","","","","","","","","","","","","","","","","","","","","","","",""
"3842","","image-slider-response","249","1604697","0.0-246.0","A6OBT1RD68EMZ","","","","","26","","","","","","","","","","","","","","","","","","","","","",""
"3381","","image-button-response","250","1609702","0.0-247.0","A6OBT1RD68EMZ","img_art/14.jpg","3","","","","","","","","","","","","","","","","","","","","","","","","",""
"1325","","image-button-response","251","1611029","0.0-248.0","A6OBT1RD68EMZ","img_art/14.jpg","3","","","","","","","","","","","","","","","","","","","","","","","","",""
"897","","image-button-response","252","1611930","0.0-249.0-0.0","A6OBT1RD68EMZ","img_art/14.jpg","4","","","","","","","","","","","","","","","","","","","","","","","","",""
"1215","","image-button-response","253","1613149","0.0-250.0-0.0","A6OBT1RD68EMZ","img_art/14.jpg","5","","","","","","","","","","","","","","","","","","","","","","","","",""
"null","","html-keyboard-response","254","1614152","0.0-251.0","A6OBT1RD68EMZ","<p style=""font-size: 48px;"">+</p>","","","","","null","allTrialResponses","1000","1","29","img_art/14.jpg","26","Nice color blend. Peaceful","Jessica,Kylie,Ashley,Molly,Michaela,Mikayla","I kind of like it!,6,400,20","Confusion or an explosion,40,300,20","I like the color tone, it's kind of disturbing.,35,320,20","In my opinion it's spectacular.,35,340,20","I just really like light and wispy things,33,260,20","The red looks like blood and im not a huge fan,15,300,20","Molly","In my opinion it's spectacular.,35,340,20","Michaela","I just really like light and wispy things,33,260,20","Mikayla","The red looks like blood and im not a huge fan,15,300,20","6"
"18014","","survey-text","255","1632185","0.0-252.0-0.0","A6OBT1RD68EMZ","","","","{""Q0"":""Love it. Bold strokes and colors""}","","","","","","","","","","","","","","","","","","","","","","",""
"3800","","image-slider-response","256","1635990","0.0-253.0","A6OBT1RD68EMZ","","","","","50","","","","","","","","","","","","","","","","","","","","","",""
"4343","","image-button-response","257","1640992","0.0-254.0","A6OBT1RD68EMZ","img_art/30.jpg","3","","","","","","","","","","","","","","","","","","","","","","","","",""
"746","","image-button-response","258","1641741","0.0-255.0","A6OBT1RD68EMZ","img_art/30.jpg","3","","","","","","","","","","","","","","","","","","","","","","","","",""
"11486","","image-button-response","259","1653231","0.0-256.0-0.0","A6OBT1RD68EMZ","img_art/30.jpg","5","","","","","","","","","","","","","","","","","","","","","","","","",""
"7159","","image-button-response","260","1660395","0.0-257.0-0.0","A6OBT1RD68EMZ","img_art/30.jpg","0","","","","","","","","","","","","","","","","","","","","","","","","",""
"null","","html-keyboard-response","261","1660899","0.0-258.0","A6OBT1RD68EMZ","<p style=""font-size: 48px;"">+</p>","","","","","null","allTrialResponses","500","1","30","img_art/30.jpg","50","Love it. Bold strokes and colors","Vanessa,Emma,Michelle,Molly,Michaela,Mikayla","I like the red against the blue, but otherwise, it's not really my taste,4,380,20","Like the design, not a big fan of the colors,20,60,20","Don't like it at all, looks like a someone smeared paint with their fingers,-25,280,20","I like the way the artist has painted his work.,40,340,20","My son made me a painting that looked like this,26,260,20","Very colorful! Wow!,22,300,20","Molly","I like the way the artist has painted his work.,40,340,20","Mikayla","Very colorful! Wow!,22,300,20","Vanessa","I like the red against the blue, but otherwise, it's not really my taste,4,380,20","6"
"7203","","image-button-response_instructions","262","1668119","0.0-259.0","A6OBT1RD68EMZ","","0","instructions","","","","","","","","","","","","","","","","","","","","","","","",""
