"rt","url","trial_type","trial_index","time_elapsed","internal_node_id","participant_id","stimulus","button_pressed","Name","responses","response","key_press","variableName","fixationTime","condition","trial","photo","subjectRating","subjectResponse","agentsNames","agent_1_Response","agent_2_Response","agent_3_Response","agent_4_Response","agent_5_Response","agent_6_Response","kept_1_name","kept_1_response","kept_2_name","kept_2_response","kept_3_name","kept_3_response","errorCounter"
"24962","external_page_harvard.html","external-html","0","25016","0.0-0.0","A7VQJN8H4QMI6","","","","","","","","","","","","","","","","","","","","","","","","","","",""
"2192","","image-button-response","1","27210","0.0-1.0","A7VQJN8H4QMI6","","1","","","","","","","","","","","","","","","","","","","","","","","","",""
"3867","","image-button-response","2","31085","0.0-2.0-0.0","A7VQJN8H4QMI6","","1","phone","","","","","","","","","","","","","","","","","","","","","","","",""
"6757","","survey-text","3","37843","0.0-3.0-0.0","A7VQJN8H4QMI6","","","","{""Q0"":""A7VQJN8H4QMI6""}","","","","","","","","","","","","","","","","","","","","","","",""
"5193","","image-button-response_instructions","4","43038","0.0-4.0","A7VQJN8H4QMI6","","0","instructions","","","","","","","","","","","","","","","","","","","","","","","",""
"12206","","image-button-response_instructions","5","55247","0.0-5.0","A7VQJN8H4QMI6","img_art/ins/popularity/ins1.png","0","instructions","","","","","","","","","","","","","","","","","","","","","","","",""
"4885","","image-button-response_instructions","6","60134","0.0-6.0","A7VQJN8H4QMI6","img_art/ins/popularity/ins2.png","0","instructions","","","","","","","","","","","","","","","","","","","","","","","",""
"5814","","image-button-response_instructions","7","65950","0.0-7.0","A7VQJN8H4QMI6","img_art/ins/popularity/ins2Extreme.png","0","instructions","","","","","","","","","","","","","","","","","","","","","","","",""
"6650","","image-button-response_instructions","8","72602","0.0-8.0","A7VQJN8H4QMI6","img_art/ins/popularity/ins3KEEPpop.PNG","0","instructions","","","","","","","","","","","","","","","","","","","","","","","",""
"3647","","image-button-response_instructions","9","76250","0.0-9.0","A7VQJN8H4QMI6","img_art/ins/popularity/ins3ANamepop.PNG","0","instructions","","","","","","","","","","","","","","","","","","","","","","","",""
"3912","","image-button-response_instructions","10","80163","0.0-10.0","A7VQJN8H4QMI6","img_art/ins/popularity/ins3ARatingpop.png","0","instructions","","","","","","","","","","","","","","","","","","","","","","","",""
"2931","","image-button-response_instructions","11","83096","0.0-11.0","A7VQJN8H4QMI6","img_art/ins/popularity/ins3ATextpop.png","0","instructions","","","","","","","","","","","","","","","","","","","","","","","",""
"7383","","image-button-response_instructions","12","90479","0.0-12.0","A7VQJN8H4QMI6","img_art/ins/popularity/ins3ALikespop.png","0","instructions","","","","","","","","","","","","","","","","","","","","","","","",""
"7032","","image-button-response_instructions","13","97514","0.0-13.0","A7VQJN8H4QMI6","img_art/ins/popularity/ins3KEEPpop.PNG","0","instructions","","","","","","","","","","","","","","","","","","","","","","","",""
"5658","","image-button-response_instructions","14","103173","0.0-14.0","A7VQJN8H4QMI6","img_art/ins/popularity/ins3_5RED.png","0","instructions","","","","","","","","","","","","","","","","","","","","","","","",""
"3219","","image-button-response_instructions","15","106393","0.0-15.0","A7VQJN8H4QMI6","img_art/ins/popularity/ins3KEEPpop.PNG","0","instructions","","","","","","","","","","","","","","","","","","","","","","","",""
"22555","","image-button-response_instructions","16","128949","0.0-16.0","A7VQJN8H4QMI6","img_art/ins/popularity/ins4KEEPpop.PNG","0","instructions","","","","","","","","","","","","","","","","","","","","","","","",""
"80925","","image-button-response_instructions","17","209875","0.0-17.0","A7VQJN8H4QMI6","img_art/ins/popularity/ins5KEEPpop.PNG","0","instructions","","","","","","","","","","","","","","","","","","","","","","","",""
"1567","","image-button-response_instructions","18","211443","0.0-18.0","A7VQJN8H4QMI6","","0","instructions","","","","","","","","","","","","","","","","","","","","","","","",""
"4448","","survey-text","19","215909","0.0-19.0-0.0","A7VQJN8H4QMI6","","","","{""Q0"":""but""}","","","","","","","","","","","","","","","","","","","","","","",""
"13128","","survey-text","20","229039","0.0-20.0-0.0","A7VQJN8H4QMI6","","","","{""Q0"":""colorful and captivating""}","","","","","","","","","","","","","","","","","","","","","","",""
"3910.2000000476837","","image-slider-response","21","232954","0.0-21.0","A7VQJN8H4QMI6","","","","","50","","","","","","","","","","","","","","","","","","","","","",""
"null","","image-button-response","22","237964","0.0-22.0","A7VQJN8H4QMI6","img_art/ins/1.jpg","null","","","","","","","","","","","","","","","","","","","","","","","","",""
"3401","","image-button-response","23","241369","0.0-23.0","A7VQJN8H4QMI6","img_art/ins/1.jpg","5","","","","","","","","","","","","","","","","","","","","","","","","",""
"1157","","image-button-response","24","242530","0.0-24.0-0.0","A7VQJN8H4QMI6","img_art/ins/1.jpg","4","","","","","","","","","","","","","","","","","","","","","","","","",""
"3993","","image-button-response","25","246528","0.0-25.0-0.0","A7VQJN8H4QMI6","img_art/ins/1.jpg","0","","","","","","","","","","","","","","","","","","","","","","","","",""
"null","","html-keyboard-response","26","247531","0.0-26.0","A7VQJN8H4QMI6","<p style=""font-size: 48px;"">+</p>","","","","","null","allTrialResponses","1000","1","-2","img_art/ins/1.jpg","50","colorful and captivating","Allison,Ashley,Beth,Dora,Erika,Jen","looks like a lot of things going on in the mist,20,20,20","I just don't get why these type of art would be popular,-32,40,20","This color reminds me of poo,-46,60,20","looks like what my niece in 3rd grade did this afternoon,-50,80,20","I like the sophisticated brushwork,40,100,20","It reminds me of a candy land dream I had,36,120,20","Jen","It reminds me of a candy land dream I had,36,120,20","Erika","I like the sophisticated brushwork,40,100,20","Allison","looks like a lot of things going on in the mist,20,20,20","0"
"21125","","survey-text","27","268663","0.0-27.0-0.0","A7VQJN8H4QMI6","","","","{""Q0"":""I don't understand what this is supposed to be.""}","","","","","","","","","","","","","","","","","","","","","","",""
"2595.2999999523163","","image-slider-response","28","271260","0.0-28.0","A7VQJN8H4QMI6","","","","","-50","","","","","","","","","","","","","","","","","","","","","",""
"null","","image-button-response","29","276264","0.0-29.0","A7VQJN8H4QMI6","img_art/ins/2.jpg","null","","","","","","","","","","","","","","","","","","","","","","","","",""
"1052","","image-button-response","30","277320","0.0-30.0","A7VQJN8H4QMI6","img_art/ins/2.jpg","2","","","","","","","","","","","","","","","","","","","","","","","","",""
"2102","","image-button-response","31","279424","0.0-31.0-0.0","A7VQJN8H4QMI6","img_art/ins/2.jpg","3","","","","","","","","","","","","","","","","","","","","","","","","",""
"1837","","image-button-response","32","281264","0.0-32.0-0.0","A7VQJN8H4QMI6","img_art/ins/2.jpg","0","","","","","","","","","","","","","","","","","","","","","","","","",""
"null","","html-keyboard-response","33","282772","0.0-33.0","A7VQJN8H4QMI6","<p style=""font-size: 48px;"">+</p>","","","","","null","allTrialResponses","1500","1","-1","img_art/ins/2.jpg","-50","I don't understand what this is supposed to be.","Allison,Kara,Katie,Jenna,Erika,Jen","I don't have strong feelings about this,10,20,20","I like the blocks of color arrangements,30,160,20","too much color!,-28,180,20","One of my pet peevs,-48,140,20","I would never be able to compose a sophisticated pallete like this,48,100,20","It reminds me of a fireplace,36,120,20","Katie","too much color!,-28,180,20","Jenna","One of my pet peevs,-48,140,20","Allison","I don't have strong feelings about this,10,20,20","0"
"12310","","survey-text","34","295087","0.0-34.0-0.0","A7VQJN8H4QMI6","","","","{""Q0"":""I like the different shades of blues.""}","","","","","","","","","","","","","","","","","","","","","","",""
"2750.399999856949","","image-slider-response","35","297840","0.0-35.0","A7VQJN8H4QMI6","","","","","50","","","","","","","","","","","","","","","","","","","","","",""
"3537","","image-button-response","36","302844","0.0-36.0","A7VQJN8H4QMI6","img_art/ins/3.jpg","4","","","","","","","","","","","","","","","","","","","","","","","","",""
"287","","image-button-response","37","303134","0.0-37.0","A7VQJN8H4QMI6","img_art/ins/3.jpg","1","","","","","","","","","","","","","","","","","","","","","","","","",""
"895","","image-button-response","38","304032","0.0-38.0-0.0","A7VQJN8H4QMI6","img_art/ins/3.jpg","0","","","","","","","","","","","","","","","","","","","","","","","","",""
"2343","","image-button-response","39","306378","0.0-39.0-0.0","A7VQJN8H4QMI6","img_art/ins/3.jpg","4","","","","","","","","","","","","","","","","","","","","","","","","",""
"null","","html-keyboard-response","40","306880","0.0-40.0","A7VQJN8H4QMI6","<p style=""font-size: 48px;"">+</p>","","","","","null","allTrialResponses","500","1","0","img_art/ins/3.jpg","50","I like the different shades of blues.","Allison,Leslie,Katie,Jenna,Mary,Rose","enjoy the different shades of blue,22,20,20","It's an alright work,15,200,20","It looks depressing,-26,180,20","looks like a murder room,-35,140,20","I like the overlapping of brushes,41,220,20","My daily routine, it's depressing,-20,240,20","Leslie","It's an alright work,15,200,20","Allison","enjoy the different shades of blue,22,20,20","Mary","I like the overlapping of brushes,41,220,20","0"
"5455","","image-button-response_instructions","41","312342","0.0-41.0","A7VQJN8H4QMI6","","0","instructions","","","","","","","","","","","","","","","","","","","","","","","",""
"13962","","survey-likert","42","326306","0.0-42.0-0.0","A7VQJN8H4QMI6","","","","{""Q0"":"""",""Q1"":0,""Q2"":1}","","","","","","","","","","","","","","","","","","","","","","",""
"3562","","survey-text","43","329875","0.0-43.0-0.0","A7VQJN8H4QMI6","","","","{""Q0"":""rock""}","","","","","","","","","","","","","","","","","","","","","","",""
"11725","","survey-text","44","341601","0.0-44.0-0.0","A7VQJN8H4QMI6","","","","{""Q0"":""I like the colors and shapes in this one.""}","","","","","","","","","","","","","","","","","","","","","","",""
"2501.5","","image-slider-response","45","344105","0.0-45.0","A7VQJN8H4QMI6","","","","","50","","","","","","","","","","","","","","","","","","","","","",""
"4535","","image-button-response","46","349124","0.0-46.0","A7VQJN8H4QMI6","img_art/21.jpg","5","","","","","","","","","","","","","","","","","","","","","","","","",""
"2611","","image-button-response","47","351737","0.0-47.0","A7VQJN8H4QMI6","img_art/21.jpg","4","","","","","","","","","","","","","","","","","","","","","","","","",""
"1572","","image-button-response","48","353311","0.0-48.0-0.0","A7VQJN8H4QMI6","img_art/21.jpg","3","","","","","","","","","","","","","","","","","","","","","","","","",""
"1620","","image-button-response","49","354934","0.0-49.0-0.0","A7VQJN8H4QMI6","img_art/21.jpg","5","","","","","","","","","","","","","","","","","","","","","","","","",""
"null","","html-keyboard-response","50","355436","0.0-50.0","A7VQJN8H4QMI6","<p style=""font-size: 48px;"">+</p>","","","","","null","allTrialResponses","500","1","1","img_art/21.jpg","50","I like the colors and shapes in this one.","Jordan,Michelle,Cynthia,Chloe,Autumn,Alyssa","Okay, I love the color schemes, I can't quite figure it out though,14,20,20","The colors are very nice. I like the dots because they remind me of pearls,5,280,20","mythical between good and evil,16,320,20","Lovely colors and emotive effects. Turner-esque in a not-so derivative way.,44,220,20","Amazing colors.,34,340,20","I like the colors that were used and the stark contrast between the two sides,25,160,20","Autumn","Amazing colors.,34,340,20","Chloe","Lovely colors and emotive effects. Turner-esque in a not-so derivative way.,44,220,20","Alyssa","I like the colors that were used and the stark contrast between the two sides,25,160,20","0"
"14859","","survey-text","51","370299","0.0-51.0-0.0","A7VQJN8H4QMI6","","","","{""Q0"":""This image is captivating and adventurous.""}","","","","","","","","","","","","","","","","","","","","","","",""
"2367.2000000476837","","image-slider-response","52","372669","0.0-52.0","A7VQJN8H4QMI6","","","","","50","","","","","","","","","","","","","","","","","","","","","",""
"2486","","image-button-response","53","377682","0.0-53.0","A7VQJN8H4QMI6","img_art/18.jpg","4","","","","","","","","","","","","","","","","","","","","","","","","",""
"1216","","image-button-response","54","378899","0.0-54.0","A7VQJN8H4QMI6","img_art/18.jpg","4","","","","","","","","","","","","","","","","","","","","","","","","",""
"589","","image-button-response","55","379491","0.0-55.0-0.0","A7VQJN8H4QMI6","img_art/18.jpg","5","","","","","","","","","","","","","","","","","","","","","","","","",""
"2079","","image-button-response","56","381574","0.0-56.0-0.0","A7VQJN8H4QMI6","img_art/18.jpg","2","","","","","","","","","","","","","","","","","","","","","","","","",""
"null","","html-keyboard-response","57","383087","0.0-57.0","A7VQJN8H4QMI6","<p style=""font-size: 48px;"">+</p>","","","","","null","allTrialResponses","1500","1","2","img_art/18.jpg","50","This image is captivating and adventurous.","Laura,Amber,Caroline,Chloe,Autumn,Alyssa","afraid and anxious,21,320,20","ugly and lots of movement,-6,200,20","I think of the ocean and a boat tossed about on the waves. In the upper left is a figure. It is pleasant,30,100,20","Evocative but cheesy.,-20,220,20","This looks amazing.,40,340,20","There are alot of elements to this painting and a good mix of colors,32,160,20","Autumn","This looks amazing.,40,340,20","Alyssa","There are alot of elements to this painting and a good mix of colors,32,160,20","Caroline","I think of the ocean and a boat tossed about on the waves. In the upper left is a figure. It is pleasant,30,100,20","0"
"14120","","survey-text","58","397213","0.0-58.0-0.0","A7VQJN8H4QMI6","","","","{""Q0"":""This makes me think of television.""}","","","","","","","","","","","","","","","","","","","","","","",""
"6571.200000047684","","image-slider-response","59","403787","0.0-59.0","A7VQJN8H4QMI6","","","","","0","","","","","","","","","","","","","","","","","","","","","",""
"null","","image-button-response","60","408801","0.0-60.0","A7VQJN8H4QMI6","img_art/28.jpg","null","","","","","","","","","","","","","","","","","","","","","","","","",""
"886","","image-button-response","61","409690","0.0-61.0","A7VQJN8H4QMI6","img_art/28.jpg","2","","","","","","","","","","","","","","","","","","","","","","","","",""
"5119","","image-button-response","62","414812","0.0-62.0-0.0","A7VQJN8H4QMI6","img_art/28.jpg","5","","","","","","","","","","","","","","","","","","","","","","","","",""
"1345","","image-button-response","63","416160","0.0-63.0-0.0","A7VQJN8H4QMI6","img_art/28.jpg","0","","","","","","","","","","","","","","","","","","","","","","","","",""
"null","","html-keyboard-response","64","417168","0.0-64.0","A7VQJN8H4QMI6","<p style=""font-size: 48px;"">+</p>","","","","","null","allTrialResponses","1000","1","3","img_art/28.jpg","0","This makes me think of television.","Breanna,Julia,Caroline,Brianna,Autumn,Alyssa","The colors are depressing,-5,380,20","the people kind of scare me in this one,-15,40,20","Colors are pleasing. Made me think of two people kneeling and talking. A curious feeling.,15,100,20","My grandparents would like this, maybe my great grandparents. It's not my style.,-30,20,20","Looks yucky and poor.,-33,340,20","Not a fan of the bleak and dreary colors,-10,160,20","Caroline","Colors are pleasing. Made me think of two people kneeling and talking. A curious feeling.,15,100,20","Alyssa","Not a fan of the bleak and dreary colors,-10,160,20","Breanna","The colors are depressing,-5,380,20","0"
"17021","","survey-text","65","434194","0.0-65.0-0.0","A7VQJN8H4QMI6","","","","{""Q0"":""I think the colors really stand out in this one.""}","","","","","","","","","","","","","","","","","","","","","","",""
"3249.5","","image-slider-response","66","437446","0.0-66.0","A7VQJN8H4QMI6","","","","","50","","","","","","","","","","","","","","","","","","","","","",""
"4222","","image-button-response","67","442455","0.0-67.0","A7VQJN8H4QMI6","img_art/2.jpg","5","","","","","","","","","","","","","","","","","","","","","","","","",""
"1576","","image-button-response","68","444034","0.0-68.0","A7VQJN8H4QMI6","img_art/2.jpg","5","","","","","","","","","","","","","","","","","","","","","","","","",""
"2412","","image-button-response","69","446450","0.0-69.0-0.0","A7VQJN8H4QMI6","img_art/2.jpg","4","","","","","","","","","","","","","","","","","","","","","","","","",""
"1135","","image-button-response","70","447588","0.0-70.0-0.0","A7VQJN8H4QMI6","img_art/2.jpg","3","","","","","","","","","","","","","","","","","","","","","","","","",""
"null","","html-keyboard-response","71","448090","0.0-71.0","A7VQJN8H4QMI6","<p style=""font-size: 48px;"">+</p>","","","","","null","allTrialResponses","500","1","4","img_art/2.jpg","50","I think the colors really stand out in this one.","Breanna,Hannah,Caroline,Mariah,Kathryn,Alyssa","It's just a splash of paint on a canvas,-31,380,20","Looks like child's art.,-19,240,20","Colors are drab and cause a sense of blandness,-28,100,20","The colors are soothing, but the composition feels thoughtless.,-11,140,20","I think I'm put off by the clashing colors here. It feels discombobulated and sick.,-10,140,20","Its meh. Doesnt illicit any strong feelings in me,1,160,20","Alyssa","Its meh. Doesnt illicit any strong feelings in me,1,160,20","Kathryn","I think I'm put off by the clashing colors here. It feels discombobulated and sick.,-10,140,20","Mariah","The colors are soothing, but the composition feels thoughtless.,-11,140,20","0"
"10921","","survey-text","72","459017","0.0-72.0-0.0","A7VQJN8H4QMI6","","","","{""Q0"":""I really like the red swirls.""}","","","","","","","","","","","","","","","","","","","","","","",""
"2483.600000143051","","image-slider-response","73","461503","0.0-73.0","A7VQJN8H4QMI6","","","","","50","","","","","","","","","","","","","","","","","","","","","",""
"2764","","image-button-response","74","466507","0.0-74.0","A7VQJN8H4QMI6","img_art/30.jpg","4","","","","","","","","","","","","","","","","","","","","","","","","",""
"950","","image-button-response","75","467460","0.0-75.0","A7VQJN8H4QMI6","img_art/30.jpg","1","","","","","","","","","","","","","","","","","","","","","","","","",""
"1067","","image-button-response","76","468529","0.0-76.0-0.0","A7VQJN8H4QMI6","img_art/30.jpg","2","","","","","","","","","","","","","","","","","","","","","","","","",""
"610","","image-button-response","77","469144","0.0-77.0-0.0","A7VQJN8H4QMI6","img_art/30.jpg","4","","","","","","","","","","","","","","","","","","","","","","","","",""
"null","","html-keyboard-response","78","470795","0.0-78.0","A7VQJN8H4QMI6","<p style=""font-size: 48px;"">+</p>","","","","","null","allTrialResponses","1500","1","5","img_art/30.jpg","50","I really like the red swirls.","Cheyenne,Alicia,Erin,Mariah,Kathryn,Alyssa","A bit too dark for my liking,-10,200,20","Neat, but simple, I could make this. not skilled.,9,120,20","Layers are interesting,22,120,20","It just feels hasty and not well composed. Has an angsty teen feel,-31,140,20","It's like a child's art piece: carefree and not trying to conform to anything.,10,140,20","ugly nasty colors,-10,160,20","Alicia","Neat, but simple, I could make this. not skilled.,9,120,20","Erin","Layers are interesting,22,120,20","Kathryn","It's like a child's art piece: carefree and not trying to conform to anything.,10,140,20","0"
"8779","","survey-text","79","479583","0.0-79.0-0.0","A7VQJN8H4QMI6","","","","{""Q0"":""sky""}","","","","","","","","","","","","","","","","","","","","","","",""
"28505","","survey-text","80","508090","0.0-80.0-0.0","A7VQJN8H4QMI6","","","","{""Q0"":""The design of this is fascinating.""}","","","","","","","","","","","","","","","","","","","","","","",""
"3141.2999999523163","","image-slider-response","81","511234","0.0-81.0","A7VQJN8H4QMI6","","","","","50","","","","","","","","","","","","","","","","","","","","","",""
"4144","","image-button-response","82","516243","0.0-82.0","A7VQJN8H4QMI6","img_art/13.jpg","2","","","","","","","","","","","","","","","","","","","","","","","","",""
"617","","image-button-response","83","516863","0.0-83.0","A7VQJN8H4QMI6","img_art/13.jpg","2","","","","","","","","","","","","","","","","","","","","","","","","",""
"1353","","image-button-response","84","518219","0.0-84.0-0.0","A7VQJN8H4QMI6","img_art/13.jpg","3","","","","","","","","","","","","","","","","","","","","","","","","",""
"1751","","image-button-response","85","519973","0.0-85.0-0.0","A7VQJN8H4QMI6","img_art/13.jpg","5","","","","","","","","","","","","","","","","","","","","","","","","",""
"null","","html-keyboard-response","86","520976","0.0-86.0","A7VQJN8H4QMI6","<p style=""font-size: 48px;"">+</p>","","","","","null","allTrialResponses","1000","1","6","img_art/13.jpg","50","The design of this is fascinating.","Chelsea,Alicia,Erin,Victoria,Kathryn,Jessica","The colors are okay but I don't like the shapes here.,-18,180,20","meh, 80's. retro,-9,120,20","Color palette is complementary,40,120,20","reminds me of rain,36,400,20","Reminds me of depression anxiety, but negativity is dampened by motion. It's trying to release itself through expression.,-10,140,20","The paint splatter idea is kind of overused but I like how it brings the piece together,16,400,20","Erin","Color palette is complementary,40,120,20","Victoria","reminds me of rain,36,400,20","Jessica","The paint splatter idea is kind of overused but I like how it brings the piece together,16,400,20","0"
"24501","","survey-text","87","545483","0.0-87.0-0.0","A7VQJN8H4QMI6","","","","{""Q0"":""I think the black and blue go well together.""}","","","","","","","","","","","","","","","","","","","","","","",""
"2375.7999999523163","","image-slider-response","88","547861","0.0-88.0","A7VQJN8H4QMI6","","","","","50","","","","","","","","","","","","","","","","","","","","","",""
"2547","","image-button-response","89","552869","0.0-89.0","A7VQJN8H4QMI6","img_art/15.jpg","4","","","","","","","","","","","","","","","","","","","","","","","","",""
"681","","image-button-response","90","553553","0.0-90.0","A7VQJN8H4QMI6","img_art/15.jpg","3","","","","","","","","","","","","","","","","","","","","","","","","",""
"511","","image-button-response","91","554067","0.0-91.0-0.0","A7VQJN8H4QMI6","img_art/15.jpg","4","","","","","","","","","","","","","","","","","","","","","","","","",""
"2095","","image-button-response","92","556165","0.0-92.0-0.0","A7VQJN8H4QMI6","img_art/15.jpg","2","","","","","","","","","","","","","","","","","","","","","","","","",""
"null","","html-keyboard-response","93","557169","0.0-93.0","A7VQJN8H4QMI6","<p style=""font-size: 48px;"">+</p>","","","","","null","allTrialResponses","1000","1","7","img_art/15.jpg","50","I think the black and blue go well together.","Gabrielle,Miranda,Erin,Victoria,Savannah,Jessica","dark and provoking,-50,160,20","This gives a skin crawling feeling. Like something that you could see under a mircoscope,10,320,20","Neat to explore meaning, blue is interesting,11,120,20","makes me feel calm,40,400,20","Love the accent colors in this piece!,20,200,20","I think it's trying to execute a cool idea, but unfortunately it doesn't appeal,5,400,20","Victoria","makes me feel calm,40,400,20","Savannah","Love the accent colors in this piece!,20,200,20","Erin","Neat to explore meaning, blue is interesting,11,120,20","0"
"13796","","survey-text","94","570970","0.0-94.0-0.0","A7VQJN8H4QMI6","","","","{""Q0"":""I don't think this one makes much sense.""}","","","","","","","","","","","","","","","","","","","","","","",""
"2243.2000000476837","","image-slider-response","95","573216","0.0-95.0","A7VQJN8H4QMI6","","","","","-50","","","","","","","","","","","","","","","","","","","","","",""
"3257","","image-button-response","96","578231","0.0-96.0","A7VQJN8H4QMI6","img_art/29.jpg","0","","","","","","","","","","","","","","","","","","","","","","","","",""
"682","","image-button-response","97","578914","0.0-97.0","A7VQJN8H4QMI6","img_art/29.jpg","0","","","","","","","","","","","","","","","","","","","","","","","","",""
"590","","image-button-response","98","579507","0.0-98.0-0.0","A7VQJN8H4QMI6","img_art/29.jpg","1","","","","","","","","","","","","","","","","","","","","","","","","",""
"1675","","image-button-response","99","581185","0.0-99.0-0.0","A7VQJN8H4QMI6","img_art/29.jpg","4","","","","","","","","","","","","","","","","","","","","","","","","",""
"null","","html-keyboard-response","100","582692","0.0-100.0","A7VQJN8H4QMI6","<p style=""font-size: 48px;"">+</p>","","","","","null","allTrialResponses","1500","1","8","img_art/29.jpg","-50","I don't think this one makes much sense.","Emily,Tiffany,Erin,Victoria,Savannah,Alexis","Looks literally like garbage.,-45,40,20","I feel a little disgust. There is something off-putting about the smooth shapes and dark colors.,-43,360,20","Red X is scary, like the bricks,7,120,20","makes me think of destruction,-20,400,20","Looks wrong. Like a real painting was vandalized.,-50,200,20","The black color is great, but I'm really not a fan of this hectic style,-40,100,20","Emily","Looks literally like garbage.,-45,40,20","Tiffany","I feel a little disgust. There is something off-putting about the smooth shapes and dark colors.,-43,360,20","Savannah","Looks wrong. Like a real painting was vandalized.,-50,200,20","0"
"16409","","survey-text","101","599106","0.0-101.0-0.0","A7VQJN8H4QMI6","","","","{""Q0"":""This reminds me of a tree, and it's pretty.""}","","","","","","","","","","","","","","","","","","","","","","",""
"2330.2000000476837","","image-slider-response","102","601439","0.0-102.0","A7VQJN8H4QMI6","","","","","50","","","","","","","","","","","","","","","","","","","","","",""
"2233","","image-button-response","103","606442","0.0-103.0","A7VQJN8H4QMI6","img_art/14.jpg","3","","","","","","","","","","","","","","","","","","","","","","","","",""
"520","","image-button-response","104","606966","0.0-104.0","A7VQJN8H4QMI6","img_art/14.jpg","3","","","","","","","","","","","","","","","","","","","","","","","","",""
"612","","image-button-response","105","607581","0.0-105.0-0.0","A7VQJN8H4QMI6","img_art/14.jpg","5","","","","","","","","","","","","","","","","","","","","","","","","",""
"731","","image-button-response","106","608316","0.0-106.0-0.0","A7VQJN8H4QMI6","img_art/14.jpg","2","","","","","","","","","","","","","","","","","","","","","","","","",""
"null","","html-keyboard-response","107","609786","0.0-107.0","A7VQJN8H4QMI6","<p style=""font-size: 48px;"">+</p>","","","","","null","allTrialResponses","1000","1","9","img_art/14.jpg","50","This reminds me of a tree, and it's pretty.","Emily,Tiffany,Stephanie,Sophia,Savannah,Alexandria","Looks like there is some skill but also at the same time parts look unskilled.,-16,40,20","I feel uncomfortable looking at this painting, it is a mess that needs to be cleaned up.,-16,360,20","Late Winter when things are just starting to bloom.,21,300,20","I don't know why, but this piece makes me happy.,20,280,20","Again. This is pretty neutral, leaning dislike.,-18,200,20","looks like it's symbolizing rebirth which is hopeful,22,80,20","Sophia","I don't know why, but this piece makes me happy.,20,280,20","Alexandria","looks like it's symbolizing rebirth which is hopeful,22,80,20","Stephanie","Late Winter when things are just starting to bloom.,21,300,20","0"
"12207","","survey-text","108","621997","0.0-108.0-0.0","A7VQJN8H4QMI6","","","","{""Q0"":""I like the different square shapes in this one.""}","","","","","","","","","","","","","","","","","","","","","","",""
"3427.0999999046326","","image-slider-response","109","625427","0.0-109.0","A7VQJN8H4QMI6","","","","","50","","","","","","","","","","","","","","","","","","","","","",""
"4668","","image-button-response","110","630435","0.0-110.0","A7VQJN8H4QMI6","img_art/12.jpg","4","","","","","","","","","","","","","","","","","","","","","","","","",""
"1407","","image-button-response","111","631844","0.0-111.0","A7VQJN8H4QMI6","img_art/12.jpg","1","","","","","","","","","","","","","","","","","","","","","","","","",""
"840","","image-button-response","112","632686","0.0-112.0-0.0","A7VQJN8H4QMI6","img_art/12.jpg","4","","","","","","","","","","","","","","","","","","","","","","","","",""
"1659","","image-button-response","113","634348","0.0-113.0-0.0","A7VQJN8H4QMI6","img_art/12.jpg","2","","","","","","","","","","","","","","","","","","","","","","","","",""
"null","","html-keyboard-response","114","635850","0.0-114.0","A7VQJN8H4QMI6","<p style=""font-size: 48px;"">+</p>","","","","","null","allTrialResponses","1500","1","10","img_art/12.jpg","50","I like the different square shapes in this one.","Makayla,Kayla,Stephanie,Sophia,Rebecca,Alexandria","Reminds me Early 2000's decor, don't favor it,-10,80,20","Yay! Lots of people, lots of lives.,25,180,20","I like the pattern to it.,31,300,20","Good technique. It's just not my thing.,2,280,20","so many different available interpretations for this, would love to closer.,24,100,20","don't feel a lot but it seems very simple,-6,80,20","Kayla","Yay! Lots of people, lots of lives.,25,180,20","Rebecca","so many different available interpretations for this, would love to closer.,24,100,20","Stephanie","I like the pattern to it.,31,300,20","0"
"4537","","survey-text","115","640397","0.0-115.0-0.0","A7VQJN8H4QMI6","","","","{""Q0"":""our""}","","","","","","","","","","","","","","","","","","","","","","",""
"13820","","survey-text","116","654219","0.0-116.0-0.0","A7VQJN8H4QMI6","","","","{""Q0"":""This one reminds me of a beautiful waterfall.""}","","","","","","","","","","","","","","","","","","","","","","",""
"2655.5","","image-slider-response","117","656878","0.0-117.0","A7VQJN8H4QMI6","","","","","50","","","","","","","","","","","","","","","","","","","","","",""
"3037","","image-button-response","118","661881","0.0-118.0","A7VQJN8H4QMI6","img_art/24.jpg","4","","","","","","","","","","","","","","","","","","","","","","","","",""
"1058","","image-button-response","119","662942","0.0-119.0","A7VQJN8H4QMI6","img_art/24.jpg","5","","","","","","","","","","","","","","","","","","","","","","","","",""
"1628","","image-button-response","120","664572","0.0-120.0-0.0","A7VQJN8H4QMI6","img_art/24.jpg","2","","","","","","","","","","","","","","","","","","","","","","","","",""
"1735","","image-button-response","121","666310","0.0-121.0-0.0","A7VQJN8H4QMI6","img_art/24.jpg","0","","","","","","","","","","","","","","","","","","","","","","","","",""
"null","","html-keyboard-response","122","666813","0.0-122.0","A7VQJN8H4QMI6","<p style=""font-size: 48px;"">+</p>","","","","","null","allTrialResponses","500","1","11","img_art/24.jpg","50","This one reminds me of a beautiful waterfall.","Kelly,Kayla,Stephanie,Madeline,Rebecca,Mackenzie","Cute; I like what the image itself & the colors.,25,220,20","It looks like a poor dead bunny in a field of flowers. I don't want the bunny to be dead.,-37,180,20","A beautiful waterfall in the springtime.,40,300,20","colors are good but the style is iffy,12,40,20","organized mess at first glance, would love to inspect this in closer proximity,39,100,20","I like the vivid colors and different textures,32,20,20","Mackenzie","I like the vivid colors and different textures,32,20,20","Stephanie","A beautiful waterfall in the springtime.,40,300,20","Kelly","Cute; I like what the image itself & the colors.,25,220,20","0"
"15021","","survey-text","123","681840","0.0-123.0-0.0","A7VQJN8H4QMI6","","","","{""Q0"":""I think the different colors go well together in this one.""}","","","","","","","","","","","","","","","","","","","","","","",""
"2319.7000000476837","","image-slider-response","124","684162","0.0-124.0","A7VQJN8H4QMI6","","","","","50","","","","","","","","","","","","","","","","","","","","","",""
"3325","","image-button-response","125","689166","0.0-125.0","A7VQJN8H4QMI6","img_art/22.jpg","0","","","","","","","","","","","","","","","","","","","","","","","","",""
"458","","image-button-response","126","689626","0.0-126.0","A7VQJN8H4QMI6","img_art/22.jpg","1","","","","","","","","","","","","","","","","","","","","","","","","",""
"457","","image-button-response","127","690085","0.0-127.0-0.0","A7VQJN8H4QMI6","img_art/22.jpg","0","","","","","","","","","","","","","","","","","","","","","","","","",""
"1636","","image-button-response","128","691724","0.0-128.0-0.0","A7VQJN8H4QMI6","img_art/22.jpg","4","","","","","","","","","","","","","","","","","","","","","","","","",""
"null","","html-keyboard-response","129","692731","0.0-129.0","A7VQJN8H4QMI6","<p style=""font-size: 48px;"">+</p>","","","","","null","allTrialResponses","1000","1","12","img_art/22.jpg","50","I think the different colors go well together in this one.","Kelly,Haley,Stephanie,Sabrina,Brittany,Mackenzie","I really enjoy the blended colors.,20,220,20","Beautiful. I love the color contrast and gradients.,50,220,20","I don't get much of a reaction.,11,300,20","Just not feeling it,-19,120,20","It reminds me of sunsets and dusks.,22,40,20","Different shapes within the image make it interesting to look at,20,20,20","Haley","Beautiful. I love the color contrast and gradients.,50,220,20","Kelly","I really enjoy the blended colors.,20,220,20","Brittany","It reminds me of sunsets and dusks.,22,40,20","0"
"18786","","survey-text","130","711523","0.0-130.0-0.0","A7VQJN8H4QMI6","","","","{""Q0"":""I don't like this one. It looks boring.""}","","","","","","","","","","","","","","","","","","","","","","",""
"2351.5","","image-slider-response","131","713877","0.0-131.0","A7VQJN8H4QMI6","","","","","-50","","","","","","","","","","","","","","","","","","","","","",""
"2849","","image-button-response","132","718882","0.0-132.0","A7VQJN8H4QMI6","img_art/1.jpg","2","","","","","","","","","","","","","","","","","","","","","","","","",""
"527","","image-button-response","133","719412","0.0-133.0","A7VQJN8H4QMI6","img_art/1.jpg","2","","","","","","","","","","","","","","","","","","","","","","","","",""
"1181","","image-button-response","134","720596","0.0-134.0-0.0","A7VQJN8H4QMI6","img_art/1.jpg","3","","","","","","","","","","","","","","","","","","","","","","","","",""
"3934","","image-button-response","135","724534","0.0-135.0-0.0","A7VQJN8H4QMI6","img_art/1.jpg","5","","","","","","","","","","","","","","","","","","","","","","","","",""
"null","","html-keyboard-response","136","726792","0.0-136.0","A7VQJN8H4QMI6","<p style=""font-size: 48px;"">+</p>","","","","","null","allTrialResponses","1500","1","13","img_art/1.jpg","-50","I don't like this one. It looks boring.","Kelly,Haley,Katelyn,Catherine,Brittany,Caitlin","I love colorful photos and I like this one a lot.,25,220,20","Pleasant, but a tad too monochromatic in some areas for my taste,7,220,20","Im not a fan of the bluriness,-18,100,20","confused,animal like brain fog,0,160,20","It reminds me of a sunset I once saw.,16,40,20","Deja vu. Haven't I seen this one before? Not bad for those living in the backwoods.,10,80,20","Katelyn","Im not a fan of the bluriness,-18,100,20","Catherine","confused,animal like brain fog,0,160,20","Caitlin","Deja vu. Haven't I seen this one before? Not bad for those living in the backwoods.,10,80,20","0"
"21118","","survey-text","137","747917","0.0-137.0-0.0","A7VQJN8H4QMI6","","","","{""Q0"":""This one is clear and detailed. It looks great.""}","","","","","","","","","","","","","","","","","","","","","","",""
"2406.600000143051","","image-slider-response","138","750326","0.0-138.0","A7VQJN8H4QMI6","","","","","50","","","","","","","","","","","","","","","","","","","","","",""
"null","","image-button-response","139","755329","0.0-139.0","A7VQJN8H4QMI6","img_art/8.jpg","null","","","","","","","","","","","","","","","","","","","","","","","","",""
"459","","image-button-response","140","755790","0.0-140.0","A7VQJN8H4QMI6","img_art/8.jpg","1","","","","","","","","","","","","","","","","","","","","","","","","",""
"1369","","image-button-response","141","757162","0.0-141.0-0.0","A7VQJN8H4QMI6","img_art/8.jpg","2","","","","","","","","","","","","","","","","","","","","","","","","",""
"2219","","image-button-response","142","759384","0.0-142.0-0.0","A7VQJN8H4QMI6","img_art/8.jpg","5","","","","","","","","","","","","","","","","","","","","","","","","",""
"null","","html-keyboard-response","143","759886","0.0-143.0","A7VQJN8H4QMI6","<p style=""font-size: 48px;"">+</p>","","","","","null","allTrialResponses","500","1","14","img_art/8.jpg","50","This one is clear and detailed. It looks great.","Sarah,Cassandra,Katelyn,Catherine,Paige,Caitlin","it's interesting but i don't enjoy the style,-5,180,20","I like the colors and the scene.,24,120,20","I like the definition and the strong lines. It makes me think of someone watching over the world,24,100,20","Lost in a big city confuse as to where to go to next. No matter if you live in a mansion or homeless. Being bigger than what is going on around you,30,160,20","Nervous like being up high,10,60,20","And I'll huff and I'll puff and I'll blow your town down!!,20,80,20","Cassandra","I like the colors and the scene.,24,120,20","Katelyn","I like the definition and the strong lines. It makes me think of someone watching over the world,24,100,20","Caitlin","And I'll huff and I'll puff and I'll blow your town down!!,20,80,20","0"
"11365","","survey-text","144","771257","0.0-144.0-0.0","A7VQJN8H4QMI6","","","","{""Q0"":""This one looks nice with the leaf.""}","","","","","","","","","","","","","","","","","","","","","","",""
"2811.4000000953674","","image-slider-response","145","774071","0.0-145.0","A7VQJN8H4QMI6","","","","","50","","","","","","","","","","","","","","","","","","","","","",""
"2913","","image-button-response","146","779087","0.0-146.0","A7VQJN8H4QMI6","img_art/6.jpg","3","","","","","","","","","","","","","","","","","","","","","","","","",""
"1748","","image-button-response","147","780838","0.0-147.0","A7VQJN8H4QMI6","img_art/6.jpg","0","","","","","","","","","","","","","","","","","","","","","","","","",""
"1595","","image-button-response","148","782436","0.0-148.0-0.0","A7VQJN8H4QMI6","img_art/6.jpg","0","","","","","","","","","","","","","","","","","","","","","","","","",""
"746","","image-button-response","149","786202","0.0-148.1-0.1","A7VQJN8H4QMI6","img_art/6.jpg","3","","","","","","","","","","","","","","","","","","","","","","","","",""
"1010","","image-button-response","150","787216","0.0-149.0-0.0","A7VQJN8H4QMI6","img_art/6.jpg","0","","","","","","","","","","","","","","","","","","","","","","","","",""
"1144","","image-button-response","151","792392","0.0-149.1-0.1","A7VQJN8H4QMI6","img_art/6.jpg","4","","","","","","","","","","","","","","","","","","","","","","","","",""
"null","","html-keyboard-response","152","792894","0.0-150.0","A7VQJN8H4QMI6","<p style=""font-size: 48px;"">+</p>","","","","","null","allTrialResponses","500","1","15","img_art/6.jpg","50","This one looks nice with the leaf.","Courtney,Cassandra,Katelyn,Andrea,Jamie,Caitlin","Its the headless bird. But why?,21,280,20","No feeling...just left me feeling kind of blah,1,120,20","Nothing grabs at me here,-11,100,20","So forlorn, and beauty amid desolation.,25,240,20","Tree growing in a desert. Gives me feelings of hope,5,320,20","A crow on one leg?,-10,80,20","Courtney","Its the headless bird. But why?,21,280,20","Andrea","So forlorn, and beauty amid desolation.,25,240,20","Jamie","Tree growing in a desert. Gives me feelings of hope,5,320,20","4"
"3338","","survey-text","153","796243","0.0-151.0-0.0","A7VQJN8H4QMI6","","","","{""Q0"":""course""}","","","","","","","","","","","","","","","","","","","","","","",""
"12189","","survey-text","154","808434","0.0-152.0-0.0","A7VQJN8H4QMI6","","","","{""Q0"":""This one looks disgusting.""}","","","","","","","","","","","","","","","","","","","","","","",""
"4044.9000000953674","","image-slider-response","155","812482","0.0-153.0","A7VQJN8H4QMI6","","","","","-50","","","","","","","","","","","","","","","","","","","","","",""
"2054","","image-button-response","156","817504","0.0-154.0","A7VQJN8H4QMI6","img_art/3.jpg","0","","","","","","","","","","","","","","","","","","","","","","","","",""
"1094","","image-button-response","157","818601","0.0-155.0","A7VQJN8H4QMI6","img_art/3.jpg","0","","","","","","","","","","","","","","","","","","","","","","","","",""
"613","","image-button-response","158","819217","0.0-156.0-0.0","A7VQJN8H4QMI6","img_art/3.jpg","1","","","","","","","","","","","","","","","","","","","","","","","","",""
"2241","","image-button-response","159","821461","0.0-157.0-0.0","A7VQJN8H4QMI6","img_art/3.jpg","2","","","","","","","","","","","","","","","","","","","","","","","","",""
"null","","html-keyboard-response","160","821963","0.0-158.0","A7VQJN8H4QMI6","<p style=""font-size: 48px;"">+</p>","","","","","null","allTrialResponses","500","1","16","img_art/3.jpg","-50","This one looks disgusting.","Courtney,Vanessa,Kelsey,Andrea,Jamie,Erika","That just looks like a mess..,-18,280,20","It makes me think of just an angry scribble. There's no beauty to it for me.,-50,380,20","just scribbles, not pleasing,-30,240,20","I don't feel anything, it seems childish.,-25,240,20","Looks like somebody squirted ketchup everywhere,-40,320,20","Unaure what the artist  was doing, needs context,11,100,20","Courtney","That just looks like a mess..,-18,280,20","Vanessa","It makes me think of just an angry scribble. There's no beauty to it for me.,-50,380,20","Kelsey","just scribbles, not pleasing,-30,240,20","4"
"15411","","survey-text","161","837381","0.0-159.0-0.0","A7VQJN8H4QMI6","","","","{""Q0"":""This one reminds me of a pen. I like the purple in it too.""}","","","","","","","","","","","","","","","","","","","","","","",""
"2569.2000000476837","","image-slider-response","162","839953","0.0-160.0","A7VQJN8H4QMI6","","","","","50","","","","","","","","","","","","","","","","","","","","","",""
"3443","","image-button-response","163","844971","0.0-161.0","A7VQJN8H4QMI6","img_art/5.jpg","0","","","","","","","","","","","","","","","","","","","","","","","","",""
"529","","image-button-response","164","845504","0.0-162.0","A7VQJN8H4QMI6","img_art/5.jpg","4","","","","","","","","","","","","","","","","","","","","","","","","",""
"1126","","image-button-response","165","846633","0.0-163.0-0.0","A7VQJN8H4QMI6","img_art/5.jpg","0","","","","","","","","","","","","","","","","","","","","","","","","",""
"2227","","image-button-response","166","848863","0.0-164.0-0.0","A7VQJN8H4QMI6","img_art/5.jpg","5","","","","","","","","","","","","","","","","","","","","","","","","",""
"null","","html-keyboard-response","167","849365","0.0-165.0","A7VQJN8H4QMI6","<p style=""font-size: 48px;"">+</p>","","","","","null","allTrialResponses","500","1","17","img_art/5.jpg","50","This one reminds me of a pen. I like the purple in it too.","Courtney,Vanessa,Kelsey,Nicole,Jenna,Jacqueline","A rabbits head.,4,280,20","The yellow is garish and the picture doesn't look liked anything.,-49,380,20","too abstract, looks like a pyramid,-22,240,20","I hate the shapes,-30,20,20","it's okay. the colors are eye catching, but that's about it.,3,360,20","Seems very basic and uninteresting.,-15,300,20","Jenna","it's okay. the colors are eye catching, but that's about it.,3,360,20","Courtney","A rabbits head.,4,280,20","Jacqueline","Seems very basic and uninteresting.,-15,300,20","4"
"26916","","survey-text","168","876289","0.0-166.0-0.0","A7VQJN8H4QMI6","","","","{""Q0"":""This looks intriguing. It reminds me of bridges.""}","","","","","","","","","","","","","","","","","","","","","","",""
"2399.2000000476837","","image-slider-response","169","878691","0.0-167.0","A7VQJN8H4QMI6","","","","","50","","","","","","","","","","","","","","","","","","","","","",""
"2857","","image-button-response","170","883695","0.0-168.0","A7VQJN8H4QMI6","img_art/11.jpg","4","","","","","","","","","","","","","","","","","","","","","","","","",""
"1315","","image-button-response","171","885013","0.0-169.0","A7VQJN8H4QMI6","img_art/11.jpg","4","","","","","","","","","","","","","","","","","","","","","","","","",""
"871","","image-button-response","172","885887","0.0-170.0-0.0","A7VQJN8H4QMI6","img_art/11.jpg","2","","","","","","","","","","","","","","","","","","","","","","","","",""
"917","","image-button-response","173","886807","0.0-171.0-0.0","A7VQJN8H4QMI6","img_art/11.jpg","3","","","","","","","","","","","","","","","","","","","","","","","","",""
"null","","html-keyboard-response","174","887824","0.0-172.0","A7VQJN8H4QMI6","<p style=""font-size: 48px;"">+</p>","","","","","null","allTrialResponses","1000","1","18","img_art/11.jpg","50","This looks intriguing. It reminds me of bridges.","Courtney,Jennifer,Shelby,Sydney,Jenna,Jacqueline","Thats a creepy old rollercoasters abandoned,-2,280,20","The narrow groups of lines in the center make me feel uneasy for some reason,-31,380,20","The movement in this one is extremely pleasent,40,240,20","I don't like the gloomy color, but it reminds me of a city which I like.,35,320,20","makes me think of city highways & bridges on a rainy, foggy day. I like the melancholy it evokes.,43,360,20","It's too dark and dingy.,-30,300,20","Jenna","makes me think of city highways & bridges on a rainy, foggy day. I like the melancholy it evokes.,43,360,20","Shelby","The movement in this one is extremely pleasent,40,240,20","Sydney","I don't like the gloomy color, but it reminds me of a city which I like.,35,320,20","4"
"9624","","survey-text","175","897454","0.0-173.0-0.0","A7VQJN8H4QMI6","","","","{""Q0"":""This one is cute. I like the teddy bear.""}","","","","","","","","","","","","","","","","","","","","","","",""
"3031.899999856949","","image-slider-response","176","900489","0.0-174.0","A7VQJN8H4QMI6","","","","","50","","","","","","","","","","","","","","","","","","","","","",""
"2545","","image-button-response","177","905497","0.0-175.0","A7VQJN8H4QMI6","img_art/16.jpg","0","","","","","","","","","","","","","","","","","","","","","","","","",""
"531","","image-button-response","178","906031","0.0-176.0","A7VQJN8H4QMI6","img_art/16.jpg","0","","","","","","","","","","","","","","","","","","","","","","","","",""
"597","","image-button-response","179","906631","0.0-177.0-0.0","A7VQJN8H4QMI6","img_art/16.jpg","1","","","","","","","","","","","","","","","","","","","","","","","","",""
"1447","","image-button-response","180","908081","0.0-178.0-0.0","A7VQJN8H4QMI6","img_art/16.jpg","3","","","","","","","","","","","","","","","","","","","","","","","","",""
"null","","html-keyboard-response","181","909589","0.0-179.0","A7VQJN8H4QMI6","<p style=""font-size: 48px;"">+</p>","","","","","null","allTrialResponses","1500","1","19","img_art/16.jpg","50","This one is cute. I like the teddy bear.","Kaylee,Mary,Shelby,Sydney,Jenna,Taylor","cool teddy bear,50,200,20","This is a neat piece. Sort of shocking. I think it's too monochromatic though.,19,180,20","This feels like images of a painful childhood,-50,240,20","This piece is unusual but unique.,5,320,20","very bizarre and confusing, but that feels purposeful, so i don't completely hate it.,-25,360,20","It just makes me feel uncomfortable,-25,340,20","Kaylee","cool teddy bear,50,200,20","Mary","This is a neat piece. Sort of shocking. I think it's too monochromatic though.,19,180,20","Sydney","This piece is unusual but unique.,5,320,20","4"
"20478","","survey-text","182","930073","0.0-180.0-0.0","A7VQJN8H4QMI6","","","","{""Q0"":""This one reminds me of a town. Interesting contrasts of colors.""}","","","","","","","","","","","","","","","","","","","","","","",""
"2926.7999999523163","","image-slider-response","183","933003","0.0-181.0","A7VQJN8H4QMI6","","","","","24","","","","","","","","","","","","","","","","","","","","","",""
"4809","","image-button-response","184","938012","0.0-182.0","A7VQJN8H4QMI6","img_art/20.jpg","3","","","","","","","","","","","","","","","","","","","","","","","","",""
"698","","image-button-response","185","938712","0.0-183.0","A7VQJN8H4QMI6","img_art/20.jpg","3","","","","","","","","","","","","","","","","","","","","","","","","",""
"684","","image-button-response","186","939398","0.0-184.0-0.0","A7VQJN8H4QMI6","img_art/20.jpg","5","","","","","","","","","","","","","","","","","","","","","","","","",""
"1939","","image-button-response","187","941340","0.0-185.0-0.0","A7VQJN8H4QMI6","img_art/20.jpg","0","","","","","","","","","","","","","","","","","","","","","","","","",""
"null","","html-keyboard-response","188","941844","0.0-186.0","A7VQJN8H4QMI6","<p style=""font-size: 48px;"">+</p>","","","","","null","allTrialResponses","500","1","20","img_art/20.jpg","24","This one reminds me of a town. Interesting contrasts of colors.","Kaylee,Mary,Brooke,Sydney,Olivia,Crystal","i can see a car crash,13,200,20","I can tell this artist has experience. I just don't care for the color combo.,7,180,20","Dinosaur skill and some dark shadow above,-30,60,20","I love the color choice.,25,320,20","crash after traffic causing grief,-11,40,20","The pulling and sagging nature is very beautiful.,30,300,20","Sydney","I love the color choice.,25,320,20","Crystal","The pulling and sagging nature is very beautiful.,30,300,20","Kaylee","i can see a car crash,13,200,20","4"
"4832","","survey-text","189","946687","0.0-187.0-0.0","A7VQJN8H4QMI6","","","","{""Q0"":""we""}","","","","","","","","","","","","","","","","","","","","","","",""
"18886","","survey-text","190","965575","0.0-188.0-0.0","A7VQJN8H4QMI6","","","","{""Q0"":""I like this one and how the colors swirl together.""}","","","","","","","","","","","","","","","","","","","","","","",""
"2555.2999999523163","","image-slider-response","191","968133","0.0-189.0","A7VQJN8H4QMI6","","","","","50","","","","","","","","","","","","","","","","","","","","","",""
"1790","","image-button-response","192","973136","0.0-190.0","A7VQJN8H4QMI6","img_art/9.jpg","3","","","","","","","","","","","","","","","","","","","","","","","","",""
"568","","image-button-response","193","973708","0.0-191.0","A7VQJN8H4QMI6","img_art/9.jpg","5","","","","","","","","","","","","","","","","","","","","","","","","",""
"783","","image-button-response","194","974494","0.0-192.0-0.0","A7VQJN8H4QMI6","img_art/9.jpg","3","","","","","","","","","","","","","","","","","","","","","","","","",""
"1565","","image-button-response","195","976062","0.0-193.0-0.0","A7VQJN8H4QMI6","img_art/9.jpg","1","","","","","","","","","","","","","","","","","","","","","","","","",""
"null","","html-keyboard-response","196","977572","0.0-194.0","A7VQJN8H4QMI6","<p style=""font-size: 48px;"">+</p>","","","","","null","allTrialResponses","1500","1","21","img_art/9.jpg","50","I like this one and how the colors swirl together.","Kaylee,Briana,Diana,Sydney,Bailey,Crystal","not my type of art,-33,200,20","I see a foot. Idk colors are pleasant,12,400,20","I think it's sleeping beauty but I'm not sure. I didn't care for this piece.,-30,380,20","I see some of my favorite colors which I like, but I don't like what's portrayed.,35,320,20","Not very enticing. No real substance other than a lady laying down,-35,360,20","Evokes triumph of a mountain over powering a drowning sea,24,300,20","Crystal","Evokes triumph of a mountain over powering a drowning sea,24,300,20","Sydney","I see some of my favorite colors which I like, but I don't like what's portrayed.,35,320,20","Briana","I see a foot. Idk colors are pleasant,12,400,20","4"
"21427","","survey-text","197","999007","0.0-195.0-0.0","A7VQJN8H4QMI6","","","","{""Q0"":""This one is unique. I like the person portrayed.""}","","","","","","","","","","","","","","","","","","","","","","",""
"2525.800000190735","","image-slider-response","198","1001535","0.0-196.0","A7VQJN8H4QMI6","","","","","50","","","","","","","","","","","","","","","","","","","","","",""
"2906","","image-button-response","199","1006546","0.0-197.0","A7VQJN8H4QMI6","img_art/25.jpg","0","","","","","","","","","","","","","","","","","","","","","","","","",""
"669","","image-button-response","200","1007217","0.0-198.0","A7VQJN8H4QMI6","img_art/25.jpg","0","","","","","","","","","","","","","","","","","","","","","","","","",""
"1152","","image-button-response","201","1008372","0.0-199.0-0.0","A7VQJN8H4QMI6","img_art/25.jpg","2","","","","","","","","","","","","","","","","","","","","","","","","",""
"1861","","image-button-response","202","1010236","0.0-200.0-0.0","A7VQJN8H4QMI6","img_art/25.jpg","5","","","","","","","","","","","","","","","","","","","","","","","","",""
"null","","html-keyboard-response","203","1011750","0.0-201.0","A7VQJN8H4QMI6","<p style=""font-size: 48px;"">+</p>","","","","","null","allTrialResponses","1500","1","22","img_art/25.jpg","50","This one is unique. I like the person portrayed.","Leah,Briana,Morgan,Sydney,Cassidy,Crystal","I really like it, very simple, very tribal,38,360,20","Its scary. It looks like someone overlooking hell,-34,400,20","Ancient gods above you.,20,380,20","This piece gives me a lot of questions which I kind of like.,10,320,20","Love the colors, and how it's simple yet complex,25,140,20","Seems ritualistic and nativist,50,300,20","Leah","I really like it, very simple, very tribal,38,360,20","Morgan","Ancient gods above you.,20,380,20","Crystal","Seems ritualistic and nativist,50,300,20","4"
"25276","","survey-text","204","1037033","0.0-202.0-0.0","A7VQJN8H4QMI6","","","","{""Q0"":""This one reminds me of a house and it looks interesting.""}","","","","","","","","","","","","","","","","","","","","","","",""
"7254.599999904633","","image-slider-response","205","1044291","0.0-203.0","A7VQJN8H4QMI6","","","","","12","","","","","","","","","","","","","","","","","","","","","",""
"2984","","image-button-response","206","1049298","0.0-204.0","A7VQJN8H4QMI6","img_art/26.jpg","0","","","","","","","","","","","","","","","","","","","","","","","","",""
"511","","image-button-response","207","1049811","0.0-205.0","A7VQJN8H4QMI6","img_art/26.jpg","0","","","","","","","","","","","","","","","","","","","","","","","","",""
"910","","image-button-response","208","1050723","0.0-206.0-0.0","A7VQJN8H4QMI6","img_art/26.jpg","3","","","","","","","","","","","","","","","","","","","","","","","","",""
"1886","","image-button-response","209","1052612","0.0-207.0-0.0","A7VQJN8H4QMI6","img_art/26.jpg","1","","","","","","","","","","","","","","","","","","","","","","","","",""
"null","","html-keyboard-response","210","1053626","0.0-208.0","A7VQJN8H4QMI6","<p style=""font-size: 48px;"">+</p>","","","","","null","allTrialResponses","1000","1","23","img_art/26.jpg","12","This one reminds me of a house and it looks interesting.","Leah,Shannon,Morgan,Samantha,Angela,Crystal","Really like it, a very nice neighborhood scene to me,42,360,20","I like that it looks like an actual picture and isn't just random colors.,25,220,20","Confusing park picture.,8,380,20","I like the colors and trees. Seems cheap vintage retail store art but i love it anyways,50,140,20","Nice, but not very interesting. I do like the blue tree though.,6,260,20","Do not like water colors at all,-50,300,20","Leah","Really like it, a very nice neighborhood scene to me,42,360,20","Samantha","I like the colors and trees. Seems cheap vintage retail store art but i love it anyways,50,140,20","Shannon","I like that it looks like an actual picture and isn't just random colors.,25,220,20","4"
"15827","","survey-text","211","1069461","0.0-209.0-0.0","A7VQJN8H4QMI6","","","","{""Q0"":""This one looks like an optical illusion. ""}","","","","","","","","","","","","","","","","","","","","","","",""
"2687.4000000953674","","image-slider-response","212","1072151","0.0-210.0","A7VQJN8H4QMI6","","","","","22","","","","","","","","","","","","","","","","","","","","","",""
"1495","","image-button-response","213","1077155","0.0-211.0","A7VQJN8H4QMI6","img_art/17.jpg","3","","","","","","","","","","","","","","","","","","","","","","","","",""
"412","","image-button-response","214","1077570","0.0-212.0","A7VQJN8H4QMI6","img_art/17.jpg","3","","","","","","","","","","","","","","","","","","","","","","","","",""
"427","","image-button-response","215","1077999","0.0-213.0-0.0","A7VQJN8H4QMI6","img_art/17.jpg","4","","","","","","","","","","","","","","","","","","","","","","","","",""
"614","","image-button-response","216","1078616","0.0-214.0-0.0","A7VQJN8H4QMI6","img_art/17.jpg","0","","","","","","","","","","","","","","","","","","","","","","","","",""
"null","","html-keyboard-response","217","1079628","0.0-215.0","A7VQJN8H4QMI6","<p style=""font-size: 48px;"">+</p>","","","","","null","allTrialResponses","1000","1","24","img_art/17.jpg","22","This one looks like an optical illusion. ","Leah,Shannon,Abigail,Samantha,Heather,Isabella","Love the colors, the flow, like a strange storm or tree off the balcony,50,360,20","I like the way the colors were used behind the tree. Makes the image colorful and interesting.,30,220,20","Really love the branches. The bottom made it not perfect,42,20,20","Nice colors, shapes, flow,31,140,20","Beautiful simply beautiful. i would love this,,50,260,20","Pleasant fall to winter day,22,280,20","Samantha","Nice colors, shapes, flow,31,140,20","Heather","Beautiful simply beautiful. i would love this,,50,260,20","Leah","Love the colors, the flow, like a strange storm or tree off the balcony,50,360,20","4"
"12383","","survey-text","218","1092019","0.0-216.0-0.0","A7VQJN8H4QMI6","","","","{""Q0"":""I don't like the colors in this one.""}","","","","","","","","","","","","","","","","","","","","","","",""
"2189.399999856949","","image-slider-response","219","1094211","0.0-217.0","A7VQJN8H4QMI6","","","","","-50","","","","","","","","","","","","","","","","","","","","","",""
"3694","","image-button-response","220","1099231","0.0-218.0","A7VQJN8H4QMI6","img_art/10.jpg","0","","","","","","","","","","","","","","","","","","","","","","","","",""
"545","","image-button-response","221","1099779","0.0-219.0","A7VQJN8H4QMI6","img_art/10.jpg","0","","","","","","","","","","","","","","","","","","","","","","","","",""
"2080","","image-button-response","222","1101862","0.0-220.0-0.0","A7VQJN8H4QMI6","img_art/10.jpg","3","","","","","","","","","","","","","","","","","","","","","","","","",""
"744","","image-button-response","223","1102610","0.0-221.0-0.0","A7VQJN8H4QMI6","img_art/10.jpg","4","","","","","","","","","","","","","","","","","","","","","","","","",""
"null","","html-keyboard-response","224","1104787","0.0-222.0","A7VQJN8H4QMI6","<p style=""font-size: 48px;"">+</p>","","","","","null","allTrialResponses","1500","1","25","img_art/10.jpg","-50","I don't like the colors in this one.","Leah,Alexa,Katherine,Samantha,Heather,Kristen","Dark with no object, looks like experimentation, slightly like a storm on the ocean,-21,360,20","Cute and has a vintage feel to it,45,40,20","This is pretty rad. The outline looks like a music staff,15,120,20","I like it but do not love it. It is sort of depressing,13,140,20","for some reason reminds me of music,2,260,20","music, serenity, love,33,280,20","Leah","Dark with no object, looks like experimentation, slightly like a storm on the ocean,-21,360,20","Samantha","I like it but do not love it. It is sort of depressing,13,140,20","Heather","for some reason reminds me of music,2,260,20","4"
"5838","","survey-text","225","1110639","0.0-223.0-0.0","A7VQJN8H4QMI6","","","","{""Q0"":""table""}","","","","","","","","","","","","","","","","","","","","","","",""
"14136","","survey-text","226","1124777","0.0-224.0-0.0","A7VQJN8H4QMI6","","","","{""Q0"":""This one looks fun. I like the white that stands out.""}","","","","","","","","","","","","","","","","","","","","","","",""
"13460.700000047684","","image-slider-response","227","1138241","0.0-225.0","A7VQJN8H4QMI6","","","","","27","","","","","","","","","","","","","","","","","","","","","",""
"3310","","image-button-response","228","1143245","0.0-226.0","A7VQJN8H4QMI6","img_art/23.jpg","3","","","","","","","","","","","","","","","","","","","","","","","","",""
"419","","image-button-response","229","1143668","0.0-227.0","A7VQJN8H4QMI6","img_art/23.jpg","3","","","","","","","","","","","","","","","","","","","","","","","","",""
"691","","image-button-response","230","1144362","0.0-228.0-0.0","A7VQJN8H4QMI6","img_art/23.jpg","0","","","","","","","","","","","","","","","","","","","","","","","","",""
"542","","image-button-response","231","1144907","0.0-229.0-0.0","A7VQJN8H4QMI6","img_art/23.jpg","1","","","","","","","","","","","","","","","","","","","","","","","","",""
"null","","html-keyboard-response","232","1145910","0.0-230.0","A7VQJN8H4QMI6","<p style=""font-size: 48px;"">+</p>","","","","","null","allTrialResponses","1000","1","26","img_art/23.jpg","27","This one looks fun. I like the white that stands out.","Leah,Gabriela,Claire,Samantha,Heather,Jasmine","Interesting, want to look at it more to identify,25,360,20","It looks like a parade of musicians full of excitement. Makes me feel upbeat,33,140,20","the pattern is pleasing to the eye,28,260,20","The more i look at it the more i like it  the dots of color and very interesting,50,140,20","illegible wording with a graffiti background,1,260,20","Mostly neutral but a bit too guady with the brash colors,-6,340,20","Samantha","The more i look at it the more i like it  the dots of color and very interesting,50,140,20","Leah","Interesting, want to look at it more to identify,25,360,20","Gabriela","It looks like a parade of musicians full of excitement. Makes me feel upbeat,33,140,20","4"
"13597","","survey-text","233","1159517","0.0-231.0-0.0","A7VQJN8H4QMI6","","","","{""Q0"":""This one reminds me of fall, and it's beautiful.""}","","","","","","","","","","","","","","","","","","","","","","",""
"2819.5999999046326","","image-slider-response","234","1162339","0.0-232.0","A7VQJN8H4QMI6","","","","","50","","","","","","","","","","","","","","","","","","","","","",""
"2218","","image-button-response","235","1167357","0.0-233.0","A7VQJN8H4QMI6","img_art/27.jpg","3","","","","","","","","","","","","","","","","","","","","","","","","",""
"626","","image-button-response","236","1167986","0.0-234.0","A7VQJN8H4QMI6","img_art/27.jpg","4","","","","","","","","","","","","","","","","","","","","","","","","",""
"1083","","image-button-response","237","1169072","0.0-235.0-0.0","A7VQJN8H4QMI6","img_art/27.jpg","1","","","","","","","","","","","","","","","","","","","","","","","","",""
"637","","image-button-response","238","1169712","0.0-236.0-0.0","A7VQJN8H4QMI6","img_art/27.jpg","0","","","","","","","","","","","","","","","","","","","","","","","","",""
"null","","html-keyboard-response","239","1171222","0.0-237.0","A7VQJN8H4QMI6","<p style=""font-size: 48px;"">+</p>","","","","","null","allTrialResponses","1500","1","27","img_art/27.jpg","50","This one reminds me of fall, and it's beautiful.","Leah,Gabriela,Elizabeth,Samantha,Kylie,Grace","An attractive assortment of squiggles and colors,22,360,20","I like hoe it looks like a fall day in a city,45,140,20","Like the abstractness of this picture,20,20,20","I like all it has going but i wouldnt put it in my house unless my child did it,25,140,20","Soothing in the middle of some confusion,40,300,20","Not fond of the bad pencil drawing mixed with the drab colors.,-21,180,20","Kylie","Soothing in the middle of some confusion,40,300,20","Gabriela","I like hoe it looks like a fall day in a city,45,140,20","Leah","An attractive assortment of squiggles and colors,22,360,20","4"
"18996","","survey-text","240","1190226","0.0-238.0-0.0","A7VQJN8H4QMI6","","","","{""Q0"":""This one looks complicated. I don't understand what is going on in it.""}","","","","","","","","","","","","","","","","","","","","","","",""
"2523.7000000476837","","image-slider-response","241","1192752","0.0-239.0","A7VQJN8H4QMI6","","","","","-50","","","","","","","","","","","","","","","","","","","","","",""
"3507","","image-button-response","242","1197762","0.0-240.0","A7VQJN8H4QMI6","img_art/19.jpg","1","","","","","","","","","","","","","","","","","","","","","","","","",""
"765","","image-button-response","243","1198530","0.0-241.0","A7VQJN8H4QMI6","img_art/19.jpg","1","","","","","","","","","","","","","","","","","","","","","","","","",""
"1315","","image-button-response","244","1199849","0.0-242.0-0.0","A7VQJN8H4QMI6","img_art/19.jpg","3","","","","","","","","","","","","","","","","","","","","","","","","",""
"1702","","image-button-response","245","1201555","0.0-243.0-0.0","A7VQJN8H4QMI6","img_art/19.jpg","5","","","","","","","","","","","","","","","","","","","","","","","","",""
"null","","html-keyboard-response","246","1203070","0.0-244.0","A7VQJN8H4QMI6","<p style=""font-size: 48px;"">+</p>","","","","","null","allTrialResponses","1500","1","28","img_art/19.jpg","-50","This one looks complicated. I don't understand what is going on in it.","Leah,Gabriela,Emma,Sara,Kylie,Amanda","Very abstract but I like it, it's busy, lots of colors,43,360,20","it looks messy and non-unique.,-9,140,20","Interesting, leaves you wondering what it is,40,60,20","I like the vibrant color blocks,13,160,20","Reminds me of a quaint little town I once visited in Italy,50,300,20","Its just a nice painting, nothing too special but nothing negative,25,180,20","Gabriela","it looks messy and non-unique.,-9,140,20","Sara","I like the vibrant color blocks,13,160,20","Amanda","Its just a nice painting, nothing too special but nothing negative,25,180,20","4"
"13975","","survey-text","247","1217054","0.0-245.0-0.0","A7VQJN8H4QMI6","","","","{""Q0"":""This one reminds me of nature. I like the yellow and red.""}","","","","","","","","","","","","","","","","","","","","","","",""
"2813.0999999046326","","image-slider-response","248","1219870","0.0-246.0","A7VQJN8H4QMI6","","","","","50","","","","","","","","","","","","","","","","","","","","","",""
"2749","","image-button-response","249","1224874","0.0-247.0","A7VQJN8H4QMI6","img_art/4.jpg","0","","","","","","","","","","","","","","","","","","","","","","","","",""
"841","","image-button-response","250","1225718","0.0-248.0","A7VQJN8H4QMI6","img_art/4.jpg","0","","","","","","","","","","","","","","","","","","","","","","","","",""
"520","","image-button-response","251","1226240","0.0-249.0-0.0","A7VQJN8H4QMI6","img_art/4.jpg","1","","","","","","","","","","","","","","","","","","","","","","","","",""
"487","","image-button-response","252","1226730","0.0-250.0-0.0","A7VQJN8H4QMI6","img_art/4.jpg","2","","","","","","","","","","","","","","","","","","","","","","","","",""
"null","","html-keyboard-response","253","1227743","0.0-251.0","A7VQJN8H4QMI6","<p style=""font-size: 48px;"">+</p>","","","","","null","allTrialResponses","1000","1","29","img_art/4.jpg","50","This one reminds me of nature. I like the yellow and red.","Lauren,Gabriela,Molly,Sara,Melissa,Amanda","I like the design. It can be interpreted in various ways, such as a hand of horror or still piece.,15,340,20","The bold colors are exciting. It looks like a statue on someone's mantle.,18,140,20","Not bad at all.,20,340,20","Random swirls again,-30,160,20","appealing warm palette,6,240,20","Looks like an abstract version of the Scream painting,-50,180,20","Lauren","I like the design. It can be interpreted in various ways, such as a hand of horror or still piece.,15,340,20","Gabriela","The bold colors are exciting. It looks like a statue on someone's mantle.,18,140,20","Molly","Not bad at all.,20,340,20","4"
"12760","","survey-text","254","1240511","0.0-252.0-0.0","A7VQJN8H4QMI6","","","","{""Q0"":""I think this one is too plain.""}","","","","","","","","","","","","","","","","","","","","","","",""
"2273.0999999046326","","image-slider-response","255","1242787","0.0-253.0","A7VQJN8H4QMI6","","","","","-50","","","","","","","","","","","","","","","","","","","","","",""
"3205","","image-button-response","256","1247794","0.0-254.0","A7VQJN8H4QMI6","img_art/7.jpg","4","","","","","","","","","","","","","","","","","","","","","","","","",""
"690","","image-button-response","257","1248487","0.0-255.0","A7VQJN8H4QMI6","img_art/7.jpg","4","","","","","","","","","","","","","","","","","","","","","","","","",""
"684","","image-button-response","258","1249174","0.0-256.0-0.0","A7VQJN8H4QMI6","img_art/7.jpg","5","","","","","","","","","","","","","","","","","","","","","","","","",""
"1113","","image-button-response","259","1250290","0.0-257.0-0.0","A7VQJN8H4QMI6","img_art/7.jpg","2","","","","","","","","","","","","","","","","","","","","","","","","",""
"null","","html-keyboard-response","260","1250792","0.0-258.0","A7VQJN8H4QMI6","<p style=""font-size: 48px;"">+</p>","","","","","null","allTrialResponses","500","1","30","img_art/7.jpg","-50","I think this one is too plain.","Lauren,Gabriela,Molly,Michaela,Alexandra,Maria","I like how the image has a sense of history, since the style looks like it came from stone.,20,340,20","it looks like an ant farm,12,140,20","Don't understand the meaning of this picture.,-30,340,20","It looks like maybe some seeds?,14,260,20","I do not like the boring colors in this.,-20,60,20","elicits no real response,0,120,20","Alexandra","I do not like the boring colors in this.,-20,60,20","Maria","elicits no real response,0,120,20","Molly","Don't understand the meaning of this picture.,-30,340,20","4"
"3190","","image-button-response_instructions","261","1253994","0.0-259.0","A7VQJN8H4QMI6","","0","instructions","","","","","","","","","","","","","","","","","","","","","","","",""
"1139","","image-button-response","262","1255139","0.0-260.0","A7VQJN8H4QMI6","","0","","","","","","","","","","","","","","","","","","","","","","","","",""
