"rt","url","trial_type","trial_index","time_elapsed","internal_node_id","participant_id","stimulus","button_pressed","Name","responses","response","key_press","variableName","fixationTime","condition","trial","photo","subjectRating","subjectResponse","agentsNames","agent_1_Response","agent_2_Response","agent_3_Response","agent_4_Response","agent_5_Response","agent_6_Response","kept_1_name","kept_1_response","kept_2_name","kept_2_response","kept_3_name","kept_3_response","errorCounter"
"5152","external_page_harvard.html","external-html","0","5276","0.0-0.0","A8GT8ZT5D5YCB","","","","","","","","","","","","","","","","","","","","","","","","","","",""
"1728","","image-button-response","1","7008","0.0-1.0","A8GT8ZT5D5YCB","","1","","","","","","","","","","","","","","","","","","","","","","","","",""
"1665","","image-button-response","2","8679","0.0-2.0-0.0","A8GT8ZT5D5YCB","","1","phone","","","","","","","","","","","","","","","","","","","","","","","",""
"8669","","survey-text","3","17352","0.0-3.0-0.0","A8GT8ZT5D5YCB","","","","{""Q0"":""A8GT8ZT5D5YCB""}","","","","","","","","","","","","","","","","","","","","","","",""
"52482","","image-button-response_instructions","4","69837","0.0-4.0","A8GT8ZT5D5YCB","","0","instructions","","","","","","","","","","","","","","","","","","","","","","","",""
"13343","","image-button-response_instructions","5","83182","0.0-5.0","A8GT8ZT5D5YCB","img_art/ins/popularity/ins1.png","0","instructions","","","","","","","","","","","","","","","","","","","","","","","",""
"6884","","image-button-response_instructions","6","90068","0.0-6.0","A8GT8ZT5D5YCB","img_art/ins/popularity/ins2.png","0","instructions","","","","","","","","","","","","","","","","","","","","","","","",""
"2415","","image-button-response_instructions","7","92485","0.0-7.0","A8GT8ZT5D5YCB","img_art/ins/popularity/ins2Extreme.png","0","instructions","","","","","","","","","","","","","","","","","","","","","","","",""
"10147","","image-button-response_instructions","8","102635","0.0-8.0","A8GT8ZT5D5YCB","img_art/ins/popularity/ins3KEEPpop.PNG","0","instructions","","","","","","","","","","","","","","","","","","","","","","","",""
"1944","","image-button-response_instructions","9","104580","0.0-9.0","A8GT8ZT5D5YCB","img_art/ins/popularity/ins3ANamepop.PNG","0","instructions","","","","","","","","","","","","","","","","","","","","","","","",""
"1725","","image-button-response_instructions","10","106308","0.0-10.0","A8GT8ZT5D5YCB","img_art/ins/popularity/ins3ARatingpop.png","0","instructions","","","","","","","","","","","","","","","","","","","","","","","",""
"2111","","image-button-response_instructions","11","108421","0.0-11.0","A8GT8ZT5D5YCB","img_art/ins/popularity/ins3ATextpop.png","0","instructions","","","","","","","","","","","","","","","","","","","","","","","",""
"2301","","image-button-response_instructions","12","110723","0.0-12.0","A8GT8ZT5D5YCB","img_art/ins/popularity/ins3ALikespop.png","0","instructions","","","","","","","","","","","","","","","","","","","","","","","",""
"8214","","image-button-response_instructions","13","118939","0.0-13.0","A8GT8ZT5D5YCB","img_art/ins/popularity/ins3KEEPpop.PNG","0","instructions","","","","","","","","","","","","","","","","","","","","","","","",""
"5814","","image-button-response_instructions","14","124755","0.0-14.0","A8GT8ZT5D5YCB","img_art/ins/popularity/ins3_5RED.png","0","instructions","","","","","","","","","","","","","","","","","","","","","","","",""
"2049","","image-button-response_instructions","15","126806","0.0-15.0","A8GT8ZT5D5YCB","img_art/ins/popularity/ins3KEEPpop.PNG","0","instructions","","","","","","","","","","","","","","","","","","","","","","","",""
"3595","","image-button-response_instructions","16","130402","0.0-16.0","A8GT8ZT5D5YCB","img_art/ins/popularity/ins4KEEPpop.PNG","0","instructions","","","","","","","","","","","","","","","","","","","","","","","",""
"5590","","image-button-response_instructions","17","135994","0.0-17.0","A8GT8ZT5D5YCB","img_art/ins/popularity/ins5KEEPpop.PNG","0","instructions","","","","","","","","","","","","","","","","","","","","","","","",""
"1583","","image-button-response_instructions","18","137578","0.0-18.0","A8GT8ZT5D5YCB","","0","instructions","","","","","","","","","","","","","","","","","","","","","","","",""
"8983","","survey-text","19","146601","0.0-19.0-0.0","A8GT8ZT5D5YCB","","","","{""Q0"":""but""}","","","","","","","","","","","","","","","","","","","","","","",""
"10550","","survey-text","20","157153","0.0-20.0-0.0","A8GT8ZT5D5YCB","","","","{""Q0"":""candy, pink, complex""}","","","","","","","","","","","","","","","","","","","","","","",""
"3692","","image-slider-response","21","160850","0.0-21.0","A8GT8ZT5D5YCB","","","","","9","","","","","","","","","","","","","","","","","","","","","",""
"null","","image-button-response","22","165855","0.0-22.0","A8GT8ZT5D5YCB","img_art/ins/1.jpg","null","","","","","","","","","","","","","","","","","","","","","","","","",""
"1136","","image-button-response","23","166994","0.0-23.0","A8GT8ZT5D5YCB","img_art/ins/1.jpg","3","","","","","","","","","","","","","","","","","","","","","","","","",""
"4332","","image-button-response","24","171329","0.0-24.0-0.0","A8GT8ZT5D5YCB","img_art/ins/1.jpg","5","","","","","","","","","","","","","","","","","","","","","","","","",""
"3548","","image-button-response","25","174881","0.0-25.0-0.0","A8GT8ZT5D5YCB","img_art/ins/1.jpg","0","","","","","","","","","","","","","","","","","","","","","","","","",""
"null","","html-keyboard-response","26","175385","0.0-26.0","A8GT8ZT5D5YCB","<p style=""font-size: 48px;"">+</p>","","","","","null","allTrialResponses","500","1","-2","img_art/ins/1.jpg","9","candy, pink, complex","Allison,Ashley,Beth,Dora,Erika,Jen","looks like a lot of things going on in the mist,20,20,20","I just don't get why these type of art would be popular,-32,40,20","This color reminds me of poo,-46,60,20","looks like what my niece in 3rd grade did this afternoon,-50,80,20","I like the sophisticated brushwork,40,100,20","It reminds me of a candy land dream I had,36,120,20","Dora","looks like what my niece in 3rd grade did this afternoon,-50,80,20","Jen","It reminds me of a candy land dream I had,36,120,20","Allison","looks like a lot of things going on in the mist,20,20,20","0"
"11829","","survey-text","27","187224","0.0-27.0-0.0","A8GT8ZT5D5YCB","","","","{""Q0"":""blocky, red, splotchy""}","","","","","","","","","","","","","","","","","","","","","","",""
"2396.9000000059605","","image-slider-response","28","189624","0.0-28.0","A8GT8ZT5D5YCB","","","","","-13","","","","","","","","","","","","","","","","","","","","","",""
"2888","","image-button-response","29","194631","0.0-29.0","A8GT8ZT5D5YCB","img_art/ins/2.jpg","4","","","","","","","","","","","","","","","","","","","","","","","","",""
"3839","","image-button-response","30","198472","0.0-30.0","A8GT8ZT5D5YCB","img_art/ins/2.jpg","5","","","","","","","","","","","","","","","","","","","","","","","","",""
"4844","","image-button-response","31","203320","0.0-31.0-0.0","A8GT8ZT5D5YCB","img_art/ins/2.jpg","4","","","","","","","","","","","","","","","","","","","","","","","","",""
"1869","","image-button-response","32","205192","0.0-32.0-0.0","A8GT8ZT5D5YCB","img_art/ins/2.jpg","0","","","","","","","","","","","","","","","","","","","","","","","","",""
"null","","html-keyboard-response","33","206196","0.0-33.0","A8GT8ZT5D5YCB","<p style=""font-size: 48px;"">+</p>","","","","","null","allTrialResponses","1000","1","-1","img_art/ins/2.jpg","-13","blocky, red, splotchy","Allison,Jenna,Katie,Dora,Kara,Jen","I don't have strong feelings about this,10,20,20","One of my pet peevs,-48,140,20","too much color!,-28,180,20","looks too angry,-50,80,20","I like the blocks of color arrangements,30,160,20","It reminds me of a fireplace,36,120,20","Jen","It reminds me of a fireplace,36,120,20","Kara","I like the blocks of color arrangements,30,160,20","Allison","I don't have strong feelings about this,10,20,20","0"
"10173","","survey-text","34","216374","0.0-34.0-0.0","A8GT8ZT5D5YCB","","","","{""Q0"":""cold, icy, sharp""}","","","","","","","","","","","","","","","","","","","","","","",""
"2733.7000000178814","","image-slider-response","35","219110","0.0-35.0","A8GT8ZT5D5YCB","","","","","14","","","","","","","","","","","","","","","","","","","","","",""
"4196","","image-button-response","36","224114","0.0-36.0","A8GT8ZT5D5YCB","img_art/ins/3.jpg","4","","","","","","","","","","","","","","","","","","","","","","","","",""
"1257","","image-button-response","37","225375","0.0-37.0","A8GT8ZT5D5YCB","img_art/ins/3.jpg","4","","","","","","","","","","","","","","","","","","","","","","","","",""
"3405","","image-button-response","38","228782","0.0-38.0-0.0","A8GT8ZT5D5YCB","img_art/ins/3.jpg","0","","","","","","","","","","","","","","","","","","","","","","","","",""
"822","","image-button-response","39","229607","0.0-39.0-0.0","A8GT8ZT5D5YCB","img_art/ins/3.jpg","0","","","","","","","","","","","","","","","","","","","","","","","","",""
"1055","","image-button-response","40","235479","0.0-39.1-0.1","A8GT8ZT5D5YCB","img_art/ins/3.jpg","0","","","","","","","","","","","","","","","","","","","","","","","","",""
"1102","","image-button-response","41","239551","0.0-39.2-0.2","A8GT8ZT5D5YCB","img_art/ins/3.jpg","5","","","","","","","","","","","","","","","","","","","","","","","","",""
"null","","html-keyboard-response","42","240053","0.0-40.0","A8GT8ZT5D5YCB","<p style=""font-size: 48px;"">+</p>","","","","","null","allTrialResponses","500","1","0","img_art/ins/3.jpg","14","cold, icy, sharp","Allison,Rose,Mary,Leslie,Kara,Jen","enjoy the different shades of blue,22,20,20","My daily routine, it's depressing,-20,240,20","I like the overlapping of brushes,41,220,20","It's an alright work,15,200,20","calming blue is very nice,36,160,20","I can feel a rainy day from this painting,18,120,20","Kara","calming blue is very nice,36,160,20","Allison","enjoy the different shades of blue,22,20,20","Jen","I can feel a rainy day from this painting,18,120,20","4"
"5433","","image-button-response_instructions","43","245493","0.0-41.0","A8GT8ZT5D5YCB","","0","instructions","","","","","","","","","","","","","","","","","","","","","","","",""
"9790","","survey-likert","44","255286","0.0-42.0-0.0","A8GT8ZT5D5YCB","","","","{""Q0"":"""",""Q1"":0,""Q2"":1}","","","","","","","","","","","","","","","","","","","","","","",""
"4329","","survey-text","45","259622","0.0-43.0-0.0","A8GT8ZT5D5YCB","","","","{""Q0"":""rock""}","","","","","","","","","","","","","","","","","","","","","","",""
"27763","","survey-text","46","287387","0.0-44.0-0.0","A8GT8ZT5D5YCB","","","","{""Q0"":""psychedelic, moving, dynamic""}","","","","","","","","","","","","","","","","","","","","","","",""
"2573.5","","image-slider-response","47","289964","0.0-45.0","A8GT8ZT5D5YCB","","","","","18","","","","","","","","","","","","","","","","","","","","","",""
"null","","image-button-response","48","295026","0.0-46.0","A8GT8ZT5D5YCB","img_art/23.jpg","null","","","","","","","","","","","","","","","","","","","","","","","","",""
"1903","","image-button-response","49","296932","0.0-47.0","A8GT8ZT5D5YCB","img_art/23.jpg","0","","","","","","","","","","","","","","","","","","","","","","","","",""
"3341","","image-button-response","50","300277","0.0-48.0-0.0","A8GT8ZT5D5YCB","img_art/23.jpg","2","","","","","","","","","","","","","","","","","","","","","","","","",""
"3642","","image-button-response","51","303923","0.0-49.0-0.0","A8GT8ZT5D5YCB","img_art/23.jpg","1","","","","","","","","","","","","","","","","","","","","","","","","",""
"null","","html-keyboard-response","52","304427","0.0-50.0","A8GT8ZT5D5YCB","<p style=""font-size: 48px;"">+</p>","","","","","null","allTrialResponses","500","1","1","img_art/23.jpg","18","psychedelic, moving, dynamic","Erika,Brooke,Monica,Chloe,Amber,Lindsey","Very intense and unique,3,100,20","looks like those paper chain things.,0,60,20","I like the sharp contrast of the white on the colorful background,27,360,20","Poster shop camp.,-40,220,20","The background colors seem too dark and the middle images take away from it.,4,200,20","Too much contrasting colors together. I hate it.,-50,400,20","Erika","Very intense and unique,3,100,20","Monica","I like the sharp contrast of the white on the colorful background,27,360,20","Brooke","looks like those paper chain things.,0,60,20","4"
"15977","","survey-text","53","320410","0.0-51.0-0.0","A8GT8ZT5D5YCB","","","","{""Q0"":""sailing, flying, boat""}","","","","","","","","","","","","","","","","","","","","","","",""
"2805.9000000059605","","image-slider-response","54","323219","0.0-52.0","A8GT8ZT5D5YCB","","","","","38","","","","","","","","","","","","","","","","","","","","","",""
"null","","image-button-response","55","328223","0.0-53.0","A8GT8ZT5D5YCB","img_art/18.jpg","null","","","","","","","","","","","","","","","","","","","","","","","","",""
"3280","","image-button-response","56","331506","0.0-54.0","A8GT8ZT5D5YCB","img_art/18.jpg","0","","","","","","","","","","","","","","","","","","","","","","","","",""
"3030","","image-button-response","57","334539","0.0-55.0-0.0","A8GT8ZT5D5YCB","img_art/18.jpg","4","","","","","","","","","","","","","","","","","","","","","","","","",""
"3044","","image-button-response","58","337587","0.0-56.0-0.0","A8GT8ZT5D5YCB","img_art/18.jpg","5","","","","","","","","","","","","","","","","","","","","","","","","",""
"null","","html-keyboard-response","59","338590","0.0-57.0","A8GT8ZT5D5YCB","<p style=""font-size: 48px;"">+</p>","","","","","null","allTrialResponses","1000","1","2","img_art/18.jpg","38","sailing, flying, boat","Erika,Brooke,Monica,Julia,Katherine,Miranda","Gently chaotic and beautiful,40,100,20","Don't like the color scheme. Or the theme.,-5,60,20","It doesn't look like much, the colors are dark and it doesn't really make me feel anything.,-2,360,20","Very classy, I feel like it's the apocalypse.,25,40,20","Ok this is really badass. Like a warrior come to the last battle,50,120,20","This one raises some questions, there could be some sort of fight or battle going on.,11,320,20","Erika","Gently chaotic and beautiful,40,100,20","Katherine","Ok this is really badass. Like a warrior come to the last battle,50,120,20","Miranda","This one raises some questions, there could be some sort of fight or battle going on.,11,320,20","4"
"33579","","survey-text","60","372176","0.0-58.0-0.0","A8GT8ZT5D5YCB","","","","{""Q0"":""banana, hungry, knife""}","","","","","","","","","","","","","","","","","","","","","","",""
"2693.4000000059605","","image-slider-response","61","374872","0.0-59.0","A8GT8ZT5D5YCB","","","","","-21","","","","","","","","","","","","","","","","","","","","","",""
"3877","","image-button-response","62","379876","0.0-60.0","A8GT8ZT5D5YCB","img_art/5.jpg","4","","","","","","","","","","","","","","","","","","","","","","","","",""
"2798","","image-button-response","63","382677","0.0-61.0","A8GT8ZT5D5YCB","img_art/5.jpg","0","","","","","","","","","","","","","","","","","","","","","","","","",""
"3071","","image-button-response","64","385752","0.0-62.0-0.0","A8GT8ZT5D5YCB","img_art/5.jpg","2","","","","","","","","","","","","","","","","","","","","","","","","",""
"2437","","image-button-response","65","388192","0.0-63.0-0.0","A8GT8ZT5D5YCB","img_art/5.jpg","4","","","","","","","","","","","","","","","","","","","","","","","","",""
"null","","html-keyboard-response","66","388695","0.0-64.0","A8GT8ZT5D5YCB","<p style=""font-size: 48px;"">+</p>","","","","","null","allTrialResponses","500","1","3","img_art/5.jpg","-21","banana, hungry, knife","Erika,Brianna,Jessica,Briana,Katherine,Miranda","Not sure what I'm looking at,-16,100,20","Very bright and has colors you wouldn't think would go together,11,20,20","Don't really know the point of this one.,-11,400,20","It looks like a poorly drawn pear,17,400,20","Don't love don't hate,8,120,20","This either looks like a bell or aliens finishing the pyramids,-34,320,20","Erika","Not sure what I'm looking at,-16,100,20","Jessica","Don't really know the point of this one.,-11,400,20","Katherine","Don't love don't hate,8,120,20","4"
"15099","","survey-text","67","403799","0.0-65.0-0.0","A8GT8ZT5D5YCB","","","","{""Q0"":""gloomy yet moving""}","","","","","","","","","","","","","","","","","","","","","","",""
"4037","","image-slider-response","68","407838","0.0-66.0","A8GT8ZT5D5YCB","","","","","5","","","","","","","","","","","","","","","","","","","","","",""
"null","","image-button-response","69","412845","0.0-67.0","A8GT8ZT5D5YCB","img_art/11.jpg","null","","","","","","","","","","","","","","","","","","","","","","","","",""
"2919","","image-button-response","70","415767","0.0-68.0","A8GT8ZT5D5YCB","img_art/11.jpg","5","","","","","","","","","","","","","","","","","","","","","","","","",""
"3045","","image-button-response","71","418814","0.0-69.0-0.0","A8GT8ZT5D5YCB","img_art/11.jpg","4","","","","","","","","","","","","","","","","","","","","","","","","",""
"4477","","image-button-response","72","423296","0.0-70.0-0.0","A8GT8ZT5D5YCB","img_art/11.jpg","2","","","","","","","","","","","","","","","","","","","","","","","","",""
"null","","html-keyboard-response","73","424301","0.0-71.0","A8GT8ZT5D5YCB","<p style=""font-size: 48px;"">+</p>","","","","","null","allTrialResponses","1000","1","4","img_art/11.jpg","5","gloomy yet moving","Erika,Kristen,Jessica,Jasmine,Katherine,Claire","I want to know which skyline the artist is depicting,26,100,20","small town, friendly. calm,35,280,20","This looks cool, and definitely comes to life in a way,36,400,20","Reminds me of a city on a grey/rainy winter's day,25,340,20","Makes me feel like my vision is breaking,19,120,20","the wavy lines are nice and pleasing,13,260,20","Claire","the wavy lines are nice and pleasing,13,260,20","Katherine","Makes me feel like my vision is breaking,19,120,20","Jessica","This looks cool, and definitely comes to life in a way,36,400,20","4"
"17056","","survey-text","74","441373","0.0-72.0-0.0","A8GT8ZT5D5YCB","","","","{""Q0"":""ski goggles, facing danger""}","","","","","","","","","","","","","","","","","","","","","","",""
"3262.5","","image-slider-response","75","444637","0.0-73.0","A8GT8ZT5D5YCB","","","","","21","","","","","","","","","","","","","","","","","","","","","",""
"null","","image-button-response","76","449643","0.0-74.0","A8GT8ZT5D5YCB","img_art/10.jpg","null","","","","","","","","","","","","","","","","","","","","","","","","",""
"3719","","image-button-response","77","453365","0.0-75.0","A8GT8ZT5D5YCB","img_art/10.jpg","0","","","","","","","","","","","","","","","","","","","","","","","","",""
"1406","","image-button-response","78","454774","0.0-76.0-0.0","A8GT8ZT5D5YCB","img_art/10.jpg","1","","","","","","","","","","","","","","","","","","","","","","","","",""
"1220","","image-button-response","79","455998","0.0-77.0-0.0","A8GT8ZT5D5YCB","img_art/10.jpg","2","","","","","","","","","","","","","","","","","","","","","","","","",""
"null","","html-keyboard-response","80","457003","0.0-78.0","A8GT8ZT5D5YCB","<p style=""font-size: 48px;"">+</p>","","","","","null","allTrialResponses","1000","1","5","img_art/10.jpg","21","ski goggles, facing danger","Elizabeth,Katie,Jessica,Jordan,Katherine,Claire","Has an air of mystery around it,39,20,20","Dark and weird. Unidentifiable shape. I can't tell what it is, so I don't like it.,-50,160,20","I feel like this has a cool concept behind it.,11,400,20","I dont like it, there is too much going on,-19,20,20","This is pretty rad. The outline looks like a music staff,15,120,20","it looks very musical,24,260,20","Elizabeth","Has an air of mystery around it,39,20,20","Katie","Dark and weird. Unidentifiable shape. I can't tell what it is, so I don't like it.,-50,160,20","Jessica","I feel like this has a cool concept behind it.,11,400,20","4"
"4641","","survey-text","81","461660","0.0-79.0-0.0","A8GT8ZT5D5YCB","","","","{""Q0"":""sky""}","","","","","","","","","","","","","","","","","","","","","","",""
"11410","","survey-text","82","473078","0.0-80.0-0.0","A8GT8ZT5D5YCB","","","","{""Q0"":""bloody, dripping, killer""}","","","","","","","","","","","","","","","","","","","","","","",""
"2757.7000000178814","","image-slider-response","83","475844","0.0-81.0","A8GT8ZT5D5YCB","","","","","27","","","","","","","","","","","","","","","","","","","","","",""
"4372","","image-button-response","84","480848","0.0-82.0","A8GT8ZT5D5YCB","img_art/3.jpg","3","","","","","","","","","","","","","","","","","","","","","","","","",""
"4433","","image-button-response","85","485284","0.0-83.0","A8GT8ZT5D5YCB","img_art/3.jpg","2","","","","","","","","","","","","","","","","","","","","","","","","",""
"3052","","image-button-response","86","488340","0.0-84.0-0.0","A8GT8ZT5D5YCB","img_art/3.jpg","3","","","","","","","","","","","","","","","","","","","","","","","","",""
"2332","","image-button-response","87","490677","0.0-85.0-0.0","A8GT8ZT5D5YCB","img_art/3.jpg","5","","","","","","","","","","","","","","","","","","","","","","","","",""
"null","","html-keyboard-response","88","491682","0.0-86.0","A8GT8ZT5D5YCB","<p style=""font-size: 48px;"">+</p>","","","","","null","allTrialResponses","1000","1","6","img_art/3.jpg","27","bloody, dripping, killer","Elizabeth,Katie,Jessica,Jamie,Cheyenne,Erin","It doesn't invoke any excitement,-21,20,20","Messy. Looks like a children's drawing being passed off as expensive art. Too much red.,-50,160,20","Don't get the scribbles.,-13,400,20","Looks like somebody squirted ketchup everywhere,-40,320,20","Don't see what the purpose is.,-31,200,20","Shapes are interesting but color is overwhelming,5,120,20","Jessica","Don't get the scribbles.,-13,400,20","Jamie","Looks like somebody squirted ketchup everywhere,-40,320,20","Erin","Shapes are interesting but color is overwhelming,5,120,20","4"
"23914","","survey-text","89","515602","0.0-87.0-0.0","A8GT8ZT5D5YCB","","","","{""Q0"":""giver, group, cloaks""}","","","","","","","","","","","","","","","","","","","","","","",""
"2604.7999999821186","","image-slider-response","90","518210","0.0-88.0","A8GT8ZT5D5YCB","","","","","-28","","","","","","","","","","","","","","","","","","","","","",""
"2456","","image-button-response","91","523214","0.0-89.0","A8GT8ZT5D5YCB","img_art/28.jpg","3","","","","","","","","","","","","","","","","","","","","","","","","",""
"1208","","image-button-response","92","524427","0.0-90.0","A8GT8ZT5D5YCB","img_art/28.jpg","1","","","","","","","","","","","","","","","","","","","","","","","","",""
"3580","","image-button-response","93","528011","0.0-91.0-0.0","A8GT8ZT5D5YCB","img_art/28.jpg","5","","","","","","","","","","","","","","","","","","","","","","","","",""
"1283","","image-button-response","94","529299","0.0-92.0-0.0","A8GT8ZT5D5YCB","img_art/28.jpg","3","","","","","","","","","","","","","","","","","","","","","","","","",""
"null","","html-keyboard-response","95","530801","0.0-93.0","A8GT8ZT5D5YCB","<p style=""font-size: 48px;"">+</p>","","","","","null","allTrialResponses","1500","1","7","img_art/28.jpg","-28","giver, group, cloaks","Breanna,Courtney,Jessica,Jamie,Shannon,Erin","The colors are depressing,-5,380,20","Looks like some guys in s band playing at a busy park.,18,280,20","I can't tell what's going on but it looks a little bit more lively at least,7,400,20","Gloomy colors and picture,5,320,20","I don't like the way the colors look; I think very disgusting colors were used.,-20,220,20","Dislike color palette and amoeba,-9,120,20","Courtney","Looks like some guys in s band playing at a busy park.,18,280,20","Erin","Dislike color palette and amoeba,-9,120,20","Jamie","Gloomy colors and picture,5,320,20","4"
"14164","","survey-text","96","544972","0.0-94.0-0.0","A8GT8ZT5D5YCB","","","","{""Q0"":""ants, grapes, plague""}","","","","","","","","","","","","","","","","","","","","","","",""
"2990.2999999821186","","image-slider-response","97","547968","0.0-95.0","A8GT8ZT5D5YCB","","","","","-45","","","","","","","","","","","","","","","","","","","","","",""
"4342","","image-button-response","98","552972","0.0-96.0","A8GT8ZT5D5YCB","img_art/15.jpg","1","","","","","","","","","","","","","","","","","","","","","","","","",""
"1222","","image-button-response","99","554197","0.0-97.0","A8GT8ZT5D5YCB","img_art/15.jpg","1","","","","","","","","","","","","","","","","","","","","","","","","",""
"5945","","image-button-response","100","560144","0.0-98.0-0.0","A8GT8ZT5D5YCB","img_art/15.jpg","2","","","","","","","","","","","","","","","","","","","","","","","","",""
"3524","","image-button-response","101","563672","0.0-99.0-0.0","A8GT8ZT5D5YCB","img_art/15.jpg","5","","","","","","","","","","","","","","","","","","","","","","","","",""
"null","","html-keyboard-response","102","564175","0.0-100.0","A8GT8ZT5D5YCB","<p style=""font-size: 48px;"">+</p>","","","","","null","allTrialResponses","500","1","8","img_art/15.jpg","-45","ants, grapes, plague","Margaret,Courtney,Alexandria,Jamie,Hannah,Erin","i like the pop of blue within all the black,8,100,20","Weird fuzzball bush.,22,280,20","it looks like trees but they are up to interpretation,16,80,20","Black and blue is my favorite color combination,35,320,20","Like this for the colors and arrangement.,11,240,20","Neat to explore meaning, blue is interesting,11,120,20","Courtney","Weird fuzzball bush.,22,280,20","Alexandria","it looks like trees but they are up to interpretation,16,80,20","Erin","Neat to explore meaning, blue is interesting,11,120,20","4"
"11596","","survey-text","103","575775","0.0-101.0-0.0","A8GT8ZT5D5YCB","","","","{""Q0"":""dining table, food, cakes""}","","","","","","","","","","","","","","","","","","","","","","",""
"7597.899999976158","","image-slider-response","104","583376","0.0-102.0","A8GT8ZT5D5YCB","","","","","32","","","","","","","","","","","","","","","","","","","","","",""
"2389","","image-button-response","105","588380","0.0-103.0","A8GT8ZT5D5YCB","img_art/19.jpg","0","","","","","","","","","","","","","","","","","","","","","","","","",""
"999","","image-button-response","106","589385","0.0-104.0","A8GT8ZT5D5YCB","img_art/19.jpg","0","","","","","","","","","","","","","","","","","","","","","","","","",""
"4500","","image-button-response","107","593887","0.0-105.0-0.0","A8GT8ZT5D5YCB","img_art/19.jpg","2","","","","","","","","","","","","","","","","","","","","","","","","",""
"2054","","image-button-response","108","595944","0.0-106.0-0.0","A8GT8ZT5D5YCB","img_art/19.jpg","4","","","","","","","","","","","","","","","","","","","","","","","","",""
"null","","html-keyboard-response","109","597451","0.0-107.0","A8GT8ZT5D5YCB","<p style=""font-size: 48px;"">+</p>","","","","","null","allTrialResponses","1500","1","9","img_art/19.jpg","32","dining table, food, cakes","Taylor,Courtney,Alexandria,Kaitlin,Kaitlyn,Erin","It reminds me of sitting at a cafe on the side of a river.,45,340,20","Thats a lazy town,-8,280,20","it draws my eye and my mind fills in the spaces,14,80,20","this looks like a busy city lifestyle,24,60,20","The picture contains a lot of brown and weird drips,-4,80,20","Childish music hall,-20,120,20","Taylor","It reminds me of sitting at a cafe on the side of a river.,45,340,20","Alexandria","it draws my eye and my mind fills in the spaces,14,80,20","Kaitlyn","The picture contains a lot of brown and weird drips,-4,80,20","4"
"13211","","survey-text","110","610670","0.0-108.0-0.0","A8GT8ZT5D5YCB","","","","{""Q0"":""fairy, dream, woman""}","","","","","","","","","","","","","","","","","","","","","","",""
"2629","","image-slider-response","111","613302","0.0-109.0","A8GT8ZT5D5YCB","","","","","43","","","","","","","","","","","","","","","","","","","","","",""
"null","","image-button-response","112","618305","0.0-110.0","A8GT8ZT5D5YCB","img_art/9.jpg","null","","","","","","","","","","","","","","","","","","","","","","","","",""
"1682","","image-button-response","113","619991","0.0-111.0","A8GT8ZT5D5YCB","img_art/9.jpg","2","","","","","","","","","","","","","","","","","","","","","","","","",""
"2444","","image-button-response","114","622438","0.0-112.0-0.0","A8GT8ZT5D5YCB","img_art/9.jpg","4","","","","","","","","","","","","","","","","","","","","","","","","",""
"7413","","image-button-response","115","629854","0.0-113.0-0.0","A8GT8ZT5D5YCB","img_art/9.jpg","1","","","","","","","","","","","","","","","","","","","","","","","","",""
"null","","html-keyboard-response","116","630857","0.0-114.0","A8GT8ZT5D5YCB","<p style=""font-size: 48px;"">+</p>","","","","","null","allTrialResponses","1000","1","10","img_art/9.jpg","43","fairy, dream, woman","Taylor,Autumn,Alexandria,Kelly,Kaitlyn,Madison","The peacock theme gives me negative connotations of my ex-sister-in-law,-10,340,20","Abstract but not well made,-26,340,20","it makes me feel excited and draws my eye around,24,80,20","It looks like a child drew it.,-28,220,20","Focal point is interesting,2,80,20","No cohesive form whatsoever. Hard pass.,-31,60,20","Alexandria","it makes me feel excited and draws my eye around,24,80,20","Kaitlyn","Focal point is interesting,2,80,20","Autumn","Abstract but not well made,-26,340,20","4"
"3886","","survey-text","117","634757","0.0-115.0-0.0","A8GT8ZT5D5YCB","","","","{""Q0"":""our""}","","","","","","","","","","","","","","","","","","","","","","",""
"9110","","survey-text","118","643869","0.0-116.0-0.0","A8GT8ZT5D5YCB","","","","{""Q0"":""sunset, space, flight""}","","","","","","","","","","","","","","","","","","","","","","",""
"2100.7999999821186","","image-slider-response","119","645972","0.0-117.0","A8GT8ZT5D5YCB","","","","","44","","","","","","","","","","","","","","","","","","","","","",""
"3790","","image-button-response","120","650978","0.0-118.0","A8GT8ZT5D5YCB","img_art/21.jpg","3","","","","","","","","","","","","","","","","","","","","","","","","",""
"2042","","image-button-response","121","653023","0.0-119.0","A8GT8ZT5D5YCB","img_art/21.jpg","1","","","","","","","","","","","","","","","","","","","","","","","","",""
"1378","","image-button-response","122","654405","0.0-120.0-0.0","A8GT8ZT5D5YCB","img_art/21.jpg","0","","","","","","","","","","","","","","","","","","","","","","","","",""
"4524","","image-button-response","123","658933","0.0-121.0-0.0","A8GT8ZT5D5YCB","img_art/21.jpg","2","","","","","","","","","","","","","","","","","","","","","","","","",""
"null","","html-keyboard-response","124","659945","0.0-122.0","A8GT8ZT5D5YCB","<p style=""font-size: 48px;"">+</p>","","","","","null","allTrialResponses","1000","1","11","img_art/21.jpg","44","sunset, space, flight","Sydney,Autumn,Alexandria,Savannah,Kaitlyn,Anna","I love everything about this piece.,50,320,20","Amazing colors.,34,340,20","the vast colors make me happy,15,80,20","Almost appears like the background of an old renaissance painting.,40,200,20","The division in the picture is pleasing but the random white dots are distracting,12,80,20","I love the colors and the differences between the left and right sides.,22,300,20","Autumn","Amazing colors.,34,340,20","Sydney","I love everything about this piece.,50,320,20","Alexandria","the vast colors make me happy,15,80,20","4"
"10830","","survey-text","125","670779","0.0-123.0-0.0","A8GT8ZT5D5YCB","","","","{""Q0"":""crow, landing, autumn""}","","","","","","","","","","","","","","","","","","","","","","",""
"2717.199999988079","","image-slider-response","126","673499","0.0-124.0","A8GT8ZT5D5YCB","","","","","-8","","","","","","","","","","","","","","","","","","","","","",""
"null","","image-button-response","127","678502","0.0-125.0","A8GT8ZT5D5YCB","img_art/6.jpg","null","","","","","","","","","","","","","","","","","","","","","","","","",""
"18426","","image-button-response","128","696932","0.0-126.0","A8GT8ZT5D5YCB","img_art/6.jpg","3","","","","","","","","","","","","","","","","","","","","","","","","",""
"2395","","image-button-response","129","699331","0.0-127.0-0.0","A8GT8ZT5D5YCB","img_art/6.jpg","1","","","","","","","","","","","","","","","","","","","","","","","","",""
"2428","","image-button-response","130","701762","0.0-128.0-0.0","A8GT8ZT5D5YCB","img_art/6.jpg","2","","","","","","","","","","","","","","","","","","","","","","","","",""
"null","","html-keyboard-response","131","702766","0.0-129.0","A8GT8ZT5D5YCB","<p style=""font-size: 48px;"">+</p>","","","","","null","allTrialResponses","1000","1","12","img_art/6.jpg","-8","crow, landing, autumn","Sydney,Autumn,Alexandria,Gabrielle,Amanda,Christina","This piece reminds me of the lorax.,5,320,20","Bird? It's a bird.,23,340,20","i like it but it is very neutral,9,80,20","simplistic but reminds me of a crow in a field,-10,160,20","Makes me feel lonely,-22,180,20","i like the simplicity of the tree and the colors,50,240,20","Gabrielle","simplistic but reminds me of a crow in a field,-10,160,20","Autumn","Bird? It's a bird.,23,340,20","Alexandria","i like it but it is very neutral,9,80,20","4"
"10132","","survey-text","132","712905","0.0-130.0-0.0","A8GT8ZT5D5YCB","","","","{""Q0"":""block, chains, prison""}","","","","","","","","","","","","","","","","","","","","","","",""
"2277","","image-slider-response","133","715185","0.0-131.0","A8GT8ZT5D5YCB","","","","","-27","","","","","","","","","","","","","","","","","","","","","",""
"4789","","image-button-response","134","720196","0.0-132.0","A8GT8ZT5D5YCB","img_art/12.jpg","4","","","","","","","","","","","","","","","","","","","","","","","","",""
"1778","","image-button-response","135","721977","0.0-133.0","A8GT8ZT5D5YCB","img_art/12.jpg","3","","","","","","","","","","","","","","","","","","","","","","","","",""
"5909","","image-button-response","136","727889","0.0-134.0-0.0","A8GT8ZT5D5YCB","img_art/12.jpg","1","","","","","","","","","","","","","","","","","","","","","","","","",""
"1252","","image-button-response","137","729145","0.0-135.0-0.0","A8GT8ZT5D5YCB","img_art/12.jpg","2","","","","","","","","","","","","","","","","","","","","","","","","",""
"null","","html-keyboard-response","138","729647","0.0-136.0","A8GT8ZT5D5YCB","<p style=""font-size: 48px;"">+</p>","","","","","null","allTrialResponses","500","1","13","img_art/12.jpg","-27","block, chains, prison","Chelsea,Autumn,Alexandria,Gabrielle,Lauren,Alexis","I like the gradient of little color on the top to colorful on the bottom.,24,180,20","Good too basic.,18,340,20","don't feel a lot but it seems very simple,-6,80,20","seems too dark on top and too common on the bottom,-19,160,20","This doesn't invoke anything. Just a mosaic of random images.,0,340,20","I like the cubic feel.,11,100,20","Gabrielle","seems too dark on top and too common on the bottom,-19,160,20","Autumn","Good too basic.,18,340,20","Alexandria","don't feel a lot but it seems very simple,-6,80,20","4"
"10706","","survey-text","139","740360","0.0-137.0-0.0","A8GT8ZT5D5YCB","","","","{""Q0"":""puke, toy, gumby""}","","","","","","","","","","","","","","","","","","","","","","",""
"2181.699999988079","","image-slider-response","140","742544","0.0-138.0","A8GT8ZT5D5YCB","","","","","-13","","","","","","","","","","","","","","","","","","","","","",""
"2885","","image-button-response","141","747550","0.0-139.0","A8GT8ZT5D5YCB","img_art/2.jpg","4","","","","","","","","","","","","","","","","","","","","","","","","",""
"687","","image-button-response","142","748240","0.0-140.0","A8GT8ZT5D5YCB","img_art/2.jpg","4","","","","","","","","","","","","","","","","","","","","","","","","",""
"1093","","image-button-response","143","749336","0.0-141.0-0.0","A8GT8ZT5D5YCB","img_art/2.jpg","0","","","","","","","","","","","","","","","","","","","","","","","","",""
"2750","","image-button-response","144","752089","0.0-142.0-0.0","A8GT8ZT5D5YCB","img_art/2.jpg","1","","","","","","","","","","","","","","","","","","","","","","","","",""
"null","","html-keyboard-response","145","753593","0.0-143.0","A8GT8ZT5D5YCB","<p style=""font-size: 48px;"">+</p>","","","","","null","allTrialResponses","1500","1","14","img_art/2.jpg","-13","puke, toy, gumby","Caroline,Autumn,Alexandria,Gabrielle,Hailey,Sophia","Colors are drab and cause a sense of blandness,-28,100,20","7 year old painted?,-35,340,20","too abstract and confusing,-19,80,20","doctor's office art work, nice colors and not offensive,23,160,20","ugly green color and makes me sick,-29,200,20","I'm not fond of the colors in this one.,-33,280,20","Hailey","ugly green color and makes me sick,-29,200,20","Caroline","Colors are drab and cause a sense of blandness,-28,100,20","Autumn","7 year old painted?,-35,340,20","4"
"12225","","survey-text","146","765824","0.0-144.0-0.0","A8GT8ZT5D5YCB","","","","{""Q0"":""river, waterfall, crisp""}","","","","","","","","","","","","","","","","","","","","","","",""
"2325.199999988079","","image-slider-response","147","768152","0.0-145.0","A8GT8ZT5D5YCB","","","","","13","","","","","","","","","","","","","","","","","","","","","",""
"2611","","image-button-response","148","773158","0.0-146.0","A8GT8ZT5D5YCB","img_art/24.jpg","0","","","","","","","","","","","","","","","","","","","","","","","","",""
"622","","image-button-response","149","773784","0.0-147.0","A8GT8ZT5D5YCB","img_art/24.jpg","1","","","","","","","","","","","","","","","","","","","","","","","","",""
"923","","image-button-response","150","774712","0.0-148.0-0.0","A8GT8ZT5D5YCB","img_art/24.jpg","2","","","","","","","","","","","","","","","","","","","","","","","","",""
"1635","","image-button-response","151","776351","0.0-149.0-0.0","A8GT8ZT5D5YCB","img_art/24.jpg","0","","","","","","","","","","","","","","","","","","","","","","","","",""
"null","","html-keyboard-response","152","776853","0.0-150.0","A8GT8ZT5D5YCB","<p style=""font-size: 48px;"">+</p>","","","","","null","allTrialResponses","500","1","15","img_art/24.jpg","13","river, waterfall, crisp","Caroline,Autumn,Vanessa,Victoria,Hailey,Jenna","Waterfalls and spring and gives me a sense of renewal,34,100,20","Very cute amateur piece.,18,340,20","I love the colors, but I wish the water was less abstract.,17,380,20","very peaceful and serene,47,400,20","warm spring day after a rain. soft,20,200,20","colors are a bit cramped together. really unique take on a waterfall though.,32,360,20","Autumn","Very cute amateur piece.,18,340,20","Vanessa","I love the colors, but I wish the water was less abstract.,17,380,20","Caroline","Waterfalls and spring and gives me a sense of renewal,34,100,20","4"
"3999","","survey-text","153","780871","0.0-151.0-0.0","A8GT8ZT5D5YCB","","","","{""Q0"":""course""}","","","","","","","","","","","","","","","","","","","","","","",""
"13709","","survey-text","154","794581","0.0-152.0-0.0","A8GT8ZT5D5YCB","","","","{""Q0"":""skyview, above, flying""}","","","","","","","","","","","","","","","","","","","","","","",""
"11389.699999988079","","image-slider-response","155","805973","0.0-153.0","A8GT8ZT5D5YCB","","","","","37","","","","","","","","","","","","","","","","","","","","","",""
"2716","","image-button-response","156","810979","0.0-154.0","A8GT8ZT5D5YCB","img_art/8.jpg","0","","","","","","","","","","","","","","","","","","","","","","","","",""
"711","","image-button-response","157","811693","0.0-155.0","A8GT8ZT5D5YCB","img_art/8.jpg","0","","","","","","","","","","","","","","","","","","","","","","","","",""
"1166","","image-button-response","158","812861","0.0-156.0-0.0","A8GT8ZT5D5YCB","img_art/8.jpg","1","","","","","","","","","","","","","","","","","","","","","","","","",""
"1565","","image-button-response","159","814429","0.0-157.0-0.0","A8GT8ZT5D5YCB","img_art/8.jpg","3","","","","","","","","","","","","","","","","","","","","","","","","",""
"null","","html-keyboard-response","160","815935","0.0-158.0","A8GT8ZT5D5YCB","<p style=""font-size: 48px;"">+</p>","","","","","null","allTrialResponses","1500","1","16","img_art/8.jpg","37","skyview, above, flying","Caroline,Autumn,Vanessa,Paige,Maria,Leah","I love the colors in it and also the faces and door ways. Made me feel hopeful,35,100,20","Well painted. Not my style.,27,340,20","I don't like the negative emotion this picture makes me feel. It's also too abstract.,-30,380,20","Nervous like being up high,10,60,20","not sure what to make of this - just neutral again,-1,120,20","Nice formats, I just don't like it much,-16,360,20","Caroline","I love the colors in it and also the faces and door ways. Made me feel hopeful,35,100,20","Autumn","Well painted. Not my style.,27,340,20","Paige","Nervous like being up high,10,60,20","4"
"16062","","survey-text","161","832005","0.0-159.0-0.0","A8GT8ZT5D5YCB","","","","{""Q0"":""sunset, sun, warm""}","","","","","","","","","","","","","","","","","","","","","","",""
"3572.5999999940395","","image-slider-response","162","835580","0.0-160.0","A8GT8ZT5D5YCB","","","","","18","","","","","","","","","","","","","","","","","","","","","",""
"3170","","image-button-response","163","840583","0.0-161.0","A8GT8ZT5D5YCB","img_art/22.jpg","2","","","","","","","","","","","","","","","","","","","","","","","","",""
"947","","image-button-response","164","841533","0.0-162.0","A8GT8ZT5D5YCB","img_art/22.jpg","2","","","","","","","","","","","","","","","","","","","","","","","","",""
"988","","image-button-response","165","842523","0.0-163.0-0.0","A8GT8ZT5D5YCB","img_art/22.jpg","3","","","","","","","","","","","","","","","","","","","","","","","","",""
"1702","","image-button-response","166","844228","0.0-164.0-0.0","A8GT8ZT5D5YCB","img_art/22.jpg","5","","","","","","","","","","","","","","","","","","","","","","","","",""
"null","","html-keyboard-response","167","845730","0.0-165.0","A8GT8ZT5D5YCB","<p style=""font-size: 48px;"">+</p>","","","","","null","allTrialResponses","1500","1","17","img_art/22.jpg","18","sunset, sun, warm","Caroline,Autumn,Michaela,Paige,Destiny,Jacqueline","Felt blah. Bunch of nothingness,-42,100,20","Same az the last one?,-49,340,20","I like the use of primary colors in an interesting way,29,260,20","Happy. I like to colors,33,60,20","so boring. Wow you made some circles some squares very nice,-40,360,20","I feel like I've seen this one already.,-9,300,20","Michaela","I like the use of primary colors in an interesting way,29,260,20","Paige","Happy. I like to colors,33,60,20","Jacqueline","I feel like I've seen this one already.,-9,300,20","4"
"12766","","survey-text","168","858507","0.0-166.0-0.0","A8GT8ZT5D5YCB","","","","{""Q0"":""happy, surprising, birthday""}","","","","","","","","","","","","","","","","","","","","","","",""
"2404.5","","image-slider-response","169","860915","0.0-167.0","A8GT8ZT5D5YCB","","","","","-14","","","","","","","","","","","","","","","","","","","","","",""
"2613","","image-button-response","170","865920","0.0-168.0","A8GT8ZT5D5YCB","img_art/16.jpg","4","","","","","","","","","","","","","","","","","","","","","","","","",""
"560","","image-button-response","171","866483","0.0-169.0","A8GT8ZT5D5YCB","img_art/16.jpg","4","","","","","","","","","","","","","","","","","","","","","","","","",""
"853","","image-button-response","172","867339","0.0-170.0-0.0","A8GT8ZT5D5YCB","img_art/16.jpg","1","","","","","","","","","","","","","","","","","","","","","","","","",""
"557","","image-button-response","173","867899","0.0-171.0-0.0","A8GT8ZT5D5YCB","img_art/16.jpg","2","","","","","","","","","","","","","","","","","","","","","","","","",""
"null","","html-keyboard-response","174","868401","0.0-172.0","A8GT8ZT5D5YCB","<p style=""font-size: 48px;"">+</p>","","","","","null","allTrialResponses","500","1","18","img_art/16.jpg","-14","happy, surprising, birthday","Sara,Rebecca,Michaela,Paige,Allison,Jacqueline","This painting is too random,-30,160,20","don't know how to feel, I mean I respect it but I honestly don't know about this,-12,100,20","It feels lazily done,-9,260,20","very disturbed seening a gun in the same picture as a teddy bear,-50,60,20","Hard contrast, but no emotions towards any of the objects.,-6,140,20","Seems very twisted and dark.,-35,300,20","Allison","Hard contrast, but no emotions towards any of the objects.,-6,140,20","Rebecca","don't know how to feel, I mean I respect it but I honestly don't know about this,-12,100,20","Michaela","It feels lazily done,-9,260,20","4"
"13498","","survey-text","175","881907","0.0-173.0-0.0","A8GT8ZT5D5YCB","","","","{""Q0"":""parisian street, spring time""}","","","","","","","","","","","","","","","","","","","","","","",""
"2452.7999999821186","","image-slider-response","176","884363","0.0-174.0","A8GT8ZT5D5YCB","","","","","33","","","","","","","","","","","","","","","","","","","","","",""
"2510","","image-button-response","177","889367","0.0-175.0","A8GT8ZT5D5YCB","img_art/26.jpg","3","","","","","","","","","","","","","","","","","","","","","","","","",""
"712","","image-button-response","178","890083","0.0-176.0","A8GT8ZT5D5YCB","img_art/26.jpg","3","","","","","","","","","","","","","","","","","","","","","","","","",""
"869","","image-button-response","179","890954","0.0-177.0-0.0","A8GT8ZT5D5YCB","img_art/26.jpg","0","","","","","","","","","","","","","","","","","","","","","","","","",""
"1317","","image-button-response","180","892274","0.0-178.0-0.0","A8GT8ZT5D5YCB","img_art/26.jpg","2","","","","","","","","","","","","","","","","","","","","","","","","",""
"null","","html-keyboard-response","181","892776","0.0-179.0","A8GT8ZT5D5YCB","<p style=""font-size: 48px;"">+</p>","","","","","null","allTrialResponses","500","1","19","img_art/26.jpg","33","parisian street, spring time","Shelby,Rebecca,Michaela,Kelsey,Allison,Brittany","Very pleasent little scene,40,240,20","love the ""lowkey"" vibrant colors that are colorful but at the same time greyscale,12,100,20","Elevator art but the watercolors are good,29,260,20","this is nice!! i like the muted colors,34,240,20","pretty colors, but sketch style isn't for me,10,140,20","It looks boring and too rough.,-9,40,20","Kelsey","this is nice!! i like the muted colors,34,240,20","Shelby","Very pleasent little scene,40,240,20","Michaela","Elevator art but the watercolors are good,29,260,20","4"
"19039","","survey-text","182","911825","0.0-180.0-0.0","A8GT8ZT5D5YCB","","","","{""Q0"":""spring time, park, new growth""}","","","","","","","","","","","","","","","","","","","","","","",""
"4131.300000011921","","image-slider-response","183","915960","0.0-181.0","A8GT8ZT5D5YCB","","","","","28","","","","","","","","","","","","","","","","","","","","","",""
"null","","image-button-response","184","920963","0.0-182.0","A8GT8ZT5D5YCB","img_art/14.jpg","null","","","","","","","","","","","","","","","","","","","","","","","","",""
"1251","","image-button-response","185","922217","0.0-183.0","A8GT8ZT5D5YCB","img_art/14.jpg","3","","","","","","","","","","","","","","","","","","","","","","","","",""
"974","","image-button-response","186","923195","0.0-184.0-0.0","A8GT8ZT5D5YCB","img_art/14.jpg","4","","","","","","","","","","","","","","","","","","","","","","","","",""
"982","","image-button-response","187","924180","0.0-185.0-0.0","A8GT8ZT5D5YCB","img_art/14.jpg","2","","","","","","","","","","","","","","","","","","","","","","","","",""
"null","","html-keyboard-response","188","925688","0.0-186.0","A8GT8ZT5D5YCB","<p style=""font-size: 48px;"">+</p>","","","","","null","allTrialResponses","1500","1","20","img_art/14.jpg","28","spring time, park, new growth","Shelby,Angelica,Michaela,Kelsey,Mariah,Kimberly","Something about the cahotic imagery makes me uncomfortable,-15,240,20","This is poorly done and not aesthetically appealing.,-2,280,20","I just really like light and wispy things,33,260,20","i like this one!,23,240,20","The lighting feels like spring.,20,140,20","In some ways it looks natural, but I'm just not feeling it,0,260,20","Kelsey","i like this one!,23,240,20","Mariah","The lighting feels like spring.,20,140,20","Michaela","I just really like light and wispy things,33,260,20","4"
"3226","","survey-text","189","928929","0.0-187.0-0.0","A8GT8ZT5D5YCB","","","","{""Q0"":""we""}","","","","","","","","","","","","","","","","","","","","","","",""
"12652","","survey-text","190","941583","0.0-188.0-0.0","A8GT8ZT5D5YCB","","","","{""Q0"":""hockey, puck, wrong""}","","","","","","","","","","","","","","","","","","","","","","",""
"2309.4000000059605","","image-slider-response","191","943895","0.0-189.0","A8GT8ZT5D5YCB","","","","","-29","","","","","","","","","","","","","","","","","","","","","",""
"2710","","image-button-response","192","948899","0.0-190.0","A8GT8ZT5D5YCB","img_art/29.jpg","5","","","","","","","","","","","","","","","","","","","","","","","","",""
"545","","image-button-response","193","949448","0.0-191.0","A8GT8ZT5D5YCB","img_art/29.jpg","3","","","","","","","","","","","","","","","","","","","","","","","","",""
"1102","","image-button-response","194","950552","0.0-192.0-0.0","A8GT8ZT5D5YCB","img_art/29.jpg","0","","","","","","","","","","","","","","","","","","","","","","","","",""
"876","","image-button-response","195","951431","0.0-193.0-0.0","A8GT8ZT5D5YCB","img_art/29.jpg","1","","","","","","","","","","","","","","","","","","","","","","","","",""
"null","","html-keyboard-response","196","952934","0.0-194.0","A8GT8ZT5D5YCB","<p style=""font-size: 48px;"">+</p>","","","","","null","allTrialResponses","1500","1","21","img_art/29.jpg","-29","hockey, puck, wrong","Diana,Bailey,Michaela,Kelsey,Mariah,Rachel","I rated it lower because it looked like a crime scene. It didn't make me feel good.,-44,380,20","Giant messy blob. Looks like it tries to be edgy, but fails.,-40,360,20","Like a crime scene. It's neat and different,30,260,20","dont like this one,-20,240,20","It feels like looking through layers of frustration.,19,140,20","It looks like someone did not like their art and drew an x over it.,-32,80,20","Kelsey","dont like this one,-20,240,20","Diana","I rated it lower because it looked like a crime scene. It didn't make me feel good.,-44,380,20","Bailey","Giant messy blob. Looks like it tries to be edgy, but fails.,-40,360,20","4"
"12400","","survey-text","197","965343","0.0-195.0-0.0","A8GT8ZT5D5YCB","","","","{""Q0"":""leaves, falling, hope""}","","","","","","","","","","","","","","","","","","","","","","",""
"2029.5","","image-slider-response","198","967374","0.0-196.0","A8GT8ZT5D5YCB","","","","","17","","","","","","","","","","","","","","","","","","","","","",""
"3974","","image-button-response","199","972379","0.0-197.0","A8GT8ZT5D5YCB","img_art/27.jpg","5","","","","","","","","","","","","","","","","","","","","","","","","",""
"588","","image-button-response","200","972971","0.0-198.0","A8GT8ZT5D5YCB","img_art/27.jpg","5","","","","","","","","","","","","","","","","","","","","","","","","",""
"1033","","image-button-response","201","974006","0.0-199.0-0.0","A8GT8ZT5D5YCB","img_art/27.jpg","0","","","","","","","","","","","","","","","","","","","","","","","","",""
"1709","","image-button-response","202","975719","0.0-200.0-0.0","A8GT8ZT5D5YCB","img_art/27.jpg","3","","","","","","","","","","","","","","","","","","","","","","","","",""
"null","","html-keyboard-response","203","976721","0.0-201.0","A8GT8ZT5D5YCB","<p style=""font-size: 48px;"">+</p>","","","","","null","allTrialResponses","1000","1","22","img_art/27.jpg","17","leaves, falling, hope","Diana,Bailey,Grace,Kelsey,Laura,Molly","I don't care for the green scribbles; not sure what they are. But I adore the colors in the background.,24,380,20","Looks like a splash of different colors and designs without purpose,-44,360,20","Not fond of the bad pencil drawing mixed with the drab colors.,-21,180,20","too messy dont like the color choices either,-17,240,20","feels like a bar scene, tucked away in the corner of a small town,-40,320,20","No clue what to say.,0,340,20","Molly","No clue what to say.,0,340,20","Diana","I don't care for the green scribbles; not sure what they are. But I adore the colors in the background.,24,380,20","Kelsey","too messy dont like the color choices either,-17,240,20","4"
"12619","","survey-text","204","989350","0.0-202.0-0.0","A8GT8ZT5D5YCB","","","","{""Q0"":""crusting, scab, pain""}","","","","","","","","","","","","","","","","","","","","","","",""
"2125.5999999940395","","image-slider-response","205","991477","0.0-203.0","A8GT8ZT5D5YCB","","","","","-24","","","","","","","","","","","","","","","","","","","","","",""
"2573","","image-button-response","206","996480","0.0-204.0","A8GT8ZT5D5YCB","img_art/7.jpg","0","","","","","","","","","","","","","","","","","","","","","","","","",""
"586","","image-button-response","207","997069","0.0-205.0","A8GT8ZT5D5YCB","img_art/7.jpg","0","","","","","","","","","","","","","","","","","","","","","","","","",""
"815","","image-button-response","208","997887","0.0-206.0-0.0","A8GT8ZT5D5YCB","img_art/7.jpg","1","","","","","","","","","","","","","","","","","","","","","","","","",""
"2028","","image-button-response","209","999918","0.0-207.0-0.0","A8GT8ZT5D5YCB","img_art/7.jpg","2","","","","","","","","","","","","","","","","","","","","","","","","",""
"null","","html-keyboard-response","210","1000921","0.0-208.0","A8GT8ZT5D5YCB","<p style=""font-size: 48px;"">+</p>","","","","","null","allTrialResponses","1000","1","23","img_art/7.jpg","-24","crusting, scab, pain","Diana,Leslie,Morgan,Kelsey,Angela,Molly","This piece reminds me of ants and it makes my skin crawl.,-37,380,20","This elicits no reaction in me.,0,380,20","Dead bugs on an insect battleground.,-10,380,20","its like oatmeal with granola,-47,240,20","Looks like vomit, or chunky feces,-42,260,20","Don't understand the meaning of this picture.,-30,340,20","Diana","This piece reminds me of ants and it makes my skin crawl.,-37,380,20","Leslie","This elicits no reaction in me.,0,380,20","Morgan","Dead bugs on an insect battleground.,-10,380,20","4"
"19228","","survey-text","211","1020157","0.0-209.0-0.0","A8GT8ZT5D5YCB","","","","{""Q0"":""lips, loops, lipstick""}","","","","","","","","","","","","","","","","","","","","","","",""
"2724.699999988079","","image-slider-response","212","1022885","0.0-210.0","A8GT8ZT5D5YCB","","","","","-28","","","","","","","","","","","","","","","","","","","","","",""
"3693","","image-button-response","213","1027892","0.0-211.0","A8GT8ZT5D5YCB","img_art/30.jpg","3","","","","","","","","","","","","","","","","","","","","","","","","",""
"581","","image-button-response","214","1028476","0.0-212.0","A8GT8ZT5D5YCB","img_art/30.jpg","3","","","","","","","","","","","","","","","","","","","","","","","","",""
"1006","","image-button-response","215","1029485","0.0-213.0-0.0","A8GT8ZT5D5YCB","img_art/30.jpg","0","","","","","","","","","","","","","","","","","","","","","","","","",""
"1116","","image-button-response","216","1030606","0.0-214.0-0.0","A8GT8ZT5D5YCB","img_art/30.jpg","4","","","","","","","","","","","","","","","","","","","","","","","","",""
"null","","html-keyboard-response","217","1031610","0.0-215.0","A8GT8ZT5D5YCB","<p style=""font-size: 48px;"">+</p>","","","","","null","allTrialResponses","1000","1","24","img_art/30.jpg","-28","lips, loops, lipstick","Diana,Leslie,Morgan,Isabella,Crystal,Natalie","I love the color contrast of the red against the blue.,9,380,20","The brush strokes are appealing, and make me want to look at this longer.,11,380,20","Sleek eel in the abstract ocean.,30,380,20","I like the back but the red lines in the front distress me,-7,280,20","An interesting design but don't like the colors. I value the time and effort put into it, but not a huge fan.,10,300,20","the colors look nice,19,400,20","Isabella","I like the back but the red lines in the front distress me,-7,280,20","Diana","I love the color contrast of the red against the blue.,9,380,20","Crystal","An interesting design but don't like the colors. I value the time and effort put into it, but not a huge fan.,10,300,20","4"
"12064","","survey-text","218","1043683","0.0-216.0-0.0","A8GT8ZT5D5YCB","","","","{""Q0"":""flames, buring, fear""}","","","","","","","","","","","","","","","","","","","","","","",""
"13221.90000000596","","image-slider-response","219","1056906","0.0-217.0","A8GT8ZT5D5YCB","","","","","-19","","","","","","","","","","","","","","","","","","","","","",""
"3318","","image-button-response","220","1061909","0.0-218.0","A8GT8ZT5D5YCB","img_art/4.jpg","1","","","","","","","","","","","","","","","","","","","","","","","","",""
"495","","image-button-response","221","1062407","0.0-219.0","A8GT8ZT5D5YCB","img_art/4.jpg","1","","","","","","","","","","","","","","","","","","","","","","","","",""
"578","","image-button-response","222","1062988","0.0-220.0-0.0","A8GT8ZT5D5YCB","img_art/4.jpg","2","","","","","","","","","","","","","","","","","","","","","","","","",""
"821","","image-button-response","223","1063813","0.0-221.0-0.0","A8GT8ZT5D5YCB","img_art/4.jpg","4","","","","","","","","","","","","","","","","","","","","","","","","",""
"null","","html-keyboard-response","224","1064819","0.0-222.0","A8GT8ZT5D5YCB","<p style=""font-size: 48px;"">+</p>","","","","","null","allTrialResponses","1000","1","25","img_art/4.jpg","-19","flames, buring, fear","Diana,Stephanie,Mary,Isabella,Crystal,Kaylee","Odd but intriguing. I feel emotion from this. Like a woman bent over carrying these emotions on her back.,33,380,20","It looks like a hand someone scribbled over,-30,300,20","This looks like a child got into his diaper.,-46,180,20","Looks like a creative hand,45,280,20","Looks like finger nails from the Guinness world record book.,-30,300,20","just a scuffed hand,-15,200,20","Stephanie","It looks like a hand someone scribbled over,-30,300,20","Mary","This looks like a child got into his diaper.,-46,180,20","Crystal","Looks like finger nails from the Guinness world record book.,-30,300,20","4"
"4623","","survey-text","225","1069459","0.0-223.0-0.0","A8GT8ZT5D5YCB","","","","{""Q0"":""table""}","","","","","","","","","","","","","","","","","","","","","","",""
"11795","","survey-text","226","1081258","0.0-224.0-0.0","A8GT8ZT5D5YCB","","","","{""Q0"":""seaside, smoke, bones""}","","","","","","","","","","","","","","","","","","","","","","",""
"2092.0999999940395","","image-slider-response","227","1083353","0.0-225.0","A8GT8ZT5D5YCB","","","","","-22","","","","","","","","","","","","","","","","","","","","","",""
"3249","","image-button-response","228","1088358","0.0-226.0","A8GT8ZT5D5YCB","img_art/20.jpg","0","","","","","","","","","","","","","","","","","","","","","","","","",""
"489","","image-button-response","229","1088850","0.0-227.0","A8GT8ZT5D5YCB","img_art/20.jpg","0","","","","","","","","","","","","","","","","","","","","","","","","",""
"549","","image-button-response","230","1089402","0.0-228.0-0.0","A8GT8ZT5D5YCB","img_art/20.jpg","1","","","","","","","","","","","","","","","","","","","","","","","","",""
"653","","image-button-response","231","1090058","0.0-229.0-0.0","A8GT8ZT5D5YCB","img_art/20.jpg","2","","","","","","","","","","","","","","","","","","","","","","","","",""
"null","","html-keyboard-response","232","1091561","0.0-230.0","A8GT8ZT5D5YCB","<p style=""font-size: 48px;"">+</p>","","","","","null","allTrialResponses","1500","1","26","img_art/20.jpg","-22","seaside, smoke, bones","Madeline,Stephanie,Mary,Alexa,Crystal,Tiffany","Looks somewhat dark and emotional,-10,40,20","Looks like an old gold mining down now deserted.,11,300,20","I can tell this artist has experience. I just don't care for the color combo.,7,180,20","I like the calming mood of this painting,35,40,20","The pulling and sagging nature is very beautiful.,30,300,20","I feel powerful, like I am looking out a window at this machine, that I am in charge.,17,360,20","Madeline","Looks somewhat dark and emotional,-10,40,20","Stephanie","Looks like an old gold mining down now deserted.,11,300,20","Mary","I can tell this artist has experience. I just don't care for the color combo.,7,180,20","4"
"12792","","survey-text","233","1104361","0.0-231.0-0.0","A8GT8ZT5D5YCB","","","","{""Q0"":""rain, crystals, frozen""}","","","","","","","","","","","","","","","","","","","","","","",""
"1893.7000000178814","","image-slider-response","234","1106257","0.0-232.0","A8GT8ZT5D5YCB","","","","","11","","","","","","","","","","","","","","","","","","","","","",""
"2220","","image-button-response","235","1111264","0.0-233.0","A8GT8ZT5D5YCB","img_art/13.jpg","0","","","","","","","","","","","","","","","","","","","","","","","","",""
"494","","image-button-response","236","1111761","0.0-234.0","A8GT8ZT5D5YCB","img_art/13.jpg","0","","","","","","","","","","","","","","","","","","","","","","","","",""
"1053","","image-button-response","237","1112817","0.0-235.0-0.0","A8GT8ZT5D5YCB","img_art/13.jpg","5","","","","","","","","","","","","","","","","","","","","","","","","",""
"869","","image-button-response","238","1113691","0.0-236.0-0.0","A8GT8ZT5D5YCB","img_art/13.jpg","4","","","","","","","","","","","","","","","","","","","","","","","","",""
"null","","html-keyboard-response","239","1115199","0.0-237.0","A8GT8ZT5D5YCB","<p style=""font-size: 48px;"">+</p>","","","","","null","allTrialResponses","1500","1","27","img_art/13.jpg","11","rain, crystals, frozen","Madeline,Stephanie,Mary,Kylie,Meghan,Olivia","Really love the colors,11,40,20","Raindrops splashing on the window.,50,300,20","I do not care for the colors in this art. it doesnt go well at all.,-15,180,20","Very abstract and soothing,40,300,20","I like the transition to other colors,24,220,20","eighties here we come,7,40,20","Madeline","Really love the colors,11,40,20","Olivia","eighties here we come,7,40,20","Meghan","I like the transition to other colors,24,220,20","4"
"14226","","survey-text","240","1129433","0.0-238.0-0.0","A8GT8ZT5D5YCB","","","","{""Q0"":""hope, blood, autumn""}","","","","","","","","","","","","","","","","","","","","","","",""
"2092","","image-slider-response","241","1131528","0.0-239.0","A8GT8ZT5D5YCB","","","","","16","","","","","","","","","","","","","","","","","","","","","",""
"3925","","image-button-response","242","1136532","0.0-240.0","A8GT8ZT5D5YCB","img_art/1.jpg","5","","","","","","","","","","","","","","","","","","","","","","","","",""
"489","","image-button-response","243","1137025","0.0-241.0","A8GT8ZT5D5YCB","img_art/1.jpg","5","","","","","","","","","","","","","","","","","","","","","","","","",""
"964","","image-button-response","244","1137993","0.0-242.0-0.0","A8GT8ZT5D5YCB","img_art/1.jpg","4","","","","","","","","","","","","","","","","","","","","","","","","",""
"1317","","image-button-response","245","1139313","0.0-243.0-0.0","A8GT8ZT5D5YCB","img_art/1.jpg","2","","","","","","","","","","","","","","","","","","","","","","","","",""
"null","","html-keyboard-response","246","1140815","0.0-244.0","A8GT8ZT5D5YCB","<p style=""font-size: 48px;"">+</p>","","","","","null","allTrialResponses","1500","1","28","img_art/1.jpg","16","hope, blood, autumn","Madeline,Emily,Abigail,Cassidy,Meghan,Olivia","Quite messy looking,-22,40,20","Just a mess though a better mess than some others.,-11,40,20","I like the warmth of the picture,21,20,20","I like the colors and layers,25,140,20","good colors and contrast,31,220,20","feels like there is meaning,9,40,20","Olivia","feels like there is meaning,9,40,20","Meghan","good colors and contrast,31,220,20","Abigail","I like the warmth of the picture,21,20,20","4"
"16042","","survey-text","247","1156866","0.0-245.0-0.0","A8GT8ZT5D5YCB","","","","{""Q0"":""death, stalker, final""}","","","","","","","","","","","","","","","","","","","","","","",""
"3482","","image-slider-response","248","1160351","0.0-246.0","A8GT8ZT5D5YCB","","","","","-42","","","","","","","","","","","","","","","","","","","","","",""
"null","","image-button-response","249","1165358","0.0-247.0","A8GT8ZT5D5YCB","img_art/25.jpg","null","","","","","","","","","","","","","","","","","","","","","","","","",""
"214","","image-button-response","250","1165576","0.0-248.0","A8GT8ZT5D5YCB","img_art/25.jpg","0","","","","","","","","","","","","","","","","","","","","","","","","",""
"1492","","image-button-response","251","1167071","0.0-249.0-0.0","A8GT8ZT5D5YCB","img_art/25.jpg","1","","","","","","","","","","","","","","","","","","","","","","","","",""
"956","","image-button-response","252","1168031","0.0-250.0-0.0","A8GT8ZT5D5YCB","img_art/25.jpg","4","","","","","","","","","","","","","","","","","","","","","","","","",""
"null","","html-keyboard-response","253","1169035","0.0-251.0","A8GT8ZT5D5YCB","<p style=""font-size: 48px;"">+</p>","","","","","null","allTrialResponses","1000","1","29","img_art/25.jpg","-42","death, stalker, final","Erica,Samantha,Abigail,Mikayla,Meghan,Olivia","reminds me of a demon,-25,80,20","It is interesting but too creapy for me,-29,140,20","This is creepy and I dont like it,-28,20,20","I LOVE fhe scary skeleton.,28,300,20","reminds me of a zombie,-36,220,20","reminds me of burning man,18,40,20","Erica","reminds me of a demon,-25,80,20","Samantha","It is interesting but too creapy for me,-29,140,20","Meghan","reminds me of a zombie,-36,220,20","4"
"19105","","survey-text","254","1188149","0.0-252.0-0.0","A8GT8ZT5D5YCB","","","","{""Q0"":""ghostly, aroma, fungus""}","","","","","","","","","","","","","","","","","","","","","","",""
"3477.300000011921","","image-slider-response","255","1191629","0.0-253.0","A8GT8ZT5D5YCB","","","","","-29","","","","","","","","","","","","","","","","","","","","","",""
"4005","","image-button-response","256","1196634","0.0-254.0","A8GT8ZT5D5YCB","img_art/17.jpg","4","","","","","","","","","","","","","","","","","","","","","","","","",""
"832","","image-button-response","257","1197469","0.0-255.0","A8GT8ZT5D5YCB","img_art/17.jpg","4","","","","","","","","","","","","","","","","","","","","","","","","",""
"597","","image-button-response","258","1198070","0.0-256.0-0.0","A8GT8ZT5D5YCB","img_art/17.jpg","5","","","","","","","","","","","","","","","","","","","","","","","","",""
"1061","","image-button-response","259","1199133","0.0-257.0-0.0","A8GT8ZT5D5YCB","img_art/17.jpg","0","","","","","","","","","","","","","","","","","","","","","","","","",""
"null","","html-keyboard-response","260","1200135","0.0-258.0","A8GT8ZT5D5YCB","<p style=""font-size: 48px;"">+</p>","","","","","null","allTrialResponses","1000","1","30","img_art/17.jpg","-29","ghostly, aroma, fungus","Erica,Samantha,Cassandra,Sabrina,Meghan,Makayla","Makes me warm and cozy just by looking at it,29,80,20","Nice colors, shapes, flow,31,140,20","Very pretty...the colors and good and flow well.,33,120,20","Messy shadow of loss and love,50,120,20","pretty bland in coloring,1,220,20","I feel okay , it's like a tree,28,80,20","Meghan","pretty bland in coloring,1,220,20","Makayla","I feel okay , it's like a tree,28,80,20","Erica","Makes me warm and cozy just by looking at it,29,80,20","4"
"3885","","image-button-response_instructions","261","1204028","0.0-259.0","A8GT8ZT5D5YCB","","0","instructions","","","","","","","","","","","","","","","","","","","","","","","",""
"1729","","image-button-response","262","1205765","0.0-260.0","A8GT8ZT5D5YCB","","0","","","","","","","","","","","","","","","","","","","","","","","","",""
