"rt","url","trial_type","trial_index","time_elapsed","internal_node_id","participant_id","stimulus","button_pressed","Name","responses","response","key_press","variableName","fixationTime","condition","trial","photo","subjectRating","subjectResponse","agentsNames","agent_1_Response","agent_2_Response","agent_3_Response","agent_4_Response","agent_5_Response","agent_6_Response","kept_1_name","kept_1_response","kept_2_name","kept_2_response","kept_3_name","kept_3_response","errorCounter"
"7722","external_page_harvard.html","external-html","0","7766","0.0-0.0","AAASQIW3J32OL","","","","","","","","","","","","","","","","","","","","","","","","","","",""
"1836","","image-button-response","1","9602","0.0-1.0","AAASQIW3J32OL","","1","","","","","","","","","","","","","","","","","","","","","","","","",""
"2349","","image-button-response","2","11956","0.0-2.0-0.0","AAASQIW3J32OL","","1","phone","","","","","","","","","","","","","","","","","","","","","","","",""
"7219","","survey-text","3","19176","0.0-3.0-0.0","AAASQIW3J32OL","","","","{""Q0"":""AAASQIW3J32OL""}","","","","","","","","","","","","","","","","","","","","","","",""
"6331","","image-button-response_instructions","4","25508","0.0-4.0","AAASQIW3J32OL","","0","instructions","","","","","","","","","","","","","","","","","","","","","","","",""
"14028","","image-button-response_instructions","5","39538","0.0-5.0","AAASQIW3J32OL","img_art/ins/popularity/ins1.png","0","instructions","","","","","","","","","","","","","","","","","","","","","","","",""
"6216","","image-button-response_instructions","6","45754","0.0-6.0","AAASQIW3J32OL","img_art/ins/popularity/ins2.png","0","instructions","","","","","","","","","","","","","","","","","","","","","","","",""
"7638","","image-button-response_instructions","7","53392","0.0-7.0","AAASQIW3J32OL","img_art/ins/popularity/ins2Extreme.png","0","instructions","","","","","","","","","","","","","","","","","","","","","","","",""
"16527","","image-button-response_instructions","8","69920","0.0-8.0","AAASQIW3J32OL","img_art/ins/popularity/ins3KEEPpop.PNG","0","instructions","","","","","","","","","","","","","","","","","","","","","","","",""
"3897","","image-button-response_instructions","9","73818","0.0-9.0","AAASQIW3J32OL","img_art/ins/popularity/ins3ANamepop.PNG","0","instructions","","","","","","","","","","","","","","","","","","","","","","","",""
"3097","","image-button-response_instructions","10","76916","0.0-10.0","AAASQIW3J32OL","img_art/ins/popularity/ins3ARatingpop.png","0","instructions","","","","","","","","","","","","","","","","","","","","","","","",""
"3125","","image-button-response_instructions","11","80042","0.0-11.0","AAASQIW3J32OL","img_art/ins/popularity/ins3ATextpop.png","0","instructions","","","","","","","","","","","","","","","","","","","","","","","",""
"5705","","image-button-response_instructions","12","85748","0.0-12.0","AAASQIW3J32OL","img_art/ins/popularity/ins3ALikespop.png","0","instructions","","","","","","","","","","","","","","","","","","","","","","","",""
"15316","","image-button-response_instructions","13","101064","0.0-13.0","AAASQIW3J32OL","img_art/ins/popularity/ins3KEEPpop.PNG","0","instructions","","","","","","","","","","","","","","","","","","","","","","","",""
"7830","","image-button-response_instructions","14","108894","0.0-14.0","AAASQIW3J32OL","img_art/ins/popularity/ins3_5RED.png","0","instructions","","","","","","","","","","","","","","","","","","","","","","","",""
"4015","","image-button-response_instructions","15","112910","0.0-15.0","AAASQIW3J32OL","img_art/ins/popularity/ins3KEEPpop.PNG","0","instructions","","","","","","","","","","","","","","","","","","","","","","","",""
"9837","","image-button-response_instructions","16","122748","0.0-16.0","AAASQIW3J32OL","img_art/ins/popularity/ins4KEEPpop.PNG","0","instructions","","","","","","","","","","","","","","","","","","","","","","","",""
"4139","","image-button-response_instructions","17","126888","0.0-17.0","AAASQIW3J32OL","img_art/ins/popularity/ins5KEEPpop.PNG","0","instructions","","","","","","","","","","","","","","","","","","","","","","","",""
"1257","","image-button-response_instructions","18","128146","0.0-18.0","AAASQIW3J32OL","","0","instructions","","","","","","","","","","","","","","","","","","","","","","","",""
"11529","","survey-text","19","139694","0.0-19.0-0.0","AAASQIW3J32OL","","","","{""Q0"":""but""}","","","","","","","","","","","","","","","","","","","","","","",""
"18905","","survey-text","20","158600","0.0-20.0-0.0","AAASQIW3J32OL","","","","{""Q0"":""Pretty but seems a little pointless to me.""}","","","","","","","","","","","","","","","","","","","","","","",""
"5404.400000095367","","image-slider-response","21","164007","0.0-21.0","AAASQIW3J32OL","","","","","13","","","","","","","","","","","","","","","","","","","","","",""
"null","","image-button-response","22","169011","0.0-22.0","AAASQIW3J32OL","img_art/ins/1.jpg","null","","","","","","","","","","","","","","","","","","","","","","","","",""
"3302","","image-button-response","23","172317","0.0-23.0","AAASQIW3J32OL","img_art/ins/1.jpg","5","","","","","","","","","","","","","","","","","","","","","","","","",""
"3041","","image-button-response","24","175359","0.0-24.0-0.0","AAASQIW3J32OL","img_art/ins/1.jpg","0","","","","","","","","","","","","","","","","","","","","","","","","",""
"2769","","image-button-response","25","178131","0.0-25.0-0.0","AAASQIW3J32OL","img_art/ins/1.jpg","0","","","","","","","","","","","","","","","","","","","","","","","","",""
"2099","","image-button-response","26","188092","0.0-25.1-0.1","AAASQIW3J32OL","img_art/ins/1.jpg","0","","","","","","","","","","","","","","","","","","","","","","","","",""
"2053","","image-button-response","27","197815","0.0-25.2-0.2","AAASQIW3J32OL","img_art/ins/1.jpg","4","","","","","","","","","","","","","","","","","","","","","","","","",""
"null","","html-keyboard-response","28","198817","0.0-26.0","AAASQIW3J32OL","<p style=""font-size: 48px;"">+</p>","","","","","null","allTrialResponses","1000","1","-2","img_art/ins/1.jpg","13","Pretty but seems a little pointless to me.","Allison,Ashley,Beth,Dora,Erika,Jen","looks like a lot of things going on in the mist,20,20,20","I just don't get why these type of art would be popular,-32,40,20","This color reminds me of poo,-46,60,20","looks like what my niece in 3rd grade did this afternoon,-50,80,20","I like the sophisticated brushwork,40,100,20","It reminds me of a candy land dream I had,36,120,20","Jen","It reminds me of a candy land dream I had,36,120,20","Allison","looks like a lot of things going on in the mist,20,20,20","Erika","I like the sophisticated brushwork,40,100,20","4"
"13537","","survey-text","29","212364","0.0-27.0-0.0","AAASQIW3J32OL","","","","{""Q0"":""Powerful! I love it!""}","","","","","","","","","","","","","","","","","","","","","","",""
"3280.2999999523163","","image-slider-response","30","215646","0.0-28.0","AAASQIW3J32OL","","","","","34","","","","","","","","","","","","","","","","","","","","","",""
"null","","image-button-response","31","220649","0.0-29.0","AAASQIW3J32OL","img_art/ins/2.jpg","null","","","","","","","","","","","","","","","","","","","","","","","","",""
"1002","","image-button-response","32","221653","0.0-30.0","AAASQIW3J32OL","img_art/ins/2.jpg","1","","","","","","","","","","","","","","","","","","","","","","","","",""
"5628","","image-button-response","33","227283","0.0-31.0-0.0","AAASQIW3J32OL","img_art/ins/2.jpg","5","","","","","","","","","","","","","","","","","","","","","","","","",""
"2538","","image-button-response","34","229823","0.0-32.0-0.0","AAASQIW3J32OL","img_art/ins/2.jpg","4","","","","","","","","","","","","","","","","","","","","","","","","",""
"null","","html-keyboard-response","35","230325","0.0-33.0","AAASQIW3J32OL","<p style=""font-size: 48px;"">+</p>","","","","","null","allTrialResponses","500","1","-1","img_art/ins/2.jpg","34","Powerful! I love it!","Allison,Kara,Katie,Jenna,Erika,Jen","I don't have strong feelings about this,10,20,20","I like the blocks of color arrangements,30,160,20","too much color!,-28,180,20","One of my pet peevs,-48,140,20","I would never be able to compose a sophisticated pallete like this,48,100,20","It reminds me of a fireplace,36,120,20","Kara","I like the blocks of color arrangements,30,160,20","Jen","It reminds me of a fireplace,36,120,20","Erika","I would never be able to compose a sophisticated pallete like this,48,100,20","4"
"17260","","survey-text","36","247591","0.0-34.0-0.0","AAASQIW3J32OL","","","","{""Q0"":""I love the space in this one, how airy it feels.""}","","","","","","","","","","","","","","","","","","","","","","",""
"3712.899999856949","","image-slider-response","37","251305","0.0-35.0","AAASQIW3J32OL","","","","","27","","","","","","","","","","","","","","","","","","","","","",""
"null","","image-button-response","38","256307","0.0-36.0","AAASQIW3J32OL","img_art/ins/3.jpg","null","","","","","","","","","","","","","","","","","","","","","","","","",""
"1150","","image-button-response","39","257459","0.0-37.0","AAASQIW3J32OL","img_art/ins/3.jpg","5","","","","","","","","","","","","","","","","","","","","","","","","",""
"3073","","image-button-response","40","260533","0.0-38.0-0.0","AAASQIW3J32OL","img_art/ins/3.jpg","1","","","","","","","","","","","","","","","","","","","","","","","","",""
"1248","","image-button-response","41","261783","0.0-39.0-0.0","AAASQIW3J32OL","img_art/ins/3.jpg","0","","","","","","","","","","","","","","","","","","","","","","","","",""
"null","","html-keyboard-response","42","262285","0.0-40.0","AAASQIW3J32OL","<p style=""font-size: 48px;"">+</p>","","","","","null","allTrialResponses","500","1","0","img_art/ins/3.jpg","27","I love the space in this one, how airy it feels.","Mary,Kara,Rose,Leslie,Erika,Jen","I like the overlapping of brushes,41,220,20","calming blue is very nice,36,160,20","My daily routine, it's depressing,-20,240,20","It's an alright work,15,200,20","I feel connected to the artist,40,100,20","I can feel a rainy day from this painting,18,120,20","Jen","I can feel a rainy day from this painting,18,120,20","Kara","calming blue is very nice,36,160,20","Mary","I like the overlapping of brushes,41,220,20","4"
"7112","","image-button-response_instructions","43","269405","0.0-41.0","AAASQIW3J32OL","","0","instructions","","","","","","","","","","","","","","","","","","","","","","","",""
"9267","","survey-likert","44","278673","0.0-42.0-0.0","AAASQIW3J32OL","","","","{""Q0"":"""",""Q1"":0,""Q2"":1}","","","","","","","","","","","","","","","","","","","","","","",""
"5054","","survey-text","45","283731","0.0-43.0-0.0","AAASQIW3J32OL","","","","{""Q0"":""rock""}","","","","","","","","","","","","","","","","","","","","","","",""
"17926","","survey-text","46","301659","0.0-44.0-0.0","AAASQIW3J32OL","","","","{""Q0"":""It's like a new take on Impressionism.""}","","","","","","","","","","","","","","","","","","","","","","",""
"5443.200000047684","","image-slider-response","47","307103","0.0-45.0","AAASQIW3J32OL","","","","","12","","","","","","","","","","","","","","","","","","","","","",""
"3023","","image-button-response","48","312124","0.0-46.0","AAASQIW3J32OL","img_art/11.jpg","0","","","","","","","","","","","","","","","","","","","","","","","","",""
"1198","","image-button-response","49","313325","0.0-47.0","AAASQIW3J32OL","img_art/11.jpg","0","","","","","","","","","","","","","","","","","","","","","","","","",""
"4111","","image-button-response","50","317437","0.0-48.0-0.0","AAASQIW3J32OL","img_art/11.jpg","4","","","","","","","","","","","","","","","","","","","","","","","","",""
"5807","","image-button-response","51","323247","0.0-49.0-0.0","AAASQIW3J32OL","img_art/11.jpg","5","","","","","","","","","","","","","","","","","","","","","","","","",""
"null","","html-keyboard-response","52","324249","0.0-50.0","AAASQIW3J32OL","<p style=""font-size: 48px;"">+</p>","","","","","null","allTrialResponses","1000","1","1","img_art/11.jpg","12","It's like a new take on Impressionism.","Miranda,Kristen,Natalie,Jacqueline,Savannah,Kaitlin","This one is a little erie, gives me post-apocalyptic feeling,27,320,20","small town, friendly. calm,35,280,20","pic looks alright,8,400,20","It's too dark and dingy.,-30,300,20","Not quite as abstract as I'd like- It's clearly a dingy city.,-18,200,20","a beautiful piece of art,33,60,20","Miranda","This one is a little erie, gives me post-apocalyptic feeling,27,320,20","Savannah","Not quite as abstract as I'd like- It's clearly a dingy city.,-18,200,20","Kaitlin","a beautiful piece of art,33,60,20","4"
"22134","","survey-text","53","346387","0.0-51.0-0.0","AAASQIW3J32OL","","","","{""Q0"":""Very tactile, but looks grungy and somehow dirty.""}","","","","","","","","","","","","","","","","","","","","","","",""
"2277.100000143051","","image-slider-response","54","348665","0.0-52.0","AAASQIW3J32OL","","","","","-17","","","","","","","","","","","","","","","","","","","","","",""
"null","","image-button-response","55","353668","0.0-53.0","AAASQIW3J32OL","img_art/7.jpg","null","","","","","","","","","","","","","","","","","","","","","","","","",""
"6562","","image-button-response","56","360233","0.0-54.0","AAASQIW3J32OL","img_art/7.jpg","2","","","","","","","","","","","","","","","","","","","","","","","","",""
"2639","","image-button-response","57","362873","0.0-55.0-0.0","AAASQIW3J32OL","img_art/7.jpg","0","","","","","","","","","","","","","","","","","","","","","","","","",""
"4446","","image-button-response","58","367321","0.0-56.0-0.0","AAASQIW3J32OL","img_art/7.jpg","3","","","","","","","","","","","","","","","","","","","","","","","","",""
"null","","html-keyboard-response","59","368823","0.0-57.0","AAASQIW3J32OL","<p style=""font-size: 48px;"">+</p>","","","","","null","allTrialResponses","1500","1","2","img_art/7.jpg","-17","Very tactile, but looks grungy and somehow dirty.","Miranda,Monica,Catherine,Madison,Savannah,Kaitlin","This looks like a literal picture of the ground so I'm really not too sure about this one.,-42,320,20","It looks like bloody scabs on skin, I don't like it,-42,360,20","Looking through a microscope at the ground at a beach.,20,160,20","Is this a painting, really? Very compelling if so, the texture work is incredible.,15,60,20","More saturated color, even more interpretations to have.,44,200,20","I'm not too sure about this one,-10,60,20","Catherine","Looking through a microscope at the ground at a beach.,20,160,20","Miranda","This looks like a literal picture of the ground so I'm really not too sure about this one.,-42,320,20","Madison","Is this a painting, really? Very compelling if so, the texture work is incredible.,15,60,20","4"
"26038","","survey-text","60","394871","0.0-58.0-0.0","AAASQIW3J32OL","","","","{""Q0"":""Love that it's in between abstraction and figurative. Very sophisticated.""}","","","","","","","","","","","","","","","","","","","","","","",""
"2648.100000143051","","image-slider-response","61","397521","0.0-59.0","AAASQIW3J32OL","","","","","35","","","","","","","","","","","","","","","","","","","","","",""
"null","","image-button-response","62","402524","0.0-60.0","AAASQIW3J32OL","img_art/10.jpg","null","","","","","","","","","","","","","","","","","","","","","","","","",""
"6190","","image-button-response","63","408717","0.0-61.0","AAASQIW3J32OL","img_art/10.jpg","2","","","","","","","","","","","","","","","","","","","","","","","","",""
"6168","","image-button-response","64","414887","0.0-62.0-0.0","AAASQIW3J32OL","img_art/10.jpg","4","","","","","","","","","","","","","","","","","","","","","","","","",""
"4360","","image-button-response","65","419249","0.0-63.0-0.0","AAASQIW3J32OL","img_art/10.jpg","5","","","","","","","","","","","","","","","","","","","","","","","","",""
"null","","html-keyboard-response","66","420252","0.0-64.0","AAASQIW3J32OL","<p style=""font-size: 48px;"">+</p>","","","","","null","allTrialResponses","1000","1","3","img_art/10.jpg","35","Love that it's in between abstraction and figurative. Very sophisticated.","Miranda,Gabrielle,Catherine,Madison,Caroline,Dominique","It reminds me of how my dog has to run all over the place just to poop in one specific location.,-20,320,20","interesting portrayal of a violin?,10,160,20","Circle of life, with highs and lows, good and bad. You always weather the storm and come out on top.,40,160,20","In proper lighting I might enjoy this,11,60,20","This painting made me think of a guitar which made me think of music which envoked happy feelings.,28,100,20","A very conversational piece could be of many different ideas,38,400,20","Catherine","Circle of life, with highs and lows, good and bad. You always weather the storm and come out on top.,40,160,20","Caroline","This painting made me think of a guitar which made me think of music which envoked happy feelings.,28,100,20","Dominique","A very conversational piece could be of many different ideas,38,400,20","4"
"47035","","survey-text","67","467298","0.0-65.0-0.0","AAASQIW3J32OL","","","","{""Q0"":""Good intentions but lacks focus.""}","","","","","","","","","","","","","","","","","","","","","","",""
"3356.9000000953674","","image-slider-response","68","470657","0.0-66.0","AAASQIW3J32OL","","","","","-21","","","","","","","","","","","","","","","","","","","","","",""
"null","","image-button-response","69","475661","0.0-67.0","AAASQIW3J32OL","img_art/24.jpg","null","","","","","","","","","","","","","","","","","","","","","","","","",""
"4191","","image-button-response","70","479855","0.0-68.0","AAASQIW3J32OL","img_art/24.jpg","4","","","","","","","","","","","","","","","","","","","","","","","","",""
"1626","","image-button-response","71","481483","0.0-69.0-0.0","AAASQIW3J32OL","img_art/24.jpg","5","","","","","","","","","","","","","","","","","","","","","","","","",""
"2198","","image-button-response","72","483683","0.0-70.0-0.0","AAASQIW3J32OL","img_art/24.jpg","2","","","","","","","","","","","","","","","","","","","","","","","","",""
"null","","html-keyboard-response","73","485185","0.0-71.0","AAASQIW3J32OL","<p style=""font-size: 48px;"">+</p>","","","","","null","allTrialResponses","1500","1","4","img_art/24.jpg","-21","Good intentions but lacks focus.","Alexa,Paige,Catherine,Mikayla,Caroline,Dominique","I absolutely adore this painting. The colors, designs, everything. It's phenomenal,50,40,20","somewhat happy. I like the colors,38,60,20","Nature, Peace, connected.,50,160,20","Looks like a waterfall!,34,300,20","Waterfalls and spring and gives me a sense of renewal,34,100,20","Spending a day in nature,21,400,20","Caroline","Waterfalls and spring and gives me a sense of renewal,34,100,20","Dominique","Spending a day in nature,21,400,20","Catherine","Nature, Peace, connected.,50,160,20","4"
"24511","","survey-text","74","509703","0.0-72.0-0.0","AAASQIW3J32OL","","","","{""Q0"":""Busy and weary. I like the detailed work and the minimal use of color.""}","","","","","","","","","","","","","","","","","","","","","","",""
"3288.7000000476837","","image-slider-response","75","512993","0.0-73.0","AAASQIW3J32OL","","","","","15","","","","","","","","","","","","","","","","","","","","","",""
"null","","image-button-response","76","517995","0.0-74.0","AAASQIW3J32OL","img_art/15.jpg","null","","","","","","","","","","","","","","","","","","","","","","","","",""
"3376","","image-button-response","77","521373","0.0-75.0","AAASQIW3J32OL","img_art/15.jpg","4","","","","","","","","","","","","","","","","","","","","","","","","",""
"1441","","image-button-response","78","522815","0.0-76.0-0.0","AAASQIW3J32OL","img_art/15.jpg","3","","","","","","","","","","","","","","","","","","","","","","","","",""
"1737","","image-button-response","79","524553","0.0-77.0-0.0","AAASQIW3J32OL","img_art/15.jpg","2","","","","","","","","","","","","","","","","","","","","","","","","",""
"null","","html-keyboard-response","80","525056","0.0-78.0","AAASQIW3J32OL","<p style=""font-size: 48px;"">+</p>","","","","","null","allTrialResponses","500","1","5","img_art/15.jpg","15","Busy and weary. I like the detailed work and the minimal use of color.","Sara,Katelyn,Catherine,Brooke,Caroline,Dominique","I don't like the black dots,-19,160,20","Doesnt trigger much of a reaction overall,-2,100,20","ants on the ground playing with bubble gum. They may be thinking of how they can use it to build something,-30,160,20","This one reminds me of a postage stamp, but branches and leaves. Kind of fun.,15,60,20","Makes me think of a bush and flowers and spring and happy warm times,25,100,20","I like the colors and the different style This brings,7,400,20","Caroline","Makes me think of a bush and flowers and spring and happy warm times,25,100,20","Brooke","This one reminds me of a postage stamp, but branches and leaves. Kind of fun.,15,60,20","Catherine","ants on the ground playing with bubble gum. They may be thinking of how they can use it to build something,-30,160,20","4"
"5610","","survey-text","81","530685","0.0-79.0-0.0","AAASQIW3J32OL","","","","{""Q0"":""sky""}","","","","","","","","","","","","","","","","","","","","","","",""
"13960","","survey-text","82","544647","0.0-80.0-0.0","AAASQIW3J32OL","","","","{""Q0"":""Messy, dribbly, but I like the color.""}","","","","","","","","","","","","","","","","","","","","","","",""
"4986.5","","image-slider-response","83","549635","0.0-81.0","AAASQIW3J32OL","","","","","-5","","","","","","","","","","","","","","","","","","","","","",""
"null","","image-button-response","84","554638","0.0-82.0","AAASQIW3J32OL","img_art/3.jpg","null","","","","","","","","","","","","","","","","","","","","","","","","",""
"2137","","image-button-response","85","556779","0.0-83.0","AAASQIW3J32OL","img_art/3.jpg","4","","","","","","","","","","","","","","","","","","","","","","","","",""
"1295","","image-button-response","86","558075","0.0-84.0-0.0","AAASQIW3J32OL","img_art/3.jpg","5","","","","","","","","","","","","","","","","","","","","","","","","",""
"3914","","image-button-response","87","561991","0.0-85.0-0.0","AAASQIW3J32OL","img_art/3.jpg","0","","","","","","","","","","","","","","","","","","","","","","","","",""
"null","","html-keyboard-response","88","562494","0.0-86.0","AAASQIW3J32OL","<p style=""font-size: 48px;"">+</p>","","","","","null","allTrialResponses","500","1","6","img_art/3.jpg","-5","Messy, dribbly, but I like the color.","Cynthia,Alexis,Catherine,Brooke,Caroline,Danielle","This makes me feel vulnerable,-32,320,20","Just scribbles. Not a fan.,-40,100,20","Anger, like something a serial killer may paint.,-30,160,20","kid scribbled on the wall again,-35,60,20","The red makes me think of blood which makes me think of pain,-50,100,20","Looks like it was painted with blood, which I'm aware is an art style, but it just looks messy.,-20,340,20","Caroline","The red makes me think of blood which makes me think of pain,-50,100,20","Danielle","Looks like it was painted with blood, which I'm aware is an art style, but it just looks messy.,-20,340,20","Cynthia","This makes me feel vulnerable,-32,320,20","4"
"27374","","survey-text","89","589879","0.0-87.0-0.0","AAASQIW3J32OL","","","","{""Q0"":""Messy and dirty, but calming, strangely enough.""}","","","","","","","","","","","","","","","","","","","","","","",""
"4562.599999904633","","image-slider-response","90","594443","0.0-88.0","AAASQIW3J32OL","","","","","5","","","","","","","","","","","","","","","","","","","","","",""
"null","","image-button-response","91","599446","0.0-89.0","AAASQIW3J32OL","img_art/28.jpg","null","","","","","","","","","","","","","","","","","","","","","","","","",""
"1358","","image-button-response","92","600807","0.0-90.0","AAASQIW3J32OL","img_art/28.jpg","4","","","","","","","","","","","","","","","","","","","","","","","","",""
"10377","","image-button-response","93","611185","0.0-91.0-0.0","AAASQIW3J32OL","img_art/28.jpg","4","","","","","","","","","","","","","","","","","","","","","","","","",""
"1689","","image-button-response","94","617153","0.0-91.1-0.1","AAASQIW3J32OL","img_art/28.jpg","2","","","","","","","","","","","","","","","","","","","","","","","","",""
"3527","","image-button-response","95","620682","0.0-92.0-0.0","AAASQIW3J32OL","img_art/28.jpg","0","","","","","","","","","","","","","","","","","","","","","","","","",""
"null","","html-keyboard-response","96","621699","0.0-93.0","AAASQIW3J32OL","<p style=""font-size: 48px;"">+</p>","","","","","null","allTrialResponses","1000","1","7","img_art/28.jpg","5","Messy and dirty, but calming, strangely enough.","Cynthia,Kaitlyn,Kayla,Kelsey,Caroline,Danielle","nostalgic from a memory,11,320,20","Not sure what way this picture is suppose to be oriented,-5,80,20","Don't love it, don't hate it. It's just there.,1,180,20","this one is rather disturbing,-22,240,20","Colors are pleasing. Made me think of two people kneeling and talking. A curious feeling.,15,100,20","I enjoy the color themes, they seem gloomy and mysterious, and content in their own way, which I love.,20,340,20","Caroline","Colors are pleasing. Made me think of two people kneeling and talking. A curious feeling.,15,100,20","Kayla","Don't love it, don't hate it. It's just there.,1,180,20","Cynthia","nostalgic from a memory,11,320,20","6"
"19136","","survey-text","97","640845","0.0-94.0-0.0","AAASQIW3J32OL","","","","{""Q0"":""Hate the slippery feeling of it, and the muddied colors.""}","","","","","","","","","","","","","","","","","","","","","","",""
"3189.199999809265","","image-slider-response","98","644036","0.0-95.0","AAASQIW3J32OL","","","","","-34","","","","","","","","","","","","","","","","","","","","","",""
"null","","image-button-response","99","649038","0.0-96.0","AAASQIW3J32OL","img_art/30.jpg","null","","","","","","","","","","","","","","","","","","","","","","","","",""
"3225","","image-button-response","100","652267","0.0-97.0","AAASQIW3J32OL","img_art/30.jpg","4","","","","","","","","","","","","","","","","","","","","","","","","",""
"5088","","image-button-response","101","657357","0.0-98.0-0.0","AAASQIW3J32OL","img_art/30.jpg","5","","","","","","","","","","","","","","","","","","","","","","","","",""
"2499","","image-button-response","102","659857","0.0-99.0-0.0","AAASQIW3J32OL","img_art/30.jpg","3","","","","","","","","","","","","","","","","","","","","","","","","",""
"null","","html-keyboard-response","103","661359","0.0-100.0","AAASQIW3J32OL","<p style=""font-size: 48px;"">+</p>","","","","","null","allTrialResponses","1500","1","8","img_art/30.jpg","-34","Hate the slippery feeling of it, and the muddied colors.","Cynthia,Erika,Kayla,Cassidy,Caroline,Isabella","fun and imaginative,12,320,20","I can't parse any intention or emotion,-17,100,20","It's soothing- the page is full, but there aren't too many things happening.,23,180,20","I just don't see the point of this piece,-11,140,20","Fear. It looks like snakes in the picture,13,100,20","I like the back but the red lines in the front distress me,-7,280,20","Caroline","Fear. It looks like snakes in the picture,13,100,20","Isabella","I like the back but the red lines in the front distress me,-7,280,20","Cassidy","I just don't see the point of this piece,-11,140,20","6"
"28493","","survey-text","104","689865","0.0-101.0-0.0","AAASQIW3J32OL","","","","{""Q0"":""Very pretty but also subdued, detached. Like a memory.""}","","","","","","","","","","","","","","","","","","","","","","",""
"2962.600000143051","","image-slider-response","105","692829","0.0-102.0","AAASQIW3J32OL","","","","","26","","","","","","","","","","","","","","","","","","","","","",""
"null","","image-button-response","106","697833","0.0-103.0","AAASQIW3J32OL","img_art/26.jpg","null","","","","","","","","","","","","","","","","","","","","","","","","",""
"3566","","image-button-response","107","701401","0.0-104.0","AAASQIW3J32OL","img_art/26.jpg","5","","","","","","","","","","","","","","","","","","","","","","","","",""
"1256","","image-button-response","108","702659","0.0-105.0-0.0","AAASQIW3J32OL","img_art/26.jpg","4","","","","","","","","","","","","","","","","","","","","","","","","",""
"4809","","image-button-response","109","707469","0.0-106.0-0.0","AAASQIW3J32OL","img_art/26.jpg","2","","","","","","","","","","","","","","","","","","","","","","","","",""
"null","","html-keyboard-response","110","708971","0.0-107.0","AAASQIW3J32OL","<p style=""font-size: 48px;"">+</p>","","","","","null","allTrialResponses","1500","1","9","img_art/26.jpg","26","Very pretty but also subdued, detached. Like a memory.","Lauren,Destiny,Kimberly,Cassidy,Caroline,Isabella","The piece doesn't really invoke anything for me.,0,340,20","I really love pastels and they're just being dimmed down too much here,-3,360,20","It looks like I'm staring out of the window of a nice house, but the house is mine,20,260,20","the trees are cool,1,140,20","Calming and relaxing,28,100,20","Colors are full and reminds me of a messy room,-9,280,20","Isabella","Colors are full and reminds me of a messy room,-9,280,20","Caroline","Calming and relaxing,28,100,20","Kimberly","It looks like I'm staring out of the window of a nice house, but the house is mine,20,260,20","6"
"17381","","survey-text","111","726355","0.0-108.0-0.0","AAASQIW3J32OL","","","","{""Q0"":""The composition is beautiful, so harmonious!""}","","","","","","","","","","","","","","","","","","","","","","",""
"3232.600000143051","","image-slider-response","112","729589","0.0-109.0","AAASQIW3J32OL","","","","","27","","","","","","","","","","","","","","","","","","","","","",""
"null","","image-button-response","113","734592","0.0-110.0","AAASQIW3J32OL","img_art/14.jpg","null","","","","","","","","","","","","","","","","","","","","","","","","",""
"1383","","image-button-response","114","735977","0.0-111.0","AAASQIW3J32OL","img_art/14.jpg","4","","","","","","","","","","","","","","","","","","","","","","","","",""
"1613","","image-button-response","115","737591","0.0-112.0-0.0","AAASQIW3J32OL","img_art/14.jpg","3","","","","","","","","","","","","","","","","","","","","","","","","",""
"3899","","image-button-response","116","741491","0.0-113.0-0.0","AAASQIW3J32OL","img_art/14.jpg","5","","","","","","","","","","","","","","","","","","","","","","","","",""
"null","","html-keyboard-response","117","742993","0.0-114.0","AAASQIW3J32OL","<p style=""font-size: 48px;"">+</p>","","","","","null","allTrialResponses","1500","1","10","img_art/14.jpg","27","The composition is beautiful, so harmonious!","Kylie,Haley,Kimberly,Alyssa,Caroline,Isabella","Confusion or an explosion,40,300,20","I like the colors in the background, but not the bottom/center. It almost looks sloppy.,-20,220,20","In some ways it looks natural, but I'm just not feeling it,0,260,20","Beautiful tree,the use of water colors makes it soothing to look at,37,160,20","Makes me think of trees and spring. A good feeling,26,100,20","Feels like a camp fire among friends,22,280,20","Caroline","Makes me think of trees and spring. A good feeling,26,100,20","Alyssa","Beautiful tree,the use of water colors makes it soothing to look at,37,160,20","Isabella","Feels like a camp fire among friends,22,280,20","6"
"5651","","survey-text","118","748657","0.0-115.0-0.0","AAASQIW3J32OL","","","","{""Q0"":""our""}","","","","","","","","","","","","","","","","","","","","","","",""
"15975","","survey-text","119","764633","0.0-116.0-0.0","AAASQIW3J32OL","","","","{""Q0"":""Strong and lonely. A bit disturbing for me.""}","","","","","","","","","","","","","","","","","","","","","","",""
"2810.9000000953674","","image-slider-response","120","767445","0.0-117.0","AAASQIW3J32OL","","","","","-14","","","","","","","","","","","","","","","","","","","","","",""
"null","","image-button-response","121","772449","0.0-118.0","AAASQIW3J32OL","img_art/20.jpg","null","","","","","","","","","","","","","","","","","","","","","","","","",""
"1024","","image-button-response","122","773475","0.0-119.0","AAASQIW3J32OL","img_art/20.jpg","5","","","","","","","","","","","","","","","","","","","","","","","","",""
"1213","","image-button-response","123","774689","0.0-120.0-0.0","AAASQIW3J32OL","img_art/20.jpg","4","","","","","","","","","","","","","","","","","","","","","","","","",""
"2708","","image-button-response","124","777399","0.0-121.0-0.0","AAASQIW3J32OL","img_art/20.jpg","0","","","","","","","","","","","","","","","","","","","","","","","","",""
"null","","html-keyboard-response","125","777902","0.0-122.0","AAASQIW3J32OL","<p style=""font-size: 48px;"">+</p>","","","","","null","allTrialResponses","500","1","11","img_art/20.jpg","-14","Strong and lonely. A bit disturbing for me.","Angelica,Makayla,Sierra,Alyssa,Caroline,Isabella","It's too brash and loud and ugly.,-21,280,20","Little picturesque town that I would like to visit,19,80,20","i like the rounded edges,18,260,20","Its interesting.It almost seems like a painting of a landscape,14,160,20","Makes me feel weary,21,100,20","Feels like a town destroyed,-19,280,20","Isabella","Feels like a town destroyed,-19,280,20","Caroline","Makes me feel weary,21,100,20","Angelica","It's too brash and loud and ugly.,-21,280,20","6"
"19325","","survey-text","126","797236","0.0-123.0-0.0","AAASQIW3J32OL","","","","{""Q0"":""Messy and weak. No control. Don't like it.""}","","","","","","","","","","","","","","","","","","","","","","",""
"3111","","image-slider-response","127","800348","0.0-124.0","AAASQIW3J32OL","","","","","-36","","","","","","","","","","","","","","","","","","","","","",""
"null","","image-button-response","128","805351","0.0-125.0","AAASQIW3J32OL","img_art/9.jpg","null","","","","","","","","","","","","","","","","","","","","","","","","",""
"2346","","image-button-response","129","807700","0.0-126.0","AAASQIW3J32OL","img_art/9.jpg","2","","","","","","","","","","","","","","","","","","","","","","","","",""
"1226","","image-button-response","130","808928","0.0-127.0-0.0","AAASQIW3J32OL","img_art/9.jpg","0","","","","","","","","","","","","","","","","","","","","","","","","",""
"8538","","image-button-response","131","817468","0.0-128.0-0.0","AAASQIW3J32OL","img_art/9.jpg","3","","","","","","","","","","","","","","","","","","","","","","","","",""
"null","","html-keyboard-response","132","818470","0.0-129.0","AAASQIW3J32OL","<p style=""font-size: 48px;"">+</p>","","","","","null","allTrialResponses","1000","1","12","img_art/9.jpg","-36","Messy and weak. No control. Don't like it.","Angelica,Madeline,Maria,Ashley,Caroline,Isabella","The colors and image is ugly.,-7,280,20","I really like the colors and details.,8,40,20","while I don't dispute the art, it feels childish,-20,120,20","Similar to the tohers, but not as clear.,11,320,20","Stirs up emotions of watching someone sleep which is relaxing,11,100,20","Angry beast mouth,-37,280,20","Maria","while I don't dispute the art, it feels childish,-20,120,20","Angelica","The colors and image is ugly.,-7,280,20","Ashley","Similar to the tohers, but not as clear.,11,320,20","6"
"23969","","survey-text","133","842446","0.0-130.0-0.0","AAASQIW3J32OL","","","","{""Q0"":""Reminds me of autumn, bright and sad at the same time.""}","","","","","","","","","","","","","","","","","","","","","","",""
"4870.200000047684","","image-slider-response","134","847317","0.0-131.0","AAASQIW3J32OL","","","","","24","","","","","","","","","","","","","","","","","","","","","",""
"null","","image-button-response","135","852319","0.0-132.0","AAASQIW3J32OL","img_art/27.jpg","null","","","","","","","","","","","","","","","","","","","","","","","","",""
"23159","","image-button-response","136","875479","0.0-133.0","AAASQIW3J32OL","img_art/27.jpg","4","","","","","","","","","","","","","","","","","","","","","","","","",""
"1519","","image-button-response","137","876999","0.0-134.0-0.0","AAASQIW3J32OL","img_art/27.jpg","3","","","","","","","","","","","","","","","","","","","","","","","","",""
"3729","","image-button-response","138","880729","0.0-135.0-0.0","AAASQIW3J32OL","img_art/27.jpg","2","","","","","","","","","","","","","","","","","","","","","","","","",""
"null","","html-keyboard-response","139","881732","0.0-136.0","AAASQIW3J32OL","<p style=""font-size: 48px;"">+</p>","","","","","null","allTrialResponses","1000","1","13","img_art/27.jpg","24","Reminds me of autumn, bright and sad at the same time.","Angelica,Julia,Maria,Ashley,Brianna,Diana","This looks like a poor copy of Cy Twombly's style.,-3,280,20","Colors could be more pleasing, but I really like the thinner lines superimposed over the background,25,40,20","I generally enjoy the style, but I'm finding the green lines grating,-9,120,20","Lots of activity, layers, imagination at work here.,29,320,20","This painting is very unique,21,20,20","I don't care for the green scribbles; not sure what they are. But I adore the colors in the background.,24,380,20","Brianna","This painting is very unique,21,20,20","Ashley","Lots of activity, layers, imagination at work here.,29,320,20","Maria","I generally enjoy the style, but I'm finding the green lines grating,-9,120,20","6"
"28885","","survey-text","140","910629","0.0-137.0-0.0","AAASQIW3J32OL","","","","{""Q0"":""Very organized and controlled. Too pale for me.""}","","","","","","","","","","","","","","","","","","","","","","",""
"3774.2999999523163","","image-slider-response","141","914405","0.0-138.0","AAASQIW3J32OL","","","","","6","","","","","","","","","","","","","","","","","","","","","",""
"null","","image-button-response","142","919407","0.0-139.0","AAASQIW3J32OL","img_art/17.jpg","null","","","","","","","","","","","","","","","","","","","","","","","","",""
"3839","","image-button-response","143","923248","0.0-140.0","AAASQIW3J32OL","img_art/17.jpg","3","","","","","","","","","","","","","","","","","","","","","","","","",""
"2362","","image-button-response","144","925611","0.0-141.0-0.0","AAASQIW3J32OL","img_art/17.jpg","5","","","","","","","","","","","","","","","","","","","","","","","","",""
"5883","","image-button-response","145","931495","0.0-142.0-0.0","AAASQIW3J32OL","img_art/17.jpg","1","","","","","","","","","","","","","","","","","","","","","","","","",""
"null","","html-keyboard-response","146","932996","0.0-143.0","AAASQIW3J32OL","<p style=""font-size: 48px;"">+</p>","","","","","null","allTrialResponses","1500","1","14","img_art/17.jpg","6","Very organized and controlled. Too pale for me.","Autumn,Michelle,Maria,Ashley,Brianna,Sydney","Looks awesome .,33,340,20","I can tell there are tress and maybe some doors but I'm not a fan of the style,-2,280,20","feel close to nature,30,120,20","taste the rainbow, feel the flavor.,23,320,20","It's nice and realistic looking.,12,20,20","This picture is calming to me, and I love the colors.,45,320,20","Ashley","taste the rainbow, feel the flavor.,23,320,20","Sydney","This picture is calming to me, and I love the colors.,45,320,20","Michelle","I can tell there are tress and maybe some doors but I'm not a fan of the style,-2,280,20","6"
"17061","","survey-text","147","950065","0.0-144.0-0.0","AAASQIW3J32OL","","","","{""Q0"":""Splatters seem sloppy to me. No effort or vision.""}","","","","","","","","","","","","","","","","","","","","","","",""
"2932.2999999523163","","image-slider-response","148","952999","0.0-145.0","AAASQIW3J32OL","","","","","-43","","","","","","","","","","","","","","","","","","","","","",""
"null","","image-button-response","149","958009","0.0-146.0","AAASQIW3J32OL","img_art/13.jpg","null","","","","","","","","","","","","","","","","","","","","","","","","",""
"6626","","image-button-response","150","964637","0.0-147.0","AAASQIW3J32OL","img_art/13.jpg","2","","","","","","","","","","","","","","","","","","","","","","","","",""
"6044","","image-button-response","151","970684","0.0-148.0-0.0","AAASQIW3J32OL","img_art/13.jpg","4","","","","","","","","","","","","","","","","","","","","","","","","",""
"10584","","image-button-response","152","981270","0.0-149.0-0.0","AAASQIW3J32OL","img_art/13.jpg","0","","","","","","","","","","","","","","","","","","","","","","","","",""
"null","","html-keyboard-response","153","981772","0.0-150.0","AAASQIW3J32OL","<p style=""font-size: 48px;"">+</p>","","","","","null","allTrialResponses","500","1","15","img_art/13.jpg","-43","Splatters seem sloppy to me. No effort or vision.","Crystal,Michelle,Mary,Ashley,Amy,Sydney","Reminiscent of Jackson Pollock and gives me a feeling of chaotic satisfaction,50,300,20","I like the blue colors and the symmetry and paint splatters but I would not hang it in my house,8,280,20","I do not care for the colors in this art. it doesnt go well at all.,-15,180,20","AWESOME! Pollack but with more direction.,32,320,20","I recognize the beauty of this but FOR ME its large degree of abstraction diminishes my emotional interaction.,-10,220,20","I love the style of this piece, but the color choice could've been more eye catching or calming.,40,320,20","Mary","I do not care for the colors in this art. it doesnt go well at all.,-15,180,20","Amy","I recognize the beauty of this but FOR ME its large degree of abstraction diminishes my emotional interaction.,-10,220,20","Crystal","Reminiscent of Jackson Pollock and gives me a feeling of chaotic satisfaction,50,300,20","6"
"5256","","survey-text","154","987039","0.0-151.0-0.0","AAASQIW3J32OL","","","","{""Q0"":""course""}","","","","","","","","","","","","","","","","","","","","","","",""
"27903","","survey-text","155","1014944","0.0-152.0-0.0","AAASQIW3J32OL","","","","{""Q0"":""Love the calm and peace, and the vibrant colors.""}","","","","","","","","","","","","","","","","","","","","","","",""
"2732.7000000476837","","image-slider-response","156","1017678","0.0-153.0","AAASQIW3J32OL","","","","","32","","","","","","","","","","","","","","","","","","","","","",""
"null","","image-button-response","157","1022681","0.0-154.0","AAASQIW3J32OL","img_art/6.jpg","null","","","","","","","","","","","","","","","","","","","","","","","","",""
"1821","","image-button-response","158","1024504","0.0-155.0","AAASQIW3J32OL","img_art/6.jpg","2","","","","","","","","","","","","","","","","","","","","","","","","",""
"5230","","image-button-response","159","1029735","0.0-156.0-0.0","AAASQIW3J32OL","img_art/6.jpg","3","","","","","","","","","","","","","","","","","","","","","","","","",""
"1824","","image-button-response","160","1031561","0.0-157.0-0.0","AAASQIW3J32OL","img_art/6.jpg","0","","","","","","","","","","","","","","","","","","","","","","","","",""
"null","","html-keyboard-response","161","1032563","0.0-158.0","AAASQIW3J32OL","<p style=""font-size: 48px;"">+</p>","","","","","null","allTrialResponses","1000","1","16","img_art/6.jpg","32","Love the calm and peace, and the vibrant colors.","Crystal,Heather,Mary,Elizabeth,Amy,Amanda","Gives me a feeling of solitude and nothingness,11,300,20","it looks like a stick holding a wig on a cliff,21,260,20","This piece has some emotion of isolation. I like it.,6,180,20","Love the simplicity of it,41,20,20","Lack of context makes this painting 1-d for me. The headless bird is mysterious and indecipherable.,-10,220,20","Makes me feel lonely,-22,180,20","Mary","This piece has some emotion of isolation. I like it.,6,180,20","Elizabeth","Love the simplicity of it,41,20,20","Crystal","Gives me a feeling of solitude and nothingness,11,300,20","6"
"15349","","survey-text","162","1047918","0.0-159.0-0.0","AAASQIW3J32OL","","","","{""Q0"":""Too geometric, gives me a sense of imprisonment.""}","","","","","","","","","","","","","","","","","","","","","","",""
"2869.5","","image-slider-response","163","1050789","0.0-160.0","AAASQIW3J32OL","","","","","-31","","","","","","","","","","","","","","","","","","","","","",""
"null","","image-button-response","164","1055792","0.0-161.0","AAASQIW3J32OL","img_art/12.jpg","null","","","","","","","","","","","","","","","","","","","","","","","","",""
"4742","","image-button-response","165","1060535","0.0-162.0","AAASQIW3J32OL","img_art/12.jpg","4","","","","","","","","","","","","","","","","","","","","","","","","",""
"1659","","image-button-response","166","1062195","0.0-163.0-0.0","AAASQIW3J32OL","img_art/12.jpg","1","","","","","","","","","","","","","","","","","","","","","","","","",""
"7567","","image-button-response","167","1069764","0.0-164.0-0.0","AAASQIW3J32OL","img_art/12.jpg","5","","","","","","","","","","","","","","","","","","","","","","","","",""
"null","","html-keyboard-response","168","1071266","0.0-165.0","AAASQIW3J32OL","<p style=""font-size: 48px;"">+</p>","","","","","null","allTrialResponses","1500","1","17","img_art/12.jpg","-31","Too geometric, gives me a sense of imprisonment.","Crystal,Morgan,Mary,Elizabeth,Olivia,Shannon","I like the sectioned nature of the squares and curves. Not my favorite but still a good one.,27,300,20","Ugly color combinations, no focus.,-25,380,20","The colors are ok. The piece reminds me of the 90s era, so I kinda like it!,-4,180,20","Explosion of texture,31,20,20","feels cluttered,-11,40,20","This image doesn't have anything going on. The top half is really ugly, I kind of like the bottom a little.,-20,220,20","Olivia","feels cluttered,-11,40,20","Morgan","Ugly color combinations, no focus.,-25,380,20","Shannon","This image doesn't have anything going on. The top half is really ugly, I kind of like the bottom a little.,-20,220,20","6"
"15446","","survey-text","169","1086725","0.0-166.0-0.0","AAASQIW3J32OL","","","","{""Q0"":""Fluid and emotional, sensitive. Love it.""}","","","","","","","","","","","","","","","","","","","","","","",""
"2540.7000000476837","","image-slider-response","170","1089267","0.0-167.0","AAASQIW3J32OL","","","","","30","","","","","","","","","","","","","","","","","","","","","",""
"null","","image-button-response","171","1094270","0.0-168.0","AAASQIW3J32OL","img_art/21.jpg","null","","","","","","","","","","","","","","","","","","","","","","","","",""
"4733","","image-button-response","172","1099006","0.0-169.0","AAASQIW3J32OL","img_art/21.jpg","3","","","","","","","","","","","","","","","","","","","","","","","","",""
"2314","","image-button-response","173","1101322","0.0-170.0-0.0","AAASQIW3J32OL","img_art/21.jpg","4","","","","","","","","","","","","","","","","","","","","","","","","",""
"2562","","image-button-response","174","1103886","0.0-171.0-0.0","AAASQIW3J32OL","img_art/21.jpg","2","","","","","","","","","","","","","","","","","","","","","","","","",""
"null","","html-keyboard-response","175","1104388","0.0-172.0","AAASQIW3J32OL","<p style=""font-size: 48px;"">+</p>","","","","","null","allTrialResponses","500","1","18","img_art/21.jpg","30","Fluid and emotional, sensitive. Love it.","Emily,Morgan,Taylor,Katherine,Olivia,Shannon","What's the point?,-30,40,20","Survivable storm on the open sea.,27,380,20","I love the contrasting tones between the two sides,36,340,20","I can't explain why this struck me as absolutely gorgeous. Like the clashing between 2 different worlds,43,120,20","feels like a wave coming into light,9,40,20","I like the sky a little bit the way the colors look for the sky, the cliff side looks a little weird though.,10,220,20","Katherine","I can't explain why this struck me as absolutely gorgeous. Like the clashing between 2 different worlds,43,120,20","Olivia","feels like a wave coming into light,9,40,20","Taylor","I love the contrasting tones between the two sides,36,340,20","6"
"26792","","survey-text","176","1131185","0.0-173.0-0.0","AAASQIW3J32OL","","","","{""Q0"":""So rigid and forceful. But I love the angle though.""}","","","","","","","","","","","","","","","","","","","","","","",""
"3294.7999999523163","","image-slider-response","177","1134481","0.0-174.0","AAASQIW3J32OL","","","","","-11","","","","","","","","","","","","","","","","","","","","","",""
"null","","image-button-response","178","1139483","0.0-175.0","AAASQIW3J32OL","img_art/8.jpg","null","","","","","","","","","","","","","","","","","","","","","","","","",""
"2157","","image-button-response","179","1141642","0.0-176.0","AAASQIW3J32OL","img_art/8.jpg","4","","","","","","","","","","","","","","","","","","","","","","","","",""
"4407","","image-button-response","180","1146050","0.0-177.0-0.0","AAASQIW3J32OL","img_art/8.jpg","1","","","","","","","","","","","","","","","","","","","","","","","","",""
"6290","","image-button-response","181","1152342","0.0-178.0-0.0","AAASQIW3J32OL","img_art/8.jpg","5","","","","","","","","","","","","","","","","","","","","","","","","",""
"null","","html-keyboard-response","182","1153344","0.0-179.0","AAASQIW3J32OL","<p style=""font-size: 48px;"">+</p>","","","","","null","allTrialResponses","1000","1","19","img_art/8.jpg","-11","So rigid and forceful. But I love the angle though.","Leslie,Caitlin,Taylor,Katherine,Olivia,Leah","The stylized faces remind me of German expressionism in a very good way.,40,380,20","And I'll huff and I'll puff and I'll blow your town down!!,20,80,20","Looks like it would be an interesting place to live,35,340,20","This is really cool, I love the fragments of faces,38,120,20","being watched over,17,40,20","Nice formats, I just don't like it much,-16,360,20","Olivia","being watched over,17,40,20","Caitlin","And I'll huff and I'll puff and I'll blow your town down!!,20,80,20","Leah","Nice formats, I just don't like it much,-16,360,20","6"
"20978","","survey-text","183","1174338","0.0-180.0-0.0","AAASQIW3J32OL","","","","{""Q0"":""Too splotchy for me, and I don't see the point.""}","","","","","","","","","","","","","","","","","","","","","","",""
"3392.399999856949","","image-slider-response","184","1177732","0.0-181.0","AAASQIW3J32OL","","","","","-33","","","","","","","","","","","","","","","","","","","","","",""
"null","","image-button-response","185","1182734","0.0-182.0","AAASQIW3J32OL","img_art/2.jpg","null","","","","","","","","","","","","","","","","","","","","","","","","",""
"4474","","image-button-response","186","1187210","0.0-183.0","AAASQIW3J32OL","img_art/2.jpg","5","","","","","","","","","","","","","","","","","","","","","","","","",""
"1526","","image-button-response","187","1188738","0.0-184.0-0.0","AAASQIW3J32OL","img_art/2.jpg","0","","","","","","","","","","","","","","","","","","","","","","","","",""
"3874","","image-button-response","188","1192614","0.0-185.0-0.0","AAASQIW3J32OL","img_art/2.jpg","1","","","","","","","","","","","","","","","","","","","","","","","","",""
"null","","html-keyboard-response","189","1193616","0.0-186.0","AAASQIW3J32OL","<p style=""font-size: 48px;"">+</p>","","","","","null","allTrialResponses","1000","1","20","img_art/2.jpg","-33","Too splotchy for me, and I don't see the point.","Alicia,Caitlin,Briana,Hannah,Olivia,Leah","retro, amateurish, not a fan of the colors together.,-10,120,20","Have now advanced from kindergarten to the first grade.,-5,80,20","Childish smiley face,-19,400,20","Looks like child's art.,-19,240,20","i liked the bright colors,13,40,20","Kind of looks upside down, I need a focal point,-29,360,20","Leah","Kind of looks upside down, I need a focal point,-29,360,20","Alicia","retro, amateurish, not a fan of the colors together.,-10,120,20","Caitlin","Have now advanced from kindergarten to the first grade.,-5,80,20","6"
"4569","","survey-text","190","1198211","0.0-187.0-0.0","AAASQIW3J32OL","","","","{""Q0"":""we""}","","","","","","","","","","","","","","","","","","","","","","",""
"35966","","survey-text","191","1234178","0.0-188.0-0.0","AAASQIW3J32OL","","","","{""Q0"":""Childish and simplistic. The color is lovely but badly used.""}","","","","","","","","","","","","","","","","","","","","","","",""
"2592.5999999046326","","image-slider-response","192","1236772","0.0-189.0","AAASQIW3J32OL","","","","","-42","","","","","","","","","","","","","","","","","","","","","",""
"null","","image-button-response","193","1241774","0.0-190.0","AAASQIW3J32OL","img_art/25.jpg","null","","","","","","","","","","","","","","","","","","","","","","","","",""
"6045","","image-button-response","194","1247820","0.0-191.0","AAASQIW3J32OL","img_art/25.jpg","0","","","","","","","","","","","","","","","","","","","","","","","","",""
"1645","","image-button-response","195","1249466","0.0-192.0-0.0","AAASQIW3J32OL","img_art/25.jpg","1","","","","","","","","","","","","","","","","","","","","","","","","",""
"5333","","image-button-response","196","1254800","0.0-193.0-0.0","AAASQIW3J32OL","img_art/25.jpg","2","","","","","","","","","","","","","","","","","","","","","","","","",""
"null","","html-keyboard-response","197","1255803","0.0-194.0","AAASQIW3J32OL","<p style=""font-size: 48px;"">+</p>","","","","","null","allTrialResponses","1000","1","21","img_art/25.jpg","-42","Childish and simplistic. The color is lovely but badly used.","Alicia,Caitlin,Allison,Michaela,Rebecca,Leah","death. childish nightmare.,-29,120,20","Wish I was that thin.,-5,80,20","high contrast draws attention to the image, but I'm not sure what I'm seeing,-5,140,20","It looks like people worshipping a statue,33,260,20","I'm sorry but I don't uderstand this,-20,100,20","I really like it, very simple, very tribal,38,360,20","Alicia","death. childish nightmare.,-29,120,20","Caitlin","Wish I was that thin.,-5,80,20","Allison","high contrast draws attention to the image, but I'm not sure what I'm seeing,-5,140,20","6"
"31987","","survey-text","198","1287804","0.0-195.0-0.0","AAASQIW3J32OL","","","","{""Q0"":""Like being in bloody water looking up to the surface. A little overwhelming.""}","","","","","","","","","","","","","","","","","","","","","","",""
"3502.800000190735","","image-slider-response","199","1291308","0.0-196.0","AAASQIW3J32OL","","","","","-8","","","","","","","","","","","","","","","","","","","","","",""
"null","","image-button-response","200","1296310","0.0-197.0","AAASQIW3J32OL","img_art/1.jpg","null","","","","","","","","","","","","","","","","","","","","","","","","",""
"2725","","image-button-response","201","1299038","0.0-198.0","AAASQIW3J32OL","img_art/1.jpg","2","","","","","","","","","","","","","","","","","","","","","","","","",""
"1758","","image-button-response","202","1300798","0.0-199.0-0.0","AAASQIW3J32OL","img_art/1.jpg","0","","","","","","","","","","","","","","","","","","","","","","","","",""
"2430","","image-button-response","203","1303230","0.0-200.0-0.0","AAASQIW3J32OL","img_art/1.jpg","1","","","","","","","","","","","","","","","","","","","","","","","","",""
"null","","html-keyboard-response","204","1303731","0.0-201.0","AAASQIW3J32OL","<p style=""font-size: 48px;"">+</p>","","","","","null","allTrialResponses","500","1","22","img_art/1.jpg","-8","Like being in bloody water looking up to the surface. A little overwhelming.","Alicia,Caitlin,Allison,Melissa,Alexandria,Victoria","just colors mixed together. not interesting.,5,120,20","Deja vu. Haven't I seen this one before? Not bad for those living in the backwoods.,10,80,20","Messy mix of primary colors.,-10,140,20","muddy and uninteresting,-16,240,20","it is very colorful and makes me happy,44,80,20","love how the colors blend,42,400,20","Allison","Messy mix of primary colors.,-10,140,20","Alicia","just colors mixed together. not interesting.,5,120,20","Caitlin","Deja vu. Haven't I seen this one before? Not bad for those living in the backwoods.,10,80,20","6"
"19796","","survey-text","205","1323536","0.0-202.0-0.0","AAASQIW3J32OL","","","","{""Q0"":""Muddy colors and flat composition. Not great.""}","","","","","","","","","","","","","","","","","","","","","","",""
"2152.899999856949","","image-slider-response","206","1325690","0.0-203.0","AAASQIW3J32OL","","","","","-37","","","","","","","","","","","","","","","","","","","","","",""
"null","","image-button-response","207","1330695","0.0-204.0","AAASQIW3J32OL","img_art/19.jpg","null","","","","","","","","","","","","","","","","","","","","","","","","",""
"3282","","image-button-response","208","1333982","0.0-205.0","AAASQIW3J32OL","img_art/19.jpg","1","","","","","","","","","","","","","","","","","","","","","","","","",""
"2554","","image-button-response","209","1336538","0.0-206.0-0.0","AAASQIW3J32OL","img_art/19.jpg","2","","","","","","","","","","","","","","","","","","","","","","","","",""
"6026","","image-button-response","210","1342566","0.0-207.0-0.0","AAASQIW3J32OL","img_art/19.jpg","4","","","","","","","","","","","","","","","","","","","","","","","","",""
"null","","html-keyboard-response","211","1344068","0.0-208.0","AAASQIW3J32OL","<p style=""font-size: 48px;"">+</p>","","","","","null","allTrialResponses","1500","1","23","img_art/19.jpg","-37","Muddy colors and flat composition. Not great.","Alicia,Caitlin,Allison,Angela,Shelby,Cassandra","calming, like the drips,25,120,20","Looks like a homeless man and this painting should be too.,-5,80,20","Messy mix of colors.,-5,140,20","I like the colors but the scene itself feels too jumbled and cluttered,9,260,20","Something weird is going on in this painting,-20,240,20","Nuetral...can't think of anything to say,4,120,20","Caitlin","Looks like a homeless man and this painting should be too.,-5,80,20","Allison","Messy mix of colors.,-5,140,20","Shelby","Something weird is going on in this painting,-20,240,20","6"
"16650","","survey-text","212","1360732","0.0-209.0-0.0","AAASQIW3J32OL","","","","{""Q0"":""Elegant and sad. Like an organized mess.""}","","","","","","","","","","","","","","","","","","","","","","",""
"3116.699999809265","","image-slider-response","213","1363850","0.0-210.0","AAASQIW3J32OL","","","","","7","","","","","","","","","","","","","","","","","","","","","",""
"null","","image-button-response","214","1368853","0.0-211.0","AAASQIW3J32OL","img_art/18.jpg","null","","","","","","","","","","","","","","","","","","","","","","","","",""
"3635","","image-button-response","215","1372492","0.0-212.0","AAASQIW3J32OL","img_art/18.jpg","4","","","","","","","","","","","","","","","","","","","","","","","","",""
"2484","","image-button-response","216","1374978","0.0-213.0-0.0","AAASQIW3J32OL","img_art/18.jpg","5","","","","","","","","","","","","","","","","","","","","","","","","",""
"4182","","image-button-response","217","1379162","0.0-214.0-0.0","AAASQIW3J32OL","img_art/18.jpg","1","","","","","","","","","","","","","","","","","","","","","","","","",""
"null","","html-keyboard-response","218","1379664","0.0-215.0","AAASQIW3J32OL","<p style=""font-size: 48px;"">+</p>","","","","","null","allTrialResponses","500","1","24","img_art/18.jpg","7","Elegant and sad. Like an organized mess.","Jordan,Caitlin,Allison,Chelsea,Shelby,Stephanie","Oh heck yes! I see two warriors riding down from valhalla, awesome painting,50,20,20","Bad guys are after the good guy.,-10,80,20","Colors are okay. Reminds me of cavalry.,10,140,20","I like the detail but I wouldn't hang this up on my wall.,14,180,20","This gives a very ominous feeling,-30,240,20","It made me think of a car crash,-39,300,20","Shelby","This gives a very ominous feeling,-30,240,20","Stephanie","It made me think of a car crash,-39,300,20","Caitlin","Bad guys are after the good guy.,-10,80,20","6"
"25371","","survey-text","219","1405044","0.0-216.0-0.0","AAASQIW3J32OL","","","","{""Q0"":""Messy and pointless. Oh and ugly too.""}","","","","","","","","","","","","","","","","","","","","","","",""
"2746.899999856949","","image-slider-response","220","1407792","0.0-217.0","AAASQIW3J32OL","","","","","-45","","","","","","","","","","","","","","","","","","","","","",""
"null","","image-button-response","221","1412794","0.0-218.0","AAASQIW3J32OL","img_art/4.jpg","null","","","","","","","","","","","","","","","","","","","","","","","","",""
"4540","","image-button-response","222","1417337","0.0-219.0","AAASQIW3J32OL","img_art/4.jpg","2","","","","","","","","","","","","","","","","","","","","","","","","",""
"3510","","image-button-response","223","1420848","0.0-220.0-0.0","AAASQIW3J32OL","img_art/4.jpg","3","","","","","","","","","","","","","","","","","","","","","","","","",""
"1921","","image-button-response","224","1422771","0.0-221.0-0.0","AAASQIW3J32OL","img_art/4.jpg","1","","","","","","","","","","","","","","","","","","","","","","","","",""
"null","","html-keyboard-response","225","1423772","0.0-222.0","AAASQIW3J32OL","<p style=""font-size: 48px;"">+</p>","","","","","null","allTrialResponses","1000","1","25","img_art/4.jpg","-45","Messy and pointless. Oh and ugly too.","Kathryn,Caitlin,Sophia,Margaret,Shelby,Stephanie","I feel kind of guilty looking at this, like I'm receiving a reward I don't I deserve.,-10,140,20","They give out trophies now for fighting with brass knuckles?,-20,80,20","This looks like what happens when someone steps on a mustard packet.,-7,280,20","doesn't do anything for me,-4,100,20","The colors feel a bit off to me,-10,240,20","It looks like a hand someone scribbled over,-30,300,20","Sophia","This looks like what happens when someone steps on a mustard packet.,-7,280,20","Margaret","doesn't do anything for me,-4,100,20","Caitlin","They give out trophies now for fighting with brass knuckles?,-20,80,20","6"
"5400","","survey-text","226","1429194","0.0-223.0-0.0","AAASQIW3J32OL","","","","{""Q0"":""table""}","","","","","","","","","","","","","","","","","","","","","","",""
"28971","","survey-text","227","1458167","0.0-224.0-0.0","AAASQIW3J32OL","","","","{""Q0"":""I suppose it's angry but just looks amateurish to me.""}","","","","","","","","","","","","","","","","","","","","","","",""
"2399.2000000476837","","image-slider-response","228","1460568","0.0-225.0","AAASQIW3J32OL","","","","","-42","","","","","","","","","","","","","","","","","","","","","",""
"null","","image-button-response","229","1465570","0.0-226.0","AAASQIW3J32OL","img_art/29.jpg","null","","","","","","","","","","","","","","","","","","","","","","","","",""
"1197","","image-button-response","230","1466768","0.0-227.0","AAASQIW3J32OL","img_art/29.jpg","1","","","","","","","","","","","","","","","","","","","","","","","","",""
"2453","","image-button-response","231","1469223","0.0-228.0-0.0","AAASQIW3J32OL","img_art/29.jpg","3","","","","","","","","","","","","","","","","","","","","","","","","",""
"2886","","image-button-response","232","1472111","0.0-229.0-0.0","AAASQIW3J32OL","img_art/29.jpg","0","","","","","","","","","","","","","","","","","","","","","","","","",""
"null","","html-keyboard-response","233","1473113","0.0-230.0","AAASQIW3J32OL","<p style=""font-size: 48px;"">+</p>","","","","","null","allTrialResponses","1000","1","26","img_art/29.jpg","-42","I suppose it's angry but just looks amateurish to me.","Kaylee,Caitlin,Sophia,Margaret,Jasmine,Jennifer","it looks like a prison,-33,200,20","I would give up and give it a red X too.,-5,80,20","It's creative. It's just not my thing.,-32,280,20","this does nothing for me. hate the colors. hate the design,-50,100,20","I like the usage of blacks and greys in this,8,340,20","Very interesting composition,41,380,20","Caitlin","I would give up and give it a red X too.,-5,80,20","Margaret","this does nothing for me. hate the colors. hate the design,-50,100,20","Kaylee","it looks like a prison,-33,200,20","6"
"39690","","survey-text","234","1512824","0.0-231.0-0.0","AAASQIW3J32OL","","","","{""Q0"":""Beautiful colors muddled until they turn into a mess. No focus point.""}","","","","","","","","","","","","","","","","","","","","","","",""
"2692.699999809265","","image-slider-response","235","1515518","0.0-232.0","AAASQIW3J32OL","","","","","-20","","","","","","","","","","","","","","","","","","","","","",""
"null","","image-button-response","236","1520520","0.0-233.0","AAASQIW3J32OL","img_art/22.jpg","null","","","","","","","","","","","","","","","","","","","","","","","","",""
"4702","","image-button-response","237","1525224","0.0-234.0","AAASQIW3J32OL","img_art/22.jpg","3","","","","","","","","","","","","","","","","","","","","","","","","",""
"1140","","image-button-response","238","1526366","0.0-235.0-0.0","AAASQIW3J32OL","img_art/22.jpg","0","","","","","","","","","","","","","","","","","","","","","","","","",""
"2244","","image-button-response","239","1528612","0.0-236.0-0.0","AAASQIW3J32OL","img_art/22.jpg","4","","","","","","","","","","","","","","","","","","","","","","","","",""
"null","","html-keyboard-response","240","1530113","0.0-237.0","AAASQIW3J32OL","<p style=""font-size: 48px;"">+</p>","","","","","null","allTrialResponses","1500","1","27","img_art/22.jpg","-20","Beautiful colors muddled until they turn into a mess. No focus point.","Kaylee,Caitlin,Megan,Margaret,Erin,Meghan","its just ugly for me,-50,200,20","Looks like the kind of art I would see at the doctor's office.,-5,80,20","Organic sun spot on a flexible grid,18,200,20","i feel like this is a a basic art piece that a school would have on the wall,-24,100,20","Seems dated with geometic forms,-20,120,20","really beautiful colors and contrast,30,220,20","Margaret","i feel like this is a a basic art piece that a school would have on the wall,-24,100,20","Kaylee","its just ugly for me,-50,200,20","Erin","Seems dated with geometic forms,-20,120,20","6"
"17509","","survey-text","241","1547640","0.0-238.0-0.0","AAASQIW3J32OL","","","","{""Q0"":""Funny and spontaneous. Childish but in a good way.""}","","","","","","","","","","","","","","","","","","","","","","",""
"2870.7000000476837","","image-slider-response","242","1550512","0.0-239.0","AAASQIW3J32OL","","","","","29","","","","","","","","","","","","","","","","","","","","","",""
"null","","image-button-response","243","1555514","0.0-240.0","AAASQIW3J32OL","img_art/5.jpg","null","","","","","","","","","","","","","","","","","","","","","","","","",""
"1319","","image-button-response","244","1556836","0.0-241.0","AAASQIW3J32OL","img_art/5.jpg","3","","","","","","","","","","","","","","","","","","","","","","","","",""
"1712","","image-button-response","245","1558550","0.0-242.0-0.0","AAASQIW3J32OL","img_art/5.jpg","0","","","","","","","","","","","","","","","","","","","","","","","","",""
"2676","","image-button-response","246","1561228","0.0-243.0-0.0","AAASQIW3J32OL","img_art/5.jpg","4","","","","","","","","","","","","","","","","","","","","","","","","",""
"null","","html-keyboard-response","247","1562230","0.0-244.0","AAASQIW3J32OL","<p style=""font-size: 48px;"">+</p>","","","","","null","allTrialResponses","1000","1","28","img_art/5.jpg","29","Funny and spontaneous. Childish but in a good way.","Kaylee,Courtney,Grace,Margaret,Erin,Claire","a volcano erruption,21,200,20","A rabbits head.,4,280,20","Looks like a yellow plastic trash bag.,-42,180,20","simple. love the color scheme,27,100,20","Flame, candle, wind,30,120,20","I like the strokes and colors used,20,260,20","Margaret","simple. love the color scheme,27,100,20","Kaylee","a volcano erruption,21,200,20","Erin","Flame, candle, wind,30,120,20","6"
"30649","","survey-text","248","1592886","0.0-245.0-0.0","AAASQIW3J32OL","","","","{""Q0"":""Too busy for me. And the white dancers on that dark mess don't do anything for me.""}","","","","","","","","","","","","","","","","","","","","","","",""
"2570.5","","image-slider-response","249","1595458","0.0-246.0","AAASQIW3J32OL","","","","","-30","","","","","","","","","","","","","","","","","","","","","",""
"null","","image-button-response","250","1600460","0.0-247.0","AAASQIW3J32OL","img_art/23.jpg","null","","","","","","","","","","","","","","","","","","","","","","","","",""
"5557","","image-button-response","251","1606020","0.0-248.0","AAASQIW3J32OL","img_art/23.jpg","3","","","","","","","","","","","","","","","","","","","","","","","","",""
"2222","","image-button-response","252","1608244","0.0-249.0-0.0","AAASQIW3J32OL","img_art/23.jpg","4","","","","","","","","","","","","","","","","","","","","","","","","",""
"862","","image-button-response","253","1609108","0.0-250.0-0.0","AAASQIW3J32OL","img_art/23.jpg","0","","","","","","","","","","","","","","","","","","","","","","","","",""
"null","","html-keyboard-response","254","1610111","0.0-251.0","AAASQIW3J32OL","<p style=""font-size: 48px;"">+</p>","","","","","null","allTrialResponses","1000","1","29","img_art/23.jpg","-30","Too busy for me. And the white dancers on that dark mess don't do anything for me.","Kaylee,Anna,Tiffany,Margaret,Erin,Brittany","i completely dont get it,-47,200,20","I love the colors and the contrast.,50,300,20","I feel happy and a little excited. Like watching fireworks with family.,26,360,20","white reminds me of screamo music band tshirts when they have their name in the unreadable lettering,-9,100,20","Confetti dancer,-7,120,20","The white paint through the middle really draws the eye.,30,40,20","Margaret","white reminds me of screamo music band tshirts when they have their name in the unreadable lettering,-9,100,20","Erin","Confetti dancer,-7,120,20","Kaylee","i completely dont get it,-47,200,20","6"
"20921","","survey-text","255","1631042","0.0-252.0-0.0","AAASQIW3J32OL","","","","{""Q0"":""Easy but fun and cool. Love the dark palette.""}","","","","","","","","","","","","","","","","","","","","","","",""
"2716.399999856949","","image-slider-response","256","1633760","0.0-253.0","AAASQIW3J32OL","","","","","23","","","","","","","","","","","","","","","","","","","","","",""
"null","","image-button-response","257","1638762","0.0-254.0","AAASQIW3J32OL","img_art/16.jpg","null","","","","","","","","","","","","","","","","","","","","","","","","",""
"3102","","image-button-response","258","1641866","0.0-255.0","AAASQIW3J32OL","img_art/16.jpg","1","","","","","","","","","","","","","","","","","","","","","","","","",""
"841","","image-button-response","259","1642708","0.0-256.0-0.0","AAASQIW3J32OL","img_art/16.jpg","2","","","","","","","","","","","","","","","","","","","","","","","","",""
"2911","","image-button-response","260","1645620","0.0-257.0-0.0","AAASQIW3J32OL","img_art/16.jpg","3","","","","","","","","","","","","","","","","","","","","","","","","",""
"null","","html-keyboard-response","261","1646122","0.0-258.0","AAASQIW3J32OL","<p style=""font-size: 48px;"">+</p>","","","","","null","allTrialResponses","500","1","30","img_art/16.jpg","23","Easy but fun and cool. Love the dark palette.","Kaylee,Jamie,Erica,Margaret,Erin,Mackenzie","cool teddy bear,50,200,20","Weird and funny,40,320,20","Teddy bear calls positive emotional response but then I get worried about what is about to happen,18,80,20","i like how it incorporates mixed visual art with the photo of the bear and the drawings,30,100,20","Not original. Bear is odd,-50,120,20","I like the mixture of images,23,20,20","Jamie","Weird and funny,40,320,20","Erica","Teddy bear calls positive emotional response but then I get worried about what is about to happen,18,80,20","Margaret","i like how it incorporates mixed visual art with the photo of the bear and the drawings,30,100,20","6"
"3089","","image-button-response_instructions","262","1649224","0.0-259.0","AAASQIW3J32OL","","0","instructions","","","","","","","","","","","","","","","","","","","","","","","",""
"1200","","image-button-response","263","1650428","0.0-260.0","AAASQIW3J32OL","","0","","","","","","","","","","","","","","","","","","","","","","","","",""
