"rt","url","trial_type","trial_index","time_elapsed","internal_node_id","participant_id","stimulus","button_pressed","Name","responses","response","key_press","variableName","fixationTime","condition","trial","photo","subjectRating","subjectResponse","agentsNames","agent_1_Response","agent_2_Response","agent_3_Response","agent_4_Response","agent_5_Response","agent_6_Response","kept_1_name","kept_1_response","kept_2_name","kept_2_response","kept_3_name","kept_3_response","errorCounter"
"48669","external_page_harvard.html","external-html","0","48717","0.0-0.0","AAC9DJ81ZXUE7","","","","","","","","","","","","","","","","","","","","","","","","","","",""
"3233","","image-button-response","1","51952","0.0-1.0","AAC9DJ81ZXUE7","","1","","","","","","","","","","","","","","","","","","","","","","","","",""
"909","","image-button-response","2","52866","0.0-2.0-0.0","AAC9DJ81ZXUE7","","1","phone","","","","","","","","","","","","","","","","","","","","","","","",""
"2898","","survey-text","3","55766","0.0-3.0-0.0","AAC9DJ81ZXUE7","","","","{""Q0"":""AAC9DJ81ZXUE7""}","","","","","","","","","","","","","","","","","","","","","","",""
"113056","","image-button-response_instructions","4","168824","0.0-4.0","AAC9DJ81ZXUE7","","0","instructions","","","","","","","","","","","","","","","","","","","","","","","",""
"505258","","image-button-response_instructions","5","674083","0.0-5.0","AAC9DJ81ZXUE7","img_art/ins/popularity/ins1.png","0","instructions","","","","","","","","","","","","","","","","","","","","","","","",""
"2307","","image-button-response_instructions","6","676392","0.0-6.0","AAC9DJ81ZXUE7","img_art/ins/popularity/ins2.png","0","instructions","","","","","","","","","","","","","","","","","","","","","","","",""
"991","","image-button-response_instructions","7","677384","0.0-7.0","AAC9DJ81ZXUE7","img_art/ins/popularity/ins2Extreme.png","0","instructions","","","","","","","","","","","","","","","","","","","","","","","",""
"1304","","image-button-response_instructions","8","678689","0.0-8.0","AAC9DJ81ZXUE7","img_art/ins/popularity/ins3KEEPpop.PNG","0","instructions","","","","","","","","","","","","","","","","","","","","","","","",""
"1622","","image-button-response_instructions","9","680311","0.0-9.0","AAC9DJ81ZXUE7","img_art/ins/popularity/ins3ANamepop.PNG","0","instructions","","","","","","","","","","","","","","","","","","","","","","","",""
"991","","image-button-response_instructions","10","681304","0.0-10.0","AAC9DJ81ZXUE7","img_art/ins/popularity/ins3ARatingpop.png","0","instructions","","","","","","","","","","","","","","","","","","","","","","","",""
"1055","","image-button-response_instructions","11","682359","0.0-11.0","AAC9DJ81ZXUE7","img_art/ins/popularity/ins3ATextpop.png","0","instructions","","","","","","","","","","","","","","","","","","","","","","","",""
"1080","","image-button-response_instructions","12","683441","0.0-12.0","AAC9DJ81ZXUE7","img_art/ins/popularity/ins3ALikespop.png","0","instructions","","","","","","","","","","","","","","","","","","","","","","","",""
"799","","image-button-response_instructions","13","684240","0.0-13.0","AAC9DJ81ZXUE7","img_art/ins/popularity/ins3KEEPpop.PNG","0","instructions","","","","","","","","","","","","","","","","","","","","","","","",""
"662","","image-button-response_instructions","14","684904","0.0-14.0","AAC9DJ81ZXUE7","img_art/ins/popularity/ins3_5RED.png","0","instructions","","","","","","","","","","","","","","","","","","","","","","","",""
"768","","image-button-response_instructions","15","685672","0.0-15.0","AAC9DJ81ZXUE7","img_art/ins/popularity/ins3KEEPpop.PNG","0","instructions","","","","","","","","","","","","","","","","","","","","","","","",""
"672","","image-button-response_instructions","16","686344","0.0-16.0","AAC9DJ81ZXUE7","img_art/ins/popularity/ins4KEEPpop.PNG","0","instructions","","","","","","","","","","","","","","","","","","","","","","","",""
"672","","image-button-response_instructions","17","687016","0.0-17.0","AAC9DJ81ZXUE7","img_art/ins/popularity/ins5KEEPpop.PNG","0","instructions","","","","","","","","","","","","","","","","","","","","","","","",""
"1206","","image-button-response_instructions","18","688223","0.0-18.0","AAC9DJ81ZXUE7","","0","instructions","","","","","","","","","","","","","","","","","","","","","","","",""
"2718","","survey-text","19","690967","0.0-19.0-0.0","AAC9DJ81ZXUE7","","","","{""Q0"":""but""}","","","","","","","","","","","","","","","","","","","","","","",""
"3607","","survey-text","20","694576","0.0-20.0-0.0","AAC9DJ81ZXUE7","","","","{""Q0"":""calming""}","","","","","","","","","","","","","","","","","","","","","","",""
"2487.1000000089407","","image-slider-response","21","697065","0.0-21.0","AAC9DJ81ZXUE7","","","","","6","","","","","","","","","","","","","","","","","","","","","",""
"null","","image-button-response","22","702069","0.0-22.0","AAC9DJ81ZXUE7","img_art/ins/1.jpg","null","","","","","","","","","","","","","","","","","","","","","","","","",""
"929","","image-button-response","23","703000","0.0-23.0","AAC9DJ81ZXUE7","img_art/ins/1.jpg","0","","","","","","","","","","","","","","","","","","","","","","","","",""
"3700","","image-button-response","24","706702","0.0-24.0-0.0","AAC9DJ81ZXUE7","img_art/ins/1.jpg","4","","","","","","","","","","","","","","","","","","","","","","","","",""
"1152","","image-button-response","25","707856","0.0-25.0-0.0","AAC9DJ81ZXUE7","img_art/ins/1.jpg","5","","","","","","","","","","","","","","","","","","","","","","","","",""
"null","","html-keyboard-response","26","708858","0.0-26.0","AAC9DJ81ZXUE7","<p style=""font-size: 48px;"">+</p>","","","","","null","allTrialResponses","1000","1","-2","img_art/ins/1.jpg","6","calming","Allison,Ashley,Beth,Dora,Erika,Jen","looks like a lot of things going on in the mist,20,20,20","I just don't get why these type of art would be popular,-32,40,20","This color reminds me of poo,-46,60,20","looks like what my niece in 3rd grade did this afternoon,-50,80,20","I like the sophisticated brushwork,40,100,20","It reminds me of a candy land dream I had,36,120,20","Allison","looks like a lot of things going on in the mist,20,20,20","Erika","I like the sophisticated brushwork,40,100,20","Jen","It reminds me of a candy land dream I had,36,120,20","0"
"4180","","survey-text","27","713040","0.0-27.0-0.0","AAC9DJ81ZXUE7","","","","{""Q0"":""it's ok""}","","","","","","","","","","","","","","","","","","","","","","",""
"2891.7999999970198","","image-slider-response","28","715933","0.0-28.0","AAC9DJ81ZXUE7","","","","","-20","","","","","","","","","","","","","","","","","","","","","",""
"2249","","image-button-response","29","720935","0.0-29.0","AAC9DJ81ZXUE7","img_art/ins/2.jpg","0","","","","","","","","","","","","","","","","","","","","","","","","",""
"1271","","image-button-response","30","722207","0.0-30.0","AAC9DJ81ZXUE7","img_art/ins/2.jpg","0","","","","","","","","","","","","","","","","","","","","","","","","",""
"5588","","image-button-response","31","727799","0.0-31.0-0.0","AAC9DJ81ZXUE7","img_art/ins/2.jpg","1","","","","","","","","","","","","","","","","","","","","","","","","",""
"2135","","image-button-response","32","729936","0.0-32.0-0.0","AAC9DJ81ZXUE7","img_art/ins/2.jpg","4","","","","","","","","","","","","","","","","","","","","","","","","",""
"null","","html-keyboard-response","33","731446","0.0-33.0","AAC9DJ81ZXUE7","<p style=""font-size: 48px;"">+</p>","","","","","null","allTrialResponses","1500","1","-1","img_art/ins/2.jpg","-20","it's ok","Allison,Kara,Katie,Jenna,Erika,Jen","I don't have strong feelings about this,10,20,20","I like the blocks of color arrangements,30,160,20","too much color!,-28,180,20","One of my pet peevs,-48,140,20","I would never be able to compose a sophisticated pallete like this,48,100,20","It reminds me of a fireplace,36,120,20","Allison","I don't have strong feelings about this,10,20,20","Kara","I like the blocks of color arrangements,30,160,20","Erika","I would never be able to compose a sophisticated pallete like this,48,100,20","0"
"3701","","survey-text","34","735152","0.0-34.0-0.0","AAC9DJ81ZXUE7","","","","{""Q0"":""it's soothing""}","","","","","","","","","","","","","","","","","","","","","","",""
"2844.4000000059605","","image-slider-response","35","737998","0.0-35.0","AAC9DJ81ZXUE7","","","","","16","","","","","","","","","","","","","","","","","","","","","",""
"4246","","image-button-response","36","743000","0.0-36.0","AAC9DJ81ZXUE7","img_art/ins/3.jpg","1","","","","","","","","","","","","","","","","","","","","","","","","",""
"139","","image-button-response","37","743140","0.0-37.0","AAC9DJ81ZXUE7","img_art/ins/3.jpg","1","","","","","","","","","","","","","","","","","","","","","","","","",""
"961","","image-button-response","38","744101","0.0-38.0-0.0","AAC9DJ81ZXUE7","img_art/ins/3.jpg","0","","","","","","","","","","","","","","","","","","","","","","","","",""
"3259","","image-button-response","39","747362","0.0-39.0-0.0","AAC9DJ81ZXUE7","img_art/ins/3.jpg","3","","","","","","","","","","","","","","","","","","","","","","","","",""
"null","","html-keyboard-response","40","748863","0.0-40.0","AAC9DJ81ZXUE7","<p style=""font-size: 48px;"">+</p>","","","","","null","allTrialResponses","1500","1","0","img_art/ins/3.jpg","16","it's soothing","Allison,Kara,Mary,Leslie,Erika,Rose","enjoy the different shades of blue,22,20,20","calming blue is very nice,36,160,20","I like the overlapping of brushes,41,220,20","It's an alright work,15,200,20","I feel connected to the artist,40,100,20","My daily routine, it's depressing,-20,240,20","Kara","calming blue is very nice,36,160,20","Allison","enjoy the different shades of blue,22,20,20","Leslie","It's an alright work,15,200,20","0"
"380341","","image-button-response_instructions","41","1129207","0.0-41.0","AAC9DJ81ZXUE7","","0","instructions","","","","","","","","","","","","","","","","","","","","","","","",""
"4988","","survey-likert","42","1134197","0.0-42.0-0.0","AAC9DJ81ZXUE7","","","","{""Q0"":"""",""Q1"":0,""Q2"":1}","","","","","","","","","","","","","","","","","","","","","","",""
"2782","","survey-text","43","1136992","0.0-43.0-0.0","AAC9DJ81ZXUE7","","","","{""Q0"":""rock""}","","","","","","","","","","","","","","","","","","","","","","",""
"4014","","survey-text","44","1141007","0.0-44.0-0.0","AAC9DJ81ZXUE7","","","","{""Q0"":""It's all right""}","","","","","","","","","","","","","","","","","","","","","","",""
"2957.7999999970198","","image-slider-response","45","1143967","0.0-45.0","AAC9DJ81ZXUE7","","","","","-19","","","","","","","","","","","","","","","","","","","","","",""
"4766","","image-button-response","46","1148984","0.0-46.0","AAC9DJ81ZXUE7","img_art/26.jpg","0","","","","","","","","","","","","","","","","","","","","","","","","",""
"614","","image-button-response","47","1149599","0.0-47.0","AAC9DJ81ZXUE7","img_art/26.jpg","0","","","","","","","","","","","","","","","","","","","","","","","","",""
"2097","","image-button-response","48","1151697","0.0-48.0-0.0","AAC9DJ81ZXUE7","img_art/26.jpg","2","","","","","","","","","","","","","","","","","","","","","","","","",""
"2531","","image-button-response","49","1154230","0.0-49.0-0.0","AAC9DJ81ZXUE7","img_art/26.jpg","5","","","","","","","","","","","","","","","","","","","","","","","","",""
"null","","html-keyboard-response","50","1154732","0.0-50.0","AAC9DJ81ZXUE7","<p style=""font-size: 48px;"">+</p>","","","","","null","allTrialResponses","500","1","1","img_art/26.jpg","-19","It's all right","Mariah,Katie,Breanna,Abigail,Autumn,Cynthia","Pleasant but bland.,10,140,20","Reminds me of watercolor. Muted tones and blurry soft brush strokes. Calm to me.,1,160,20","Splash of paint in an ordered way,7,380,20","Reminds me of walks in my dads city when I was little,22,20,20","Murky, messy, kid like.,-45,340,20","dull and boring,-6,320,20","Mariah","Pleasant but bland.,10,140,20","Breanna","Splash of paint in an ordered way,7,380,20","Cynthia","dull and boring,-6,320,20","0"
"9104","","survey-text","51","1163840","0.0-51.0-0.0","AAC9DJ81ZXUE7","","","","{""Q0"":""cool, it's futuristic and interesting""}","","","","","","","","","","","","","","","","","","","","","","",""
"2611.5","","image-slider-response","52","1166453","0.0-52.0","AAC9DJ81ZXUE7","","","","","37","","","","","","","","","","","","","","","","","","","","","",""
"null","","image-button-response","53","1171455","0.0-53.0","AAC9DJ81ZXUE7","img_art/8.jpg","null","","","","","","","","","","","","","","","","","","","","","","","","",""
"439","","image-button-response","54","1171895","0.0-54.0","AAC9DJ81ZXUE7","img_art/8.jpg","1","","","","","","","","","","","","","","","","","","","","","","","","",""
"5447","","image-button-response","55","1177344","0.0-55.0-0.0","AAC9DJ81ZXUE7","img_art/8.jpg","0","","","","","","","","","","","","","","","","","","","","","","","","",""
"1233","","image-button-response","56","1178578","0.0-56.0-0.0","AAC9DJ81ZXUE7","img_art/8.jpg","5","","","","","","","","","","","","","","","","","","","","","","","","",""
"null","","html-keyboard-response","57","1180080","0.0-57.0","AAC9DJ81ZXUE7","<p style=""font-size: 48px;"">+</p>","","","","","null","allTrialResponses","1500","1","2","img_art/8.jpg","37","cool, it's futuristic and interesting","Mariah,Jennifer,Breanna,Michelle,Rebecca,Cynthia","Clean and stark. The colors are pleasant.,15,140,20","Not my favorite but has an interesting concept,32,380,20","Makes me feel nice,23,380,20","I appreciate the complexity of this piece but it's too cubist for me,3,280,20","gives off inception vibes <3,50,100,20","New power in the community,22,320,20","Jennifer","Not my favorite but has an interesting concept,32,380,20","Mariah","Clean and stark. The colors are pleasant.,15,140,20","Cynthia","New power in the community,22,320,20","0"
"3533","","survey-text","58","1183617","0.0-58.0-0.0","AAC9DJ81ZXUE7","","","","{""Q0"":""It's a mess""}","","","","","","","","","","","","","","","","","","","","","","",""
"2731.9000000059605","","image-slider-response","59","1186350","0.0-59.0","AAC9DJ81ZXUE7","","","","","-25","","","","","","","","","","","","","","","","","","","","","",""
"4444","","image-button-response","60","1191353","0.0-60.0","AAC9DJ81ZXUE7","img_art/22.jpg","3","","","","","","","","","","","","","","","","","","","","","","","","",""
"355","","image-button-response","61","1191710","0.0-61.0","AAC9DJ81ZXUE7","img_art/22.jpg","3","","","","","","","","","","","","","","","","","","","","","","","","",""
"1104","","image-button-response","62","1192816","0.0-62.0-0.0","AAC9DJ81ZXUE7","img_art/22.jpg","5","","","","","","","","","","","","","","","","","","","","","","","","",""
"598","","image-button-response","63","1193416","0.0-63.0-0.0","AAC9DJ81ZXUE7","img_art/22.jpg","4","","","","","","","","","","","","","","","","","","","","","","","","",""
"null","","html-keyboard-response","64","1194432","0.0-64.0","AAC9DJ81ZXUE7","<p style=""font-size: 48px;"">+</p>","","","","","null","allTrialResponses","1000","1","3","img_art/22.jpg","-25","It's a mess","Mariah,Jennifer,Briana,Cheyenne,Emma,Cynthia","The colors are pleasant, the shapes are inviting.,21,140,20","Colors are subdued yet vibrant,30,380,20","Bright colors feel warm,22,400,20","Didn't illicit any reaction,1,200,20","Love the use of color,50,60,20","A key to the unknown,15,320,20","Cheyenne","Didn't illicit any reaction,1,200,20","Cynthia","A key to the unknown,15,320,20","Emma","Love the use of color,50,60,20","0"
"91773","","survey-text","65","1286208","0.0-65.0-0.0","AAC9DJ81ZXUE7","","","","{""Q0"":""it's awe inspiring""}","","","","","","","","","","","","","","","","","","","","","","",""
"4658.899999991059","","image-slider-response","66","1290869","0.0-66.0","AAC9DJ81ZXUE7","","","","","46","","","","","","","","","","","","","","","","","","","","","",""
"3972","","image-button-response","67","1295872","0.0-67.0","AAC9DJ81ZXUE7","img_art/20.jpg","4","","","","","","","","","","","","","","","","","","","","","","","","",""
"410","","image-button-response","68","1296284","0.0-68.0","AAC9DJ81ZXUE7","img_art/20.jpg","4","","","","","","","","","","","","","","","","","","","","","","","","",""
"383","","image-button-response","69","1296670","0.0-69.0-0.0","AAC9DJ81ZXUE7","img_art/20.jpg","3","","","","","","","","","","","","","","","","","","","","","","","","",""
"974","","image-button-response","70","1297646","0.0-70.0-0.0","AAC9DJ81ZXUE7","img_art/20.jpg","5","","","","","","","","","","","","","","","","","","","","","","","","",""
"null","","html-keyboard-response","71","1299148","0.0-71.0","AAC9DJ81ZXUE7","<p style=""font-size: 48px;"">+</p>","","","","","null","allTrialResponses","1500","1","4","img_art/20.jpg","46","it's awe inspiring","Isabella,Kristen,Paige,Cheyenne,Emma,Cynthia","Feels like a town destroyed,-19,280,20","danger, car crash, stressful,-12,280,20","scared. makes me feel alone or abandoned,-11,60,20","Liked the background,15,200,20","I like the distortion of the objects, good colors,20,60,20","Curious about what lies here,10,320,20","Emma","I like the distortion of the objects, good colors,20,60,20","Cheyenne","Liked the background,15,200,20","Cynthia","Curious about what lies here,10,320,20","0"
"5291","","survey-text","72","1304449","0.0-72.0-0.0","AAC9DJ81ZXUE7","","","","{""Q0"":""it's messy""}","","","","","","","","","","","","","","","","","","","","","","",""
"2411.5","","image-slider-response","73","1306862","0.0-73.0","AAC9DJ81ZXUE7","","","","","-22","","","","","","","","","","","","","","","","","","","","","",""
"3379","","image-button-response","74","1311863","0.0-74.0","AAC9DJ81ZXUE7","img_art/7.jpg","3","","","","","","","","","","","","","","","","","","","","","","","","",""
"1437","","image-button-response","75","1313302","0.0-75.0","AAC9DJ81ZXUE7","img_art/7.jpg","2","","","","","","","","","","","","","","","","","","","","","","","","",""
"816","","image-button-response","76","1314120","0.0-76.0-0.0","AAC9DJ81ZXUE7","img_art/7.jpg","3","","","","","","","","","","","","","","","","","","","","","","","","",""
"798","","image-button-response","77","1314920","0.0-77.0-0.0","AAC9DJ81ZXUE7","img_art/7.jpg","0","","","","","","","","","","","","","","","","","","","","","","","","",""
"null","","html-keyboard-response","78","1315422","0.0-78.0","AAC9DJ81ZXUE7","<p style=""font-size: 48px;"">+</p>","","","","","null","allTrialResponses","500","1","5","img_art/7.jpg","-22","it's messy","Sophia,Bailey,Kimberly,Cheyenne,Emma,Cynthia","Is this cookie dough?  Yum!,-10,280,20","It gives off an alien-like vastness of space vibe which I like,9,360,20","Looks like a bad picture of a beach,-21,260,20","Nice realistic feel but nothing stands out.,4,200,20","Cool, makes me think of archeology,15,60,20","time and change,1,320,20","Kimberly","Looks like a bad picture of a beach,-21,260,20","Cheyenne","Nice realistic feel but nothing stands out.,4,200,20","Sophia","Is this cookie dough?  Yum!,-10,280,20","0"
"2122","","survey-text","79","1317551","0.0-79.0-0.0","AAC9DJ81ZXUE7","","","","{""Q0"":""sky""}","","","","","","","","","","","","","","","","","","","","","","",""
"5040","","survey-text","80","1322592","0.0-80.0-0.0","AAC9DJ81ZXUE7","","","","{""Q0"":""just nothing there""}","","","","","","","","","","","","","","","","","","","","","","",""
"3009.9000000059605","","image-slider-response","81","1325604","0.0-81.0","AAC9DJ81ZXUE7","","","","","-45","","","","","","","","","","","","","","","","","","","","","",""
"1954","","image-button-response","82","1330608","0.0-82.0","AAC9DJ81ZXUE7","img_art/3.jpg","0","","","","","","","","","","","","","","","","","","","","","","","","",""
"202","","image-button-response","83","1330812","0.0-83.0","AAC9DJ81ZXUE7","img_art/3.jpg","0","","","","","","","","","","","","","","","","","","","","","","","","",""
"942","","image-button-response","84","1331756","0.0-84.0-0.0","AAC9DJ81ZXUE7","img_art/3.jpg","3","","","","","","","","","","","","","","","","","","","","","","","","",""
"1424","","image-button-response","85","1333181","0.0-85.0-0.0","AAC9DJ81ZXUE7","img_art/3.jpg","1","","","","","","","","","","","","","","","","","","","","","","","","",""
"null","","html-keyboard-response","86","1334683","0.0-86.0","AAC9DJ81ZXUE7","<p style=""font-size: 48px;"">+</p>","","","","","null","allTrialResponses","1500","1","6","img_art/3.jpg","-45","just nothing there","Sophia,Courtney,Kimberly,Cheyenne,Haley,Ashley","Marker gone wild?  Not sure what's going on here.,-21,280,20","That just looks like a mess..,-18,280,20","I like that it feels kind of simple but still chaotic,6,260,20","Don't see what the purpose is.,-31,200,20","Too messy and structure-less,-10,220,20","Reminds of John Lenonn's art a bit.,27,320,20","Sophia","Marker gone wild?  Not sure what's going on here.,-21,280,20","Cheyenne","Don't see what the purpose is.,-31,200,20","Courtney","That just looks like a mess..,-18,280,20","0"
"6497","","survey-text","87","1341183","0.0-87.0-0.0","AAC9DJ81ZXUE7","","","","{""Q0"":""looks like a child did it""}","","","","","","","","","","","","","","","","","","","","","","",""
"1960.2999999970198","","image-slider-response","88","1343145","0.0-88.0","AAC9DJ81ZXUE7","","","","","-30","","","","","","","","","","","","","","","","","","","","","",""
"null","","image-button-response","89","1349051","0.0-89.0","AAC9DJ81ZXUE7","img_art/9.jpg","null","","","","","","","","","","","","","","","","","","","","","","","","",""
"5629","","image-button-response","90","1354681","0.0-90.0","AAC9DJ81ZXUE7","img_art/9.jpg","2","","","","","","","","","","","","","","","","","","","","","","","","",""
"1153","","image-button-response","91","1355835","0.0-91.0-0.0","AAC9DJ81ZXUE7","img_art/9.jpg","0","","","","","","","","","","","","","","","","","","","","","","","","",""
"1230","","image-button-response","92","1357067","0.0-92.0-0.0","AAC9DJ81ZXUE7","img_art/9.jpg","0","","","","","","","","","","","","","","","","","","","","","","","","",""
"1209","","image-button-response","93","1361065","0.0-92.1-0.1","AAC9DJ81ZXUE7","img_art/9.jpg","5","","","","","","","","","","","","","","","","","","","","","","","","",""
"null","","html-keyboard-response","94","1361568","0.0-93.0","AAC9DJ81ZXUE7","<p style=""font-size: 48px;"">+</p>","","","","","null","allTrialResponses","500","1","7","img_art/9.jpg","-30","looks like a child did it","Sophia,Courtney,Chloe,Cheyenne,Caroline,Madison","Yikes. I'm not sure what to make of this one.,-14,280,20","This is a picture of a scary mans head sideways.,-24,280,20","Cheesy. Looks unprofessional,-20,220,20","Too much going on, don't know what the focus is,-11,200,20","Stirs up emotions of watching someone sleep which is relaxing,11,100,20","No cohesive form whatsoever. Hard pass.,-31,60,20","Chloe","Cheesy. Looks unprofessional,-20,220,20","Sophia","Yikes. I'm not sure what to make of this one.,-14,280,20","Madison","No cohesive form whatsoever. Hard pass.,-31,60,20","2"
"16541","","survey-text","95","1378112","0.0-94.0-0.0","AAC9DJ81ZXUE7","","","","{""Q0"":""I see musicians, maybe it's just me""}","","","","","","","","","","","","","","","","","","","","","","",""
"2735.2000000029802","","image-slider-response","96","1380849","0.0-95.0","AAC9DJ81ZXUE7","","","","","15","","","","","","","","","","","","","","","","","","","","","",""
"3090","","image-button-response","97","1385852","0.0-96.0","AAC9DJ81ZXUE7","img_art/23.jpg","3","","","","","","","","","","","","","","","","","","","","","","","","",""
"706","","image-button-response","98","1386560","0.0-97.0","AAC9DJ81ZXUE7","img_art/23.jpg","3","","","","","","","","","","","","","","","","","","","","","","","","",""
"768","","image-button-response","99","1387329","0.0-98.0-0.0","AAC9DJ81ZXUE7","img_art/23.jpg","5","","","","","","","","","","","","","","","","","","","","","","","","",""
"1783","","image-button-response","100","1389115","0.0-99.0-0.0","AAC9DJ81ZXUE7","img_art/23.jpg","0","","","","","","","","","","","","","","","","","","","","","","","","",""
"null","","html-keyboard-response","101","1390117","0.0-100.0","AAC9DJ81ZXUE7","<p style=""font-size: 48px;"">+</p>","","","","","null","allTrialResponses","1000","1","8","img_art/23.jpg","15","I see musicians, maybe it's just me","Sophia,Kaitlin,Chloe,Rachel,Marissa,Madison","I like the contrast and the bright colors in this one.,6,280,20","i cannot breath in this,-10,60,20","Poster shop camp.,-40,220,20","Vivid colors and the white in the middle looks like people dancing.,31,80,20","It feels exciting,23,160,20","Looks celebratory and joyful! However, the photograph does not do the original work's colors justice.,27,60,20","Rachel","Vivid colors and the white in the middle looks like people dancing.,31,80,20","Madison","Looks celebratory and joyful! However, the photograph does not do the original work's colors justice.,27,60,20","Sophia","I like the contrast and the bright colors in this one.,6,280,20","2"
"6620428","","survey-text","102","8010549","0.0-101.0-0.0","AAC9DJ81ZXUE7","","","","{""Q0"":"" I find it  little too simple""}","","","","","","","","","","","","","","","","","","","","","","",""
"4995.20000000298","","image-slider-response","103","8015547","0.0-102.0","AAC9DJ81ZXUE7","","","","","-20","","","","","","","","","","","","","","","","","","","","","",""
"null","","image-button-response","104","8021052","0.0-103.0","AAC9DJ81ZXUE7","img_art/27.jpg","null","","","","","","","","","","","","","","","","","","","","","","","","",""
"8089","","image-button-response","105","8029143","0.0-104.0","AAC9DJ81ZXUE7","img_art/27.jpg","3","","","","","","","","","","","","","","","","","","","","","","","","",""
"446","","image-button-response","106","8029591","0.0-105.0-0.0","AAC9DJ81ZXUE7","img_art/27.jpg","4","","","","","","","","","","","","","","","","","","","","","","","","",""
"847","","image-button-response","107","8030441","0.0-106.0-0.0","AAC9DJ81ZXUE7","img_art/27.jpg","5","","","","","","","","","","","","","","","","","","","","","","","","",""
"null","","html-keyboard-response","108","8031443","0.0-107.0","AAC9DJ81ZXUE7","<p style=""font-size: 48px;"">+</p>","","","","","null","allTrialResponses","1000","1","9","img_art/27.jpg","-20"," I find it  little too simple","Sophia,Melissa,Leah,Rachel,Erika,Madison","Yikes. I think I made this in kindergarten.,-20,280,20","reminds me of kandinsky,10,240,20","An attractive assortment of squiggles and colors,22,360,20","Color story is boring in nature, and I feel nothing but boredom from this piece.,-20,80,20","Nice color, but too vague,-12,100,20","The photographing is horribly distracting. I would feel more favorable toward the original colors/ brightness,1,60,20","Rachel","Color story is boring in nature, and I feel nothing but boredom from this piece.,-20,80,20","Erika","Nice color, but too vague,-12,100,20","Madison","The photographing is horribly distracting. I would feel more favorable toward the original colors/ brightness,1,60,20","2"
"16952","","survey-text","109","8048406","0.0-108.0-0.0","AAC9DJ81ZXUE7","","","","{""Q0"":""just seems too random""}","","","","","","","","","","","","","","","","","","","","","","",""
"3306.5","","image-slider-response","110","8051714","0.0-109.0","AAC9DJ81ZXUE7","","","","","-18","","","","","","","","","","","","","","","","","","","","","",""
"null","","image-button-response","111","8057051","0.0-110.0","AAC9DJ81ZXUE7","img_art/1.jpg","null","","","","","","","","","","","","","","","","","","","","","","","","",""
"3314","","image-button-response","112","8060367","0.0-111.0","AAC9DJ81ZXUE7","img_art/1.jpg","1","","","","","","","","","","","","","","","","","","","","","","","","",""
"383","","image-button-response","113","8060751","0.0-112.0-0.0","AAC9DJ81ZXUE7","img_art/1.jpg","0","","","","","","","","","","","","","","","","","","","","","","","","",""
"1264","","image-button-response","114","8062017","0.0-113.0-0.0","AAC9DJ81ZXUE7","img_art/1.jpg","4","","","","","","","","","","","","","","","","","","","","","","","","",""
"null","","html-keyboard-response","115","8062518","0.0-114.0","AAC9DJ81ZXUE7","<p style=""font-size: 48px;"">+</p>","","","","","null","allTrialResponses","500","1","10","img_art/1.jpg","-18","just seems too random","Allison,Natalie,Laura,Rachel,Erika,Madison","Messy mix of primary colors.,-10,140,20","my reaction is that the picture is that Ive seen it before,-14,400,20","soft and touchable, muddled,15,320,20","While I like the colors, I find nothing interesting or thought provoking about it.,10,80,20","Vague and directionless,-14,100,20","This looks like the same artist as the first picture, but cropped? Looks incomplete.,28,60,20","Natalie","my reaction is that the picture is that Ive seen it before,-14,400,20","Allison","Messy mix of primary colors.,-10,140,20","Erika","Vague and directionless,-14,100,20","2"
"2304","","survey-text","116","8064831","0.0-115.0-0.0","AAC9DJ81ZXUE7","","","","{""Q0"":""our""}","","","","","","","","","","","","","","","","","","","","","","",""
"7390","","survey-text","117","8072223","0.0-116.0-0.0","AAC9DJ81ZXUE7","","","","{""Q0"":""boxy, but cool""}","","","","","","","","","","","","","","","","","","","","","","",""
"3636.2000000029802","","image-slider-response","118","8075861","0.0-117.0","AAC9DJ81ZXUE7","","","","","13","","","","","","","","","","","","","","","","","","","","","",""
"null","","image-button-response","119","8080864","0.0-118.0","AAC9DJ81ZXUE7","img_art/12.jpg","null","","","","","","","","","","","","","","","","","","","","","","","","",""
"533","","image-button-response","120","8081399","0.0-119.0","AAC9DJ81ZXUE7","img_art/12.jpg","2","","","","","","","","","","","","","","","","","","","","","","","","",""
"878","","image-button-response","121","8082279","0.0-120.0-0.0","AAC9DJ81ZXUE7","img_art/12.jpg","3","","","","","","","","","","","","","","","","","","","","","","","","",""
"656","","image-button-response","122","8082937","0.0-121.0-0.0","AAC9DJ81ZXUE7","img_art/12.jpg","4","","","","","","","","","","","","","","","","","","","","","","","","",""
"null","","html-keyboard-response","123","8083440","0.0-122.0","AAC9DJ81ZXUE7","<p style=""font-size: 48px;"">+</p>","","","","","null","allTrialResponses","500","1","11","img_art/12.jpg","13","boxy, but cool","Allison,Natalie,Samantha,Jenna,Erika,Alicia","Minimalist colors and shapes.,-5,140,20","my reaction is that the picture is wierd,-11,400,20","It is interesting but seems like some cheap painting from like walmart,24,140,20","interesting, but feels like someone cut up a picture and pasted it together wrong. want to see the original,15,360,20","I don't like it, but I appreciate the effort and technique,11,100,20","it's ok, but blocky, looks old.,3,120,20","Samantha","It is interesting but seems like some cheap painting from like walmart,24,140,20","Jenna","interesting, but feels like someone cut up a picture and pasted it together wrong. want to see the original,15,360,20","Erika","I don't like it, but I appreciate the effort and technique,11,100,20","2"
"24068","","survey-text","124","8107511","0.0-123.0-0.0","AAC9DJ81ZXUE7","","","","{""Q0"":""looks like a child wrote it""}","","","","","","","","","","","","","","","","","","","","","","",""
"6041.79999999702","","image-slider-response","125","8113554","0.0-124.0","AAC9DJ81ZXUE7","","","","","10","","","","","","","","","","","","","","","","","","","","","",""
"null","","image-button-response","126","8118556","0.0-125.0","AAC9DJ81ZXUE7","img_art/5.jpg","null","","","","","","","","","","","","","","","","","","","","","","","","",""
"1461","","image-button-response","127","8120019","0.0-126.0","AAC9DJ81ZXUE7","img_art/5.jpg","3","","","","","","","","","","","","","","","","","","","","","","","","",""
"526","","image-button-response","128","8120546","0.0-127.0-0.0","AAC9DJ81ZXUE7","img_art/5.jpg","1","","","","","","","","","","","","","","","","","","","","","","","","",""
"1169","","image-button-response","129","8121717","0.0-128.0-0.0","AAC9DJ81ZXUE7","img_art/5.jpg","4","","","","","","","","","","","","","","","","","","","","","","","","",""
"null","","html-keyboard-response","130","8122718","0.0-129.0","AAC9DJ81ZXUE7","<p style=""font-size: 48px;"">+</p>","","","","","null","allTrialResponses","1000","1","12","img_art/5.jpg","10","looks like a child wrote it","Alexandria,Nicole,Samantha,Jenna,Erika,Kathryn","no clear emotion,-16,80,20","I hate the shapes,-30,20,20","I cant explain why i like this so much but it really calls out to me,50,140,20","it's okay. the colors are eye catching, but that's about it.,3,360,20","Not sure what I'm looking at,-16,100,20","I see a sign advising me to be cautious.,-20,140,20","Jenna","it's okay. the colors are eye catching, but that's about it.,3,360,20","Nicole","I hate the shapes,-30,20,20","Erika","Not sure what I'm looking at,-16,100,20","2"
"14660","","survey-text","131","8137382","0.0-130.0-0.0","AAC9DJ81ZXUE7","","","","{""Q0"":""It's okay but needs less empty space""}","","","","","","","","","","","","","","","","","","","","","","",""
"4134.70000000298","","image-slider-response","132","8141518","0.0-131.0","AAC9DJ81ZXUE7","","","","","-4","","","","","","","","","","","","","","","","","","","","","",""
"4388","","image-button-response","133","8146521","0.0-132.0","AAC9DJ81ZXUE7","img_art/14.jpg","0","","","","","","","","","","","","","","","","","","","","","","","","",""
"397","","image-button-response","134","8146919","0.0-133.0","AAC9DJ81ZXUE7","img_art/14.jpg","0","","","","","","","","","","","","","","","","","","","","","","","","",""
"735","","image-button-response","135","8147655","0.0-134.0-0.0","AAC9DJ81ZXUE7","img_art/14.jpg","4","","","","","","","","","","","","","","","","","","","","","","","","",""
"944","","image-button-response","136","8148601","0.0-135.0-0.0","AAC9DJ81ZXUE7","img_art/14.jpg","1","","","","","","","","","","","","","","","","","","","","","","","","",""
"null","","html-keyboard-response","137","8151052","0.0-136.0","AAC9DJ81ZXUE7","<p style=""font-size: 48px;"">+</p>","","","","","null","allTrialResponses","1500","1","13","img_art/14.jpg","-4","It's okay but needs less empty space","Monica,Nicole,Victoria,Jenna,Erika,Sydney","Just don't like it, maybe it's the bleeding colors on the left of the tree-looking thing in the center or the faded background,-10,360,20","This reminds me of the Lion King somehow! Feels inspiring,30,20,20","calming to look at,37,400,20","love the colors. despite their brightness it seems sad somehow.,41,360,20","It's alright, something I'd see in a guest bedroom,10,100,20","I'm imagining a flower bouquet with pretty colors which I like.,35,320,20","Monica","Just don't like it, maybe it's the bleeding colors on the left of the tree-looking thing in the center or the faded background,-10,360,20","Erika","It's alright, something I'd see in a guest bedroom,10,100,20","Nicole","This reminds me of the Lion King somehow! Feels inspiring,30,20,20","2"
"16037","","survey-text","138","8167095","0.0-137.0-0.0","AAC9DJ81ZXUE7","","","","{""Q0"":""Just looks like a kid made it""}","","","","","","","","","","","","","","","","","","","","","","",""
"4206.4000000059605","","image-slider-response","139","8171302","0.0-138.0","AAC9DJ81ZXUE7","","","","","-34","","","","","","","","","","","","","","","","","","","","","",""
"1875","","image-button-response","140","8176304","0.0-139.0","AAC9DJ81ZXUE7","img_art/6.jpg","0","","","","","","","","","","","","","","","","","","","","","","","","",""
"749","","image-button-response","141","8177055","0.0-140.0","AAC9DJ81ZXUE7","img_art/6.jpg","5","","","","","","","","","","","","","","","","","","","","","","","","",""
"768","","image-button-response","142","8177824","0.0-141.0-0.0","AAC9DJ81ZXUE7","img_art/6.jpg","0","","","","","","","","","","","","","","","","","","","","","","","","",""
"527","","image-button-response","143","8178352","0.0-142.0-0.0","AAC9DJ81ZXUE7","img_art/6.jpg","1","","","","","","","","","","","","","","","","","","","","","","","","",""
"null","","html-keyboard-response","144","8179354","0.0-143.0","AAC9DJ81ZXUE7","<p style=""font-size: 48px;"">+</p>","","","","","null","allTrialResponses","1000","1","14","img_art/6.jpg","-34","Just looks like a kid made it","Monica,Nicole,Amy,Megan,Erika,Chelsea","Maybe it's supposed to be a bird but it looks like a scary cloaked figure. it's just too simple and jarring,-23,360,20","The colors and rough brush strokes make me nervous,-10,20,20","Lack of context makes this painting 1-d for me. The headless bird is mysterious and indecipherable.,-10,220,20","Odd desert, nice sand color with headless bird,11,200,20","Lonesome in nature,13,100,20","It looks like one tall ugly bird.,-43,180,20","Chelsea","It looks like one tall ugly bird.,-43,180,20","Monica","Maybe it's supposed to be a bird but it looks like a scary cloaked figure. it's just too simple and jarring,-23,360,20","Nicole","The colors and rough brush strokes make me nervous,-10,20,20","2"
"35231","","survey-text","145","8214590","0.0-144.0-0.0","AAC9DJ81ZXUE7","","","","{""Q0"":""I think it's really pretty ""}","","","","","","","","","","","","","","","","","","","","","","",""
"4309.899999991059","","image-slider-response","146","8218902","0.0-145.0","AAC9DJ81ZXUE7","","","","","17","","","","","","","","","","","","","","","","","","","","","",""
"null","","image-button-response","147","8223906","0.0-146.0","AAC9DJ81ZXUE7","img_art/24.jpg","null","","","","","","","","","","","","","","","","","","","","","","","","",""
"193","","image-button-response","148","8224100","0.0-147.0","AAC9DJ81ZXUE7","img_art/24.jpg","1","","","","","","","","","","","","","","","","","","","","","","","","",""
"1320","","image-button-response","149","8225422","0.0-148.0-0.0","AAC9DJ81ZXUE7","img_art/24.jpg","0","","","","","","","","","","","","","","","","","","","","","","","","",""
"670","","image-button-response","150","8226094","0.0-149.0-0.0","AAC9DJ81ZXUE7","img_art/24.jpg","2","","","","","","","","","","","","","","","","","","","","","","","","",""
"null","","html-keyboard-response","151","8227097","0.0-150.0","AAC9DJ81ZXUE7","<p style=""font-size: 48px;"">+</p>","","","","","null","allTrialResponses","1000","1","15","img_art/24.jpg","17","I think it's really pretty ","Monica,Nicole,Katelyn,Maria,Sabrina,Chelsea","It looks alive, like I can hear the water flowing,41,360,20","The colors and brush strokes make it feel adventurous,20,20,20","Love the colors and contrast. Feels peaceful.,33,100,20","this evokes a gutural reaction - it displeases me how similar it is to art I saw growing up,-30,120,20","Love the natural vibe,50,120,20","The colors are relaxing and cheerful.,32,180,20","Nicole","The colors and brush strokes make it feel adventurous,20,20,20","Monica","It looks alive, like I can hear the water flowing,41,360,20","Katelyn","Love the colors and contrast. Feels peaceful.,33,100,20","2"
"32433","","survey-text","152","8259542","0.0-151.0-0.0","AAC9DJ81ZXUE7","","","","{""Q0"":""course""}","","","","","","","","","","","","","","","","","","","","","","",""
"8735","","survey-text","153","8268278","0.0-152.0-0.0","AAC9DJ81ZXUE7","","","","{""Q0"":""it kinda looks like a shower curtain""}","","","","","","","","","","","","","","","","","","","","","","",""
"3363.7999999970198","","image-slider-response","154","8271644","0.0-153.0","AAC9DJ81ZXUE7","","","","","10","","","","","","","","","","","","","","","","","","","","","",""
"1216","","image-button-response","155","8277051","0.0-154.0","AAC9DJ81ZXUE7","img_art/15.jpg","0","","","","","","","","","","","","","","","","","","","","","","","","",""
"5263","","image-button-response","156","8282316","0.0-155.0","AAC9DJ81ZXUE7","img_art/15.jpg","0","","","","","","","","","","","","","","","","","","","","","","","","",""
"718","","image-button-response","157","8283036","0.0-156.0-0.0","AAC9DJ81ZXUE7","img_art/15.jpg","4","","","","","","","","","","","","","","","","","","","","","","","","",""
"944","","image-button-response","158","8283983","0.0-157.0-0.0","AAC9DJ81ZXUE7","img_art/15.jpg","5","","","","","","","","","","","","","","","","","","","","","","","","",""
"null","","html-keyboard-response","159","8284984","0.0-158.0","AAC9DJ81ZXUE7","<p style=""font-size: 48px;"">+</p>","","","","","null","allTrialResponses","1000","1","16","img_art/15.jpg","10","it kinda looks like a shower curtain","Monica,Nicole,Katelyn,Elizabeth,Destiny,Kelly","I don't feel much of anything when looking at this, it's just a random pattern,1,360,20","Very cool, i want it in my living room,50,20,20","Doesnt trigger much of a reaction overall,-2,100,20","Perfect Abstract painting,50,20,20","I couldn't tell you why but I'm really into this,39,360,20","I can't really make out what this is supposed to be.,-8,220,20","Monica","I don't feel much of anything when looking at this, it's just a random pattern,1,360,20","Destiny","I couldn't tell you why but I'm really into this,39,360,20","Kelly","I can't really make out what this is supposed to be.,-8,220,20","2"
"11397","","survey-text","160","8296391","0.0-159.0-0.0","AAC9DJ81ZXUE7","","","","{""Q0"":""looks like an interesting city""}","","","","","","","","","","","","","","","","","","","","","","",""
"3128.2999999970198","","image-slider-response","161","8299520","0.0-160.0","AAC9DJ81ZXUE7","","","","","11","","","","","","","","","","","","","","","","","","","","","",""
"null","","image-button-response","162","8304524","0.0-161.0","AAC9DJ81ZXUE7","img_art/11.jpg","null","","","","","","","","","","","","","","","","","","","","","","","","",""
"1190","","image-button-response","163","8305714","0.0-162.0","AAC9DJ81ZXUE7","img_art/11.jpg","1","","","","","","","","","","","","","","","","","","","","","","","","",""
"767","","image-button-response","164","8306483","0.0-163.0-0.0","AAC9DJ81ZXUE7","img_art/11.jpg","2","","","","","","","","","","","","","","","","","","","","","","","","",""
"1544","","image-button-response","165","8308029","0.0-164.0-0.0","AAC9DJ81ZXUE7","img_art/11.jpg","4","","","","","","","","","","","","","","","","","","","","","","","","",""
"null","","html-keyboard-response","166","8308531","0.0-165.0","AAC9DJ81ZXUE7","<p style=""font-size: 48px;"">+</p>","","","","","null","allTrialResponses","500","1","17","img_art/11.jpg","11","looks like an interesting city","Monica,Sarah,Jordan,Hannah,Destiny,Kelly","I like how it reminds me of music and at the same time it looks like colorful train tracks.,10,360,20","i like the gray tones with black lines and bits of color,23,180,20","Oh, I love this one, it says to me that life is very busy,50,20,20","Is interesting. Wouldn't bother me to have this hanging where I'd see it every day.,11,240,20","life is a highway,12,360,20","Its a little psychedelic.,10,220,20","Sarah","i like the gray tones with black lines and bits of color,23,180,20","Jordan","Oh, I love this one, it says to me that life is very busy,50,20,20","Destiny","life is a highway,12,360,20","2"
"11534","","survey-text","167","8320071","0.0-166.0-0.0","AAC9DJ81ZXUE7","","","","{""Q0"":""It looks like a fingerpainting""}","","","","","","","","","","","","","","","","","","","","","","",""
"3247.8999999910593","","image-slider-response","168","8323320","0.0-167.0","AAC9DJ81ZXUE7","","","","","-5","","","","","","","","","","","","","","","","","","","","","",""
"null","","image-button-response","169","8328322","0.0-168.0","AAC9DJ81ZXUE7","img_art/30.jpg","null","","","","","","","","","","","","","","","","","","","","","","","","",""
"534","","image-button-response","170","8328857","0.0-169.0","AAC9DJ81ZXUE7","img_art/30.jpg","0","","","","","","","","","","","","","","","","","","","","","","","","",""
"559","","image-button-response","171","8329416","0.0-170.0-0.0","AAC9DJ81ZXUE7","img_art/30.jpg","1","","","","","","","","","","","","","","","","","","","","","","","","",""
"1009","","image-button-response","172","8330427","0.0-171.0-0.0","AAC9DJ81ZXUE7","img_art/30.jpg","4","","","","","","","","","","","","","","","","","","","","","","","","",""
"null","","html-keyboard-response","173","8331929","0.0-172.0","AAC9DJ81ZXUE7","<p style=""font-size: 48px;"">+</p>","","","","","null","allTrialResponses","1500","1","18","img_art/30.jpg","-5","It looks like a fingerpainting","Savannah,Sarah,Jordan,Kaylee,Destiny,Mikayla","Colors are nice but it just seems too simple.,-26,200,20","looks simple, I can't see a lot of care going into this,-33,180,20","cant see the meaning behind it,-20,20,20","i cant really get it,-35,200,20","literally stupid I made this with as seen on tv products when I was 7,-42,360,20","Very colorful! Wow!,22,300,20","Savannah","Colors are nice but it just seems too simple.,-26,200,20","Sarah","looks simple, I can't see a lot of care going into this,-33,180,20","Destiny","literally stupid I made this with as seen on tv products when I was 7,-42,360,20","2"
"81466","","survey-text","174","8413400","0.0-173.0-0.0","AAC9DJ81ZXUE7","","","","{""Q0"":""it's kinda cool because of the bear""}","","","","","","","","","","","","","","","","","","","","","","",""
"114550","","image-slider-response","175","8527952","0.0-174.0","AAC9DJ81ZXUE7","","","","","13","","","","","","","","","","","","","","","","","","","","","",""
"4715","","image-button-response","176","8532954","0.0-175.0","AAC9DJ81ZXUE7","img_art/16.jpg","1","","","","","","","","","","","","","","","","","","","","","","","","",""
"900","","image-button-response","177","8533856","0.0-176.0","AAC9DJ81ZXUE7","img_art/16.jpg","1","","","","","","","","","","","","","","","","","","","","","","","","",""
"592","","image-button-response","178","8534450","0.0-177.0-0.0","AAC9DJ81ZXUE7","img_art/16.jpg","0","","","","","","","","","","","","","","","","","","","","","","","","",""
"622","","image-button-response","179","8535074","0.0-178.0-0.0","AAC9DJ81ZXUE7","img_art/16.jpg","2","","","","","","","","","","","","","","","","","","","","","","","","",""
"null","","html-keyboard-response","180","8535577","0.0-179.0","AAC9DJ81ZXUE7","<p style=""font-size: 48px;"">+</p>","","","","","null","allTrialResponses","500","1","19","img_art/16.jpg","13","it's kinda cool because of the bear","Savannah,Sarah,Leslie,Madeline,Destiny,Caitlin","A strange collage made by a child. Do not like the colored face of the bear.,-29,200,20","i don't like the collage aspect,-25,180,20","This is making me feel nervous in an enjoyable way.,20,380,20","That bear looks unfitting!,-8,40,20","what is this doing for anyone. If you connect with this you're literally lying to yourself. pretentious,-50,360,20","It is sick to put a teddy bear and a gun on the same piece of canvas.,-40,80,20","Sarah","i don't like the collage aspect,-25,180,20","Savannah","A strange collage made by a child. Do not like the colored face of the bear.,-29,200,20","Leslie","This is making me feel nervous in an enjoyable way.,20,380,20","2"
"47688","","survey-text","181","8583278","0.0-180.0-0.0","AAC9DJ81ZXUE7","","","","{""Q0"":""it's like a city scene.""}","","","","","","","","","","","","","","","","","","","","","","",""
"3100.5999999940395","","image-slider-response","182","8586382","0.0-181.0","AAC9DJ81ZXUE7","","","","","6","","","","","","","","","","","","","","","","","","","","","",""
"2898","","image-button-response","183","8592051","0.0-182.0","AAC9DJ81ZXUE7","img_art/19.jpg","3","","","","","","","","","","","","","","","","","","","","","","","","",""
"5729","","image-button-response","184","8597782","0.0-183.0","AAC9DJ81ZXUE7","img_art/19.jpg","3","","","","","","","","","","","","","","","","","","","","","","","","",""
"785","","image-button-response","185","8598568","0.0-184.0-0.0","AAC9DJ81ZXUE7","img_art/19.jpg","0","","","","","","","","","","","","","","","","","","","","","","","","",""
"654","","image-button-response","186","8599224","0.0-185.0-0.0","AAC9DJ81ZXUE7","img_art/19.jpg","2","","","","","","","","","","","","","","","","","","","","","","","","",""
"null","","html-keyboard-response","187","8600726","0.0-186.0","AAC9DJ81ZXUE7","<p style=""font-size: 48px;"">+</p>","","","","","null","allTrialResponses","1500","1","20","img_art/19.jpg","6","it's like a city scene.","Savannah,Sarah,Leslie,Heather,Stephanie,Sara","Watercolor abstract? Strange.,1,200,20","too much of a mix of lines and shading,-22,180,20","It's a cute city scene, but nothing special.,10,380,20","love the images I can pick out of this art,1,260,20","A dreary town in the fall.,-4,300,20","I like the vibrant color blocks,13,160,20","Heather","love the images I can pick out of this art,1,260,20","Savannah","Watercolor abstract? Strange.,1,200,20","Leslie","It's a cute city scene, but nothing special.,10,380,20","2"
"108455","","survey-text","188","8709191","0.0-187.0-0.0","AAC9DJ81ZXUE7","","","","{""Q0"":""we""}","","","","","","","","","","","","","","","","","","","","","","",""
"8477","","survey-text","189","8717671","0.0-188.0-0.0","AAC9DJ81ZXUE7","","","","{""Q0"":""I like it! Abstract but cool""}","","","","","","","","","","","","","","","","","","","","","","",""
"4990.300000011921","","image-slider-response","190","8722662","0.0-189.0","AAC9DJ81ZXUE7","","","","","9","","","","","","","","","","","","","","","","","","","","","",""
"4588","","image-button-response","191","8727666","0.0-190.0","AAC9DJ81ZXUE7","img_art/18.jpg","3","","","","","","","","","","","","","","","","","","","","","","","","",""
"403","","image-button-response","192","8728071","0.0-191.0","AAC9DJ81ZXUE7","img_art/18.jpg","3","","","","","","","","","","","","","","","","","","","","","","","","",""
"414","","image-button-response","193","8728487","0.0-192.0-0.0","AAC9DJ81ZXUE7","img_art/18.jpg","4","","","","","","","","","","","","","","","","","","","","","","","","",""
"478","","image-button-response","194","8728967","0.0-193.0-0.0","AAC9DJ81ZXUE7","img_art/18.jpg","5","","","","","","","","","","","","","","","","","","","","","","","","",""
"null","","html-keyboard-response","195","8729969","0.0-194.0","AAC9DJ81ZXUE7","<p style=""font-size: 48px;"">+</p>","","","","","null","allTrialResponses","1000","1","21","img_art/18.jpg","9","I like it! Abstract but cool","Savannah,Christina,Leslie,Heather,Molly,Anna","Accents make this piece.,21,200,20","it looks dreary and not uplifting,-10,240,20","This is a very energetic painting, and brings to mind scenes of battle.,50,380,20","i like the colors in the picture and can make out my own images,42,260,20","White and yellow look awesome and the picture's dynamics are wonderful.,30,340,20","I could spend a long time looking at it and see different things in the shapes.,21,300,20","Heather","i like the colors in the picture and can make out my own images,42,260,20","Molly","White and yellow look awesome and the picture's dynamics are wonderful.,30,340,20","Anna","I could spend a long time looking at it and see different things in the shapes.,21,300,20","2"
"290827","","survey-text","196","9020807","0.0-195.0-0.0","AAC9DJ81ZXUE7","","","","{""Q0"":""kinda looks like brass knuckles""}","","","","","","","","","","","","","","","","","","","","","","",""
"40331.59999999404","","image-slider-response","197","9061140","0.0-196.0","AAC9DJ81ZXUE7","","","","","14","","","","","","","","","","","","","","","","","","","","","",""
"null","","image-button-response","198","9067052","0.0-197.0","AAC9DJ81ZXUE7","img_art/4.jpg","null","","","","","","","","","","","","","","","","","","","","","","","","",""
"54835","","image-button-response","199","9121889","0.0-198.0","AAC9DJ81ZXUE7","img_art/4.jpg","4","","","","","","","","","","","","","","","","","","","","","","","","",""
"720","","image-button-response","200","9122611","0.0-199.0-0.0","AAC9DJ81ZXUE7","img_art/4.jpg","0","","","","","","","","","","","","","","","","","","","","","","","","",""
"878","","image-button-response","201","9123490","0.0-200.0-0.0","AAC9DJ81ZXUE7","img_art/4.jpg","2","","","","","","","","","","","","","","","","","","","","","","","","",""
"null","","html-keyboard-response","202","9123994","0.0-201.0","AAC9DJ81ZXUE7","<p style=""font-size: 48px;"">+</p>","","","","","null","allTrialResponses","500","1","22","img_art/4.jpg","14","kinda looks like brass knuckles","Meghan,Alexandra,Jasmine,Heather,Molly,Anna","feels free flowing and relaxed,21,220,20","This artwork looks like a child did it,-41,60,20","It's quite meh to me,0,340,20","looks like an award from an award show.,22,260,20","Not bad at all.,20,340,20","It doesn't make me feel anything it just looks like a kid did it.,-30,300,20","Molly","Not bad at all.,20,340,20","Meghan","feels free flowing and relaxed,21,220,20","Jasmine","It's quite meh to me,0,340,20","2"
"6618","","survey-text","203","9130622","0.0-202.0-0.0","AAC9DJ81ZXUE7","","","","{""Q0"":""It's kind of artistic to me""}","","","","","","","","","","","","","","","","","","","","","","",""
"2108.2000000029802","","image-slider-response","204","9132732","0.0-203.0","AAC9DJ81ZXUE7","","","","","5","","","","","","","","","","","","","","","","","","","","","",""
"null","","image-button-response","205","9138052","0.0-204.0","AAC9DJ81ZXUE7","img_art/10.jpg","null","","","","","","","","","","","","","","","","","","","","","","","","",""
"542995","","image-button-response","206","9681049","0.0-205.0","AAC9DJ81ZXUE7","img_art/10.jpg","1","","","","","","","","","","","","","","","","","","","","","","","","",""
"1184","","image-button-response","207","9682235","0.0-206.0-0.0","AAC9DJ81ZXUE7","img_art/10.jpg","4","","","","","","","","","","","","","","","","","","","","","","","","",""
"558","","image-button-response","208","9682795","0.0-207.0-0.0","AAC9DJ81ZXUE7","img_art/10.jpg","3","","","","","","","","","","","","","","","","","","","","","","","","",""
"null","","html-keyboard-response","209","9685052","0.0-208.0","AAC9DJ81ZXUE7","<p style=""font-size: 48px;"">+</p>","","","","","null","allTrialResponses","1500","1","23","img_art/10.jpg","5","It's kind of artistic to me","Meghan,Brittany,Jasmine,Erica,Molly,Tiffany","kind of reminds me of a map,1,220,20","The design is dynamic and interesting.,14,40,20","It's okay but not giving me the strongest reaction,6,340,20","Relaxing; a lot of going on but colours make it easy to look at,20,80,20","For me, it looks like a giant ship on the sea and it's astonishing.,30,340,20","I feel little to no emotion looking at this painting.,0,360,20","Brittany","The design is dynamic and interesting.,14,40,20","Molly","For me, it looks like a giant ship on the sea and it's astonishing.,30,340,20","Erica","Relaxing; a lot of going on but colours make it easy to look at,20,80,20","2"
"33448","","survey-text","210","9718511","0.0-209.0-0.0","AAC9DJ81ZXUE7","","","","{""Q0"":""it looks blocky and basic""}","","","","","","","","","","","","","","","","","","","","","","",""
"4029.5999999940395","","image-slider-response","211","9722542","0.0-210.0","AAC9DJ81ZXUE7","","","","","-18","","","","","","","","","","","","","","","","","","","","","",""
"null","","image-button-response","212","9728052","0.0-211.0","AAC9DJ81ZXUE7","img_art/2.jpg","null","","","","","","","","","","","","","","","","","","","","","","","","",""
"46022","","image-button-response","213","9774076","0.0-212.0","AAC9DJ81ZXUE7","img_art/2.jpg","4","","","","","","","","","","","","","","","","","","","","","","","","",""
"1537","","image-button-response","214","9775615","0.0-213.0-0.0","AAC9DJ81ZXUE7","img_art/2.jpg","3","","","","","","","","","","","","","","","","","","","","","","","","",""
"1623","","image-button-response","215","9777240","0.0-214.0-0.0","AAC9DJ81ZXUE7","img_art/2.jpg","5","","","","","","","","","","","","","","","","","","","","","","","","",""
"null","","html-keyboard-response","216","9779052","0.0-215.0","AAC9DJ81ZXUE7","<p style=""font-size: 48px;"">+</p>","","","","","null","allTrialResponses","1500","1","24","img_art/2.jpg","-18","it looks blocky and basic","Shelby,Brittany,Catherine,Erica,Molly,Lindsey","The contrasting colors are a bit harsh,-10,240,20","This one feels rather flat and not engaging.,-15,40,20","Dependence. Things relying on each other. Caring,-4,160,20","positive, seems like someone really happy and colourful is looking at me,22,80,20","Colorful, curious.,20,340,20","Not a fan of the colors or the style.,-31,400,20","Molly","Colorful, curious.,20,340,20","Erica","positive, seems like someone really happy and colourful is looking at me,22,80,20","Lindsey","Not a fan of the colors or the style.,-31,400,20","2"
"126847","","survey-text","217","9905910","0.0-216.0-0.0","AAC9DJ81ZXUE7","","","","{""Q0"":""It's kinda nice if a bit bland""}","","","","","","","","","","","","","","","","","","","","","","",""
"2461.7000000029802","","image-slider-response","218","9908374","0.0-217.0","AAC9DJ81ZXUE7","","","","","7","","","","","","","","","","","","","","","","","","","","","",""
"null","","image-button-response","219","9914052","0.0-218.0","AAC9DJ81ZXUE7","img_art/21.jpg","null","","","","","","","","","","","","","","","","","","","","","","","","",""
"87288","","image-button-response","220","10001342","0.0-219.0","AAC9DJ81ZXUE7","img_art/21.jpg","3","","","","","","","","","","","","","","","","","","","","","","","","",""
"462","","image-button-response","221","10001806","0.0-220.0-0.0","AAC9DJ81ZXUE7","img_art/21.jpg","5","","","","","","","","","","","","","","","","","","","","","","","","",""
"464","","image-button-response","222","10002272","0.0-221.0-0.0","AAC9DJ81ZXUE7","img_art/21.jpg","4","","","","","","","","","","","","","","","","","","","","","","","","",""
"null","","html-keyboard-response","223","10002774","0.0-222.0","AAC9DJ81ZXUE7","<p style=""font-size: 48px;"">+</p>","","","","","null","allTrialResponses","500","1","25","img_art/21.jpg","7","It's kinda nice if a bit bland","Dominique,Crystal,Andrea,Erica,Molly,Lindsey","Love the colors have to say this is my favorite above all,37,400,20","Feels like a clash between land and sea,31,300,20","It feels like a day at sea but the pink is slightly jarring and holding my eye.,26,240,20","Relaxing and easy to look at,27,80,20","Looks like a war. Many things happening on the painting, really enjoy it.,30,340,20","I like this piece more the more I look at. Still wouldn't want it in my home, though.,8,400,20","Erica","Relaxing and easy to look at,27,80,20","Lindsey","I like this piece more the more I look at. Still wouldn't want it in my home, though.,8,400,20","Molly","Looks like a war. Many things happening on the painting, really enjoy it.,30,340,20","2"
"3328","","survey-text","224","10006118","0.0-223.0-0.0","AAC9DJ81ZXUE7","","","","{""Q0"":""table""}","","","","","","","","","","","","","","","","","","","","","","",""
"6055","","survey-text","225","10012175","0.0-224.0-0.0","AAC9DJ81ZXUE7","","","","{""Q0"":""Love it, nice forest""}","","","","","","","","","","","","","","","","","","","","","","",""
"4753.29999999702","","image-slider-response","226","10016930","0.0-225.0","AAC9DJ81ZXUE7","","","","","43","","","","","","","","","","","","","","","","","","","","","",""
"null","","image-button-response","227","10021934","0.0-226.0","AAC9DJ81ZXUE7","img_art/17.jpg","null","","","","","","","","","","","","","","","","","","","","","","","","",""
"1098","","image-button-response","228","10023034","0.0-227.0","AAC9DJ81ZXUE7","img_art/17.jpg","1","","","","","","","","","","","","","","","","","","","","","","","","",""
"2202","","image-button-response","229","10025238","0.0-228.0-0.0","AAC9DJ81ZXUE7","img_art/17.jpg","4","","","","","","","","","","","","","","","","","","","","","","","","",""
"653","","image-button-response","230","10025894","0.0-229.0-0.0","AAC9DJ81ZXUE7","img_art/17.jpg","2","","","","","","","","","","","","","","","","","","","","","","","","",""
"null","","html-keyboard-response","231","10027395","0.0-230.0","AAC9DJ81ZXUE7","<p style=""font-size: 48px;"">+</p>","","","","","null","allTrialResponses","1500","1","26","img_art/17.jpg","43","Love it, nice forest","Jacqueline,Gabriela,Jamie,Erica,Molly,Lindsey","It's okay, I just don't see much too it.,7,300,20","This makes me feel inspired and happy. I love everything about this portrait,45,140,20","Looks like some fantasy tree. Nice,30,320,20","Makes me warm and cozy just by looking at it,29,80,20","Wow, I haven't seen anything better than this.,40,340,20","Pretty composition and I like the colors.,20,400,20","Gabriela","This makes me feel inspired and happy. I love everything about this portrait,45,140,20","Molly","Wow, I haven't seen anything better than this.,40,340,20","Jamie","Looks like some fantasy tree. Nice,30,320,20","2"
"11350","","survey-text","232","10038750","0.0-231.0-0.0","AAC9DJ81ZXUE7","","","","{""Q0"":""Kinda looks like street art, not bad""}","","","","","","","","","","","","","","","","","","","","","","",""
"3422.0999999940395","","image-slider-response","233","10042174","0.0-232.0","AAC9DJ81ZXUE7","","","","","10","","","","","","","","","","","","","","","","","","","","","",""
"null","","image-button-response","234","10048052","0.0-233.0","AAC9DJ81ZXUE7","img_art/28.jpg","null","","","","","","","","","","","","","","","","","","","","","","","","",""
"23877","","image-button-response","235","10071930","0.0-234.0","AAC9DJ81ZXUE7","img_art/28.jpg","0","","","","","","","","","","","","","","","","","","","","","","","","",""
"1872","","image-button-response","236","10073804","0.0-235.0-0.0","AAC9DJ81ZXUE7","img_art/28.jpg","2","","","","","","","","","","","","","","","","","","","","","","","","",""
"657","","image-button-response","237","10074462","0.0-236.0-0.0","AAC9DJ81ZXUE7","img_art/28.jpg","4","","","","","","","","","","","","","","","","","","","","","","","","",""
"null","","html-keyboard-response","238","10074963","0.0-237.0","AAC9DJ81ZXUE7","<p style=""font-size: 48px;"">+</p>","","","","","null","allTrialResponses","500","1","27","img_art/28.jpg","10","Kinda looks like street art, not bad","Danielle,Gabriela,Jamie,Lauren,Molly,Angela","I enjoy the color themes, they seem gloomy and mysterious, and content in their own way, which I love.,20,340,20","The brown and green colors used look dull and unappealing,-30,140,20","Gloomy colors and picture,5,320,20","I feel that the image is invoking a sense of negativity.,-15,340,20","This painting is mysterious, it makes me curious.,5,340,20","This reminds me of internal organs.,-10,260,20","Danielle","I enjoy the color themes, they seem gloomy and mysterious, and content in their own way, which I love.,20,340,20","Jamie","Gloomy colors and picture,5,320,20","Molly","This painting is mysterious, it makes me curious.,5,340,20","2"
"72460","","survey-text","239","10147430","0.0-238.0-0.0","AAC9DJ81ZXUE7","","","","{""Q0"":""kinda creepy but cool ""}","","","","","","","","","","","","","","","","","","","","","","",""
"4469.29999999702","","image-slider-response","240","10151902","0.0-239.0","AAC9DJ81ZXUE7","","","","","31","","","","","","","","","","","","","","","","","","","","","",""
"null","","image-button-response","241","10157052","0.0-240.0","AAC9DJ81ZXUE7","img_art/25.jpg","null","","","","","","","","","","","","","","","","","","","","","","","","",""
"9382","","image-button-response","242","10166434","0.0-241.0","AAC9DJ81ZXUE7","img_art/25.jpg","2","","","","","","","","","","","","","","","","","","","","","","","","",""
"574","","image-button-response","243","10167010","0.0-242.0-0.0","AAC9DJ81ZXUE7","img_art/25.jpg","0","","","","","","","","","","","","","","","","","","","","","","","","",""
"848","","image-button-response","244","10167860","0.0-243.0-0.0","AAC9DJ81ZXUE7","img_art/25.jpg","4","","","","","","","","","","","","","","","","","","","","","","","","",""
"null","","html-keyboard-response","245","10169363","0.0-244.0","AAC9DJ81ZXUE7","<p style=""font-size: 48px;"">+</p>","","","","","null","allTrialResponses","1500","1","28","img_art/25.jpg","31","kinda creepy but cool ","Danielle,Shannon,Jamie,Kylie,Molly,Brianna","I like it, a bit cryptic and obscene, I enjoy that,30,340,20","I like the way the persons clothes look, there could be more color though.,10,220,20","Cool color scheme and appears to be a statue of some type of revered god,40,320,20","Egyptian heiroglyphics and painting,15,300,20","Well-designed, interesting.,30,340,20","This would definitely be hanging in my bedroom in my house,50,20,20","Jamie","Cool color scheme and appears to be a statue of some type of revered god,40,320,20","Danielle","I like it, a bit cryptic and obscene, I enjoy that,30,340,20","Molly","Well-designed, interesting.,30,340,20","2"
"42878","","survey-text","246","10212253","0.0-245.0-0.0","AAC9DJ81ZXUE7","","","","{""Q0"":""interesting but a bit of a mess""}","","","","","","","","","","","","","","","","","","","","","","",""
"4353","","image-slider-response","247","10216609","0.0-246.0","AAC9DJ81ZXUE7","","","","","4","","","","","","","","","","","","","","","","","","","","","",""
"3098","","image-button-response","248","10221612","0.0-247.0","AAC9DJ81ZXUE7","img_art/29.jpg","3","","","","","","","","","","","","","","","","","","","","","","","","",""
"644","","image-button-response","249","10222258","0.0-248.0","AAC9DJ81ZXUE7","img_art/29.jpg","3","","","","","","","","","","","","","","","","","","","","","","","","",""
"785","","image-button-response","250","10223043","0.0-249.0-0.0","AAC9DJ81ZXUE7","img_art/29.jpg","4","","","","","","","","","","","","","","","","","","","","","","","","",""
"703","","image-button-response","251","10223748","0.0-250.0-0.0","AAC9DJ81ZXUE7","img_art/29.jpg","5","","","","","","","","","","","","","","","","","","","","","","","","",""
"null","","html-keyboard-response","252","10224249","0.0-251.0","AAC9DJ81ZXUE7","<p style=""font-size: 48px;"">+</p>","","","","","null","allTrialResponses","500","1","29","img_art/29.jpg","4","interesting but a bit of a mess","Danielle,Morgan,Jamie,Cassandra,Molly,Kayla","Quite ugly in my opinion,-30,340,20","Tested and failed a lot of ideas.,-20,380,20","3D looks is really cool,30,320,20","Neural...just a blackboard jungle.,3,120,20","Looks kinda scary.,25,340,20","It looks like graffiti in a subway tunnel- destruction.,-20,180,20","Cassandra","Neural...just a blackboard jungle.,3,120,20","Molly","Looks kinda scary.,25,340,20","Kayla","It looks like graffiti in a subway tunnel- destruction.,-20,180,20","2"
"8934","","survey-text","253","10233189","0.0-252.0-0.0","AAC9DJ81ZXUE7","","","","{""Q0"":""It's kinda nice but mostly weird""}","","","","","","","","","","","","","","","","","","","","","","",""
"4854.5","","image-slider-response","254","10238045","0.0-253.0","AAC9DJ81ZXUE7","","","","","2","","","","","","","","","","","","","","","","","","","","","",""
"null","","image-button-response","255","10243048","0.0-254.0","AAC9DJ81ZXUE7","img_art/13.jpg","null","","","","","","","","","","","","","","","","","","","","","","","","",""
"742","","image-button-response","256","10243792","0.0-255.0","AAC9DJ81ZXUE7","img_art/13.jpg","1","","","","","","","","","","","","","","","","","","","","","","","","",""
"799","","image-button-response","257","10244592","0.0-256.0-0.0","AAC9DJ81ZXUE7","img_art/13.jpg","5","","","","","","","","","","","","","","","","","","","","","","","","",""
"480","","image-button-response","258","10245074","0.0-257.0-0.0","AAC9DJ81ZXUE7","img_art/13.jpg","4","","","","","","","","","","","","","","","","","","","","","","","","",""
"null","","html-keyboard-response","259","10246575","0.0-258.0","AAC9DJ81ZXUE7","<p style=""font-size: 48px;"">+</p>","","","","","null","allTrialResponses","1500","1","30","img_art/13.jpg","2","It's kinda nice but mostly weird","Amber,Angelica,Taylor,Cassandra,Molly,Kayla","Reminds me of rain running down a window.,35,200,20","It's too violent looking and there's too much contrast between the white/black.,-21,280,20","It makes me think of sitting inside on a rainy day while drinking a warm coffee,32,340,20","I love the colors and the texture,37,120,20","Incredible, curious.,20,340,20","Pleasing, happy, rainy.,12,180,20","Angelica","It's too violent looking and there's too much contrast between the white/black.,-21,280,20","Kayla","Pleasing, happy, rainy.,12,180,20","Molly","Incredible, curious.,20,340,20","2"
"48407","","image-button-response_instructions","260","10294988","0.0-259.0","AAC9DJ81ZXUE7","","0","instructions","","","","","","","","","","","","","","","","","","","","","","","",""
"1426","","image-button-response","261","10296430","0.0-260.0","AAC9DJ81ZXUE7","","0","","","","","","","","","","","","","","","","","","","","","","","","",""
