"rt","url","trial_type","trial_index","time_elapsed","internal_node_id","participant_id","stimulus","button_pressed","Name","responses","response","key_press","variableName","fixationTime","condition","trial","photo","subjectRating","subjectResponse","agentsNames","agent_1_Response","agent_2_Response","agent_3_Response","agent_4_Response","agent_5_Response","agent_6_Response","kept_1_name","kept_1_response","kept_2_name","kept_2_response","kept_3_name","kept_3_response","errorCounter"
"366523","external_page_harvard.html","external-html","0","366686","0.0-0.0","AAHC7FON67MC3","","","","","","","","","","","","","","","","","","","","","","","","","","",""
"1334","","image-button-response","1","368023","0.0-1.0","AAHC7FON67MC3","","1","","","","","","","","","","","","","","","","","","","","","","","","",""
"1056","","image-button-response","2","369087","0.0-2.0-0.0","AAHC7FON67MC3","","1","phone","","","","","","","","","","","","","","","","","","","","","","","",""
"7683","","survey-text","3","376772","0.0-3.0-0.0","AAHC7FON67MC3","","","","{""Q0"":""AAHC7FON67MC3""}","","","","","","","","","","","","","","","","","","","","","","",""
"3008","","image-button-response_instructions","4","379782","0.0-4.0","AAHC7FON67MC3","","0","instructions","","","","","","","","","","","","","","","","","","","","","","","",""
"6012","","image-button-response_instructions","5","385795","0.0-5.0","AAHC7FON67MC3","img_art/ins/popularity/ins1.png","0","instructions","","","","","","","","","","","","","","","","","","","","","","","",""
"3246","","image-button-response_instructions","6","389043","0.0-6.0","AAHC7FON67MC3","img_art/ins/popularity/ins2.png","0","instructions","","","","","","","","","","","","","","","","","","","","","","","",""
"11380","","image-button-response_instructions","7","400424","0.0-7.0","AAHC7FON67MC3","img_art/ins/popularity/ins2Extreme.png","0","instructions","","","","","","","","","","","","","","","","","","","","","","","",""
"7259","","image-button-response_instructions","8","407686","0.0-8.0","AAHC7FON67MC3","img_art/ins/popularity/ins3KEEPpop.PNG","0","instructions","","","","","","","","","","","","","","","","","","","","","","","",""
"2258","","image-button-response_instructions","9","409945","0.0-9.0","AAHC7FON67MC3","img_art/ins/popularity/ins3ANamepop.PNG","0","instructions","","","","","","","","","","","","","","","","","","","","","","","",""
"2265","","image-button-response_instructions","10","412211","0.0-10.0","AAHC7FON67MC3","img_art/ins/popularity/ins3ARatingpop.png","0","instructions","","","","","","","","","","","","","","","","","","","","","","","",""
"1892","","image-button-response_instructions","11","414105","0.0-11.0","AAHC7FON67MC3","img_art/ins/popularity/ins3ATextpop.png","0","instructions","","","","","","","","","","","","","","","","","","","","","","","",""
"2561","","image-button-response_instructions","12","416667","0.0-12.0","AAHC7FON67MC3","img_art/ins/popularity/ins3ALikespop.png","0","instructions","","","","","","","","","","","","","","","","","","","","","","","",""
"5044","","image-button-response_instructions","13","421713","0.0-13.0","AAHC7FON67MC3","img_art/ins/popularity/ins3KEEPpop.PNG","0","instructions","","","","","","","","","","","","","","","","","","","","","","","",""
"32310","","image-button-response_instructions","14","454023","0.0-14.0","AAHC7FON67MC3","img_art/ins/popularity/ins3_5RED.png","0","instructions","","","","","","","","","","","","","","","","","","","","","","","",""
"4090","","image-button-response_instructions","15","458114","0.0-15.0","AAHC7FON67MC3","img_art/ins/popularity/ins3KEEPpop.PNG","0","instructions","","","","","","","","","","","","","","","","","","","","","","","",""
"5875","","image-button-response_instructions","16","463991","0.0-16.0","AAHC7FON67MC3","img_art/ins/popularity/ins4KEEPpop.PNG","0","instructions","","","","","","","","","","","","","","","","","","","","","","","",""
"4093","","image-button-response_instructions","17","468085","0.0-17.0","AAHC7FON67MC3","img_art/ins/popularity/ins5KEEPpop.PNG","0","instructions","","","","","","","","","","","","","","","","","","","","","","","",""
"1406","","image-button-response_instructions","18","469493","0.0-18.0","AAHC7FON67MC3","","0","instructions","","","","","","","","","","","","","","","","","","","","","","","",""
"7528","","survey-text","19","477054","0.0-19.0-0.0","AAHC7FON67MC3","","","","{""Q0"":""but""}","","","","","","","","","","","","","","","","","","","","","","",""
"19885","","survey-text","20","496943","0.0-20.0-0.0","AAHC7FON67MC3","","","","{""Q0"":""Beautiful piece of art with strokes of color that pop""}","","","","","","","","","","","","","","","","","","","","","","",""
"4639.699999809265","","image-slider-response","21","501586","0.0-21.0","AAHC7FON67MC3","","","","","40","","","","","","","","","","","","","","","","","","","","","",""
"null","","image-button-response","22","506603","0.0-22.0","AAHC7FON67MC3","img_art/ins/1.jpg","null","","","","","","","","","","","","","","","","","","","","","","","","",""
"4617","","image-button-response","23","511223","0.0-23.0","AAHC7FON67MC3","img_art/ins/1.jpg","2","","","","","","","","","","","","","","","","","","","","","","","","",""
"5821","","image-button-response","24","517048","0.0-24.0-0.0","AAHC7FON67MC3","img_art/ins/1.jpg","5","","","","","","","","","","","","","","","","","","","","","","","","",""
"3358","","image-button-response","25","520411","0.0-25.0-0.0","AAHC7FON67MC3","img_art/ins/1.jpg","4","","","","","","","","","","","","","","","","","","","","","","","","",""
"null","","html-keyboard-response","26","520920","0.0-26.0","AAHC7FON67MC3","<p style=""font-size: 48px;"">+</p>","","","","","null","allTrialResponses","500","1","-2","img_art/ins/1.jpg","40","Beautiful piece of art with strokes of color that pop","Allison,Ashley,Beth,Dora,Erika,Jen","looks like a lot of things going on in the mist,20,20,20","I just don't get why these type of art would be popular,-32,40,20","This color reminds me of poo,-46,60,20","looks like what my niece in 3rd grade did this afternoon,-50,80,20","I like the sophisticated brushwork,40,100,20","It reminds me of a candy land dream I had,36,120,20","Beth","This color reminds me of poo,-46,60,20","Jen","It reminds me of a candy land dream I had,36,120,20","Erika","I like the sophisticated brushwork,40,100,20","0"
"24865","","survey-text","27","545789","0.0-27.0-0.0","AAHC7FON67MC3","","","","{""Q0"":""Too dark. Makes me think of being angry""}","","","","","","","","","","","","","","","","","","","","","","",""
"4222","","image-slider-response","28","550013","0.0-28.0","AAHC7FON67MC3","","","","","-19","","","","","","","","","","","","","","","","","","","","","",""
"null","","image-button-response","29","555032","0.0-29.0","AAHC7FON67MC3","img_art/ins/2.jpg","null","","","","","","","","","","","","","","","","","","","","","","","","",""
"2819","","image-button-response","30","557853","0.0-30.0","AAHC7FON67MC3","img_art/ins/2.jpg","5","","","","","","","","","","","","","","","","","","","","","","","","",""
"5126","","image-button-response","31","562982","0.0-31.0-0.0","AAHC7FON67MC3","img_art/ins/2.jpg","2","","","","","","","","","","","","","","","","","","","","","","","","",""
"5822","","image-button-response","32","568806","0.0-32.0-0.0","AAHC7FON67MC3","img_art/ins/2.jpg","3","","","","","","","","","","","","","","","","","","","","","","","","",""
"null","","html-keyboard-response","33","569813","0.0-33.0","AAHC7FON67MC3","<p style=""font-size: 48px;"">+</p>","","","","","null","allTrialResponses","1000","1","-1","img_art/ins/2.jpg","-19","Too dark. Makes me think of being angry","Katie,Kara,Beth,Jenna,Erika,Jen","too much color!,-28,180,20","I like the blocks of color arrangements,30,160,20","meaningless painting,-45,60,20","One of my pet peevs,-48,140,20","I would never be able to compose a sophisticated pallete like this,48,100,20","It reminds me of a fireplace,36,120,20","Jen","It reminds me of a fireplace,36,120,20","Beth","meaningless painting,-45,60,20","Jenna","One of my pet peevs,-48,140,20","0"
"25742","","survey-text","34","595563","0.0-34.0-0.0","AAHC7FON67MC3","","","","{""Q0"":""This is taking me to a place of winter wonderland. ""}","","","","","","","","","","","","","","","","","","","","","","",""
"2536","","image-slider-response","35","598103","0.0-35.0","AAHC7FON67MC3","","","","","50","","","","","","","","","","","","","","","","","","","","","",""
"null","","image-button-response","36","603115","0.0-36.0","AAHC7FON67MC3","img_art/ins/3.jpg","null","","","","","","","","","","","","","","","","","","","","","","","","",""
"3073","","image-button-response","37","606190","0.0-37.0","AAHC7FON67MC3","img_art/ins/3.jpg","5","","","","","","","","","","","","","","","","","","","","","","","","",""
"1392","","image-button-response","38","607585","0.0-38.0-0.0","AAHC7FON67MC3","img_art/ins/3.jpg","4","","","","","","","","","","","","","","","","","","","","","","","","",""
"5530","","image-button-response","39","613119","0.0-39.0-0.0","AAHC7FON67MC3","img_art/ins/3.jpg","0","","","","","","","","","","","","","","","","","","","","","","","","",""
"null","","html-keyboard-response","40","614633","0.0-40.0","AAHC7FON67MC3","<p style=""font-size: 48px;"">+</p>","","","","","null","allTrialResponses","1500","1","0","img_art/ins/3.jpg","50","This is taking me to a place of winter wonderland. ","Leslie,Rose,Beth,Jenna,Mary,Jen","It's an alright work,15,200,20","My daily routine, it's depressing,-20,240,20","This thing gives me anxiety,-41,60,20","looks like a murder room,-35,140,20","I like the overlapping of brushes,41,220,20","I can feel a rainy day from this painting,18,120,20","Jen","I can feel a rainy day from this painting,18,120,20","Mary","I like the overlapping of brushes,41,220,20","Leslie","It's an alright work,15,200,20","0"
"10292","","image-button-response_instructions","41","624931","0.0-41.0","AAHC7FON67MC3","","0","instructions","","","","","","","","","","","","","","","","","","","","","","","",""
"14868","","survey-likert","42","639802","0.0-42.0-0.0","AAHC7FON67MC3","","","","{""Q0"":"""",""Q1"":1,""Q2"":1}","","","","","","","","","","","","","","","","","","","","","","",""
"3515","","survey-likert","43","645533","0.0-42.1-0.1","AAHC7FON67MC3","","","","{""Q0"":"""",""Q1"":0,""Q2"":1}","","","","","","","","","","","","","","","","","","","","","","",""
"3599","","survey-text","44","649142","0.0-43.0-0.0","AAHC7FON67MC3","","","","{""Q0"":""rock""}","","","","","","","","","","","","","","","","","","","","","","",""
"30954","","survey-text","45","680098","0.0-44.0-0.0","AAHC7FON67MC3","","","","{""Q0"":""Don't like. Looks like something  is growing too fast and out of control. ""}","","","","","","","","","","","","","","","","","","","","","","",""
"2790.600000143051","","image-slider-response","46","682891","0.0-45.0","AAHC7FON67MC3","","","","","-28","","","","","","","","","","","","","","","","","","","","","",""
"null","","image-button-response","47","687923","0.0-46.0","AAHC7FON67MC3","img_art/17.jpg","null","","","","","","","","","","","","","","","","","","","","","","","","",""
"675","","image-button-response","48","688601","0.0-47.0","AAHC7FON67MC3","img_art/17.jpg","4","","","","","","","","","","","","","","","","","","","","","","","","",""
"1561","","image-button-response","49","690164","0.0-48.0-0.0","AAHC7FON67MC3","img_art/17.jpg","3","","","","","","","","","","","","","","","","","","","","","","","","",""
"9389","","image-button-response","50","699556","0.0-49.0-0.0","AAHC7FON67MC3","img_art/17.jpg","0","","","","","","","","","","","","","","","","","","","","","","","","",""
"null","","html-keyboard-response","51","701059","0.0-50.0","AAHC7FON67MC3","<p style=""font-size: 48px;"">+</p>","","","","","null","allTrialResponses","1500","1","1","img_art/17.jpg","-28","Don't like. Looks like something  is growing too fast and out of control. ","Brittany,Anna,Kaylee,Julia,Amanda,Alexis","I like the colors and the design.,20,40,20","it brings a clear picture to my minds eye:,45,300,20","colorful tree really cool,27,200,20","I'm not into paintings of trees,-18,40,20","Feels supernatural and scary,-16,180,20","Love the color and nature motif,36,100,20","Amanda","Feels supernatural and scary,-16,180,20","Julia","I'm not into paintings of trees,-18,40,20","Brittany","I like the colors and the design.,20,40,20","1"
"31260","","survey-text","52","732324","0.0-51.0-0.0","AAHC7FON67MC3","","","","{""Q0"":""Plain and boring. It doesn't do anything for me. ""}","","","","","","","","","","","","","","","","","","","","","","",""
"3526.199999809265","","image-slider-response","53","735853","0.0-52.0","AAHC7FON67MC3","","","","","-42","","","","","","","","","","","","","","","","","","","","","",""
"1748","","image-button-response","54","740865","0.0-53.0","AAHC7FON67MC3","img_art/5.jpg","2","","","","","","","","","","","","","","","","","","","","","","","","",""
"1961","","image-button-response","55","742830","0.0-54.0","AAHC7FON67MC3","img_art/5.jpg","2","","","","","","","","","","","","","","","","","","","","","","","","",""
"6508","","image-button-response","56","749341","0.0-55.0-0.0","AAHC7FON67MC3","img_art/5.jpg","3","","","","","","","","","","","","","","","","","","","","","","","","",""
"1611","","image-button-response","57","750956","0.0-56.0-0.0","AAHC7FON67MC3","img_art/5.jpg","5","","","","","","","","","","","","","","","","","","","","","","","","",""
"null","","html-keyboard-response","58","751967","0.0-57.0","AAHC7FON67MC3","<p style=""font-size: 48px;"">+</p>","","","","","null","allTrialResponses","1000","1","2","img_art/5.jpg","-42","Plain and boring. It doesn't do anything for me. ","Brittany,Makayla,Stephanie,Julia,Amanda,Diana","Although it's very simple, there's something about the colors that really draws the eye.,11,40,20","Bright and sunny,19,80,20","This did not do a thing for me.,-50,300,20","I like this one but wish it had more context around it,18,40,20","Very good color coordination,41,180,20","I didn't care for this art piece. I wasn't sure about the color choice.,-15,380,20","Stephanie","This did not do a thing for me.,-50,300,20","Julia","I like this one but wish it had more context around it,18,40,20","Diana","I didn't care for this art piece. I wasn't sure about the color choice.,-15,380,20","1"
"114895","","survey-text","59","866869","0.0-58.0-0.0","AAHC7FON67MC3","","","","{""Q0"":""Painting a 4 year old did. It's okay""}","","","","","","","","","","","","","","","","","","","","","","",""
"3722.4000000953674","","image-slider-response","60","870596","0.0-59.0","AAHC7FON67MC3","","","","","1","","","","","","","","","","","","","","","","","","","","","",""
"null","","image-button-response","61","875602","0.0-60.0","AAHC7FON67MC3","img_art/27.jpg","null","","","","","","","","","","","","","","","","","","","","","","","","",""
"740","","image-button-response","62","876344","0.0-61.0","AAHC7FON67MC3","img_art/27.jpg","5","","","","","","","","","","","","","","","","","","","","","","","","",""
"2407","","image-button-response","63","878754","0.0-62.0-0.0","AAHC7FON67MC3","img_art/27.jpg","4","","","","","","","","","","","","","","","","","","","","","","","","",""
"7495","","image-button-response","64","886253","0.0-63.0-0.0","AAHC7FON67MC3","img_art/27.jpg","2","","","","","","","","","","","","","","","","","","","","","","","","",""
"null","","html-keyboard-response","65","887268","0.0-64.0","AAHC7FON67MC3","<p style=""font-size: 48px;"">+</p>","","","","","null","allTrialResponses","1000","1","3","img_art/27.jpg","1","Painting a 4 year old did. It's okay","Ashley,Brooke,Stephanie,Julia,Megan,Diana","Lots of activity, layers, imagination at work here.,29,320,20","Like it, autumn colors, trees and foliage scene.,25,60,20","The black sketchy over the colors doesn't fit.,-4,300,20","Colors could be more pleasing, but I really like the thinner lines superimposed over the background,25,40,20","Nice back ground with childish scribble on top,-30,200,20","I don't care for the green scribbles; not sure what they are. But I adore the colors in the background.,24,380,20","Diana","I don't care for the green scribbles; not sure what they are. But I adore the colors in the background.,24,380,20","Megan","Nice back ground with childish scribble on top,-30,200,20","Stephanie","The black sketchy over the colors doesn't fit.,-4,300,20","1"
"38701","","survey-text","66","925987","0.0-65.0-0.0","AAHC7FON67MC3","","","","{""Q0"":""I like the background colors. I don't like the red scribbled on top. Messed up the painting. ""}","","","","","","","","","","","","","","","","","","","","","","",""
"2281.7000000476837","","image-slider-response","67","928271","0.0-66.0","AAHC7FON67MC3","","","","","-22","","","","","","","","","","","","","","","","","","","","","",""
"2187","","image-button-response","68","933276","0.0-67.0","AAHC7FON67MC3","img_art/30.jpg","2","","","","","","","","","","","","","","","","","","","","","","","","",""
"284","","image-button-response","69","933564","0.0-68.0","AAHC7FON67MC3","img_art/30.jpg","1","","","","","","","","","","","","","","","","","","","","","","","","",""
"8775","","image-button-response","70","942342","0.0-69.0-0.0","AAHC7FON67MC3","img_art/30.jpg","4","","","","","","","","","","","","","","","","","","","","","","","","",""
"6134","","image-button-response","71","948480","0.0-70.0-0.0","AAHC7FON67MC3","img_art/30.jpg","2","","","","","","","","","","","","","","","","","","","","","","","","",""
"null","","html-keyboard-response","72","948983","0.0-71.0","AAHC7FON67MC3","<p style=""font-size: 48px;"">+</p>","","","","","null","allTrialResponses","500","1","4","img_art/30.jpg","-22","I like the background colors. I don't like the red scribbled on top. Messed up the painting. ","Jacqueline,Vanessa,Stephanie,Emma,Megan,Diana","Too dark and ugly with all the black smears,-20,300,20","I like the red against the blue, but otherwise, it's not really my taste,4,380,20","My kindergarten class could do this,-50,300,20","Like the design, not a big fan of the colors,20,60,20","10 year old 10 minute project ""Fun with Painting"",-42,200,20","I love the color contrast of the red against the blue.,9,380,20","Vanessa","I like the red against the blue, but otherwise, it's not really my taste,4,380,20","Megan","10 year old 10 minute project ""Fun with Painting"",-42,200,20","Stephanie","My kindergarten class could do this,-50,300,20","1"
"52396","","survey-text","73","1001383","0.0-72.0-0.0","AAHC7FON67MC3","","","","{""Q0"":""Not my taste. Don't like. ""}","","","","","","","","","","","","","","","","","","","","","","",""
"4885.699999809265","","image-slider-response","74","1006272","0.0-73.0","AAHC7FON67MC3","","","","","-46","","","","","","","","","","","","","","","","","","","","","",""
"2320","","image-button-response","75","1011281","0.0-74.0","AAHC7FON67MC3","img_art/19.jpg","2","","","","","","","","","","","","","","","","","","","","","","","","",""
"5693","","image-button-response","76","1016976","0.0-75.0","AAHC7FON67MC3","img_art/19.jpg","3","","","","","","","","","","","","","","","","","","","","","","","","",""
"2455","","image-button-response","77","1019434","0.0-76.0-0.0","AAHC7FON67MC3","img_art/19.jpg","1","","","","","","","","","","","","","","","","","","","","","","","","",""
"2035","","image-button-response","78","1021471","0.0-77.0-0.0","AAHC7FON67MC3","img_art/19.jpg","2","","","","","","","","","","","","","","","","","","","","","","","","",""
"null","","html-keyboard-response","79","1022483","0.0-78.0","AAHC7FON67MC3","<p style=""font-size: 48px;"">+</p>","","","","","null","allTrialResponses","1000","1","5","img_art/19.jpg","-46","Not my taste. Don't like. ","Mariah,Vanessa,Stephanie,Kristen,Megan,Briana","I like the watercolor and colors, do not like the deconstructed city scene feel.,0,140,20","Again, this is too abstract.,-10,380,20","A dreary town in the fall.,-4,300,20","city, stress of urbanism, slightly panicked,2,280,20","Simple, scratchy lack of negative space.,-10,200,20","Its simple and the colors i like. It reminds me of chagall,34,400,20","Kristen","city, stress of urbanism, slightly panicked,2,280,20","Vanessa","Again, this is too abstract.,-10,380,20","Stephanie","A dreary town in the fall.,-4,300,20","1"
"3901","","survey-text","80","1026393","0.0-79.0-0.0","AAHC7FON67MC3","","","","{""Q0"":""sky""}","","","","","","","","","","","","","","","","","","","","","","",""
"35153","","survey-text","81","1061548","0.0-80.0-0.0","AAHC7FON67MC3","","","","{""Q0"":""Depiction of 2 worlds. Sad/ hurt and happy/joy""}","","","","","","","","","","","","","","","","","","","","","","",""
"2969.4000000953674","","image-slider-response","82","1064520","0.0-81.0","AAHC7FON67MC3","","","","","16","","","","","","","","","","","","","","","","","","","","","",""
"null","","image-button-response","83","1069533","0.0-82.0","AAHC7FON67MC3","img_art/12.jpg","null","","","","","","","","","","","","","","","","","","","","","","","","",""
"3786","","image-button-response","84","1073321","0.0-83.0","AAHC7FON67MC3","img_art/12.jpg","2","","","","","","","","","","","","","","","","","","","","","","","","",""
"1306","","image-button-response","85","1074630","0.0-84.0-0.0","AAHC7FON67MC3","img_art/12.jpg","0","","","","","","","","","","","","","","","","","","","","","","","","",""
"1198","","image-button-response","86","1075831","0.0-85.0-0.0","AAHC7FON67MC3","img_art/12.jpg","5","","","","","","","","","","","","","","","","","","","","","","","","",""
"null","","html-keyboard-response","87","1077341","0.0-86.0","AAHC7FON67MC3","<p style=""font-size: 48px;"">+</p>","","","","","null","allTrialResponses","1500","1","6","img_art/12.jpg","16","Depiction of 2 worlds. Sad/ hurt and happy/joy","Courtney,Vanessa,Stephanie,Kristen,Sydney,Molly","That is a warn quilt grama made.,11,280,20","This is too abstract and the colors are too worn out.,-23,380,20","I like the pattern to it.,31,300,20","stressful, upsetting,-10,280,20","I don't like the dark black with the bright colors, but this as a whole is nice.,25,320,20","Seems to be puzzles.,25,340,20","Stephanie","I like the pattern to it.,31,300,20","Courtney","That is a warn quilt grama made.,11,280,20","Molly","Seems to be puzzles.,25,340,20","1"
"162793","","survey-text","88","1240137","0.0-87.0-0.0","AAHC7FON67MC3","","","","{""Q0"":""Dark and depressing""}","","","","","","","","","","","","","","","","","","","","","","",""
"3848.5","","image-slider-response","89","1243989","0.0-88.0","AAHC7FON67MC3","","","","","-27","","","","","","","","","","","","","","","","","","","","","",""
"3617","","image-button-response","90","1249003","0.0-89.0","AAHC7FON67MC3","img_art/16.jpg","1","","","","","","","","","","","","","","","","","","","","","","","","",""
"202","","image-button-response","91","1249207","0.0-90.0","AAHC7FON67MC3","img_art/16.jpg","1","","","","","","","","","","","","","","","","","","","","","","","","",""
"1013","","image-button-response","92","1250223","0.0-91.0-0.0","AAHC7FON67MC3","img_art/16.jpg","2","","","","","","","","","","","","","","","","","","","","","","","","",""
"3230","","image-button-response","93","1253456","0.0-92.0-0.0","AAHC7FON67MC3","img_art/16.jpg","3","","","","","","","","","","","","","","","","","","","","","","","","",""
"null","","html-keyboard-response","94","1254959","0.0-93.0","AAHC7FON67MC3","<p style=""font-size: 48px;"">+</p>","","","","","null","allTrialResponses","1500","1","7","img_art/16.jpg","-27","Dark and depressing","Courtney,Chloe,Stephanie,Maria,Taylor,Molly","Hmm i don't know what going on here.,1,280,20","Fun but a little cheesy,15,220,20","It looks violent.,-30,300,20","feel a little creeped out,-20,120,20","It just makes me feel uncomfortable,-25,340,20","It's frightening.,30,340,20","Chloe","Fun but a little cheesy,15,220,20","Stephanie","It looks violent.,-30,300,20","Maria","feel a little creeped out,-20,120,20","1"
"16673","","survey-text","95","1271637","0.0-94.0-0.0","AAHC7FON67MC3","","","","{""Q0"":""I like the imagery. Feels like a dream""}","","","","","","","","","","","","","","","","","","","","","","",""
"4655.100000143051","","image-slider-response","96","1276295","0.0-95.0","AAHC7FON67MC3","","","","","21","","","","","","","","","","","","","","","","","","","","","",""
"null","","image-button-response","97","1281298","0.0-96.0","AAHC7FON67MC3","img_art/21.jpg","null","","","","","","","","","","","","","","","","","","","","","","","","",""
"6035","","image-button-response","98","1287335","0.0-97.0","AAHC7FON67MC3","img_art/21.jpg","1","","","","","","","","","","","","","","","","","","","","","","","","",""
"1324","","image-button-response","99","1288662","0.0-98.0-0.0","AAHC7FON67MC3","img_art/21.jpg","2","","","","","","","","","","","","","","","","","","","","","","","","",""
"1358","","image-button-response","100","1290024","0.0-99.0-0.0","AAHC7FON67MC3","img_art/21.jpg","5","","","","","","","","","","","","","","","","","","","","","","","","",""
"null","","html-keyboard-response","101","1291026","0.0-100.0","AAHC7FON67MC3","<p style=""font-size: 48px;"">+</p>","","","","","null","allTrialResponses","1000","1","8","img_art/21.jpg","21","I like the imagery. Feels like a dream","Catherine,Chloe,Stephanie,Maria,Michaela,Kylie","Nature, water, ever changing. Cold then warm. Reaction is mostly positive and some negative,30,160,20","Lovely colors and emotive effects. Turner-esque in a not-so derivative way.,44,220,20","A battle at sea, the red is a bomb exploding.,-31,300,20","brings up imagery of the sea and clashing, though not in a negative way,31,120,20","I love how vague it is but how you can imagine a story anyway, like clouds,45,260,20","Makes me think of a battleship targeting a beautiful mountainside,0,300,20","Chloe","Lovely colors and emotive effects. Turner-esque in a not-so derivative way.,44,220,20","Stephanie","A battle at sea, the red is a bomb exploding.,-31,300,20","Kylie","Makes me think of a battleship targeting a beautiful mountainside,0,300,20","1"
"14762","","survey-text","102","1305792","0.0-101.0-0.0","AAHC7FON67MC3","","","","{""Q0"":""Looks like a bunch of bugs""}","","","","","","","","","","","","","","","","","","","","","","",""
"2028.3000001907349","","image-slider-response","103","1307823","0.0-102.0","AAHC7FON67MC3","","","","","-34","","","","","","","","","","","","","","","","","","","","","",""
"3154","","image-button-response","104","1312830","0.0-103.0","AAHC7FON67MC3","img_art/15.jpg","2","","","","","","","","","","","","","","","","","","","","","","","","",""
"2793","","image-button-response","105","1315625","0.0-104.0","AAHC7FON67MC3","img_art/15.jpg","5","","","","","","","","","","","","","","","","","","","","","","","","",""
"1160","","image-button-response","106","1316788","0.0-105.0-0.0","AAHC7FON67MC3","img_art/15.jpg","2","","","","","","","","","","","","","","","","","","","","","","","","",""
"6084","","image-button-response","107","1322875","0.0-106.0-0.0","AAHC7FON67MC3","img_art/15.jpg","1","","","","","","","","","","","","","","","","","","","","","","","","",""
"null","","html-keyboard-response","108","1323886","0.0-107.0","AAHC7FON67MC3","<p style=""font-size: 48px;"">+</p>","","","","","null","allTrialResponses","1000","1","9","img_art/15.jpg","-34","Looks like a bunch of bugs","Crystal,Chloe,Stephanie,Mackenzie,Jamie,Kylie","The blotted black spots create a nice contrast between the brush strokes within the center and sides. I like it.,41,300,20","Like the composition and lines,26,220,20","This piece is too dark,-42,300,20","I like the colors and textures.,32,20,20","Black and blue is my favorite color combination,35,320,20","I don't know how I feel about this,31,300,20","Kylie","I don't know how I feel about this,31,300,20","Stephanie","This piece is too dark,-42,300,20","Chloe","Like the composition and lines,26,220,20","1"
"222145","","survey-text","109","1546038","0.0-108.0-0.0","AAHC7FON67MC3","","","","{""Q0"":""Kids playing underneath a beautiful tree. Love the colors. ""}","","","","","","","","","","","","","","","","","","","","","","",""
"1856.3999998569489","","image-slider-response","110","1547898","0.0-109.0","AAHC7FON67MC3","","","","","22","","","","","","","","","","","","","","","","","","","","","",""
"3954","","image-button-response","111","1552901","0.0-110.0","AAHC7FON67MC3","img_art/14.jpg","3","","","","","","","","","","","","","","","","","","","","","","","","",""
"613","","image-button-response","112","1553516","0.0-111.0","AAHC7FON67MC3","img_art/14.jpg","3","","","","","","","","","","","","","","","","","","","","","","","","",""
"1010","","image-button-response","113","1554529","0.0-112.0-0.0","AAHC7FON67MC3","img_art/14.jpg","5","","","","","","","","","","","","","","","","","","","","","","","","",""
"598","","image-button-response","114","1555130","0.0-113.0-0.0","AAHC7FON67MC3","img_art/14.jpg","4","","","","","","","","","","","","","","","","","","","","","","","","",""
"null","","html-keyboard-response","115","1556134","0.0-114.0","AAHC7FON67MC3","<p style=""font-size: 48px;"">+</p>","","","","","null","allTrialResponses","1000","1","10","img_art/14.jpg","22","Kids playing underneath a beautiful tree. Love the colors. ","Kathryn,Chloe,Stephanie,Meghan,Kayla,Kylie","This reminds me of a tree but the tree is sickly, and poorly cared for.,-10,140,20","Like the brushstrokes but not the composition,9,220,20","Late Winter when things are just starting to bloom.,21,300,20","its okay nothing special,11,220,20","I like that it looks like plants on a table, which reminds me of life.,4,180,20","Confusion or an explosion,40,300,20","Meghan","its okay nothing special,11,220,20","Kylie","Confusion or an explosion,40,300,20","Kayla","I like that it looks like plants on a table, which reminds me of life.,4,180,20","1"
"3250","","survey-text","116","1559397","0.0-115.0-0.0","AAHC7FON67MC3","","","","{""Q0"":""our""}","","","","","","","","","","","","","","","","","","","","","","",""
"16439","","survey-text","117","1575837","0.0-116.0-0.0","AAHC7FON67MC3","","","","{""Q0"":""Love the combination of colors all mixed together. ""}","","","","","","","","","","","","","","","","","","","","","","",""
"3030.5999999046326","","image-slider-response","118","1578870","0.0-117.0","AAHC7FON67MC3","","","","","41","","","","","","","","","","","","","","","","","","","","","",""
"4982","","image-button-response","119","1583873","0.0-118.0","AAHC7FON67MC3","img_art/1.jpg","3","","","","","","","","","","","","","","","","","","","","","","","","",""
"502","","image-button-response","120","1584378","0.0-119.0","AAHC7FON67MC3","img_art/1.jpg","3","","","","","","","","","","","","","","","","","","","","","","","","",""
"1663","","image-button-response","121","1586044","0.0-120.0-0.0","AAHC7FON67MC3","img_art/1.jpg","1","","","","","","","","","","","","","","","","","","","","","","","","",""
"1979","","image-button-response","122","1588028","0.0-121.0-0.0","AAHC7FON67MC3","img_art/1.jpg","5","","","","","","","","","","","","","","","","","","","","","","","","",""
"null","","html-keyboard-response","123","1588534","0.0-122.0","AAHC7FON67MC3","<p style=""font-size: 48px;"">+</p>","","","","","null","allTrialResponses","500","1","11","img_art/1.jpg","41","Love the combination of colors all mixed together. ","Haley,Jenna,Laura,Meghan,Kayla,Kylie","Pleasant, but a tad too monochromatic in some areas for my taste,7,220,20","beautiful colors and brush strokes,47,360,20","soft and touchable, muddled,15,320,20","good colors and contrast,31,220,20","Happy! Reminds me of hiking in tennesee.,18,180,20","I don't know how I feel about this,1,300,20","Meghan","good colors and contrast,31,220,20","Jenna","beautiful colors and brush strokes,47,360,20","Kylie","I don't know how I feel about this,1,300,20","1"
"24525","","survey-text","124","1613068","0.0-123.0-0.0","AAHC7FON67MC3","","","","{""Q0"":""I don't know how to feel about this. Looks a mess. ""}","","","","","","","","","","","","","","","","","","","","","","",""
"2192.7999999523163","","image-slider-response","125","1615263","0.0-124.0","AAHC7FON67MC3","","","","","-36","","","","","","","","","","","","","","","","","","","","","",""
"null","","image-button-response","126","1620272","0.0-125.0","AAHC7FON67MC3","img_art/9.jpg","null","","","","","","","","","","","","","","","","","","","","","","","","",""
"1069","","image-button-response","127","1621343","0.0-126.0","AAHC7FON67MC3","img_art/9.jpg","4","","","","","","","","","","","","","","","","","","","","","","","","",""
"6286","","image-button-response","128","1627632","0.0-127.0-0.0","AAHC7FON67MC3","img_art/9.jpg","3","","","","","","","","","","","","","","","","","","","","","","","","",""
"1936","","image-button-response","129","1629570","0.0-128.0-0.0","AAHC7FON67MC3","img_art/9.jpg","0","","","","","","","","","","","","","","","","","","","","","","","","",""
"null","","html-keyboard-response","130","1631078","0.0-129.0","AAHC7FON67MC3","<p style=""font-size: 48px;"">+</p>","","","","","null","allTrialResponses","1500","1","12","img_art/9.jpg","-36","I don't know how to feel about this. Looks a mess. ","Christina,Jenna,Sabrina,Meghan,Kimberly,Kylie","nice colors but it looks like it's from the 80s,10,240,20","gorgeous colors, love the little details,42,360,20","Calming and relaxing,42,120,20","looks like someone resting,12,220,20","It's too all over the place,-37,260,20","Peaceful dreaming,40,300,20","Kimberly","It's too all over the place,-37,260,20","Meghan","looks like someone resting,12,220,20","Christina","nice colors but it looks like it's from the 80s,10,240,20","1"
"34580","","survey-text","131","1665666","0.0-130.0-0.0","AAHC7FON67MC3","","","","{""Q0"":""This is beautiful. I love the colors. Blue, white, black and dashes of purple. This is cool. ""}","","","","","","","","","","","","","","","","","","","","","","",""
"2422.9000000953674","","image-slider-response","132","1668092","0.0-131.0","AAHC7FON67MC3","","","","","39","","","","","","","","","","","","","","","","","","","","","",""
"null","","image-button-response","133","1673098","0.0-132.0","AAHC7FON67MC3","img_art/13.jpg","null","","","","","","","","","","","","","","","","","","","","","","","","",""
"7053","","image-button-response","134","1680153","0.0-133.0","AAHC7FON67MC3","img_art/13.jpg","4","","","","","","","","","","","","","","","","","","","","","","","","",""
"5336","","image-button-response","135","1685492","0.0-134.0-0.0","AAHC7FON67MC3","img_art/13.jpg","1","","","","","","","","","","","","","","","","","","","","","","","","",""
"3483","","image-button-response","136","1688980","0.0-135.0-0.0","AAHC7FON67MC3","img_art/13.jpg","3","","","","","","","","","","","","","","","","","","","","","","","","",""
"null","","html-keyboard-response","137","1690489","0.0-136.0","AAHC7FON67MC3","<p style=""font-size: 48px;"">+</p>","","","","","null","allTrialResponses","1500","1","13","img_art/13.jpg","39","This is beautiful. I love the colors. Blue, white, black and dashes of purple. This is cool. ","Christina,Alexandria,Sierra,Meghan,Kimberly,Gabriela","i like the colors but it looks like something that would hang in a hotel,18,240,20","the monochrome of blue with splatters makes me excited and happy,36,80,20","the blues are soothing but the splatters are too much,-3,260,20","I like the transition to other colors,24,220,20","It's like a pattern on a bus seat,10,260,20","It looks too common, is a bit boring,-41,140,20","Kimberly","It's like a pattern on a bus seat,10,260,20","Alexandria","the monochrome of blue with splatters makes me excited and happy,36,80,20","Meghan","I like the transition to other colors,24,220,20","1"
"21786","","survey-text","138","1712282","0.0-137.0-0.0","AAHC7FON67MC3","","","","{""Q0"":""Looks like a musical instrument with messed up strings. ""}","","","","","","","","","","","","","","","","","","","","","","",""
"2352.9000000953674","","image-slider-response","139","1714638","0.0-138.0","AAHC7FON67MC3","","","","","-25","","","","","","","","","","","","","","","","","","","","","",""
"4089","","image-button-response","140","1719655","0.0-139.0","AAHC7FON67MC3","img_art/10.jpg","1","","","","","","","","","","","","","","","","","","","","","","","","",""
"323","","image-button-response","141","1719981","0.0-140.0","AAHC7FON67MC3","img_art/10.jpg","1","","","","","","","","","","","","","","","","","","","","","","","","",""
"3030","","image-button-response","142","1723013","0.0-141.0-0.0","AAHC7FON67MC3","img_art/10.jpg","1","","","","","","","","","","","","","","","","","","","","","","","","",""
"7197","","image-button-response","143","1735832","0.0-141.1-0.1","AAHC7FON67MC3","img_art/10.jpg","2","","","","","","","","","","","","","","","","","","","","","","","","",""
"5038","","image-button-response","144","1740873","0.0-142.0-0.0","AAHC7FON67MC3","img_art/10.jpg","4","","","","","","","","","","","","","","","","","","","","","","","","",""
"null","","html-keyboard-response","145","1741387","0.0-143.0","AAHC7FON67MC3","<p style=""font-size: 48px;"">+</p>","","","","","null","allTrialResponses","500","1","14","img_art/10.jpg","-25","Looks like a musical instrument with messed up strings. ","Angela,Alexandria,Madeline,Meghan,Kimberly,Tiffany","This makes me think of a city, specifically London.,20,260,20","it reminds me of a musical instrument,19,80,20","Looks a bit as though someone ran over it?,-13,40,20","kind of reminds me of a map,1,220,20","Also too all over the place, I don't see any pattern or anything that's supposed to stand out,-19,260,20","I feel little to no emotion looking at this painting.,0,360,20","Alexandria","it reminds me of a musical instrument,19,80,20","Madeline","Looks a bit as though someone ran over it?,-13,40,20","Kimberly","Also too all over the place, I don't see any pattern or anything that's supposed to stand out,-19,260,20","3"
"38461","","survey-text","146","1779857","0.0-144.0-0.0","AAHC7FON67MC3","","","","{""Q0"":""If it wasn't for the white streaks this would be a cool painting. ""}","","","","","","","","","","","","","","","","","","","","","","",""
"3764","","image-slider-response","147","1783623","0.0-145.0","AAHC7FON67MC3","","","","","-7","","","","","","","","","","","","","","","","","","","","","",""
"2526","","image-button-response","148","1788637","0.0-146.0","AAHC7FON67MC3","img_art/23.jpg","2","","","","","","","","","","","","","","","","","","","","","","","","",""
"1174","","image-button-response","149","1789815","0.0-147.0","AAHC7FON67MC3","img_art/23.jpg","2","","","","","","","","","","","","","","","","","","","","","","","","",""
"7220","","image-button-response","150","1797037","0.0-148.0-0.0","AAHC7FON67MC3","img_art/23.jpg","0","","","","","","","","","","","","","","","","","","","","","","","","",""
"1230","","image-button-response","151","1798270","0.0-149.0-0.0","AAHC7FON67MC3","img_art/23.jpg","0","","","","","","","","","","","","","","","","","","","","","","","","",""
"1332","","image-button-response","152","1803126","0.0-149.1-0.1","AAHC7FON67MC3","img_art/23.jpg","1","","","","","","","","","","","","","","","","","","","","","","","","",""
"null","","html-keyboard-response","153","1804144","0.0-150.0","AAHC7FON67MC3","<p style=""font-size: 48px;"">+</p>","","","","","null","allTrialResponses","1000","1","15","img_art/23.jpg","-7","If it wasn't for the white streaks this would be a cool painting. ","Shannon,Alexandria,Madeline,Autumn,Kimberly,Abigail","I really like the way all the colors look, I think this is a pretty picture.,40,220,20","makes me happy and want to dance,43,80,20","background is great but the white is a bit weird,3,40,20","Awesome abstraction love it.,30,340,20","Look at all the dancers,26,260,20","I like the contrast,29,20,20","Madeline","background is great but the white is a bit weird,3,40,20","Shannon","I really like the way all the colors look, I think this is a pretty picture.,40,220,20","Alexandria","makes me happy and want to dance,43,80,20","5"
"4481","","survey-text","154","1808635","0.0-151.0-0.0","AAHC7FON67MC3","","","","{""Q0"":""course""}","","","","","","","","","","","","","","","","","","","","","","",""
"27277","","survey-text","155","1835915","0.0-152.0-0.0","AAHC7FON67MC3","","","","{""Q0"":""Beautiful waterfall with nice flowers and lush greenery. Love it. ""}","","","","","","","","","","","","","","","","","","","","","","",""
"2538.2999999523163","","image-slider-response","156","1838455","0.0-153.0","AAHC7FON67MC3","","","","","50","","","","","","","","","","","","","","","","","","","","","",""
"3063","","image-button-response","157","1843461","0.0-154.0","AAHC7FON67MC3","img_art/24.jpg","1","","","","","","","","","","","","","","","","","","","","","","","","",""
"2252","","image-button-response","158","1845715","0.0-155.0","AAHC7FON67MC3","img_art/24.jpg","5","","","","","","","","","","","","","","","","","","","","","","","","",""
"4000","","image-button-response","159","1849718","0.0-156.0-0.0","AAHC7FON67MC3","img_art/24.jpg","1","","","","","","","","","","","","","","","","","","","","","","","","",""
"4952","","image-button-response","160","1854672","0.0-157.0-0.0","AAHC7FON67MC3","img_art/24.jpg","0","","","","","","","","","","","","","","","","","","","","","","","","",""
"null","","html-keyboard-response","161","1855677","0.0-158.0","AAHC7FON67MC3","<p style=""font-size: 48px;"">+</p>","","","","","null","allTrialResponses","1000","1","16","img_art/24.jpg","50","Beautiful waterfall with nice flowers and lush greenery. Love it. ","Shannon,Alexandria,Madeline,Cassidy,Madison,Claire","I like the way the colors are put together, and I can imagine this picture in real life.,40,220,20","very colorful and intricate and makes me feel at peace,50,80,20","colors are good but the style is iffy,12,40,20","I don't even know. It's just kind of meh,1,140,20","Exceedingly garish,-19,60,20","reminds me of a beautiful waterfall,50,260,20","Claire","reminds me of a beautiful waterfall,50,260,20","Alexandria","very colorful and intricate and makes me feel at peace,50,80,20","Shannon","I like the way the colors are put together, and I can imagine this picture in real life.,40,220,20","5"
"25192","","survey-text","162","1880878","0.0-159.0-0.0","AAHC7FON67MC3","","","","{""Q0"":""Looks like a guy on a horse going into battle. ""}","","","","","","","","","","","","","","","","","","","","","","",""
"2575.2000000476837","","image-slider-response","163","1883455","0.0-160.0","AAHC7FON67MC3","","","","","-35","","","","","","","","","","","","","","","","","","","","","",""
"null","","image-button-response","164","1888463","0.0-161.0","AAHC7FON67MC3","img_art/18.jpg","null","","","","","","","","","","","","","","","","","","","","","","","","",""
"5568","","image-button-response","165","1894034","0.0-162.0","AAHC7FON67MC3","img_art/18.jpg","5","","","","","","","","","","","","","","","","","","","","","","","","",""
"2001","","image-button-response","166","1896038","0.0-163.0-0.0","AAHC7FON67MC3","img_art/18.jpg","2","","","","","","","","","","","","","","","","","","","","","","","","",""
"845","","image-button-response","167","1896885","0.0-164.0-0.0","AAHC7FON67MC3","img_art/18.jpg","1","","","","","","","","","","","","","","","","","","","","","","","","",""
"null","","html-keyboard-response","168","1897397","0.0-165.0","AAHC7FON67MC3","<p style=""font-size: 48px;"">+</p>","","","","","null","allTrialResponses","500","1","17","img_art/18.jpg","-35","Looks like a guy on a horse going into battle. ","Shannon,Alexandria,Amy,Cynthia,Andrea,Claire","I think its supposed to be a boat and the boat looks kind of interesting to me.,10,220,20","the harsh lines with the smooth lines makes me think of wild animals,20,80,20","So much going on. Frightening and tumultous, brave and inspiring. I'd like to spend the rest of my life interpreting it.,30,220,20","Imaginative, makes me feel creative.,42,320,20","I see an artistic representation of the riding of last of the four horseman. Its stunning.,45,240,20","reminds me of greek mythology,22,260,20","Claire","reminds me of greek mythology,22,260,20","Amy","So much going on. Frightening and tumultous, brave and inspiring. I'd like to spend the rest of my life interpreting it.,30,220,20","Alexandria","the harsh lines with the smooth lines makes me think of wild animals,20,80,20","5"
"17179","","survey-text","169","1914582","0.0-166.0-0.0","AAHC7FON67MC3","","","","{""Q0"":""Hearts or scissors. ""}","","","","","","","","","","","","","","","","","","","","","","",""
"2234.899999856949","","image-slider-response","170","1916819","0.0-167.0","AAHC7FON67MC3","","","","","-33","","","","","","","","","","","","","","","","","","","","","",""
"2495","","image-button-response","171","1921825","0.0-168.0","AAHC7FON67MC3","img_art/4.jpg","2","","","","","","","","","","","","","","","","","","","","","","","","",""
"1741","","image-button-response","172","1923570","0.0-169.0","AAHC7FON67MC3","img_art/4.jpg","5","","","","","","","","","","","","","","","","","","","","","","","","",""
"1489","","image-button-response","173","1925062","0.0-170.0-0.0","AAHC7FON67MC3","img_art/4.jpg","2","","","","","","","","","","","","","","","","","","","","","","","","",""
"1844","","image-button-response","174","1926909","0.0-171.0-0.0","AAHC7FON67MC3","img_art/4.jpg","0","","","","","","","","","","","","","","","","","","","","","","","","",""
"null","","html-keyboard-response","175","1928420","0.0-172.0","AAHC7FON67MC3","<p style=""font-size: 48px;"">+</p>","","","","","null","allTrialResponses","1500","1","18","img_art/4.jpg","-33","Hearts or scissors. ","Heather,Alexandria,Amy,Paige,Kaitlin,Claire","looks like an award from an award show.,22,260,20","it looks like a simple finger painting, yet i liked the color choices,-12,80,20","disturbing and uncomfortable.,10,220,20","the colors are calming,31,60,20","heart symbol - this tells a story of hidden love,30,60,20","I really don't like the colors,-26,260,20","Claire","I really don't like the colors,-26,260,20","Amy","disturbing and uncomfortable.,10,220,20","Heather","looks like an award from an award show.,22,260,20","5"
"24220","","survey-text","176","1952644","0.0-173.0-0.0","AAHC7FON67MC3","","","","{""Q0"":""This is cool. Reminds me on little craters on the moon""}","","","","","","","","","","","","","","","","","","","","","","",""
"2624.7000000476837","","image-slider-response","177","1955271","0.0-174.0","AAHC7FON67MC3","","","","","12","","","","","","","","","","","","","","","","","","","","","",""
"null","","image-button-response","178","1960274","0.0-175.0","AAHC7FON67MC3","img_art/7.jpg","null","","","","","","","","","","","","","","","","","","","","","","","","",""
"873","","image-button-response","179","1961149","0.0-176.0","AAHC7FON67MC3","img_art/7.jpg","3","","","","","","","","","","","","","","","","","","","","","","","","",""
"3632","","image-button-response","180","1964784","0.0-177.0-0.0","AAHC7FON67MC3","img_art/7.jpg","5","","","","","","","","","","","","","","","","","","","","","","","","",""
"3853","","image-button-response","181","1968641","0.0-178.0-0.0","AAHC7FON67MC3","img_art/7.jpg","2","","","","","","","","","","","","","","","","","","","","","","","","",""
"null","","html-keyboard-response","182","1969153","0.0-179.0","AAHC7FON67MC3","<p style=""font-size: 48px;"">+</p>","","","","","null","allTrialResponses","500","1","19","img_art/7.jpg","12","This is cool. Reminds me on little craters on the moon","Heather,Elizabeth,Amy,Bailey,Emily,Claire","i dont like it. it looks like rocks,-40,260,20","The picture is just random,-8,20,20","Limited emotional reaction for me. No focus and highly abstract,-20,220,20","It gives off an alien-like vastness of space vibe which I like,9,360,20","Ugly. I don't like the colors or the scattering.,-50,40,20","reminds me of a cave wall,-21,260,20","Bailey","It gives off an alien-like vastness of space vibe which I like,9,360,20","Claire","reminds me of a cave wall,-21,260,20","Amy","Limited emotional reaction for me. No focus and highly abstract,-20,220,20","5"
"25804","","survey-text","183","1994967","0.0-180.0-0.0","AAHC7FON67MC3","","","","{""Q0"":""Looks like a small village""}","","","","","","","","","","","","","","","","","","","","","","",""
"2601.7000000476837","","image-slider-response","184","1997570","0.0-181.0","AAHC7FON67MC3","","","","","-22","","","","","","","","","","","","","","","","","","","","","",""
"4050","","image-button-response","185","2002587","0.0-182.0","AAHC7FON67MC3","img_art/8.jpg","1","","","","","","","","","","","","","","","","","","","","","","","","",""
"2287","","image-button-response","186","2004877","0.0-183.0","AAHC7FON67MC3","img_art/8.jpg","1","","","","","","","","","","","","","","","","","","","","","","","","",""
"2156","","image-button-response","187","2007035","0.0-184.0-0.0","AAHC7FON67MC3","img_art/8.jpg","4","","","","","","","","","","","","","","","","","","","","","","","","",""
"3179","","image-button-response","188","2010218","0.0-185.0-0.0","AAHC7FON67MC3","img_art/8.jpg","0","","","","","","","","","","","","","","","","","","","","","","","","",""
"null","","html-keyboard-response","189","2011735","0.0-186.0","AAHC7FON67MC3","<p style=""font-size: 48px;"">+</p>","","","","","null","allTrialResponses","1500","1","20","img_art/8.jpg","-22","Looks like a small village","Katie,Olivia,Amy,Bailey,Gabrielle,Claire","I like the colors. But I don't like the faces, they look distraught. Faces and sharp shapes make me anxious,1,160,20","being watched over,17,40,20","The definition and the colors give make this painting accessible and thought provoking.,30,220,20","Not a fan of abstract looking pieces with too many focal points. The tunnel and face, for example,-31,360,20","lots going on with great use of lots of color and geometry,24,160,20","looks like an aerial view, very pretty,32,260,20","Olivia","being watched over,17,40,20","Gabrielle","lots going on with great use of lots of color and geometry,24,160,20","Katie","I like the colors. But I don't like the faces, they look distraught. Faces and sharp shapes make me anxious,1,160,20","5"
"3391","","survey-text","190","2015139","0.0-187.0-0.0","AAHC7FON67MC3","","","","{""Q0"":""we""}","","","","","","","","","","","","","","","","","","","","","","",""
"19584","","survey-text","191","2034725","0.0-188.0-0.0","AAHC7FON67MC3","","","","{""Q0"":""Don't like the colors too much. ""}","","","","","","","","","","","","","","","","","","","","","","",""
"2639.9000000953674","","image-slider-response","192","2037369","0.0-189.0","AAHC7FON67MC3","","","","","-7","","","","","","","","","","","","","","","","","","","","","",""
"2348","","image-button-response","193","2042380","0.0-190.0","AAHC7FON67MC3","img_art/20.jpg","1","","","","","","","","","","","","","","","","","","","","","","","","",""
"219","","image-button-response","194","2042602","0.0-191.0","AAHC7FON67MC3","img_art/20.jpg","1","","","","","","","","","","","","","","","","","","","","","","","","",""
"3676","","image-button-response","195","2046280","0.0-192.0-0.0","AAHC7FON67MC3","img_art/20.jpg","4","","","","","","","","","","","","","","","","","","","","","","","","",""
"921","","image-button-response","196","2047205","0.0-193.0-0.0","AAHC7FON67MC3","img_art/20.jpg","3","","","","","","","","","","","","","","","","","","","","","","","","",""
"null","","html-keyboard-response","197","2047721","0.0-194.0","AAHC7FON67MC3","<p style=""font-size: 48px;"">+</p>","","","","","null","allTrialResponses","500","1","21","img_art/20.jpg","-7","Don't like the colors too much. ","Katie,Olivia,Katherine,Mary,Gabrielle,Alicia","I don't like it. Dark sky and black figures. White objects remind me of bones.,-30,160,20","crash after traffic causing grief,-11,40,20","More dark colors and blurry objects.,13,120,20","I can tell this artist has experience. I just don't care for the color combo.,7,180,20","The white blob on the left seems out of place,-34,160,20","Very cool, and calming (again) Love it.,47,120,20","Olivia","crash after traffic causing grief,-11,40,20","Gabrielle","The white blob on the left seems out of place,-34,160,20","Mary","I can tell this artist has experience. I just don't care for the color combo.,7,180,20","5"
"127028","","survey-text","198","2174755","0.0-195.0-0.0","AAHC7FON67MC3","","","","{""Q0"":""Love the colors and the design""}","","","","","","","","","","","","","","","","","","","","","","",""
"2633.7000000476837","","image-slider-response","199","2177391","0.0-196.0","AAHC7FON67MC3","","","","","2","","","","","","","","","","","","","","","","","","","","","",""
"4536","","image-button-response","200","2182402","0.0-197.0","AAHC7FON67MC3","img_art/22.jpg","4","","","","","","","","","","","","","","","","","","","","","","","","",""
"781","","image-button-response","201","2183185","0.0-198.0","AAHC7FON67MC3","img_art/22.jpg","5","","","","","","","","","","","","","","","","","","","","","","","","",""
"1451","","image-button-response","202","2184639","0.0-199.0-0.0","AAHC7FON67MC3","img_art/22.jpg","1","","","","","","","","","","","","","","","","","","","","","","","","",""
"780","","image-button-response","203","2185422","0.0-200.0-0.0","AAHC7FON67MC3","img_art/22.jpg","2","","","","","","","","","","","","","","","","","","","","","","","","",""
"null","","html-keyboard-response","204","2185927","0.0-201.0","AAHC7FON67MC3","<p style=""font-size: 48px;"">+</p>","","","","","null","allTrialResponses","500","1","22","img_art/22.jpg","2","Love the colors and the design","Grace,Olivia,Morgan,Mary,Gabrielle,Shelby","Love vibrant colors & the abstractness.,43,180,20","ball of light in 90s,8,40,20","Glowing city of many emotions.,10,380,20","I do not like the color combo. This piece is too much the same throughout.,-1,180,20","another OK work, mostly because of the blend of colors,12,160,20","This painting has a very nostalgic feel,20,240,20","Shelby","This painting has a very nostalgic feel,20,240,20","Olivia","ball of light in 90s,8,40,20","Morgan","Glowing city of many emotions.,10,380,20","5"
"14367","","survey-text","205","2200303","0.0-202.0-0.0","AAHC7FON67MC3","","","","{""Q0"":""Reminds me of bird standing on top of something. ""}","","","","","","","","","","","","","","","","","","","","","","",""
"1989.3999998569489","","image-slider-response","206","2202295","0.0-203.0","AAHC7FON67MC3","","","","","10","","","","","","","","","","","","","","","","","","","","","",""
"3121","","image-button-response","207","2207310","0.0-204.0","AAHC7FON67MC3","img_art/6.jpg","0","","","","","","","","","","","","","","","","","","","","","","","","",""
"3522","","image-button-response","208","2210835","0.0-205.0","AAHC7FON67MC3","img_art/6.jpg","0","","","","","","","","","","","","","","","","","","","","","","","","",""
"1451","","image-button-response","209","2212289","0.0-206.0-0.0","AAHC7FON67MC3","img_art/6.jpg","1","","","","","","","","","","","","","","","","","","","","","","","","",""
"825","","image-button-response","210","2213118","0.0-207.0-0.0","AAHC7FON67MC3","img_art/6.jpg","2","","","","","","","","","","","","","","","","","","","","","","","","",""
"null","","html-keyboard-response","211","2214635","0.0-208.0","AAHC7FON67MC3","<p style=""font-size: 48px;"">+</p>","","","","","null","allTrialResponses","1500","1","23","img_art/6.jpg","10","Reminds me of bird standing on top of something. ","Allison,Olivia,Morgan,Savannah,Nicole,Shelby","Simple desert scene.,5,140,20","surviving the dryness of life,30,40,20","Desert that's too simple.,-15,380,20","Despite how simple it is, this piece has clear meaning.,34,200,20","The colors and rough brush strokes make me nervous,-10,20,20","I dont feel much of a responce or connection to this one,0,240,20","Allison","Simple desert scene.,5,140,20","Olivia","surviving the dryness of life,30,40,20","Morgan","Desert that's too simple.,-15,380,20","5"
"12553","","survey-text","212","2227199","0.0-209.0-0.0","AAHC7FON67MC3","","","","{""Q0"":""A city. love the colors""}","","","","","","","","","","","","","","","","","","","","","","",""
"2174.399999856949","","image-slider-response","213","2229376","0.0-210.0","AAHC7FON67MC3","","","","","5","","","","","","","","","","","","","","","","","","","","","",""
"1964","","image-button-response","214","2234380","0.0-211.0","AAHC7FON67MC3","img_art/26.jpg","1","","","","","","","","","","","","","","","","","","","","","","","","",""
"3585","","image-button-response","215","2237967","0.0-212.0","AAHC7FON67MC3","img_art/26.jpg","5","","","","","","","","","","","","","","","","","","","","","","","","",""
"2479","","image-button-response","216","2240449","0.0-213.0-0.0","AAHC7FON67MC3","img_art/26.jpg","4","","","","","","","","","","","","","","","","","","","","","","","","",""
"6361","","image-button-response","217","2246813","0.0-214.0-0.0","AAHC7FON67MC3","img_art/26.jpg","2","","","","","","","","","","","","","","","","","","","","","","","","",""
"null","","html-keyboard-response","218","2247321","0.0-215.0","AAHC7FON67MC3","<p style=""font-size: 48px;"">+</p>","","","","","null","allTrialResponses","500","1","24","img_art/26.jpg","5","A city. love the colors","Allison,Olivia,Morgan,Victoria,Caroline,Caitlin","pretty colors, but sketch style isn't for me,10,140,20","reminds me of a hometown,7,40,20","Confusing park picture.,8,380,20","feels a tad old,30,400,20","Calming and relaxing,28,100,20","At least it is a bit of scenery.,10,80,20","Caitlin","At least it is a bit of scenery.,10,80,20","Caroline","Calming and relaxing,28,100,20","Morgan","Confusing park picture.,8,380,20","5"
"17128","","survey-text","219","2264456","0.0-216.0-0.0","AAHC7FON67MC3","","","","{""Q0"":""Looks like graffiti. I don't like""}","","","","","","","","","","","","","","","","","","","","","","",""
"2675.7999999523163","","image-slider-response","220","2267134","0.0-217.0","AAHC7FON67MC3","","","","","7","","","","","","","","","","","","","","","","","","","","","",""
"4217","","image-button-response","221","2272140","0.0-218.0","AAHC7FON67MC3","img_art/29.jpg","2","","","","","","","","","","","","","","","","","","","","","","","","",""
"2457","","image-button-response","222","2274600","0.0-219.0","AAHC7FON67MC3","img_art/29.jpg","5","","","","","","","","","","","","","","","","","","","","","","","","",""
"1074","","image-button-response","223","2275677","0.0-220.0-0.0","AAHC7FON67MC3","img_art/29.jpg","3","","","","","","","","","","","","","","","","","","","","","","","","",""
"1188","","image-button-response","224","2276868","0.0-221.0-0.0","AAHC7FON67MC3","img_art/29.jpg","2","","","","","","","","","","","","","","","","","","","","","","","","",""
"null","","html-keyboard-response","225","2277872","0.0-222.0","AAHC7FON67MC3","<p style=""font-size: 48px;"">+</p>","","","","","null","allTrialResponses","1000","1","25","img_art/29.jpg","7","Looks like graffiti. I don't like","Jessica,Cheyenne,Morgan,Miranda,Caroline,Caitlin","It looks cool but I don't really get what's going on, it looks too busy,0,400,20","Really enjoy everything about this one.,50,200,20","Tested and failed a lot of ideas.,-20,380,20","This feels chaotic and I like the energy that it gives off.,21,320,20","Depressing and with that big red x on it just makes me not like it.,-33,100,20","I would give up and give it a red X too.,-5,80,20","Caitlin","I would give up and give it a red X too.,-5,80,20","Miranda","This feels chaotic and I like the energy that it gives off.,21,320,20","Morgan","Tested and failed a lot of ideas.,-20,380,20","5"
"3973","","survey-text","226","2281858","0.0-223.0-0.0","AAHC7FON67MC3","","","","{""Q0"":""table""}","","","","","","","","","","","","","","","","","","","","","","",""
"16945","","survey-text","227","2298805","0.0-224.0-0.0","AAHC7FON67MC3","","","","{""Q0"":""Like the colors and the red gives it a pop""}","","","","","","","","","","","","","","","","","","","","","","",""
"3338.4000000953674","","image-slider-response","228","2302146","0.0-225.0","AAHC7FON67MC3","","","","","10","","","","","","","","","","","","","","","","","","","","","",""
"4507","","image-button-response","229","2307149","0.0-226.0","AAHC7FON67MC3","img_art/2.jpg","1","","","","","","","","","","","","","","","","","","","","","","","","",""
"2337","","image-button-response","230","2309489","0.0-227.0","AAHC7FON67MC3","img_art/2.jpg","5","","","","","","","","","","","","","","","","","","","","","","","","",""
"1366","","image-button-response","231","2310857","0.0-228.0-0.0","AAHC7FON67MC3","img_art/2.jpg","1","","","","","","","","","","","","","","","","","","","","","","","","",""
"651","","image-button-response","232","2311511","0.0-229.0-0.0","AAHC7FON67MC3","img_art/2.jpg","2","","","","","","","","","","","","","","","","","","","","","","","","",""
"null","","html-keyboard-response","233","2313028","0.0-230.0","AAHC7FON67MC3","<p style=""font-size: 48px;"">+</p>","","","","","null","allTrialResponses","1500","1","26","img_art/2.jpg","10","Like the colors and the red gives it a pop","Lauren,Mikayla,Morgan,Miranda,Lindsey,Caitlin","I feel that its too abstract for me to understand what I'm looking at.,-15,340,20","I love the colors in this.,29,300,20","Old, dull, messy.,-10,380,20","I don't really like this but at the same time it's cute. It looks like a little monster kid.,-9,320,20","Not a fan of the colors or the style.,-31,400,20","Have now advanced from kindergarten to the first grade.,-5,80,20","Caitlin","Have now advanced from kindergarten to the first grade.,-5,80,20","Mikayla","I love the colors in this.,29,300,20","Morgan","Old, dull, messy.,-10,380,20","5"
"36233","","survey-text","234","2349265","0.0-231.0-0.0","AAHC7FON67MC3","","","","{""Q0"":""Looks like ships on a very bad storm""}","","","","","","","","","","","","","","","","","","","","","","",""
"2463.7000000476837","","image-slider-response","235","2351731","0.0-232.0","AAHC7FON67MC3","","","","","-23","","","","","","","","","","","","","","","","","","","","","",""
"2147","","image-button-response","236","2356739","0.0-233.0","AAHC7FON67MC3","img_art/11.jpg","2","","","","","","","","","","","","","","","","","","","","","","","","",""
"6418","","image-button-response","237","2363160","0.0-234.0","AAHC7FON67MC3","img_art/11.jpg","1","","","","","","","","","","","","","","","","","","","","","","","","",""
"1095","","image-button-response","238","2364258","0.0-235.0-0.0","AAHC7FON67MC3","img_art/11.jpg","2","","","","","","","","","","","","","","","","","","","","","","","","",""
"2110","","image-button-response","239","2366371","0.0-236.0-0.0","AAHC7FON67MC3","img_art/11.jpg","5","","","","","","","","","","","","","","","","","","","","","","","","",""
"null","","html-keyboard-response","240","2366884","0.0-237.0","AAHC7FON67MC3","<p style=""font-size: 48px;"">+</p>","","","","","null","allTrialResponses","500","1","27","img_art/11.jpg","-23","Looks like ships on a very bad storm","Jennifer,Mikayla,Morgan,Erika,Alexandra,Caitlin","The narrow groups of lines in the center make me feel uneasy for some reason,-31,380,20","Scary again. Not a fan.,-23,300,20","Waves of signs.,15,380,20","I want to know which skyline the artist is depicting,26,100,20","I normally would not like this photo, but the design is nice.,21,60,20","Busy, busy oceanside city.,-10,80,20","Mikayla","Scary again. Not a fan.,-23,300,20","Morgan","Waves of signs.,15,380,20","Caitlin","Busy, busy oceanside city.,-10,80,20","5"
"27368","","survey-text","241","2394263","0.0-238.0-0.0","AAHC7FON67MC3","","","","{""Q0"":""Looks like a god or something with its small minions""}","","","","","","","","","","","","","","","","","","","","","","",""
"2009.0999999046326","","image-slider-response","242","2396275","0.0-239.0","AAHC7FON67MC3","","","","","6","","","","","","","","","","","","","","","","","","","","","",""
"3073","","image-button-response","243","2401279","0.0-240.0","AAHC7FON67MC3","img_art/25.jpg","1","","","","","","","","","","","","","","","","","","","","","","","","",""
"2562","","image-button-response","244","2403844","0.0-241.0","AAHC7FON67MC3","img_art/25.jpg","5","","","","","","","","","","","","","","","","","","","","","","","","",""
"1089","","image-button-response","245","2404939","0.0-242.0-0.0","AAHC7FON67MC3","img_art/25.jpg","2","","","","","","","","","","","","","","","","","","","","","","","","",""
"800","","image-button-response","246","2405742","0.0-243.0-0.0","AAHC7FON67MC3","img_art/25.jpg","1","","","","","","","","","","","","","","","","","","","","","","","","",""
"null","","html-keyboard-response","247","2406748","0.0-244.0","AAHC7FON67MC3","<p style=""font-size: 48px;"">+</p>","","","","","null","allTrialResponses","1000","1","28","img_art/25.jpg","6","Looks like a god or something with its small minions","Cassandra,Mikayla,Morgan,Margaret,Danielle,Caitlin","I hate the colors and the scene,-46,120,20","I LOVE fhe scary skeleton.,28,300,20","Ancient gods above you.,20,380,20","love the color and the contrast of the black on teal,50,100,20","I like it, a bit cryptic and obscene, I enjoy that,30,340,20","Wish I was that thin.,-5,80,20","Caitlin","Wish I was that thin.,-5,80,20","Morgan","Ancient gods above you.,20,380,20","Mikayla","I LOVE fhe scary skeleton.,28,300,20","5"
"12788","","survey-text","248","2419543","0.0-245.0-0.0","AAHC7FON67MC3","","","","{""Q0"":""Something a 1st grader painted""}","","","","","","","","","","","","","","","","","","","","","","",""
"2881.2999999523163","","image-slider-response","249","2422428","0.0-246.0","AAHC7FON67MC3","","","","","-21","","","","","","","","","","","","","","","","","","","","","",""
"4840","","image-button-response","250","2427441","0.0-247.0","AAHC7FON67MC3","img_art/3.jpg","0","","","","","","","","","","","","","","","","","","","","","","","","",""
"2632","","image-button-response","251","2430075","0.0-248.0","AAHC7FON67MC3","img_art/3.jpg","0","","","","","","","","","","","","","","","","","","","","","","","","",""
"2609","","image-button-response","252","2432687","0.0-249.0-0.0","AAHC7FON67MC3","img_art/3.jpg","5","","","","","","","","","","","","","","","","","","","","","","","","",""
"1438","","image-button-response","253","2434127","0.0-250.0-0.0","AAHC7FON67MC3","img_art/3.jpg","1","","","","","","","","","","","","","","","","","","","","","","","","",""
"null","","html-keyboard-response","254","2434640","0.0-251.0","AAHC7FON67MC3","<p style=""font-size: 48px;"">+</p>","","","","","null","allTrialResponses","500","1","29","img_art/3.jpg","-21","Something a 1st grader painted","Hailey,Mikayla,Morgan,Marissa,Dominique,Caitlin","painted by a 2 year old. cold and boring,-30,200,20","Scary. Looks like blood.,-45,300,20","Somewhere between a child's art and a poorly drawn battle map.,8,380,20","It feels like a half assed and failed imitation of Japanese signatures on old paintings,-22,160,20","Iike this one it's a piece that I need to spend more time with to understand how i feel about it,20,400,20","Why kids with color crayons is called art is beyond me. People pay for this???,-40,80,20","Hailey","painted by a 2 year old. cold and boring,-30,200,20","Caitlin","Why kids with color crayons is called art is beyond me. People pay for this???,-40,80,20","Mikayla","Scary. Looks like blood.,-45,300,20","5"
"33655","","survey-text","255","2468305","0.0-252.0-0.0","AAHC7FON67MC3","","","","{""Q0"":""I don't get it. The colors are not bright enough. ""}","","","","","","","","","","","","","","","","","","","","","","",""
"3009.399999856949","","image-slider-response","256","2471317","0.0-253.0","AAHC7FON67MC3","","","","","-7","","","","","","","","","","","","","","","","","","","","","",""
"4008","","image-button-response","257","2476326","0.0-254.0","AAHC7FON67MC3","img_art/28.jpg","0","","","","","","","","","","","","","","","","","","","","","","","","",""
"607","","image-button-response","258","2476935","0.0-255.0","AAHC7FON67MC3","img_art/28.jpg","0","","","","","","","","","","","","","","","","","","","","","","","","",""
"1205","","image-button-response","259","2478142","0.0-256.0-0.0","AAHC7FON67MC3","img_art/28.jpg","1","","","","","","","","","","","","","","","","","","","","","","","","",""
"5914","","image-button-response","260","2484059","0.0-257.0-0.0","AAHC7FON67MC3","img_art/28.jpg","5","","","","","","","","","","","","","","","","","","","","","","","","",""
"null","","html-keyboard-response","261","2484566","0.0-258.0","AAHC7FON67MC3","<p style=""font-size: 48px;"">+</p>","","","","","null","allTrialResponses","500","1","30","img_art/28.jpg","-7","I don't get it. The colors are not bright enough. ","Hailey,Mikayla,Alyssa,Kaitlyn,Destiny,Caitlin","an old woman in a wheelchair. sad,-35,200,20","It gives me weird vibes.,-25,300,20","Not a fan of the bleak and dreary colors,-10,160,20","Not sure what way this picture is suppose to be oriented,-5,80,20","I wish I knew why I liked it, maybes its the pinky tones,36,360,20","Bug meets bug in a dark alley.,-20,80,20","Hailey","an old woman in a wheelchair. sad,-35,200,20","Mikayla","It gives me weird vibes.,-25,300,20","Caitlin","Bug meets bug in a dark alley.,-20,80,20","5"
"3573","","image-button-response_instructions","262","2488147","0.0-259.0","AAHC7FON67MC3","","0","instructions","","","","","","","","","","","","","","","","","","","","","","","",""
