"rt","url","trial_type","trial_index","time_elapsed","internal_node_id","participant_id","stimulus","button_pressed","Name","responses","response","key_press","variableName","fixationTime","condition","trial","photo","subjectRating","subjectResponse","agentsNames","agent_1_Response","agent_2_Response","agent_3_Response","agent_4_Response","agent_5_Response","agent_6_Response","kept_1_name","kept_1_response","kept_2_name","kept_2_response","kept_3_name","kept_3_response","errorCounter"
"16710","external_page_harvard.html","external-html","0","16822","0.0-0.0","ACJNWSBIVI46H","","","","","","","","","","","","","","","","","","","","","","","","","","",""
"1555","","image-button-response","1","18384","0.0-1.0","ACJNWSBIVI46H","","0","","","","","","","","","","","","","","","","","","","","","","","","",""
"2404","","image-button-response","2","20807","0.0-2.0-0.0","ACJNWSBIVI46H","","1","phone","","","","","","","","","","","","","","","","","","","","","","","",""
"3328","","survey-text","3","24140","0.0-3.0-0.0","ACJNWSBIVI46H","","","","{""Q0"":""ACJNWSBIVI46H""}","","","","","","","","","","","","","","","","","","","","","","",""
"8574","","image-button-response_instructions","4","32721","0.0-4.0","ACJNWSBIVI46H","","0","instructions","","","","","","","","","","","","","","","","","","","","","","","",""
"10070","","image-button-response_instructions","5","42795","0.0-5.0","ACJNWSBIVI46H","img_art/ins/popularity/ins1.png","0","instructions","","","","","","","","","","","","","","","","","","","","","","","",""
"4330","","image-button-response_instructions","6","47129","0.0-6.0","ACJNWSBIVI46H","img_art/ins/popularity/ins2.png","0","instructions","","","","","","","","","","","","","","","","","","","","","","","",""
"6379","","image-button-response_instructions","7","53512","0.0-7.0","ACJNWSBIVI46H","img_art/ins/popularity/ins2Extreme.png","0","instructions","","","","","","","","","","","","","","","","","","","","","","","",""
"9770","","image-button-response_instructions","8","63287","0.0-8.0","ACJNWSBIVI46H","img_art/ins/popularity/ins3KEEPpop.PNG","0","instructions","","","","","","","","","","","","","","","","","","","","","","","",""
"4063","","image-button-response_instructions","9","67353","0.0-9.0","ACJNWSBIVI46H","img_art/ins/popularity/ins3ANamepop.PNG","0","instructions","","","","","","","","","","","","","","","","","","","","","","","",""
"6555","","image-button-response_instructions","10","73911","0.0-10.0","ACJNWSBIVI46H","img_art/ins/popularity/ins3ARatingpop.png","0","instructions","","","","","","","","","","","","","","","","","","","","","","","",""
"2199","","image-button-response_instructions","11","76113","0.0-11.0","ACJNWSBIVI46H","img_art/ins/popularity/ins3ATextpop.png","0","instructions","","","","","","","","","","","","","","","","","","","","","","","",""
"9606","","image-button-response_instructions","12","85722","0.0-12.0","ACJNWSBIVI46H","img_art/ins/popularity/ins3ALikespop.png","0","instructions","","","","","","","","","","","","","","","","","","","","","","","",""
"20100","","image-button-response_instructions","13","105826","0.0-13.0","ACJNWSBIVI46H","img_art/ins/popularity/ins3KEEPpop.PNG","0","instructions","","","","","","","","","","","","","","","","","","","","","","","",""
"11250","","image-button-response_instructions","14","117078","0.0-14.0","ACJNWSBIVI46H","img_art/ins/popularity/ins3_5RED.png","0","instructions","","","","","","","","","","","","","","","","","","","","","","","",""
"4658","","image-button-response_instructions","15","121741","0.0-15.0","ACJNWSBIVI46H","img_art/ins/popularity/ins3KEEPpop.PNG","0","instructions","","","","","","","","","","","","","","","","","","","","","","","",""
"10485","","image-button-response_instructions","16","132229","0.0-16.0","ACJNWSBIVI46H","img_art/ins/popularity/ins4KEEPpop.PNG","0","instructions","","","","","","","","","","","","","","","","","","","","","","","",""
"5637","","image-button-response_instructions","17","137870","0.0-17.0","ACJNWSBIVI46H","img_art/ins/popularity/ins5KEEPpop.PNG","0","instructions","","","","","","","","","","","","","","","","","","","","","","","",""
"1637","","image-button-response_instructions","18","139511","0.0-18.0","ACJNWSBIVI46H","","0","instructions","","","","","","","","","","","","","","","","","","","","","","","",""
"17788","","survey-text","19","157402","0.0-19.0-0.0","ACJNWSBIVI46H","","","","{""Q0"":""but""}","","","","","","","","","","","","","","","","","","","","","","",""
"27360","","survey-text","20","184768","0.0-20.0-0.0","ACJNWSBIVI46H","","","","{""Q0"":""Reminds me of the beach ""}","","","","","","","","","","","","","","","","","","","","","","",""
"4837.699999988079","","image-slider-response","21","189613","0.0-21.0","ACJNWSBIVI46H","","","","","29","","","","","","","","","","","","","","","","","","","","","",""
"4044","","image-button-response","22","194626","0.0-22.0","ACJNWSBIVI46H","img_art/ins/1.jpg","3","","","","","","","","","","","","","","","","","","","","","","","","",""
"935","","image-button-response","23","195569","0.0-23.0","ACJNWSBIVI46H","img_art/ins/1.jpg","3","","","","","","","","","","","","","","","","","","","","","","","","",""
"5661","","image-button-response","24","201237","0.0-24.0-0.0","ACJNWSBIVI46H","img_art/ins/1.jpg","1","","","","","","","","","","","","","","","","","","","","","","","","",""
"2830","","image-button-response","25","204077","0.0-25.0-0.0","ACJNWSBIVI46H","img_art/ins/1.jpg","5","","","","","","","","","","","","","","","","","","","","","","","","",""
"null","","html-keyboard-response","26","205585","0.0-26.0","ACJNWSBIVI46H","<p style=""font-size: 48px;"">+</p>","","","","","null","allTrialResponses","1500","1","-2","img_art/ins/1.jpg","29","Reminds me of the beach ","Adam,Alex,Ben,Carl,Daniel,Jack","Seems like doodles,-20,20,20","very creative work.,36,40,20","This color reminds me of poo,-46,60,20","very calming artwork,42,80,20","It looks like a murder scene.,-48,100,20","I like the sophisticated brushwork,40,120,20","Carl","very calming artwork,42,80,20","Alex","very creative work.,36,40,20","Jack","I like the sophisticated brushwork,40,120,20","0"
"18385","","survey-text","27","223993","0.0-27.0-0.0","ACJNWSBIVI46H","","","","{""Q0"":""Very abstract, but I feel a unique connection to it""}","","","","","","","","","","","","","","","","","","","","","","",""
"3162.4000000059605","","image-slider-response","28","227162","0.0-28.0","ACJNWSBIVI46H","","","","","37","","","","","","","","","","","","","","","","","","","","","",""
"2990","","image-button-response","29","232178","0.0-29.0","ACJNWSBIVI46H","img_art/ins/2.jpg","1","","","","","","","","","","","","","","","","","","","","","","","","",""
"933","","image-button-response","30","233117","0.0-30.0","ACJNWSBIVI46H","img_art/ins/2.jpg","1","","","","","","","","","","","","","","","","","","","","","","","","",""
"2196","","image-button-response","31","235319","0.0-31.0-0.0","ACJNWSBIVI46H","img_art/ins/2.jpg","4","","","","","","","","","","","","","","","","","","","","","","","","",""
"4506","","image-button-response","32","239832","0.0-32.0-0.0","ACJNWSBIVI46H","img_art/ins/2.jpg","3","","","","","","","","","","","","","","","","","","","","","","","","",""
"null","","html-keyboard-response","33","241343","0.0-33.0","ACJNWSBIVI46H","<p style=""font-size: 48px;"">+</p>","","","","","null","allTrialResponses","1500","1","-1","img_art/ins/2.jpg","37","Very abstract, but I feel a unique connection to it","James,Alex,Kyle,Carl,John,Jack","looks too angry,-50,140,20","I like the blocks of color arrangements,30,40,20","Idk, it is just annoying,-32,180,20","I can feel the artist's passion in it,45,80,20","love the texture of paint,48,160,20","I would never be able to compose a sophisticated pallete like this,48,120,20","Alex","I like the blocks of color arrangements,30,40,20","John","love the texture of paint,48,160,20","Carl","I can feel the artist's passion in it,45,80,20","0"
"20433","","survey-text","34","261788","0.0-34.0-0.0","ACJNWSBIVI46H","","","","{""Q0"":""Simple, but it feels like somebody expressing the thoughts in their head""}","","","","","","","","","","","","","","","","","","","","","","",""
"4609.0999999940395","","image-slider-response","35","266402","0.0-35.0","ACJNWSBIVI46H","","","","","50","","","","","","","","","","","","","","","","","","","","","",""
"null","","image-button-response","36","271412","0.0-36.0","ACJNWSBIVI46H","img_art/ins/3.jpg","null","","","","","","","","","","","","","","","","","","","","","","","","",""
"1551","","image-button-response","37","272968","0.0-37.0","ACJNWSBIVI46H","img_art/ins/3.jpg","5","","","","","","","","","","","","","","","","","","","","","","","","",""
"2518","","image-button-response","38","275492","0.0-38.0-0.0","ACJNWSBIVI46H","img_art/ins/3.jpg","4","","","","","","","","","","","","","","","","","","","","","","","","",""
"6183","","image-button-response","39","281681","0.0-39.0-0.0","ACJNWSBIVI46H","img_art/ins/3.jpg","0","","","","","","","","","","","","","","","","","","","","","","","","",""
"null","","html-keyboard-response","40","282687","0.0-40.0","ACJNWSBIVI46H","<p style=""font-size: 48px;"">+</p>","","","","","null","allTrialResponses","1000","1","0","img_art/ins/3.jpg","50","Simple, but it feels like somebody expressing the thoughts in their head","Mike,Alex,Ron,Carl,John,Sam","enjoy the different shades of blue,22,200,20","calming blue is very nice,36,40,20","It looks depressing,-26,220,20","It's an alright work,15,80,20","I like the overlapping of brushes,41,160,20","I can feel a rainy day from this painting,18,240,20","Sam","I can feel a rainy day from this painting,18,240,20","John","I like the overlapping of brushes,41,160,20","Mike","enjoy the different shades of blue,22,200,20","0"
"10132","","image-button-response_instructions","41","292832","0.0-41.0","ACJNWSBIVI46H","","0","instructions","","","","","","","","","","","","","","","","","","","","","","","",""
"27963","","survey-likert","42","320801","0.0-42.0-0.0","ACJNWSBIVI46H","","","","{""Q0"":"""",""Q1"":0,""Q2"":1}","","","","","","","","","","","","","","","","","","","","","","",""
"11981","","survey-text","43","332795","0.0-43.0-0.0","ACJNWSBIVI46H","","","","{""Q0"":""rock""}","","","","","","","","","","","","","","","","","","","","","","",""
"18665","","survey-text","44","351466","0.0-44.0-0.0","ACJNWSBIVI46H","","","","{""Q0"":""Feels like an afternoon in the city park""}","","","","","","","","","","","","","","","","","","","","","","",""
"3703.699999988079","","image-slider-response","45","355174","0.0-45.0","ACJNWSBIVI46H","","","","","36","","","","","","","","","","","","","","","","","","","","","",""
"null","","image-button-response","46","360270","0.0-46.0","ACJNWSBIVI46H","img_art/26.jpg","null","","","","","","","","","","","","","","","","","","","","","","","","",""
"624","","image-button-response","47","360899","0.0-47.0","ACJNWSBIVI46H","img_art/26.jpg","1","","","","","","","","","","","","","","","","","","","","","","","","",""
"3216","","image-button-response","48","364120","0.0-48.0-0.0","ACJNWSBIVI46H","img_art/26.jpg","3","","","","","","","","","","","","","","","","","","","","","","","","",""
"3676","","image-button-response","49","367803","0.0-49.0-0.0","ACJNWSBIVI46H","img_art/26.jpg","2","","","","","","","","","","","","","","","","","","","","","","","","",""
"null","","html-keyboard-response","50","368309","0.0-50.0","ACJNWSBIVI46H","<p style=""font-size: 48px;"">+</p>","","","","","null","allTrialResponses","500","1","1","img_art/26.jpg","36","Feels like an afternoon in the city park","Scott,Vincent,Gabriel,Jared,Chase,Victor","nothing really special, quite bland,1,20,20","Small town and home feel on A nice day.,28,360,20","this is nice!! i like the muted colors,34,160,20","soothing and subtle,1,400,20","I don't really see the point in this painting.,-16,120,20","the trees are cool,1,340,20","Vincent","Small town and home feel on A nice day.,28,360,20","Jared","soothing and subtle,1,400,20","Gabriel","this is nice!! i like the muted colors,34,160,20","0"
"15520","","survey-text","51","383845","0.0-51.0-0.0","ACJNWSBIVI46H","","","","{""Q0"":""Reminds me of a concert""}","","","","","","","","","","","","","","","","","","","","","","",""
"1959.9000000059605","","image-slider-response","52","385810","0.0-52.0","ACJNWSBIVI46H","","","","","42","","","","","","","","","","","","","","","","","","","","","",""
"null","","image-button-response","53","390817","0.0-53.0","ACJNWSBIVI46H","img_art/19.jpg","null","","","","","","","","","","","","","","","","","","","","","","","","",""
"221","","image-button-response","54","391043","0.0-54.0","ACJNWSBIVI46H","img_art/19.jpg","1","","","","","","","","","","","","","","","","","","","","","","","","",""
"1538","","image-button-response","55","392586","0.0-55.0-0.0","ACJNWSBIVI46H","img_art/19.jpg","3","","","","","","","","","","","","","","","","","","","","","","","","",""
"5153","","image-button-response","56","397746","0.0-56.0-0.0","ACJNWSBIVI46H","img_art/19.jpg","0","","","","","","","","","","","","","","","","","","","","","","","","",""
"null","","html-keyboard-response","57","398264","0.0-57.0","ACJNWSBIVI46H","<p style=""font-size: 48px;"">+</p>","","","","","null","allTrialResponses","500","1","2","img_art/19.jpg","42","Reminds me of a concert","Stephen,Vincent,Gabriel,Jared,Garrett,Christopher","Solid use of colors but wished it looked more realistic.,12,140,20","I really like the colors and feel of this one and alot of life,41,360,20","not sure if i like it or not,1,160,20","green and orange are my favorite colors.  this cityscape feels warm,34,400,20","This looks like a bunch of weird blobs and the colors don't go great together.,-10,180,20","too much of a mix of lines and shading,-22,160,20","Vincent","I really like the colors and feel of this one and alot of life,41,360,20","Jared","green and orange are my favorite colors.  this cityscape feels warm,34,400,20","Stephen","Solid use of colors but wished it looked more realistic.,12,140,20","0"
"23002","","survey-text","58","421276","0.0-58.0-0.0","ACJNWSBIVI46H","","","","{""Q0"":""Very dynamic use of color""}","","","","","","","","","","","","","","","","","","","","","","",""
"4487","","image-slider-response","59","425768","0.0-59.0","ACJNWSBIVI46H","","","","","35","","","","","","","","","","","","","","","","","","","","","",""
"null","","image-button-response","60","430779","0.0-60.0","ACJNWSBIVI46H","img_art/5.jpg","null","","","","","","","","","","","","","","","","","","","","","","","","",""
"673","","image-button-response","61","431458","0.0-61.0","ACJNWSBIVI46H","img_art/5.jpg","1","","","","","","","","","","","","","","","","","","","","","","","","",""
"989","","image-button-response","62","432452","0.0-62.0-0.0","ACJNWSBIVI46H","img_art/5.jpg","3","","","","","","","","","","","","","","","","","","","","","","","","",""
"638","","image-button-response","63","433097","0.0-63.0-0.0","ACJNWSBIVI46H","img_art/5.jpg","3","","","","","","","","","","","","","","","","","","","","","","","","",""
"974","","image-button-response","64","438479","0.0-63.1-0.1","ACJNWSBIVI46H","img_art/5.jpg","3","","","","","","","","","","","","","","","","","","","","","","","","",""
"3336","","image-button-response","65","444793","0.0-63.2-0.2","ACJNWSBIVI46H","img_art/5.jpg","2","","","","","","","","","","","","","","","","","","","","","","","","",""
"null","","html-keyboard-response","66","445298","0.0-64.0","ACJNWSBIVI46H","<p style=""font-size: 48px;"">+</p>","","","","","null","allTrialResponses","500","1","3","img_art/5.jpg","35","Very dynamic use of color","Stephen,Vincent,Luis,Jared,Aaron,Adrian","Very little going on.,-4,140,20","It speaks volumes to some. It's also a conversational piece. And very different ideas,34,360,20","Very messy and not a lot of thought,-29,400,20","i dont like the yellow or the shape,-26,400,20","It's kind of boring.,-20,20,20","Black bit reminds me of a giant splinter. Yellow bit reminds me of urine. I hate it.,-50,60,20","Vincent","It speaks volumes to some. It's also a conversational piece. And very different ideas,34,360,20","Jared","i dont like the yellow or the shape,-26,400,20","Luis","Very messy and not a lot of thought,-29,400,20","4"
"18160","","survey-text","67","463475","0.0-65.0-0.0","ACJNWSBIVI46H","","","","{""Q0"":""It feels like the pain of creativity for a painter""}","","","","","","","","","","","","","","","","","","","","","","",""
"2267.7999999821186","","image-slider-response","68","465748","0.0-66.0","ACJNWSBIVI46H","","","","","50","","","","","","","","","","","","","","","","","","","","","",""
"null","","image-button-response","69","470759","0.0-67.0","ACJNWSBIVI46H","img_art/29.jpg","null","","","","","","","","","","","","","","","","","","","","","","","","",""
"547","","image-button-response","70","471311","0.0-68.0","ACJNWSBIVI46H","img_art/29.jpg","1","","","","","","","","","","","","","","","","","","","","","","","","",""
"959","","image-button-response","71","472275","0.0-69.0-0.0","ACJNWSBIVI46H","img_art/29.jpg","2","","","","","","","","","","","","","","","","","","","","","","","","",""
"7985","","image-button-response","72","480269","0.0-70.0-0.0","ACJNWSBIVI46H","img_art/29.jpg","4","","","","","","","","","","","","","","","","","","","","","","","","",""
"null","","html-keyboard-response","73","481780","0.0-71.0","ACJNWSBIVI46H","<p style=""font-size: 48px;"">+</p>","","","","","null","allTrialResponses","1500","1","4","img_art/29.jpg","50","It feels like the pain of creativity for a painter","Patrick,Vincent,Luis,Jared,Bryan,Dylan","I don't like the black,-50,280,20","Another great work of art and very conversational piece,33,360,20","I love the representation of a mess,50,400,20","not digging the paintbrush,1,400,20","Doesn't do much for me. I like some of the colors but not much else.,-10,400,20","I don't like this. It is ugly and dark,-29,40,20","Vincent","Another great work of art and very conversational piece,33,360,20","Luis","I love the representation of a mess,50,400,20","Bryan","Doesn't do much for me. I like some of the colors but not much else.,-10,400,20","4"
"19808","","survey-text","74","501599","0.0-72.0-0.0","ACJNWSBIVI46H","","","","{""Q0"":""This dark, and makes you wonder what the artist felt creating it""}","","","","","","","","","","","","","","","","","","","","","","",""
"2985.9000000059605","","image-slider-response","75","504592","0.0-73.0","ACJNWSBIVI46H","","","","","11","","","","","","","","","","","","","","","","","","","","","",""
"null","","image-button-response","76","509608","0.0-74.0","ACJNWSBIVI46H","img_art/28.jpg","null","","","","","","","","","","","","","","","","","","","","","","","","",""
"619","","image-button-response","77","510232","0.0-75.0","ACJNWSBIVI46H","img_art/28.jpg","1","","","","","","","","","","","","","","","","","","","","","","","","",""
"5276","","image-button-response","78","515513","0.0-76.0-0.0","ACJNWSBIVI46H","img_art/28.jpg","5","","","","","","","","","","","","","","","","","","","","","","","","",""
"3841","","image-button-response","79","519362","0.0-77.0-0.0","ACJNWSBIVI46H","img_art/28.jpg","3","","","","","","","","","","","","","","","","","","","","","","","","",""
"null","","html-keyboard-response","80","519880","0.0-78.0","ACJNWSBIVI46H","<p style=""font-size: 48px;"">+</p>","","","","","null","allTrialResponses","500","1","5","img_art/28.jpg","11","This dark, and makes you wonder what the artist felt creating it","Austin,Vincent,Luis,Hunter,Bryan,Shawn","Not really exciting,23,240,20","This is one of my favorites. It says to me to take time for people,37,360,20","Self-hate and abuse at home, unsafe and torturing,-30,400,20","reminds me of kandinsky,14,240,20","A meeting in Old Jerusalem.,11,400,20","Evocative but a little dreary.,20,100,20","Vincent","This is one of my favorites. It says to me to take time for people,37,360,20","Shawn","Evocative but a little dreary.,20,100,20","Hunter","reminds me of kandinsky,14,240,20","4"
"6660","","survey-text","81","526564","0.0-79.0-0.0","ACJNWSBIVI46H","","","","{""Q0"":""sky""}","","","","","","","","","","","","","","","","","","","","","","",""
"12432","","survey-text","82","539000","0.0-80.0-0.0","ACJNWSBIVI46H","","","","{""Q0"":""It's like a door into the artists mind""}","","","","","","","","","","","","","","","","","","","","","","",""
"2228.7000000178814","","image-slider-response","83","541234","0.0-81.0","ACJNWSBIVI46H","","","","","50","","","","","","","","","","","","","","","","","","","","","",""
"4821","","image-button-response","84","546240","0.0-82.0","ACJNWSBIVI46H","img_art/8.jpg","1","","","","","","","","","","","","","","","","","","","","","","","","",""
"588","","image-button-response","85","546835","0.0-83.0","ACJNWSBIVI46H","img_art/8.jpg","1","","","","","","","","","","","","","","","","","","","","","","","","",""
"795","","image-button-response","86","547636","0.0-84.0-0.0","ACJNWSBIVI46H","img_art/8.jpg","2","","","","","","","","","","","","","","","","","","","","","","","","",""
"3408","","image-button-response","87","551051","0.0-85.0-0.0","ACJNWSBIVI46H","img_art/8.jpg","3","","","","","","","","","","","","","","","","","","","","","","","","",""
"null","","html-keyboard-response","88","552055","0.0-86.0","ACJNWSBIVI46H","<p style=""font-size: 48px;"">+</p>","","","","","null","allTrialResponses","1000","1","6","img_art/8.jpg","50","It's like a door into the artists mind","Malik,Vincent,Richard,Hunter,Bryce,Shawn","Striking, but not my taste,20,40,20","This speaks volumes to me and is another favorite I'm sure by many,40,360,20","lots going on with great use of lots of color and geometry,24,340,20","crisp shapes, find more things the longer you look,17,240,20","Its kinda like an optical illusion.,22,20,20","Cheesy. A little too knock you over the dead with its message without making it emotional,-31,100,20","Vincent","This speaks volumes to me and is another favorite I'm sure by many,40,360,20","Richard","lots going on with great use of lots of color and geometry,24,340,20","Hunter","crisp shapes, find more things the longer you look,17,240,20","4"
"13459","","survey-text","89","565527","0.0-87.0-0.0","ACJNWSBIVI46H","","","","{""Q0"":""Not very original""}","","","","","","","","","","","","","","","","","","","","","","",""
"3336.9000000059605","","image-slider-response","90","568869","0.0-88.0","ACJNWSBIVI46H","","","","","-44","","","","","","","","","","","","","","","","","","","","","",""
"null","","image-button-response","91","573887","0.0-89.0","ACJNWSBIVI46H","img_art/30.jpg","null","","","","","","","","","","","","","","","","","","","","","","","","",""
"672","","image-button-response","92","574564","0.0-90.0","ACJNWSBIVI46H","img_art/30.jpg","2","","","","","","","","","","","","","","","","","","","","","","","","",""
"2630","","image-button-response","93","577199","0.0-91.0-0.0","ACJNWSBIVI46H","img_art/30.jpg","4","","","","","","","","","","","","","","","","","","","","","","","","",""
"2579","","image-button-response","94","579785","0.0-92.0-0.0","ACJNWSBIVI46H","img_art/30.jpg","3","","","","","","","","","","","","","","","","","","","","","","","","",""
"null","","html-keyboard-response","95","581303","0.0-93.0","ACJNWSBIVI46H","<p style=""font-size: 48px;"">+</p>","","","","","null","allTrialResponses","1500","1","7","img_art/30.jpg","-44","Not very original","Timothy,Vincent,Richard,Hunter,Tristan,Alexander","It's pleasent but otherwise unprovoking,8,240,20","Personal , calming conservative signature business ideal.,32,360,20","looks very childish, like your kid did it,-33,340,20","muddy, feels unintentional,-50,240,20","Too much abstraction for me, leaving my focus mainly on color. I like the texture.,-20,300,20","Sleek eel in the abstract ocean.,30,120,20","Richard","looks very childish, like your kid did it,-33,340,20","Tristan","Too much abstraction for me, leaving my focus mainly on color. I like the texture.,-20,300,20","Hunter","muddy, feels unintentional,-50,240,20","4"
"15271","","survey-text","96","596584","0.0-94.0-0.0","ACJNWSBIVI46H","","","","{""Q0"":""I love how abstract this scene is""}","","","","","","","","","","","","","","","","","","","","","","",""
"1901.2000000178814","","image-slider-response","97","598490","0.0-95.0","ACJNWSBIVI46H","","","","","50","","","","","","","","","","","","","","","","","","","","","",""
"null","","image-button-response","98","603497","0.0-96.0","ACJNWSBIVI46H","img_art/21.jpg","null","","","","","","","","","","","","","","","","","","","","","","","","",""
"1183","","image-button-response","99","604685","0.0-97.0","ACJNWSBIVI46H","img_art/21.jpg","1","","","","","","","","","","","","","","","","","","","","","","","","",""
"4456","","image-button-response","100","609150","0.0-98.0-0.0","ACJNWSBIVI46H","img_art/21.jpg","4","","","","","","","","","","","","","","","","","","","","","","","","",""
"2093","","image-button-response","101","611252","0.0-99.0-0.0","ACJNWSBIVI46H","img_art/21.jpg","5","","","","","","","","","","","","","","","","","","","","","","","","",""
"null","","html-keyboard-response","102","612260","0.0-100.0","ACJNWSBIVI46H","<p style=""font-size: 48px;"">+</p>","","","","","null","allTrialResponses","1000","1","8","img_art/21.jpg","50","I love how abstract this scene is","Robert,Seth,Richard,Hunter,Tristan,Grant","A battle at sea, the red is a bomb exploding.,-31,360,20","Makes me feel light and airy. Like I've gone back in time to 1700th century France.,43,60,20","setting sun sky? nice colors and blending,14,340,20","feels like a harbor scene,11,240,20","A landscape that leaves me inspired and hopeful.,20,300,20","The colors make me think of a perilous scene at sea, and are pretty interesting.,15,200,20","Seth","Makes me feel light and airy. Like I've gone back in time to 1700th century France.,43,60,20","Tristan","A landscape that leaves me inspired and hopeful.,20,300,20","Grant","The colors make me think of a perilous scene at sea, and are pretty interesting.,15,200,20","4"
"10595","","survey-text","103","622866","0.0-101.0-0.0","ACJNWSBIVI46H","","","","{""Q0"":""Reminds me of a garden""}","","","","","","","","","","","","","","","","","","","","","","",""
"2755.699999988079","","image-slider-response","104","625627","0.0-102.0","ACJNWSBIVI46H","","","","","30","","","","","","","","","","","","","","","","","","","","","",""
"null","","image-button-response","105","630633","0.0-103.0","ACJNWSBIVI46H","img_art/27.jpg","null","","","","","","","","","","","","","","","","","","","","","","","","",""
"1267","","image-button-response","106","631905","0.0-104.0","ACJNWSBIVI46H","img_art/27.jpg","0","","","","","","","","","","","","","","","","","","","","","","","","",""
"1777","","image-button-response","107","633688","0.0-105.0-0.0","ACJNWSBIVI46H","img_art/27.jpg","3","","","","","","","","","","","","","","","","","","","","","","","","",""
"3048","","image-button-response","108","636742","0.0-106.0-0.0","ACJNWSBIVI46H","img_art/27.jpg","4","","","","","","","","","","","","","","","","","","","","","","","","",""
"null","","html-keyboard-response","109","637751","0.0-107.0","ACJNWSBIVI46H","<p style=""font-size: 48px;"">+</p>","","","","","null","allTrialResponses","1000","1","9","img_art/27.jpg","30","Reminds me of a garden","Trevor,Seth,Bradley,Jeremy,Tristan,Grant","I like the orange but it's a little blah,1,280,20","I don't care for the green scribbles; not sure what they are. But I adore the colors in the background.,24,60,20","Yikes. I think I made this in kindergarten.,-20,300,20","Pleased. Reminds me of a child drawing,46,60,20","The colors provide a complexity to the nearly child-like sketches.,5,300,20","This feels like I'm looking at a child's scribbles.,-27,200,20","Trevor","I like the orange but it's a little blah,1,280,20","Jeremy","Pleased. Reminds me of a child drawing,46,60,20","Tristan","The colors provide a complexity to the nearly child-like sketches.,5,300,20","4"
"15321","","survey-text","110","653087","0.0-108.0-0.0","ACJNWSBIVI46H","","","","{""Q0"":""Love the fusion of hand art with real photography""}","","","","","","","","","","","","","","","","","","","","","","",""
"3060.800000011921","","image-slider-response","111","656152","0.0-109.0","ACJNWSBIVI46H","","","","","50","","","","","","","","","","","","","","","","","","","","","",""
"null","","image-button-response","112","661168","0.0-110.0","ACJNWSBIVI46H","img_art/16.jpg","null","","","","","","","","","","","","","","","","","","","","","","","","",""
"478","","image-button-response","113","661651","0.0-111.0","ACJNWSBIVI46H","img_art/16.jpg","4","","","","","","","","","","","","","","","","","","","","","","","","",""
"1340","","image-button-response","114","662997","0.0-112.0-0.0","ACJNWSBIVI46H","img_art/16.jpg","5","","","","","","","","","","","","","","","","","","","","","","","","",""
"5793","","image-button-response","115","668797","0.0-113.0-0.0","ACJNWSBIVI46H","img_art/16.jpg","3","","","","","","","","","","","","","","","","","","","","","","","","",""
"null","","html-keyboard-response","116","670303","0.0-114.0","ACJNWSBIVI46H","<p style=""font-size: 48px;"">+</p>","","","","","null","allTrialResponses","1500","1","10","img_art/16.jpg","50","Love the fusion of hand art with real photography","Trevor,Lucas,Connor,Jeremy,Tristan,Charles","very creepy with a bear and a gun,-50,280,20","It's frightening.,30,380,20","Not original. Bear is odd,-50,240,20","very disturbed seening a gun in the same picture as a teddy bear,-50,60,20","visceral and a little disturbing.,10,300,20","Weird and creepy,-30,100,20","Tristan","visceral and a little disturbing.,10,300,20","Charles","Weird and creepy,-30,100,20","Jeremy","very disturbed seening a gun in the same picture as a teddy bear,-50,60,20","4"
"6190","","survey-text","117","676516","0.0-115.0-0.0","ACJNWSBIVI46H","","","","{""Q0"":""our""}","","","","","","","","","","","","","","","","","","","","","","",""
"13812","","survey-text","118","690333","0.0-116.0-0.0","ACJNWSBIVI46H","","","","{""Q0"":""It's like looking into a reflection in the water""}","","","","","","","","","","","","","","","","","","","","","","",""
"1868.2999999821186","","image-slider-response","119","692206","0.0-117.0","ACJNWSBIVI46H","","","","","27","","","","","","","","","","","","","","","","","","","","","",""
"null","","image-button-response","120","697212","0.0-118.0","ACJNWSBIVI46H","img_art/1.jpg","null","","","","","","","","","","","","","","","","","","","","","","","","",""
"2766","","image-button-response","121","699984","0.0-119.0","ACJNWSBIVI46H","img_art/1.jpg","5","","","","","","","","","","","","","","","","","","","","","","","","",""
"3250","","image-button-response","122","703241","0.0-120.0-0.0","ACJNWSBIVI46H","img_art/1.jpg","3","","","","","","","","","","","","","","","","","","","","","","","","",""
"2027","","image-button-response","123","705276","0.0-121.0-0.0","ACJNWSBIVI46H","img_art/1.jpg","2","","","","","","","","","","","","","","","","","","","","","","","","",""
"null","","html-keyboard-response","124","705779","0.0-122.0","ACJNWSBIVI46H","<p style=""font-size: 48px;"">+</p>","","","","","null","allTrialResponses","500","1","11","img_art/1.jpg","27","It's like looking into a reflection in the water","Ryan,Brian,Elijah,Jeremy,Tristan,Charles","Seems like one i previously saw in this survey,27,380,20","I don't feel like much is happening in this painting,-25,380,20","Makes me feel confused,-6,80,20","fearful. Makes me think of fire,-10,60,20","Unpleasing palette. I see a figure but it seems incongrous to the highly abstract background.,-20,300,20","It's like being out on a psychedelic lake,32,100,20","Charles","It's like being out on a psychedelic lake,32,100,20","Jeremy","fearful. Makes me think of fire,-10,60,20","Elijah","Makes me feel confused,-6,80,20","4"
"10793","","survey-text","125","716589","0.0-123.0-0.0","ACJNWSBIVI46H","","","","{""Q0"":""Feels almost like rain hitting a window""}","","","","","","","","","","","","","","","","","","","","","","",""
"3073.2000000178814","","image-slider-response","126","719667","0.0-124.0","ACJNWSBIVI46H","","","","","28","","","","","","","","","","","","","","","","","","","","","",""
"4850","","image-button-response","127","724705","0.0-125.0","ACJNWSBIVI46H","img_art/13.jpg","1","","","","","","","","","","","","","","","","","","","","","","","","",""
"473","","image-button-response","128","725184","0.0-126.0","ACJNWSBIVI46H","img_art/13.jpg","1","","","","","","","","","","","","","","","","","","","","","","","","",""
"449","","image-button-response","129","725638","0.0-127.0-0.0","ACJNWSBIVI46H","img_art/13.jpg","2","","","","","","","","","","","","","","","","","","","","","","","","",""
"1153","","image-button-response","130","726799","0.0-128.0-0.0","ACJNWSBIVI46H","img_art/13.jpg","4","","","","","","","","","","","","","","","","","","","","","","","","",""
"null","","html-keyboard-response","131","727304","0.0-129.0","ACJNWSBIVI46H","<p style=""font-size: 48px;"">+</p>","","","","","null","allTrialResponses","500","1","12","img_art/13.jpg","28","Feels almost like rain hitting a window","Isaac,Jacob,Elijah,Jeremy,Miguel,Charles","The colors are okay but I don't like the shapes here.,-18,280,20","The paint splatter idea is kind of overused but I like how it brings the piece together,16,340,20","Makes me feel nice and calm,18,80,20","Pleased. I like to combination of colors,17,60,20","Nice color abstractions.,21,160,20","It's like a pattern on a bus seat,10,100,20","Jacob","The paint splatter idea is kind of overused but I like how it brings the piece together,16,340,20","Elijah","Makes me feel nice and calm,18,80,20","Miguel","Nice color abstractions.,21,160,20","4"
"12605","","survey-text","132","739925","0.0-130.0-0.0","ACJNWSBIVI46H","","","","{""Q0"":""Feels like a thought coming to life""}","","","","","","","","","","","","","","","","","","","","","","",""
"2683.5","","image-slider-response","133","742613","0.0-131.0","ACJNWSBIVI46H","","","","","33","","","","","","","","","","","","","","","","","","","","","",""
"null","","image-button-response","134","747623","0.0-132.0","ACJNWSBIVI46H","img_art/22.jpg","null","","","","","","","","","","","","","","","","","","","","","","","","",""
"570","","image-button-response","135","748199","0.0-133.0","ACJNWSBIVI46H","img_art/22.jpg","3","","","","","","","","","","","","","","","","","","","","","","","","",""
"1219","","image-button-response","136","749425","0.0-134.0-0.0","ACJNWSBIVI46H","img_art/22.jpg","1","","","","","","","","","","","","","","","","","","","","","","","","",""
"1174","","image-button-response","137","750607","0.0-135.0-0.0","ACJNWSBIVI46H","img_art/22.jpg","0","","","","","","","","","","","","","","","","","","","","","","","","",""
"null","","html-keyboard-response","138","752119","0.0-136.0","ACJNWSBIVI46H","<p style=""font-size: 48px;"">+</p>","","","","","null","allTrialResponses","1500","1","13","img_art/22.jpg","33","Feels like a thought coming to life","Benjamin,Jacob,Elijah,Kyle,Miguel,Logan","Colors are bright and cheerful.,5,260,20","I like the mixing of the primary colors.,8,340,20","Makes me feel a bit anxious,6,80,20","I appreciate the artistic effort but it's not for me,0,340,20","Same az the last one?,-49,160,20","so boring. Wow you made some circles some squares very nice,-40,360,20","Kyle","I appreciate the artistic effort but it's not for me,0,340,20","Jacob","I like the mixing of the primary colors.,8,340,20","Benjamin","Colors are bright and cheerful.,5,260,20","4"
"16800","","survey-text","139","768934","0.0-137.0-0.0","ACJNWSBIVI46H","","","","{""Q0"":""Reminds me of nature trying to exist within a city""}","","","","","","","","","","","","","","","","","","","","","","",""
"2736.2999999821186","","image-slider-response","140","771676","0.0-138.0","ACJNWSBIVI46H","","","","","37","","","","","","","","","","","","","","","","","","","","","",""
"4927","","image-button-response","141","776701","0.0-139.0","ACJNWSBIVI46H","img_art/17.jpg","1","","","","","","","","","","","","","","","","","","","","","","","","",""
"525","","image-button-response","142","777231","0.0-140.0","ACJNWSBIVI46H","img_art/17.jpg","1","","","","","","","","","","","","","","","","","","","","","","","","",""
"545","","image-button-response","143","777782","0.0-141.0-0.0","ACJNWSBIVI46H","img_art/17.jpg","2","","","","","","","","","","","","","","","","","","","","","","","","",""
"6302","","image-button-response","144","784092","0.0-142.0-0.0","ACJNWSBIVI46H","img_art/17.jpg","3","","","","","","","","","","","","","","","","","","","","","","","","",""
"null","","html-keyboard-response","145","784596","0.0-143.0","ACJNWSBIVI46H","<p style=""font-size: 48px;"">+</p>","","","","","null","allTrialResponses","500","1","14","img_art/17.jpg","37","Reminds me of nature trying to exist within a city","Benjamin,Jacob,Luke,Kyle,Marcus,Ian","Don't really like pastels.,-10,260,20","The way they painted the trees is so cool.,27,340,20","it looks very intricate and colorful,50,20,20","I like the use of color in this and how you can actually see shapes form. Seems thoughtful,22,340,20","I like this, but it's a bit bland.,10,60,20","It seems a little dark but it is very beautiful,28,260,20","Jacob","The way they painted the trees is so cool.,27,340,20","Luke","it looks very intricate and colorful,50,20,20","Kyle","I like the use of color in this and how you can actually see shapes form. Seems thoughtful,22,340,20","4"
"14567","","survey-text","146","799179","0.0-144.0-0.0","ACJNWSBIVI46H","","","","{""Q0"":""Feels like you're staring into death""}","","","","","","","","","","","","","","","","","","","","","","",""
"3980.0999999940395","","image-slider-response","147","803164","0.0-145.0","ACJNWSBIVI46H","","","","","-28","","","","","","","","","","","","","","","","","","","","","",""
"null","","image-button-response","148","808174","0.0-146.0","ACJNWSBIVI46H","img_art/25.jpg","null","","","","","","","","","","","","","","","","","","","","","","","","",""
"388","","image-button-response","149","808567","0.0-147.0","ACJNWSBIVI46H","img_art/25.jpg","2","","","","","","","","","","","","","","","","","","","","","","","","",""
"797","","image-button-response","150","809370","0.0-148.0-0.0","ACJNWSBIVI46H","img_art/25.jpg","0","","","","","","","","","","","","","","","","","","","","","","","","",""
"3781","","image-button-response","151","813157","0.0-149.0-0.0","ACJNWSBIVI46H","img_art/25.jpg","5","","","","","","","","","","","","","","","","","","","","","","","","",""
"null","","html-keyboard-response","152","814167","0.0-150.0","ACJNWSBIVI46H","<p style=""font-size: 48px;"">+</p>","","","","","null","allTrialResponses","1000","1","15","img_art/25.jpg","-28","Feels like you're staring into death","Jesse,Jacob,Luke,Kyle,Caleb,Dakota","Creates a bit of fear in me for some reason,-26,80,20","I really like how the lines form this piece.,8,340,20","the contrasting colors are very interesting,24,20,20","I liked it as it seems unique in a way,21,340,20","Very cool color, very clear message!,50,40,20","I think of death,-28,280,20","Luke","the contrasting colors are very interesting,24,20,20","Jesse","Creates a bit of fear in me for some reason,-26,80,20","Dakota","I think of death,-28,280,20","4"
"10320","","survey-text","153","824514","0.0-151.0-0.0","ACJNWSBIVI46H","","","","{""Q0"":""course""}","","","","","","","","","","","","","","","","","","","","","","",""
"9772","","survey-text","154","834289","0.0-152.0-0.0","ACJNWSBIVI46H","","","","{""Q0"":""Very chaotic ""}","","","","","","","","","","","","","","","","","","","","","","",""
"2801.0999999940395","","image-slider-response","155","837095","0.0-153.0","ACJNWSBIVI46H","","","","","-50","","","","","","","","","","","","","","","","","","","","","",""
"null","","image-button-response","156","842102","0.0-154.0","ACJNWSBIVI46H","img_art/15.jpg","null","","","","","","","","","","","","","","","","","","","","","","","","",""
"1244","","image-button-response","157","843351","0.0-155.0","ACJNWSBIVI46H","img_art/15.jpg","1","","","","","","","","","","","","","","","","","","","","","","","","",""
"3555","","image-button-response","158","846911","0.0-156.0-0.0","ACJNWSBIVI46H","img_art/15.jpg","4","","","","","","","","","","","","","","","","","","","","","","","","",""
"3320","","image-button-response","159","850238","0.0-157.0-0.0","ACJNWSBIVI46H","img_art/15.jpg","5","","","","","","","","","","","","","","","","","","","","","","","","",""
"null","","html-keyboard-response","160","851747","0.0-158.0","ACJNWSBIVI46H","<p style=""font-size: 48px;"">+</p>","","","","","null","allTrialResponses","1500","1","16","img_art/15.jpg","-50","Very chaotic ","Jesse,Samuel,Luke,Nicholas,Juan,Dakota","Doesnt trigger much of a reaction overall,-2,80,20","Black reminds me of darkness,-18,400,20","it looks like trees but they are up to interpretation,16,20,20","Not interesting enough. Boring,-37,240,20","I don't even know what's going on here. Again, this is too abstract.,-21,260,20","abrasive, rough, uneven,-31,280,20","Samuel","Black reminds me of darkness,-18,400,20","Juan","I don't even know what's going on here. Again, this is too abstract.,-21,260,20","Dakota","abrasive, rough, uneven,-31,280,20","4"
"12209","","survey-text","161","863970","0.0-159.0-0.0","ACJNWSBIVI46H","","","","{""Q0"":""Gives me memories of the beach""}","","","","","","","","","","","","","","","","","","","","","","",""
"2714.0999999940395","","image-slider-response","162","866689","0.0-160.0","ACJNWSBIVI46H","","","","","15","","","","","","","","","","","","","","","","","","","","","",""
"null","","image-button-response","163","871709","0.0-161.0","ACJNWSBIVI46H","img_art/7.jpg","null","","","","","","","","","","","","","","","","","","","","","","","","",""
"573","","image-button-response","164","872288","0.0-162.0","ACJNWSBIVI46H","img_art/7.jpg","1","","","","","","","","","","","","","","","","","","","","","","","","",""
"455","","image-button-response","165","872750","0.0-163.0-0.0","ACJNWSBIVI46H","img_art/7.jpg","2","","","","","","","","","","","","","","","","","","","","","","","","",""
"4553","","image-button-response","166","877310","0.0-164.0-0.0","ACJNWSBIVI46H","img_art/7.jpg","5","","","","","","","","","","","","","","","","","","","","","","","","",""
"null","","html-keyboard-response","167","877815","0.0-165.0","ACJNWSBIVI46H","<p style=""font-size: 48px;"">+</p>","","","","","null","allTrialResponses","500","1","17","img_art/7.jpg","15","Gives me memories of the beach","Brandon,Samuel,Jesus,Taylor,Juan,Dakota","Looks like bad wallpaper,-29,320,20","looking down on earth,19,400,20","Is simple in color and texture,11,100,20","Looks like a photo taken from the moon.,-6,200,20","This is borning and lifeless.,-50,260,20","I feel thirsty - reminds me of desert sand,11,280,20","Samuel","looking down on earth,19,400,20","Jesus","Is simple in color and texture,11,100,20","Dakota","I feel thirsty - reminds me of desert sand,11,280,20","4"
"17635","","survey-text","168","895464","0.0-166.0-0.0","ACJNWSBIVI46H","","","","{""Q0"":""Feels like the expression of a tree coming to life""}","","","","","","","","","","","","","","","","","","","","","","",""
"1960","","image-slider-response","169","897429","0.0-167.0","ACJNWSBIVI46H","","","","","33","","","","","","","","","","","","","","","","","","","","","",""
"4837","","image-button-response","170","902440","0.0-168.0","ACJNWSBIVI46H","img_art/14.jpg","1","","","","","","","","","","","","","","","","","","","","","","","","",""
"2009","","image-button-response","171","904455","0.0-169.0","ACJNWSBIVI46H","img_art/14.jpg","4","","","","","","","","","","","","","","","","","","","","","","","","",""
"838","","image-button-response","172","905299","0.0-170.0-0.0","ACJNWSBIVI46H","img_art/14.jpg","3","","","","","","","","","","","","","","","","","","","","","","","","",""
"1736","","image-button-response","173","907041","0.0-171.0-0.0","ACJNWSBIVI46H","img_art/14.jpg","1","","","","","","","","","","","","","","","","","","","","","","","","",""
"null","","html-keyboard-response","174","908554","0.0-172.0","ACJNWSBIVI46H","<p style=""font-size: 48px;"">+</p>","","","","","null","allTrialResponses","1500","1","18","img_art/14.jpg","33","Feels like the expression of a tree coming to life","Tanner,Samuel,Jesus,John,Justin,Dakota","somewhat stressful, crazy,-3,180,20","tree of life brings hope,7,400,20","I like the combination of colors and textures.,35,100,20","Beautiful tree,the use of water colors makes it soothing to look at,37,120,20","The colors are good and the design is intriguing.,15,280,20","feels incomplete, poorly planned/executed,-34,280,20","Justin","The colors are good and the design is intriguing.,15,280,20","John","Beautiful tree,the use of water colors makes it soothing to look at,37,120,20","Samuel","tree of life brings hope,7,400,20","4"
"17868","","survey-text","175","926437","0.0-173.0-0.0","ACJNWSBIVI46H","","","","{""Q0"":""Feels like a ship going through a storm""}","","","","","","","","","","","","","","","","","","","","","","",""
"2117.199999988079","","image-slider-response","176","928559","0.0-174.0","ACJNWSBIVI46H","","","","","50","","","","","","","","","","","","","","","","","","","","","",""
"4715","","image-button-response","177","933583","0.0-175.0","ACJNWSBIVI46H","img_art/18.jpg","2","","","","","","","","","","","","","","","","","","","","","","","","",""
"835","","image-button-response","178","934423","0.0-176.0","ACJNWSBIVI46H","img_art/18.jpg","2","","","","","","","","","","","","","","","","","","","","","","","","",""
"3640","","image-button-response","179","938069","0.0-177.0-0.0","ACJNWSBIVI46H","img_art/18.jpg","4","","","","","","","","","","","","","","","","","","","","","","","","",""
"2913","","image-button-response","180","940989","0.0-178.0-0.0","ACJNWSBIVI46H","img_art/18.jpg","0","","","","","","","","","","","","","","","","","","","","","","","","",""
"null","","html-keyboard-response","181","942500","0.0-179.0","ACJNWSBIVI46H","<p style=""font-size: 48px;"">+</p>","","","","","null","allTrialResponses","1500","1","19","img_art/18.jpg","50","Feels like a ship going through a storm","Colton,Samuel,Corey,John,Justin,Isaiah","reminds me of greek mythology,22,220,20","death rides in life,-25,400,20","reminds me of dying at sea in the 1700s,-8,260,20","There are alot of elements to this painting and a good mix of colors,32,120,20","This is really interesting to look at. I like the colors and the spectral look.,27,280,20","I'm mildly disgusted by the colors, and can't piece together the story the figures are trying to tell.,-10,300,20","Corey","reminds me of dying at sea in the 1700s,-8,260,20","Justin","This is really interesting to look at. I like the colors and the spectral look.,27,280,20","Colton","reminds me of greek mythology,22,220,20","4"
"17484","","survey-text","182","959998","0.0-180.0-0.0","ACJNWSBIVI46H","","","","{""Q0"":""Almost like a volcano getting ready to explode""}","","","","","","","","","","","","","","","","","","","","","","",""
"2332","","image-slider-response","183","962335","0.0-181.0","ACJNWSBIVI46H","","","","","27","","","","","","","","","","","","","","","","","","","","","",""
"4954","","image-button-response","184","967356","0.0-182.0","ACJNWSBIVI46H","img_art/9.jpg","1","","","","","","","","","","","","","","","","","","","","","","","","",""
"761","","image-button-response","185","968122","0.0-183.0","ACJNWSBIVI46H","img_art/9.jpg","1","","","","","","","","","","","","","","","","","","","","","","","","",""
"1079","","image-button-response","186","969206","0.0-184.0-0.0","ACJNWSBIVI46H","img_art/9.jpg","2","","","","","","","","","","","","","","","","","","","","","","","","",""
"2269","","image-button-response","187","971481","0.0-185.0-0.0","ACJNWSBIVI46H","img_art/9.jpg","4","","","","","","","","","","","","","","","","","","","","","","","","",""
"null","","html-keyboard-response","188","971985","0.0-186.0","ACJNWSBIVI46H","<p style=""font-size: 48px;"">+</p>","","","","","null","allTrialResponses","500","1","20","img_art/9.jpg","27","Almost like a volcano getting ready to explode","Colton,Brett,Corey,Dustin,Justin,Mason","the colors are nice,6,220,20","Peaceful dreaming,40,360,20","keeps me interested. like the colors,17,260,20","I like the blues and pinks. The woman lying down communicates relaxation. It is a serene, calming scene,30,20,20","It reminds me of an illustration for a fairy tale.,19,280,20","Abstract titanic scene. It's nice though. I like how it makes me feel.,28,100,20","Brett","Peaceful dreaming,40,360,20","Corey","keeps me interested. like the colors,17,260,20","Justin","It reminds me of an illustration for a fairy tale.,19,280,20","4"
"4953","","survey-text","189","976965","0.0-187.0-0.0","ACJNWSBIVI46H","","","","{""Q0"":""we""}","","","","","","","","","","","","","","","","","","","","","","",""
"17282","","survey-text","190","994252","0.0-188.0-0.0","ACJNWSBIVI46H","","","","{""Q0"":""Has an almost graffiti feel to it""}","","","","","","","","","","","","","","","","","","","","","","",""
"3787.800000011921","","image-slider-response","191","998044","0.0-189.0","ACJNWSBIVI46H","","","","","50","","","","","","","","","","","","","","","","","","","","","",""
"null","","image-button-response","192","1003058","0.0-190.0","ACJNWSBIVI46H","img_art/2.jpg","null","","","","","","","","","","","","","","","","","","","","","","","","",""
"481","","image-button-response","193","1003545","0.0-191.0","ACJNWSBIVI46H","img_art/2.jpg","3","","","","","","","","","","","","","","","","","","","","","","","","",""
"1214","","image-button-response","194","1004765","0.0-192.0-0.0","ACJNWSBIVI46H","img_art/2.jpg","5","","","","","","","","","","","","","","","","","","","","","","","","",""
"4375","","image-button-response","195","1009147","0.0-193.0-0.0","ACJNWSBIVI46H","img_art/2.jpg","2","","","","","","","","","","","","","","","","","","","","","","","","",""
"null","","html-keyboard-response","196","1010168","0.0-194.0","ACJNWSBIVI46H","<p style=""font-size: 48px;"">+</p>","","","","","null","allTrialResponses","1000","1","21","img_art/2.jpg","50","Has an almost graffiti feel to it","Anthony,Brett,Corey,Alejandro,Justin,Derek","Ugly color scheme,-50,200,20","Not very appealing,-5,360,20","doesn't do anything for me,-7,260,20","Looks contrived and like someone tried to hard to make it abstract,-31,80,20","This one feels rather flat and not engaging.,-15,280,20","Not my favorite but I can see this being hung in a art museum,25,360,20","Alejandro","Looks contrived and like someone tried to hard to make it abstract,-31,80,20","Derek","Not my favorite but I can see this being hung in a art museum,25,360,20","Corey","doesn't do anything for me,-7,260,20","4"
"14785","","survey-text","197","1024970","0.0-195.0-0.0","ACJNWSBIVI46H","","","","{""Q0"":""I get the impression of a magic act""}","","","","","","","","","","","","","","","","","","","","","","",""
"3261.5999999940395","","image-slider-response","198","1028238","0.0-196.0","ACJNWSBIVI46H","","","","","11","","","","","","","","","","","","","","","","","","","","","",""
"null","","image-button-response","199","1033246","0.0-197.0","ACJNWSBIVI46H","img_art/4.jpg","null","","","","","","","","","","","","","","","","","","","","","","","","",""
"652","","image-button-response","200","1033903","0.0-198.0","ACJNWSBIVI46H","img_art/4.jpg","1","","","","","","","","","","","","","","","","","","","","","","","","",""
"3400","","image-button-response","201","1037308","0.0-199.0-0.0","ACJNWSBIVI46H","img_art/4.jpg","3","","","","","","","","","","","","","","","","","","","","","","","","",""
"3796","","image-button-response","202","1041112","0.0-200.0-0.0","ACJNWSBIVI46H","img_art/4.jpg","5","","","","","","","","","","","","","","","","","","","","","","","","",""
"null","","html-keyboard-response","203","1042117","0.0-201.0","ACJNWSBIVI46H","<p style=""font-size: 48px;"">+</p>","","","","","null","allTrialResponses","1000","1","22","img_art/4.jpg","11","I get the impression of a magic act","Christian,Carlos,Corey,Alejandro,Michael,Derek","no sorry i can't really understand,-18,140,20","Movement. Snakes. Hair. The uncertainty makes my eye return.,21,80,20","doesn't do anything for me,-4,260,20","Looks like finger nails from the Guinness world record book.,-30,80,20","Looks like a child did it.,-42,140,20","A bit too plain for my tastes,-10,360,20","Carlos","Movement. Snakes. Hair. The uncertainty makes my eye return.,21,80,20","Alejandro","Looks like finger nails from the Guinness world record book.,-30,80,20","Derek","A bit too plain for my tastes,-10,360,20","4"
"17693","","survey-text","204","1059828","0.0-202.0-0.0","ACJNWSBIVI46H","","","","{""Q0"":""I love the layer of this painting with everything being sectioned off""}","","","","","","","","","","","","","","","","","","","","","","",""
"2880.7999999821186","","image-slider-response","205","1062714","0.0-203.0","ACJNWSBIVI46H","","","","","34","","","","","","","","","","","","","","","","","","","","","",""
"null","","image-button-response","206","1067725","0.0-204.0","ACJNWSBIVI46H","img_art/12.jpg","null","","","","","","","","","","","","","","","","","","","","","","","","",""
"819","","image-button-response","207","1068549","0.0-205.0","ACJNWSBIVI46H","img_art/12.jpg","2","","","","","","","","","","","","","","","","","","","","","","","","",""
"5411","","image-button-response","208","1073966","0.0-206.0-0.0","ACJNWSBIVI46H","img_art/12.jpg","5","","","","","","","","","","","","","","","","","","","","","","","","",""
"1192","","image-button-response","209","1075166","0.0-207.0-0.0","ACJNWSBIVI46H","img_art/12.jpg","0","","","","","","","","","","","","","","","","","","","","","","","","",""
"null","","html-keyboard-response","210","1075670","0.0-208.0","ACJNWSBIVI46H","<p style=""font-size: 48px;"">+</p>","","","","","null","allTrialResponses","500","1","23","img_art/12.jpg","34","I love the layer of this painting with everything being sectioned off","Nathan,Carlos,Kevin,Alejandro,Mitchell,Derek","Kind of interesting, seems almost nostalgic in a way to me.,10,200,20","It is very bland and the colors are not cohesive.,-20,80,20","That is a warn quilt grama made.,11,320,20","I like the sectioned nature of the squares and curves. Not my favorite but still a good one.,27,80,20","confused. stages of a persons life from beginning positive to ending negative.,-10,180,20","I love the pattern and this looks like it took a good deal of effort,35,360,20","Kevin","That is a warn quilt grama made.,11,320,20","Derek","I love the pattern and this looks like it took a good deal of effort,35,360,20","Nathan","Kind of interesting, seems almost nostalgic in a way to me.,10,200,20","4"
"15996","","survey-text","211","1091683","0.0-209.0-0.0","ACJNWSBIVI46H","","","","{""Q0"":""It's like looking off into the water at the ships at dock""}","","","","","","","","","","","","","","","","","","","","","","",""
"1840","","image-slider-response","212","1093528","0.0-210.0","ACJNWSBIVI46H","","","","","34","","","","","","","","","","","","","","","","","","","","","",""
"null","","image-button-response","213","1098547","0.0-211.0","ACJNWSBIVI46H","img_art/11.jpg","null","","","","","","","","","","","","","","","","","","","","","","","","",""
"468","","image-button-response","214","1099020","0.0-212.0","ACJNWSBIVI46H","img_art/11.jpg","1","","","","","","","","","","","","","","","","","","","","","","","","",""
"1181","","image-button-response","215","1100205","0.0-213.0-0.0","ACJNWSBIVI46H","img_art/11.jpg","0","","","","","","","","","","","","","","","","","","","","","","","","",""
"5389","","image-button-response","216","1105601","0.0-214.0-0.0","ACJNWSBIVI46H","img_art/11.jpg","5","","","","","","","","","","","","","","","","","","","","","","","","",""
"null","","html-keyboard-response","217","1106121","0.0-215.0","ACJNWSBIVI46H","<p style=""font-size: 48px;"">+</p>","","","","","null","allTrialResponses","500","1","24","img_art/11.jpg","34","It's like looking off into the water at the ships at dock","Nathan,Dalton,Kevin,Andrew,Noah,Derek","Reminds me of some of post-apocalyptic view of street lights or maybe a city,30,200,20","looks like highways and homes and lives intertwining.,27,300,20","Thats a creepy old rollercoasters abandoned,-2,320,20","It's a really cool painting, but it reminds me of bad traffic,-20,160,20","I enjoy the kandinsky-like general vibe, but the grey brings me down a bit,27,260,20","There's a lot going on in this painting but it is pleasing and neat looking,31,360,20","Dalton","looks like highways and homes and lives intertwining.,27,300,20","Nathan","Reminds me of some of post-apocalyptic view of street lights or maybe a city,30,200,20","Derek","There's a lot going on in this painting but it is pleasing and neat looking,31,360,20","4"
"22568","","survey-text","218","1128706","0.0-216.0-0.0","ACJNWSBIVI46H","","","","{""Q0"":""Groovy drug filled concert""}","","","","","","","","","","","","","","","","","","","","","","",""
"4503","","image-slider-response","219","1133214","0.0-217.0","ACJNWSBIVI46H","","","","","50","","","","","","","","","","","","","","","","","","","","","",""
"null","","image-button-response","220","1138235","0.0-218.0","ACJNWSBIVI46H","img_art/23.jpg","null","","","","","","","","","","","","","","","","","","","","","","","","",""
"889","","image-button-response","221","1139129","0.0-219.0","ACJNWSBIVI46H","img_art/23.jpg","2","","","","","","","","","","","","","","","","","","","","","","","","",""
"2686","","image-button-response","222","1141821","0.0-220.0-0.0","ACJNWSBIVI46H","img_art/23.jpg","0","","","","","","","","","","","","","","","","","","","","","","","","",""
"2180","","image-button-response","223","1144008","0.0-221.0-0.0","ACJNWSBIVI46H","img_art/23.jpg","5","","","","","","","","","","","","","","","","","","","","","","","","",""
"null","","html-keyboard-response","224","1145020","0.0-222.0","ACJNWSBIVI46H","<p style=""font-size: 48px;"">+</p>","","","","","null","allTrialResponses","1000","1","25","img_art/23.jpg","50","Groovy drug filled concert","Nathan,Dalton,Joshua,Eric,James,Derek","While I don't normally enjoy these color schemes all together, I kind of like this one,10,200,20","illegible wording with a graffiti background,1,300,20","This one is interesting. Looks like people with maybe musical instruments?,11,240,20","The piece seems chaotic, and I dislike the random pop of white within so many colors.,-10,100,20","I love the rainbow!,12,380,20","Very colorful and wild. It's cool and I like it,32,360,20","Joshua","This one is interesting. Looks like people with maybe musical instruments?,11,240,20","Nathan","While I don't normally enjoy these color schemes all together, I kind of like this one,10,200,20","Derek","Very colorful and wild. It's cool and I like it,32,360,20","4"
"6297","","survey-text","225","1151349","0.0-223.0-0.0","ACJNWSBIVI46H","","","","{""Q0"":""table""}","","","","","","","","","","","","","","","","","","","","","","",""
"11212","","survey-text","226","1162565","0.0-224.0-0.0","ACJNWSBIVI46H","","","","{""Q0"":""Nature will survive at all odds""}","","","","","","","","","","","","","","","","","","","","","","",""
"2880.5999999940395","","image-slider-response","227","1165450","0.0-225.0","ACJNWSBIVI46H","","","","","50","","","","","","","","","","","","","","","","","","","","","",""
"4189","","image-button-response","228","1170458","0.0-226.0","ACJNWSBIVI46H","img_art/6.jpg","1","","","","","","","","","","","","","","","","","","","","","","","","",""
"534","","image-button-response","229","1170997","0.0-227.0","ACJNWSBIVI46H","img_art/6.jpg","1","","","","","","","","","","","","","","","","","","","","","","","","",""
"3296","","image-button-response","230","1174299","0.0-228.0-0.0","ACJNWSBIVI46H","img_art/6.jpg","3","","","","","","","","","","","","","","","","","","","","","","","","",""
"3327","","image-button-response","231","1177636","0.0-229.0-0.0","ACJNWSBIVI46H","img_art/6.jpg","2","","","","","","","","","","","","","","","","","","","","","","","","",""
"null","","html-keyboard-response","232","1178160","0.0-230.0","ACJNWSBIVI46H","<p style=""font-size: 48px;"">+</p>","","","","","null","allTrialResponses","500","1","26","img_art/6.jpg","50","Nature will survive at all odds","Nathan,Jorge,Joshua,Cody,Peter,Derek","Not a fan of anything in this,-43,200,20","seeds of change,11,180,20","Looks like a bird. It's fine.,7,240,20","Birds are cool but I don't love it,10,180,20","Don't like the black space,2,320,20","Too basic for me,-20,360,20","Jorge","seeds of change,11,180,20","Cody","Birds are cool but I don't love it,10,180,20","Joshua","Looks like a bird. It's fine.,7,240,20","4"
"17378","","survey-text","233","1195558","0.0-231.0-0.0","ACJNWSBIVI46H","","","","{""Q0"":""I envision an accident in the desert""}","","","","","","","","","","","","","","","","","","","","","","",""
"2635.699999988079","","image-slider-response","234","1198199","0.0-232.0","ACJNWSBIVI46H","","","","","21","","","","","","","","","","","","","","","","","","","","","",""
"null","","image-button-response","235","1203218","0.0-233.0","ACJNWSBIVI46H","img_art/20.jpg","null","","","","","","","","","","","","","","","","","","","","","","","","",""
"502","","image-button-response","236","1203725","0.0-234.0","ACJNWSBIVI46H","img_art/20.jpg","1","","","","","","","","","","","","","","","","","","","","","","","","",""
"502","","image-button-response","237","1204233","0.0-235.0-0.0","ACJNWSBIVI46H","img_art/20.jpg","2","","","","","","","","","","","","","","","","","","","","","","","","",""
"1694","","image-button-response","238","1205935","0.0-236.0-0.0","ACJNWSBIVI46H","img_art/20.jpg","4","","","","","","","","","","","","","","","","","","","","","","","","",""
"null","","html-keyboard-response","239","1206439","0.0-237.0","ACJNWSBIVI46H","<p style=""font-size: 48px;"">+</p>","","","","","null","allTrialResponses","500","1","27","img_art/20.jpg","21","I envision an accident in the desert","Shane,Jorge,Joshua,Cody,Jack,Angel","Feels like a town destroyed,-19,80,20","Curious about what lies here,10,180,20","Reminds me of the Southwest; i.e. New Mexico or Arizona. It's interesting.,12,240,20","I like the distortion of the objects, good colors,20,180,20","could look for hours. love the brush work. color choices look like a desert.,50,320,20","This looks like a ruin of what was once a thriving city.,-9,180,20","Jorge","Curious about what lies here,10,180,20","Joshua","Reminds me of the Southwest; i.e. New Mexico or Arizona. It's interesting.,12,240,20","Jack","could look for hours. love the brush work. color choices look like a desert.,50,320,20","4"
"16690","","survey-text","240","1223147","0.0-238.0-0.0","ACJNWSBIVI46H","","","","{""Q0"":""Feels like energy coming out of an instrument""}","","","","","","","","","","","","","","","","","","","","","","",""
"2532.4000000059605","","image-slider-response","241","1225684","0.0-239.0","ACJNWSBIVI46H","","","","","5","","","","","","","","","","","","","","","","","","","","","",""
"null","","image-button-response","242","1230698","0.0-240.0","ACJNWSBIVI46H","img_art/10.jpg","null","","","","","","","","","","","","","","","","","","","","","","","","",""
"497","","image-button-response","243","1231200","0.0-241.0","ACJNWSBIVI46H","img_art/10.jpg","1","","","","","","","","","","","","","","","","","","","","","","","","",""
"2037","","image-button-response","244","1233243","0.0-242.0-0.0","ACJNWSBIVI46H","img_art/10.jpg","4","","","","","","","","","","","","","","","","","","","","","","","","",""
"3146","","image-button-response","245","1236396","0.0-243.0-0.0","ACJNWSBIVI46H","img_art/10.jpg","5","","","","","","","","","","","","","","","","","","","","","","","","",""
"null","","html-keyboard-response","246","1237903","0.0-244.0","ACJNWSBIVI46H","<p style=""font-size: 48px;"">+</p>","","","","","null","allTrialResponses","1500","1","28","img_art/10.jpg","5","Feels like energy coming out of an instrument","Jonathan,Jorge,Joshua,Travis,Jack,Cameron","Too much negative space makes it feel unfinished,-25,140,20","cultural with a symphony,40,180,20","This one is interesting. I like it.,11,240,20","I liked it...it looked somewhat like a guitar.,32,260,20","this piece is okay. I wish it was more colorful, but it is certainly intriguing.,23,320,20","artistic cello piece?,30,60,20","Jorge","cultural with a symphony,40,180,20","Jack","this piece is okay. I wish it was more colorful, but it is certainly intriguing.,23,320,20","Cameron","artistic cello piece?,30,60,20","4"
"13032","","survey-text","247","1250958","0.0-245.0-0.0","ACJNWSBIVI46H","","","","{""Q0"":""Very bloody painful scene""}","","","","","","","","","","","","","","","","","","","","","","",""
"3230.199999988079","","image-slider-response","248","1254193","0.0-246.0","ACJNWSBIVI46H","","","","","-33","","","","","","","","","","","","","","","","","","","","","",""
"null","","image-button-response","249","1259207","0.0-247.0","ACJNWSBIVI46H","img_art/3.jpg","null","","","","","","","","","","","","","","","","","","","","","","","","",""
"686","","image-button-response","250","1259899","0.0-248.0","ACJNWSBIVI46H","img_art/3.jpg","1","","","","","","","","","","","","","","","","","","","","","","","","",""
"1747","","image-button-response","251","1261651","0.0-249.0-0.0","ACJNWSBIVI46H","img_art/3.jpg","3","","","","","","","","","","","","","","","","","","","","","","","","",""
"2540","","image-button-response","252","1264198","0.0-250.0-0.0","ACJNWSBIVI46H","img_art/3.jpg","2","","","","","","","","","","","","","","","","","","","","","","","","",""
"null","","html-keyboard-response","253","1265201","0.0-251.0","ACJNWSBIVI46H","<p style=""font-size: 48px;"">+</p>","","","","","null","allTrialResponses","1000","1","29","img_art/3.jpg","-33","Very bloody painful scene","Steven,Jorge,Adam,Jeffrey,Jack,Cameron","i don't like this, just looks like scribbles,-50,160,20","This makes me feel vulnerable,-32,180,20","Reminds me of a hot mess,-10,40,20","Associates with blood and crime scene,-12,40,20","unique & stylized. interesting. another one I could keep staring at.,50,320,20","kid scribbled on the wall again,-35,60,20","Jorge","This makes me feel vulnerable,-32,180,20","Jeffrey","Associates with blood and crime scene,-12,40,20","Adam","Reminds me of a hot mess,-10,40,20","4"
"12994","","survey-text","254","1278215","0.0-252.0-0.0","ACJNWSBIVI46H","","","","{""Q0"":""A beautiful waterfall in the jungle""}","","","","","","","","","","","","","","","","","","","","","","",""
"2780","","image-slider-response","255","1281000","0.0-253.0","ACJNWSBIVI46H","","","","","50","","","","","","","","","","","","","","","","","","","","","",""
"null","","image-button-response","256","1286019","0.0-254.0","ACJNWSBIVI46H","img_art/24.jpg","null","","","","","","","","","","","","","","","","","","","","","","","","",""
"1438","","image-button-response","257","1287462","0.0-255.0","ACJNWSBIVI46H","img_art/24.jpg","1","","","","","","","","","","","","","","","","","","","","","","","","",""
"591","","image-button-response","258","1288059","0.0-256.0-0.0","ACJNWSBIVI46H","img_art/24.jpg","2","","","","","","","","","","","","","","","","","","","","","","","","",""
"7027","","image-button-response","259","1295093","0.0-257.0-0.0","ACJNWSBIVI46H","img_art/24.jpg","4","","","","","","","","","","","","","","","","","","","","","","","","",""
"null","","html-keyboard-response","260","1295599","0.0-258.0","ACJNWSBIVI46H","<p style=""font-size: 48px;"">+</p>","","","","","null","allTrialResponses","500","1","30","img_art/24.jpg","50","A beautiful waterfall in the jungle","Devon,Jorge,Adam,Jeffrey,Kenneth,William","Aww. I love the peace brought by this picture.,40,400,20","Interested in visiting this place,18,180,20","I appreciate the earth tones. Soothing.,5,40,20","Very refreshing and vigorous,19,40,20","Cute; I like what the image itself & the colors.,25,300,20","very peaceful and serene,47,380,20","Jorge","Interested in visiting this place,18,180,20","Adam","I appreciate the earth tones. Soothing.,5,40,20","Kenneth","Cute; I like what the image itself & the colors.,25,300,20","4"
"4404","","image-button-response_instructions","261","1300024","0.0-259.0","ACJNWSBIVI46H","","0","instructions","","","","","","","","","","","","","","","","","","","","","","","",""
"1557","","image-button-response","262","1301602","0.0-260.0","ACJNWSBIVI46H","","0","","","","","","","","","","","","","","","","","","","","","","","","",""
