"rt","url","trial_type","trial_index","time_elapsed","internal_node_id","participant_id","stimulus","button_pressed","Name","responses","response","key_press","variableName","fixationTime","condition","trial","photo","subjectRating","subjectResponse","agentsNames","agent_1_Response","agent_2_Response","agent_3_Response","agent_4_Response","agent_5_Response","agent_6_Response","kept_1_name","kept_1_response","kept_2_name","kept_2_response","kept_3_name","kept_3_response","errorCounter"
"3748","external_page_harvard.html","external-html","0","3819","0.0-0.0","ACON9O9NMFOHE","","","","","","","","","","","","","","","","","","","","","","","","","","",""
"1770","","image-button-response","1","5591","0.0-1.0","ACON9O9NMFOHE","","0","","","","","","","","","","","","","","","","","","","","","","","","",""
"2380","","image-button-response","2","7975","0.0-2.0-0.0","ACON9O9NMFOHE","","1","phone","","","","","","","","","","","","","","","","","","","","","","","",""
"5782","","survey-text","3","13759","0.0-3.0-0.0","ACON9O9NMFOHE","","","","{""Q0"":""ACON9O9NMFOHE""}","","","","","","","","","","","","","","","","","","","","","","",""
"521833","","image-button-response_instructions","4","535595","0.0-4.0","ACON9O9NMFOHE","","0","instructions","","","","","","","","","","","","","","","","","","","","","","","",""
"8110","","image-button-response_instructions","5","543707","0.0-5.0","ACON9O9NMFOHE","img_art/ins/popularity/ins1.png","0","instructions","","","","","","","","","","","","","","","","","","","","","","","",""
"6391","","image-button-response_instructions","6","550099","0.0-6.0","ACON9O9NMFOHE","img_art/ins/popularity/ins2.png","0","instructions","","","","","","","","","","","","","","","","","","","","","","","",""
"1847","","image-button-response_instructions","7","551947","0.0-7.0","ACON9O9NMFOHE","img_art/ins/popularity/ins2Extreme.png","0","instructions","","","","","","","","","","","","","","","","","","","","","","","",""
"14023","","image-button-response_instructions","8","565971","0.0-8.0","ACON9O9NMFOHE","img_art/ins/popularity/ins3KEEPpop.PNG","0","instructions","","","","","","","","","","","","","","","","","","","","","","","",""
"4254","","image-button-response_instructions","9","570226","0.0-9.0","ACON9O9NMFOHE","img_art/ins/popularity/ins3ANamepop.PNG","0","instructions","","","","","","","","","","","","","","","","","","","","","","","",""
"2807","","image-button-response_instructions","10","573034","0.0-10.0","ACON9O9NMFOHE","img_art/ins/popularity/ins3ARatingpop.png","0","instructions","","","","","","","","","","","","","","","","","","","","","","","",""
"1935","","image-button-response_instructions","11","574971","0.0-11.0","ACON9O9NMFOHE","img_art/ins/popularity/ins3ATextpop.png","0","instructions","","","","","","","","","","","","","","","","","","","","","","","",""
"2680","","image-button-response_instructions","12","577651","0.0-12.0","ACON9O9NMFOHE","img_art/ins/popularity/ins3ALikespop.png","0","instructions","","","","","","","","","","","","","","","","","","","","","","","",""
"158","","image-button-response_instructions","13","577811","0.0-13.0","ACON9O9NMFOHE","img_art/ins/popularity/ins3KEEPpop.PNG","0","instructions","","","","","","","","","","","","","","","","","","","","","","","",""
"6591","","image-button-response_instructions","14","584402","0.0-14.0","ACON9O9NMFOHE","img_art/ins/popularity/ins3_5RED.png","0","instructions","","","","","","","","","","","","","","","","","","","","","","","",""
"7111","","image-button-response_instructions","15","591514","0.0-15.0","ACON9O9NMFOHE","img_art/ins/popularity/ins3KEEPpop.PNG","0","instructions","","","","","","","","","","","","","","","","","","","","","","","",""
"10855","","image-button-response_instructions","16","602371","0.0-16.0","ACON9O9NMFOHE","img_art/ins/popularity/ins4KEEPpop.PNG","0","instructions","","","","","","","","","","","","","","","","","","","","","","","",""
"3750","","image-button-response_instructions","17","606122","0.0-17.0","ACON9O9NMFOHE","img_art/ins/popularity/ins5KEEPpop.PNG","0","instructions","","","","","","","","","","","","","","","","","","","","","","","",""
"1375","","image-button-response_instructions","18","607498","0.0-18.0","ACON9O9NMFOHE","","0","instructions","","","","","","","","","","","","","","","","","","","","","","","",""
"6562","","survey-text","19","614082","0.0-19.0-0.0","ACON9O9NMFOHE","","","","{""Q0"":""but""}","","","","","","","","","","","","","","","","","","","","","","",""
"14638","","survey-text","20","628722","0.0-20.0-0.0","ACON9O9NMFOHE","","","","{""Q0"":""It reminds me of a video game I once played""}","","","","","","","","","","","","","","","","","","","","","","",""
"2022.0999999046326","","image-slider-response","21","630746","0.0-21.0","ACON9O9NMFOHE","","","","","25","","","","","","","","","","","","","","","","","","","","","",""
"null","","image-button-response","22","635749","0.0-22.0","ACON9O9NMFOHE","img_art/ins/1.jpg","null","","","","","","","","","","","","","","","","","","","","","","","","",""
"6676","","image-button-response","23","642427","0.0-23.0","ACON9O9NMFOHE","img_art/ins/1.jpg","2","","","","","","","","","","","","","","","","","","","","","","","","",""
"2894","","image-button-response","24","645323","0.0-24.0-0.0","ACON9O9NMFOHE","img_art/ins/1.jpg","4","","","","","","","","","","","","","","","","","","","","","","","","",""
"3453","","image-button-response","25","648779","0.0-25.0-0.0","ACON9O9NMFOHE","img_art/ins/1.jpg","5","","","","","","","","","","","","","","","","","","","","","","","","",""
"null","","html-keyboard-response","26","649783","0.0-26.0","ACON9O9NMFOHE","<p style=""font-size: 48px;"">+</p>","","","","","null","allTrialResponses","1000","1","-2","img_art/ins/1.jpg","25","It reminds me of a video game I once played","Adam,Alex,Ben,Carl,Daniel,Jack","Seems like doodles,-20,20,20","very creative work.,36,40,20","This color reminds me of poo,-46,60,20","very calming artwork,42,80,20","It looks like a murder scene.,-48,100,20","I like the sophisticated brushwork,40,120,20","Ben","This color reminds me of poo,-46,60,20","Daniel","It looks like a murder scene.,-48,100,20","Jack","I like the sophisticated brushwork,40,120,20","0"
"10344","","survey-text","27","660138","0.0-27.0-0.0","ACON9O9NMFOHE","","","","{""Q0"":""It looks very industrial and mechanical.""}","","","","","","","","","","","","","","","","","","","","","","",""
"3229.9000000953674","","image-slider-response","28","663370","0.0-28.0","ACON9O9NMFOHE","","","","","-4","","","","","","","","","","","","","","","","","","","","","",""
"null","","image-button-response","29","668373","0.0-29.0","ACON9O9NMFOHE","img_art/ins/2.jpg","null","","","","","","","","","","","","","","","","","","","","","","","","",""
"6963","","image-button-response","30","675338","0.0-30.0","ACON9O9NMFOHE","img_art/ins/2.jpg","2","","","","","","","","","","","","","","","","","","","","","","","","",""
"1911","","image-button-response","31","677250","0.0-31.0-0.0","ACON9O9NMFOHE","img_art/ins/2.jpg","1","","","","","","","","","","","","","","","","","","","","","","","","",""
"3637","","image-button-response","32","680890","0.0-32.0-0.0","ACON9O9NMFOHE","img_art/ins/2.jpg","5","","","","","","","","","","","","","","","","","","","","","","","","",""
"null","","html-keyboard-response","33","681393","0.0-33.0","ACON9O9NMFOHE","<p style=""font-size: 48px;"">+</p>","","","","","null","allTrialResponses","500","1","-1","img_art/ins/2.jpg","-4","It looks very industrial and mechanical.","Kyle,John,Ben,James,Daniel,Jack","Idk, it is just annoying,-32,180,20","love the texture of paint,48,160,20","meaningless painting,-45,60,20","looks too angry,-50,140,20","One of my pet peevs,-48,100,20","I would never be able to compose a sophisticated pallete like this,48,120,20","Ben","meaningless painting,-45,60,20","John","love the texture of paint,48,160,20","Jack","I would never be able to compose a sophisticated pallete like this,48,120,20","0"
"15501","","survey-text","34","696898","0.0-34.0-0.0","ACON9O9NMFOHE","","","","{""Q0"":""I loved the sky blue theme of this artwork.""}","","","","","","","","","","","","","","","","","","","","","","",""
"2614.4000000953674","","image-slider-response","35","699514","0.0-35.0","ACON9O9NMFOHE","","","","","39","","","","","","","","","","","","","","","","","","","","","",""
"4494","","image-button-response","36","704516","0.0-36.0","ACON9O9NMFOHE","img_art/ins/3.jpg","5","","","","","","","","","","","","","","","","","","","","","","","","",""
"1811","","image-button-response","37","706330","0.0-37.0","ACON9O9NMFOHE","img_art/ins/3.jpg","5","","","","","","","","","","","","","","","","","","","","","","","","",""
"4046","","image-button-response","38","710378","0.0-38.0-0.0","ACON9O9NMFOHE","img_art/ins/3.jpg","1","","","","","","","","","","","","","","","","","","","","","","","","",""
"1998","","image-button-response","39","712378","0.0-39.0-0.0","ACON9O9NMFOHE","img_art/ins/3.jpg","0","","","","","","","","","","","","","","","","","","","","","","","","",""
"null","","html-keyboard-response","40","712881","0.0-40.0","ACON9O9NMFOHE","<p style=""font-size: 48px;"">+</p>","","","","","null","allTrialResponses","500","1","0","img_art/ins/3.jpg","39","I loved the sky blue theme of this artwork.","Sam,John,Ben,Mike,Ron,Jack","I can feel a rainy day from this painting,18,240,20","I like the overlapping of brushes,41,160,20","This thing gives me anxiety,-41,60,20","enjoy the different shades of blue,22,200,20","It looks depressing,-26,220,20","I feel connected to the artist,40,120,20","Jack","I feel connected to the artist,40,120,20","John","I like the overlapping of brushes,41,160,20","Sam","I can feel a rainy day from this painting,18,240,20","0"
"5461","","image-button-response_instructions","41","718345","0.0-41.0","ACON9O9NMFOHE","","0","instructions","","","","","","","","","","","","","","","","","","","","","","","",""
"9230","","survey-likert","42","727578","0.0-42.0-0.0","ACON9O9NMFOHE","","","","{""Q0"":"""",""Q1"":0,""Q2"":1}","","","","","","","","","","","","","","","","","","","","","","",""
"4227","","survey-text","43","731809","0.0-43.0-0.0","ACON9O9NMFOHE","","","","{""Q0"":""rock""}","","","","","","","","","","","","","","","","","","","","","","",""
"16191","","survey-text","44","748001","0.0-44.0-0.0","ACON9O9NMFOHE","","","","{""Q0"":""This artwork feels demonic to me.""}","","","","","","","","","","","","","","","","","","","","","","",""
"2566.100000143051","","image-slider-response","45","750569","0.0-45.0","ACON9O9NMFOHE","","","","","-40","","","","","","","","","","","","","","","","","","","","","",""
"null","","image-button-response","46","755592","0.0-46.0","ACON9O9NMFOHE","img_art/3.jpg","null","","","","","","","","","","","","","","","","","","","","","","","","",""
"3504","","image-button-response","47","759098","0.0-47.0","ACON9O9NMFOHE","img_art/3.jpg","5","","","","","","","","","","","","","","","","","","","","","","","","",""
"950","","image-button-response","48","760049","0.0-48.0-0.0","ACON9O9NMFOHE","img_art/3.jpg","0","","","","","","","","","","","","","","","","","","","","","","","","",""
"2999","","image-button-response","49","763050","0.0-49.0-0.0","ACON9O9NMFOHE","img_art/3.jpg","1","","","","","","","","","","","","","","","","","","","","","","","","",""
"null","","html-keyboard-response","50","764053","0.0-50.0","ACON9O9NMFOHE","<p style=""font-size: 48px;"">+</p>","","","","","null","allTrialResponses","1000","1","1","img_art/3.jpg","-40","This artwork feels demonic to me.","Timothy,Michael,Edward,Patrick,Brendan,Colton","This makes me feel a bit disturbed,-35,240,20","Looks like someone mentalyl unstable drew and is ready to go a a killing spree.,-50,140,20","It looks like someone took a red sharpie and just scribbled angrily,-20,60,20","Random use of red and looks scary,-50,280,20","i really cant get it,-44,340,20","looks like a kid scribbled with crayon,-35,220,20","Colton","looks like a kid scribbled with crayon,-35,220,20","Timothy","This makes me feel a bit disturbed,-35,240,20","Michael","Looks like someone mentalyl unstable drew and is ready to go a a killing spree.,-50,140,20","0"
"17225","","survey-text","51","781281","0.0-51.0-0.0","ACON9O9NMFOHE","","","","{""Q0"":""This artwork gave me a feeling of tranquility.""}","","","","","","","","","","","","","","","","","","","","","","",""
"2174.399999856949","","image-slider-response","52","783457","0.0-52.0","ACON9O9NMFOHE","","","","","43","","","","","","","","","","","","","","","","","","","","","",""
"null","","image-button-response","53","788460","0.0-53.0","ACON9O9NMFOHE","img_art/24.jpg","null","","","","","","","","","","","","","","","","","","","","","","","","",""
"10332","","image-button-response","54","798794","0.0-54.0","ACON9O9NMFOHE","img_art/24.jpg","5","","","","","","","","","","","","","","","","","","","","","","","","",""
"1374","","image-button-response","55","800170","0.0-55.0-0.0","ACON9O9NMFOHE","img_art/24.jpg","4","","","","","","","","","","","","","","","","","","","","","","","","",""
"1382","","image-button-response","56","801553","0.0-56.0-0.0","ACON9O9NMFOHE","img_art/24.jpg","0","","","","","","","","","","","","","","","","","","","","","","","","",""
"null","","html-keyboard-response","57","802056","0.0-57.0","ACON9O9NMFOHE","<p style=""font-size: 48px;"">+</p>","","","","","null","allTrialResponses","500","1","2","img_art/24.jpg","43","This artwork gave me a feeling of tranquility.","Timothy,Michael,Justin,Miguel,Alexis,Colton","Earthy wonderful, love everything about it,50,240,20","It's not super high uality  but there is some skill and talent in it I see.,15,140,20","Nice colors, but doesn't do much for me.,1,280,20","Very cute amateur piece.,18,160,20","I love how bold and vibrant the colors are,40,140,20","reminds me of a beautiful waterfall,50,220,20","Colton","reminds me of a beautiful waterfall,50,220,20","Alexis","I love how bold and vibrant the colors are,40,140,20","Timothy","Earthy wonderful, love everything about it,50,240,20","0"
"31631","","survey-text","58","833697","0.0-58.0-0.0","ACON9O9NMFOHE","","","","{""Q0"":""It felt very edgy and dark to me, like something out of a horror movie.""}","","","","","","","","","","","","","","","","","","","","","","",""
"2302","","image-slider-response","59","836002","0.0-59.0","ACON9O9NMFOHE","","","","","35","","","","","","","","","","","","","","","","","","","","","",""
"null","","image-button-response","60","841004","0.0-60.0","ACON9O9NMFOHE","img_art/8.jpg","null","","","","","","","","","","","","","","","","","","","","","","","","",""
"3723","","image-button-response","61","844729","0.0-61.0","ACON9O9NMFOHE","img_art/8.jpg","5","","","","","","","","","","","","","","","","","","","","","","","","",""
"6030","","image-button-response","62","850761","0.0-62.0-0.0","ACON9O9NMFOHE","img_art/8.jpg","2","","","","","","","","","","","","","","","","","","","","","","","","",""
"1645","","image-button-response","63","852409","0.0-63.0-0.0","ACON9O9NMFOHE","img_art/8.jpg","1","","","","","","","","","","","","","","","","","","","","","","","","",""
"null","","html-keyboard-response","64","853911","0.0-64.0","ACON9O9NMFOHE","<p style=""font-size: 48px;"">+</p>","","","","","null","allTrialResponses","1500","1","3","img_art/8.jpg","35","It felt very edgy and dark to me, like something out of a horror movie.","Timothy,Adrian,Nathaniel,Chase,Alexis,Colton","Too much going on, too many colors, makes me feel uneasy,-20,240,20","Pleasant colors, lots of interest. Not sure what's going on but I like it.,20,60,20","Not a fan of abstract looking pieces with too many focal points. The tunnel and face, for example,-31,220,20","This is kind of neat. I really like how things are oriented and the shapes used.,18,120,20","I like that it sort of looks like a cityscape,9,140,20","looks like an aerial view, very pretty,32,220,20","Colton","looks like an aerial view, very pretty,32,220,20","Nathaniel","Not a fan of abstract looking pieces with too many focal points. The tunnel and face, for example,-31,220,20","Adrian","Pleasant colors, lots of interest. Not sure what's going on but I like it.,20,60,20","0"
"23230","","survey-text","65","877144","0.0-65.0-0.0","ACON9O9NMFOHE","","","","{""Q0"":""It reminded me of the 1950s for some reason.""}","","","","","","","","","","","","","","","","","","","","","","",""
"5006.399999856949","","image-slider-response","66","882152","0.0-66.0","ACON9O9NMFOHE","","","","","3","","","","","","","","","","","","","","","","","","","","","",""
"null","","image-button-response","67","887154","0.0-67.0","ACON9O9NMFOHE","img_art/11.jpg","null","","","","","","","","","","","","","","","","","","","","","","","","",""
"2237","","image-button-response","68","889393","0.0-68.0","ACON9O9NMFOHE","img_art/11.jpg","5","","","","","","","","","","","","","","","","","","","","","","","","",""
"2774","","image-button-response","69","892169","0.0-69.0-0.0","ACON9O9NMFOHE","img_art/11.jpg","4","","","","","","","","","","","","","","","","","","","","","","","","",""
"4230","","image-button-response","70","896400","0.0-70.0-0.0","ACON9O9NMFOHE","img_art/11.jpg","1","","","","","","","","","","","","","","","","","","","","","","","","",""
"null","","html-keyboard-response","71","896903","0.0-71.0","ACON9O9NMFOHE","<p style=""font-size: 48px;"">+</p>","","","","","null","allTrialResponses","500","1","4","img_art/11.jpg","3","It reminded me of the 1950s for some reason.","Jake,Adrian,Nathaniel,Jeffrey,Steven,Colton","This is very unappealing.,-11,360,20","Not a fan of the colors but it looks interesting.,-31,60,20","Kind of bizzare in that I can imagine ships or something from it.,11,220,20","a lot of dark colours,-8,40,20","Oh, I love this one, it says to me that life is very busy,50,160,20","the wavy lines are nice and pleasing,13,220,20","Colton","the wavy lines are nice and pleasing,13,220,20","Steven","Oh, I love this one, it says to me that life is very busy,50,160,20","Adrian","Not a fan of the colors but it looks interesting.,-31,60,20","0"
"12391","","survey-text","72","909304","0.0-72.0-0.0","ACON9O9NMFOHE","","","","{""Q0"":""It looks like a child's first painting.""}","","","","","","","","","","","","","","","","","","","","","","",""
"3749.399999856949","","image-slider-response","73","913056","0.0-73.0","ACON9O9NMFOHE","","","","","-41","","","","","","","","","","","","","","","","","","","","","",""
"null","","image-button-response","74","918060","0.0-74.0","ACON9O9NMFOHE","img_art/2.jpg","null","","","","","","","","","","","","","","","","","","","","","","","","",""
"730","","image-button-response","75","918792","0.0-75.0","ACON9O9NMFOHE","img_art/2.jpg","4","","","","","","","","","","","","","","","","","","","","","","","","",""
"2662","","image-button-response","76","921457","0.0-76.0-0.0","ACON9O9NMFOHE","img_art/2.jpg","5","","","","","","","","","","","","","","","","","","","","","","","","",""
"2508","","image-button-response","77","923968","0.0-77.0-0.0","ACON9O9NMFOHE","img_art/2.jpg","3","","","","","","","","","","","","","","","","","","","","","","","","",""
"null","","html-keyboard-response","78","924969","0.0-78.0","ACON9O9NMFOHE","<p style=""font-size: 48px;"">+</p>","","","","","null","allTrialResponses","1000","1","5","img_art/2.jpg","-41","It looks like a child's first painting.","Hunter,Adrian,William,Blake,Steven,Colton","appealing colors,4,240,20","Not a fan of the colors or the style.,-31,60,20","I like the colors,22,380,20","ugly green color and makes me sick,-29,280,20","I can't get past the fact that it looks like someone wearing a mask,-46,160,20","too blocky and don't like color combination,-32,220,20","Steven","I can't get past the fact that it looks like someone wearing a mask,-46,160,20","Colton","too blocky and don't like color combination,-32,220,20","Blake","ugly green color and makes me sick,-29,280,20","0"
"2840","","survey-text","79","927816","0.0-79.0-0.0","ACON9O9NMFOHE","","","","{""Q0"":""sky""}","","","","","","","","","","","","","","","","","","","","","","",""
"17318","","survey-text","80","945135","0.0-80.0-0.0","ACON9O9NMFOHE","","","","{""Q0"":""It reminded me of a nurturing woman. I enjoyed the rustic colors.""}","","","","","","","","","","","","","","","","","","","","","","",""
"3149.7999999523163","","image-slider-response","81","948287","0.0-81.0","ACON9O9NMFOHE","","","","","21","","","","","","","","","","","","","","","","","","","","","",""
"null","","image-button-response","82","953289","0.0-82.0","ACON9O9NMFOHE","img_art/28.jpg","null","","","","","","","","","","","","","","","","","","","","","","","","",""
"6086","","image-button-response","83","959376","0.0-83.0","ACON9O9NMFOHE","img_art/28.jpg","3","","","","","","","","","","","","","","","","","","","","","","","","",""
"3118","","image-button-response","84","962496","0.0-84.0-0.0","ACON9O9NMFOHE","img_art/28.jpg","2","","","","","","","","","","","","","","","","","","","","","","","","",""
"1437","","image-button-response","85","963936","0.0-85.0-0.0","ACON9O9NMFOHE","img_art/28.jpg","1","","","","","","","","","","","","","","","","","","","","","","","","",""
"null","","html-keyboard-response","86","965438","0.0-86.0","ACON9O9NMFOHE","<p style=""font-size: 48px;"">+</p>","","","","","null","allTrialResponses","1500","1","6","img_art/28.jpg","21","It reminded me of a nurturing woman. I enjoyed the rustic colors.","Anthony,Dakota,Logan,Blake,Steven,Colton","This picture doesn't really stand out to me,1,200,20","musical, animated and happy with somber undertones,7,280,20","I wish I knew why I liked it, maybes its the pinky tones,36,360,20","an old woman in a wheelchair. sad,-35,280,20","It's a bike that was left abandoned by someone who doesnt care for it,1,160,20","not a fan of the colors or strokes used,-27,220,20","Blake","an old woman in a wheelchair. sad,-35,280,20","Logan","I wish I knew why I liked it, maybes its the pinky tones,36,360,20","Dakota","musical, animated and happy with somber undertones,7,280,20","0"
"13198","","survey-text","87","978640","0.0-87.0-0.0","ACON9O9NMFOHE","","","","{""Q0"":""Looks very basic and bland to me.""}","","","","","","","","","","","","","","","","","","","","","","",""
"1934.1999998092651","","image-slider-response","88","980576","0.0-88.0","ACON9O9NMFOHE","","","","","-50","","","","","","","","","","","","","","","","","","","","","",""
"4942","","image-button-response","89","985579","0.0-89.0","ACON9O9NMFOHE","img_art/5.jpg","4","","","","","","","","","","","","","","","","","","","","","","","","",""
"4034","","image-button-response","90","989616","0.0-90.0","ACON9O9NMFOHE","img_art/5.jpg","3","","","","","","","","","","","","","","","","","","","","","","","","",""
"1192","","image-button-response","91","990810","0.0-91.0-0.0","ACON9O9NMFOHE","img_art/5.jpg","4","","","","","","","","","","","","","","","","","","","","","","","","",""
"2723","","image-button-response","92","993536","0.0-92.0-0.0","ACON9O9NMFOHE","img_art/5.jpg","2","","","","","","","","","","","","","","","","","","","","","","","","",""
"null","","html-keyboard-response","93","994039","0.0-93.0","ACON9O9NMFOHE","<p style=""font-size: 48px;"">+</p>","","","","","null","allTrialResponses","500","1","7","img_art/5.jpg","-50","Looks very basic and bland to me.","Richard,Dakota,Logan,Blake,Caleb,Scott","looks like a 2nd grader did it,-50,340,20","fresh and fun - bright and active,16,280,20","Just doesn't do a whole lot for me. I see Cinderellas broom,-11,360,20","puke yellow with nothing but sadness,-35,280,20","Boring and appears low effort,-41,40,20","I like it but I don't know why,15,20,20","Blake","puke yellow with nothing but sadness,-35,280,20","Caleb","Boring and appears low effort,-41,40,20","Logan","Just doesn't do a whole lot for me. I see Cinderellas broom,-11,360,20","0"
"9589","","survey-text","94","1003632","0.0-94.0-0.0","ACON9O9NMFOHE","","","","{""Q0"":""I see a small meadow on an autumn day.""}","","","","","","","","","","","","","","","","","","","","","","",""
"3894.4000000953674","","image-slider-response","95","1007528","0.0-95.0","ACON9O9NMFOHE","","","","","22","","","","","","","","","","","","","","","","","","","","","",""
"null","","image-button-response","96","1012531","0.0-96.0","ACON9O9NMFOHE","img_art/27.jpg","null","","","","","","","","","","","","","","","","","","","","","","","","",""
"964","","image-button-response","97","1013496","0.0-97.0","ACON9O9NMFOHE","img_art/27.jpg","1","","","","","","","","","","","","","","","","","","","","","","","","",""
"2846","","image-button-response","98","1016344","0.0-98.0-0.0","ACON9O9NMFOHE","img_art/27.jpg","3","","","","","","","","","","","","","","","","","","","","","","","","",""
"1395","","image-button-response","99","1017744","0.0-99.0-0.0","ACON9O9NMFOHE","img_art/27.jpg","0","","","","","","","","","","","","","","","","","","","","","","","","",""
"null","","html-keyboard-response","100","1019246","0.0-100.0","ACON9O9NMFOHE","<p style=""font-size: 48px;"">+</p>","","","","","null","allTrialResponses","1500","1","8","img_art/27.jpg","22","I see a small meadow on an autumn day.","Ethan,Bryan,Logan,Blake,Caleb,Victor","I like the layer upon layer of different mediums used here.,21,120,20","Not fond of the bad pencil drawing mixed with the drab colors.,-21,400,20","demon vs angel brawl over lemon lime sprite,-10,360,20","fruity and sweet. warm and juicy,10,280,20","An abstract piece with such lifeless colors.,-26,40,20","doesn't look like any effort was put into this piece.,-19,340,20","Bryan","Not fond of the bad pencil drawing mixed with the drab colors.,-21,400,20","Blake","fruity and sweet. warm and juicy,10,280,20","Ethan","I like the layer upon layer of different mediums used here.,21,120,20","0"
"15484","","survey-text","101","1034735","0.0-101.0-0.0","ACON9O9NMFOHE","","","","{""Q0"":""This painting felt extremely chaotic to me and like there was too much going on.""}","","","","","","","","","","","","","","","","","","","","","","",""
"1966.2999999523163","","image-slider-response","102","1036703","0.0-102.0","ACON9O9NMFOHE","","","","","-33","","","","","","","","","","","","","","","","","","","","","",""
"2878","","image-button-response","103","1041704","0.0-103.0","ACON9O9NMFOHE","img_art/29.jpg","1","","","","","","","","","","","","","","","","","","","","","","","","",""
"2004","","image-button-response","104","1043711","0.0-104.0","ACON9O9NMFOHE","img_art/29.jpg","4","","","","","","","","","","","","","","","","","","","","","","","","",""
"2758","","image-button-response","105","1046471","0.0-105.0-0.0","ACON9O9NMFOHE","img_art/29.jpg","5","","","","","","","","","","","","","","","","","","","","","","","","",""
"1958","","image-button-response","106","1048431","0.0-106.0-0.0","ACON9O9NMFOHE","img_art/29.jpg","1","","","","","","","","","","","","","","","","","","","","","","","","",""
"null","","html-keyboard-response","107","1049933","0.0-107.0","ACON9O9NMFOHE","<p style=""font-size: 48px;"">+</p>","","","","","null","allTrialResponses","1500","1","9","img_art/29.jpg","-33","This painting felt extremely chaotic to me and like there was too much going on.","Ethan,Bryan,Cody,Blake,Ian,Alexander","I love the angry emotion to this art. I feel very drawn to it.,18,120,20","Doesn't do much for me. I like some of the colors but not much else.,-10,400,20","Feels messy, stressful,-22,180,20","a hot fireplace with things to burn. warm,12,280,20","This feels chaotic and I like the energy that it gives off.,21,260,20","Tested and failed a lot of ideas.,-20,120,20","Ian","This feels chaotic and I like the energy that it gives off.,21,260,20","Alexander","Tested and failed a lot of ideas.,-20,120,20","Bryan","Doesn't do much for me. I like some of the colors but not much else.,-10,400,20","0"
"9732","","survey-text","108","1059670","0.0-108.0-0.0","ACON9O9NMFOHE","","","","{""Q0"":""There were too many ideas with poor execution.""}","","","","","","","","","","","","","","","","","","","","","","",""
"1716.7000000476837","","image-slider-response","109","1061390","0.0-109.0","ACON9O9NMFOHE","","","","","-28","","","","","","","","","","","","","","","","","","","","","",""
"4462","","image-button-response","110","1066393","0.0-110.0","ACON9O9NMFOHE","img_art/9.jpg","4","","","","","","","","","","","","","","","","","","","","","","","","",""
"604","","image-button-response","111","1066999","0.0-111.0","ACON9O9NMFOHE","img_art/9.jpg","4","","","","","","","","","","","","","","","","","","","","","","","","",""
"1934","","image-button-response","112","1068935","0.0-112.0-0.0","ACON9O9NMFOHE","img_art/9.jpg","1","","","","","","","","","","","","","","","","","","","","","","","","",""
"1710","","image-button-response","113","1070647","0.0-113.0-0.0","ACON9O9NMFOHE","img_art/9.jpg","2","","","","","","","","","","","","","","","","","","","","","","","","",""
"null","","html-keyboard-response","114","1071149","0.0-114.0","ACON9O9NMFOHE","<p style=""font-size: 48px;"">+</p>","","","","","null","allTrialResponses","500","1","10","img_art/9.jpg","-28","There were too many ideas with poor execution.","Garrett,Bryan,Dylan,Andrew,Ian,Alexander","This looks like someone sleeping in a bed, and I think the colors make it look interesting.,20,180,20","Huh?  Doesn't invoke much.,-37,400,20","This picture is too busy and ugly,-20,40,20","The peacock theme gives me negative connotations of my ex-sister-in-law,-10,160,20","It looks like someone gave a kid a coloring book page but the colors are soothing and look put together and elegant,27,260,20","The mouth of an ugly beast.,-25,120,20","Ian","It looks like someone gave a kid a coloring book page but the colors are soothing and look put together and elegant,27,260,20","Bryan","Huh?  Doesn't invoke much.,-37,400,20","Dylan","This picture is too busy and ugly,-20,40,20","0"
"4131","","survey-text","115","1075286","0.0-115.0-0.0","ACON9O9NMFOHE","","","","{""Q0"":""our""}","","","","","","","","","","","","","","","","","","","","","","",""
"10368","","survey-text","116","1085655","0.0-116.0-0.0","ACON9O9NMFOHE","","","","{""Q0"":""It reminded me of the movie Titanic.""}","","","","","","","","","","","","","","","","","","","","","","",""
"2477.7000000476837","","image-slider-response","117","1088135","0.0-117.0","ACON9O9NMFOHE","","","","","17","","","","","","","","","","","","","","","","","","","","","",""
"3767","","image-button-response","118","1093138","0.0-118.0","ACON9O9NMFOHE","img_art/21.jpg","3","","","","","","","","","","","","","","","","","","","","","","","","",""
"1324","","image-button-response","119","1094463","0.0-119.0","ACON9O9NMFOHE","img_art/21.jpg","4","","","","","","","","","","","","","","","","","","","","","","","","",""
"2022","","image-button-response","120","1096487","0.0-120.0-0.0","ACON9O9NMFOHE","img_art/21.jpg","1","","","","","","","","","","","","","","","","","","","","","","","","",""
"1046","","image-button-response","121","1097535","0.0-121.0-0.0","ACON9O9NMFOHE","img_art/21.jpg","0","","","","","","","","","","","","","","","","","","","","","","","","",""
"null","","html-keyboard-response","122","1098538","0.0-122.0","ACON9O9NMFOHE","<p style=""font-size: 48px;"">+</p>","","","","","null","allTrialResponses","1000","1","11","img_art/21.jpg","17","It reminded me of the movie Titanic.","Connor,Bryan,Dylan,Taylor,Ian,Christopher","Love the colors and hue, ocean,38,240,20","Like the colors, the cloudy, airy effects. Nice.,46,400,20","This one is nice, it reminds me of the sky,42,40,20","Remove the rocks(?) on the lower right.,5,200,20","This looks very interesting because something is happening but I can't tell what.,28,260,20","I love the section of blues, the colors overall are really lovely,31,160,20","Ian","This looks very interesting because something is happening but I can't tell what.,28,260,20","Bryan","Like the colors, the cloudy, airy effects. Nice.,46,400,20","Connor","Love the colors and hue, ocean,38,240,20","0"
"10689","","survey-text","123","1109231","0.0-123.0-0.0","ACON9O9NMFOHE","","","","{""Q0"":""I liked the childlike feeling of this painting.""}","","","","","","","","","","","","","","","","","","","","","","",""
"2334.7000000476837","","image-slider-response","124","1111567","0.0-124.0","ACON9O9NMFOHE","","","","","32","","","","","","","","","","","","","","","","","","","","","",""
"2455","","image-button-response","125","1116570","0.0-125.0","ACON9O9NMFOHE","img_art/16.jpg","4","","","","","","","","","","","","","","","","","","","","","","","","",""
"2748","","image-button-response","126","1119319","0.0-126.0","ACON9O9NMFOHE","img_art/16.jpg","1","","","","","","","","","","","","","","","","","","","","","","","","",""
"2831","","image-button-response","127","1122151","0.0-127.0-0.0","ACON9O9NMFOHE","img_art/16.jpg","3","","","","","","","","","","","","","","","","","","","","","","","","",""
"443","","image-button-response","128","1122599","0.0-128.0-0.0","ACON9O9NMFOHE","img_art/16.jpg","4","","","","","","","","","","","","","","","","","","","","","","","","",""
"null","","html-keyboard-response","129","1123601","0.0-129.0","ACON9O9NMFOHE","<p style=""font-size: 48px;"">+</p>","","","","","null","allTrialResponses","1000","1","12","img_art/16.jpg","32","I liked the childlike feeling of this painting.","Connor,Bryan,Jonathan,Trevor,Ian,Jesse","Not original. Bear is odd,-50,240,20","Something terrible happened. Either the figure on the right is the victim or another shredded toy.,-49,400,20","It's a little anxiety inducing in a good way,16,140,20","very creepy with a bear and a gun,-50,280,20","This looks like it was made by an art student filled with angst,-30,260,20","I dont feel any real response,5,80,20","Bryan","Something terrible happened. Either the figure on the right is the victim or another shredded toy.,-49,400,20","Trevor","very creepy with a bear and a gun,-50,280,20","Ian","This looks like it was made by an art student filled with angst,-30,260,20","0"
"8177","","survey-text","130","1131782","0.0-130.0-0.0","ACON9O9NMFOHE","","","","{""Q0"":""Felt very low effort and bland.""}","","","","","","","","","","","","","","","","","","","","","","",""
"1814.7000000476837","","image-slider-response","131","1133599","0.0-131.0","ACON9O9NMFOHE","","","","","-30","","","","","","","","","","","","","","","","","","","","","",""
"null","","image-button-response","132","1138602","0.0-132.0","ACON9O9NMFOHE","img_art/14.jpg","null","","","","","","","","","","","","","","","","","","","","","","","","",""
"308","","image-button-response","133","1138911","0.0-133.0","ACON9O9NMFOHE","img_art/14.jpg","4","","","","","","","","","","","","","","","","","","","","","","","","",""
"2006","","image-button-response","134","1140919","0.0-134.0-0.0","ACON9O9NMFOHE","img_art/14.jpg","5","","","","","","","","","","","","","","","","","","","","","","","","",""
"2366","","image-button-response","135","1143287","0.0-135.0-0.0","ACON9O9NMFOHE","img_art/14.jpg","2","","","","","","","","","","","","","","","","","","","","","","","","",""
"null","","html-keyboard-response","136","1143790","0.0-136.0","ACON9O9NMFOHE","<p style=""font-size: 48px;"">+</p>","","","","","null","allTrialResponses","500","1","13","img_art/14.jpg","-30","Felt very low effort and bland.","Stephen,Bryan,Juan,Trevor,Ian,Joseph","I'm a fan of the background.,13,140,20","Like some of the colors but not much else.,1,400,20","I don't like the colors, but I espeically don't like all the negative space.,-20,260,20","has a tree look to it and it's colors are happy,9,280,20","This just looks like a kids watercolor painting.,-30,260,20","I like that it looks like plants on a table, which reminds me of life.,4,220,20","Ian","This just looks like a kids watercolor painting.,-30,260,20","Joseph","I like that it looks like plants on a table, which reminds me of life.,4,220,20","Juan","I don't like the colors, but I espeically don't like all the negative space.,-20,260,20","0"
"10796","","survey-text","137","1154590","0.0-137.0-0.0","ACON9O9NMFOHE","","","","{""Q0"":""I adored the brushstrokes and coloring of this one.""}","","","","","","","","","","","","","","","","","","","","","","",""
"2286.100000143051","","image-slider-response","138","1156878","0.0-138.0","ACON9O9NMFOHE","","","","","49","","","","","","","","","","","","","","","","","","","","","",""
"3230","","image-button-response","139","1161881","0.0-139.0","ACON9O9NMFOHE","img_art/17.jpg","4","","","","","","","","","","","","","","","","","","","","","","","","",""
"300","","image-button-response","140","1162183","0.0-140.0","ACON9O9NMFOHE","img_art/17.jpg","2","","","","","","","","","","","","","","","","","","","","","","","","",""
"1309","","image-button-response","141","1163495","0.0-141.0-0.0","ACON9O9NMFOHE","img_art/17.jpg","4","","","","","","","","","","","","","","","","","","","","","","","","",""
"2102","","image-button-response","142","1165599","0.0-142.0-0.0","ACON9O9NMFOHE","img_art/17.jpg","3","","","","","","","","","","","","","","","","","","","","","","","","",""
"null","","html-keyboard-response","143","1167100","0.0-143.0","ACON9O9NMFOHE","<p style=""font-size: 48px;"">+</p>","","","","","null","allTrialResponses","1500","1","14","img_art/17.jpg","49","I adored the brushstrokes and coloring of this one.","Isaiah,Cole,Juan,Seth,Ian,Joseph","The painting makes me feel relaxed, and a bit lonely, like I'm sitting at a park waiting for someone.,30,300,20","It looks unfinished,-7,200,20","I want to know more about this picture and where it leads if you could get inside it.,27,260,20","I really enjoyed this piece, it's a play on bringing the outside indoors.,32,60,20","It seems a little dark but it is very beautiful,28,260,20","I like the way the forest is taking over the buildings.,21,220,20","Juan","I want to know more about this picture and where it leads if you could get inside it.,27,260,20","Ian","It seems a little dark but it is very beautiful,28,260,20","Seth","I really enjoyed this piece, it's a play on bringing the outside indoors.,32,60,20","0"
"19230","","survey-text","144","1186334","0.0-144.0-0.0","ACON9O9NMFOHE","","","","{""Q0"":""It reminded me of ancient Egypt in a weird way.""}","","","","","","","","","","","","","","","","","","","","","","",""
"2310.399999856949","","image-slider-response","145","1188646","0.0-145.0","ACON9O9NMFOHE","","","","","19","","","","","","","","","","","","","","","","","","","","","",""
"null","","image-button-response","146","1193650","0.0-146.0","ACON9O9NMFOHE","img_art/25.jpg","null","","","","","","","","","","","","","","","","","","","","","","","","",""
"250","","image-button-response","147","1193903","0.0-147.0","ACON9O9NMFOHE","img_art/25.jpg","4","","","","","","","","","","","","","","","","","","","","","","","","",""
"1134","","image-button-response","148","1195038","0.0-148.0-0.0","ACON9O9NMFOHE","img_art/25.jpg","3","","","","","","","","","","","","","","","","","","","","","","","","",""
"2638","","image-button-response","149","1197678","0.0-149.0-0.0","ACON9O9NMFOHE","img_art/25.jpg","2","","","","","","","","","","","","","","","","","","","","","","","","",""
"null","","html-keyboard-response","150","1199181","0.0-150.0","ACON9O9NMFOHE","<p style=""font-size: 48px;"">+</p>","","","","","null","allTrialResponses","1500","1","15","img_art/25.jpg","19","It reminded me of ancient Egypt in a weird way.","Ryan,Jose,Juan,Seth,Ian,Adam","Reminds me of Mr. Burns on drugs in the Simpsons,-50,380,20","That's pretty awesome. I love the green and black combo, reminds me of one of those cartoon creepy movies,47,200,20","I don't like the color. I don't like the abstract-ness of it.,-22,260,20","This piece feels cultural. Like it represents something culturally.,22,60,20","This looks cool but I don't really care for it. Some sort or religious figure?,16,260,20","high contrast draws attention to the image, but I'm not sure what I'm seeing,-5,40,20","Ian","This looks cool but I don't really care for it. Some sort or religious figure?,16,260,20","Seth","This piece feels cultural. Like it represents something culturally.,22,60,20","Juan","I don't like the color. I don't like the abstract-ness of it.,-22,260,20","0"
"2952","","survey-text","151","1202141","0.0-151.0-0.0","ACON9O9NMFOHE","","","","{""Q0"":""course""}","","","","","","","","","","","","","","","","","","","","","","",""
"16527","","survey-text","152","1218670","0.0-152.0-0.0","ACON9O9NMFOHE","","","","{""Q0"":""The colors were beautiful but I don't really understand this piece.""}","","","","","","","","","","","","","","","","","","","","","","",""
"5710","","image-slider-response","153","1224382","0.0-153.0","ACON9O9NMFOHE","","","","","1","","","","","","","","","","","","","","","","","","","","","",""
"3542","","image-button-response","154","1229383","0.0-154.0","ACON9O9NMFOHE","img_art/10.jpg","4","","","","","","","","","","","","","","","","","","","","","","","","",""
"412","","image-button-response","155","1229798","0.0-155.0","ACON9O9NMFOHE","img_art/10.jpg","4","","","","","","","","","","","","","","","","","","","","","","","","",""
"4989","","image-button-response","156","1234790","0.0-156.0-0.0","ACON9O9NMFOHE","img_art/10.jpg","1","","","","","","","","","","","","","","","","","","","","","","","","",""
"5494","","image-button-response","157","1240286","0.0-157.0-0.0","ACON9O9NMFOHE","img_art/10.jpg","3","","","","","","","","","","","","","","","","","","","","","","","","",""
"null","","html-keyboard-response","158","1241287","0.0-158.0","ACON9O9NMFOHE","<p style=""font-size: 48px;"">+</p>","","","","","null","allTrialResponses","1000","1","16","img_art/10.jpg","1","The colors were beautiful but I don't really understand this piece.","Jack,Zachary,Juan,Seth,Ian,Brian","this piece is okay. I wish it was more colorful, but it is certainly intriguing.,23,320,20","Reminds me of a terrarium with cacti inside. It reminds me of home.,27,400,20","It's interesting and my eyes keep being drawn to different parts of the picture.,11,260,20","It reminds me of the ocean. Almost like a battlefield, but on the water.,19,60,20","It reminds me of how my dog has to run all over the place just to poop in one specific location.,-20,260,20","this is a good painting, but feels musical in a way that I don't connect with.,-14,380,20","Ian","It reminds me of how my dog has to run all over the place just to poop in one specific location.,-20,260,20","Zachary","Reminds me of a terrarium with cacti inside. It reminds me of home.,27,400,20","Seth","It reminds me of the ocean. Almost like a battlefield, but on the water.,19,60,20","0"
"13950","","survey-text","159","1255245","0.0-159.0-0.0","ACON9O9NMFOHE","","","","{""Q0"":""It reminds me of a battlefield and war.""}","","","","","","","","","","","","","","","","","","","","","","",""
"1641.9000000953674","","image-slider-response","160","1256890","0.0-160.0","ACON9O9NMFOHE","","","","","-20","","","","","","","","","","","","","","","","","","","","","",""
"null","","image-button-response","161","1261893","0.0-161.0","ACON9O9NMFOHE","img_art/18.jpg","null","","","","","","","","","","","","","","","","","","","","","","","","",""
"512","","image-button-response","162","1262406","0.0-162.0","ACON9O9NMFOHE","img_art/18.jpg","2","","","","","","","","","","","","","","","","","","","","","","","","",""
"1327","","image-button-response","163","1263733","0.0-163.0-0.0","ACON9O9NMFOHE","img_art/18.jpg","4","","","","","","","","","","","","","","","","","","","","","","","","",""
"854","","image-button-response","164","1264589","0.0-164.0-0.0","ACON9O9NMFOHE","img_art/18.jpg","3","","","","","","","","","","","","","","","","","","","","","","","","",""
"null","","html-keyboard-response","165","1265092","0.0-165.0","ACON9O9NMFOHE","<p style=""font-size: 48px;"">+</p>","","","","","null","allTrialResponses","500","1","17","img_art/18.jpg","-20","It reminds me of a battlefield and war.","Gabriel,Zachary,Grant,Seth,Ian,Corey","its messy, it seems angry,-21,160,20","This one seems rather ghoulish to me.,-41,400,20","This is a very energetic painting, and brings to mind scenes of battle.,50,200,20","This painting reminds me of the 4 horsemen of the apocalypse. It feels haunting.,31,60,20","This one raises some questions, there could be some sort of fight or battle going on.,11,260,20","reminds me of dying at sea in the 1700s,-8,260,20","Grant","This is a very energetic painting, and brings to mind scenes of battle.,50,200,20","Ian","This one raises some questions, there could be some sort of fight or battle going on.,11,260,20","Seth","This painting reminds me of the 4 horsemen of the apocalypse. It feels haunting.,31,60,20","0"
"19670","","survey-text","166","1284765","0.0-166.0-0.0","ACON9O9NMFOHE","","","","{""Q0"":""It reminded me of a single cactus in a hot desert. Very boring painting overall though.""}","","","","","","","","","","","","","","","","","","","","","","",""
"2398.5","","image-slider-response","167","1287165","0.0-167.0","ACON9O9NMFOHE","","","","","-50","","","","","","","","","","","","","","","","","","","","","",""
"4182","","image-button-response","168","1292168","0.0-168.0","ACON9O9NMFOHE","img_art/6.jpg","1","","","","","","","","","","","","","","","","","","","","","","","","",""
"355","","image-button-response","169","1292525","0.0-169.0","ACON9O9NMFOHE","img_art/6.jpg","1","","","","","","","","","","","","","","","","","","","","","","","","",""
"2798","","image-button-response","170","1295325","0.0-170.0-0.0","ACON9O9NMFOHE","img_art/6.jpg","4","","","","","","","","","","","","","","","","","","","","","","","","",""
"1317","","image-button-response","171","1296645","0.0-171.0-0.0","ACON9O9NMFOHE","img_art/6.jpg","3","","","","","","","","","","","","","","","","","","","","","","","","",""
"null","","html-keyboard-response","172","1297146","0.0-172.0","ACON9O9NMFOHE","<p style=""font-size: 48px;"">+</p>","","","","","null","allTrialResponses","500","1","18","img_art/6.jpg","-50","It reminded me of a single cactus in a hot desert. Very boring painting overall though.","Luke,Eric,Grant,Seth,Ian,Evan","i like it but it is very neutral,9,20,20","This piece reminds me of the lorax.,5,100,20","The limited colors make me feel lonely.,36,200,20","I love it. It reminds me of a bird sitting on a wall.,26,60,20","It's slightly unnerving to look at, it looks a little creepy/eerie,-16,260,20","I am intrigued but unsure whether I enjoy this or not,6,140,20","Eric","This piece reminds me of the lorax.,5,100,20","Ian","It's slightly unnerving to look at, it looks a little creepy/eerie,-16,260,20","Seth","I love it. It reminds me of a bird sitting on a wall.,26,60,20","0"
"15574","","survey-text","173","1312725","0.0-173.0-0.0","ACON9O9NMFOHE","","","","{""Q0"":""It reminded me of a woman cooking in her mother's kitchen.""}","","","","","","","","","","","","","","","","","","","","","","",""
"1342.3999998569489","","image-slider-response","174","1314069","0.0-174.0","ACON9O9NMFOHE","","","","","8","","","","","","","","","","","","","","","","","","","","","",""
"4093","","image-button-response","175","1319072","0.0-175.0","ACON9O9NMFOHE","img_art/19.jpg","4","","","","","","","","","","","","","","","","","","","","","","","","",""
"451","","image-button-response","176","1319525","0.0-176.0","ACON9O9NMFOHE","img_art/19.jpg","4","","","","","","","","","","","","","","","","","","","","","","","","",""
"1190","","image-button-response","177","1320717","0.0-177.0-0.0","ACON9O9NMFOHE","img_art/19.jpg","1","","","","","","","","","","","","","","","","","","","","","","","","",""
"3645","","image-button-response","178","1324365","0.0-178.0-0.0","ACON9O9NMFOHE","img_art/19.jpg","2","","","","","","","","","","","","","","","","","","","","","","","","",""
"null","","html-keyboard-response","179","1324869","0.0-179.0","ACON9O9NMFOHE","<p style=""font-size: 48px;"">+</p>","","","","","null","allTrialResponses","500","1","19","img_art/19.jpg","8","It reminded me of a woman cooking in her mother's kitchen.","Daniel,Eric,Angel,Seth,Ian,Tyler","Simple, scratchy lack of negative space.,-10,320,20","I like the color and the mix of sketches along with paint.,30,100,20","This one feels pretty neutral. Like a window into someone's life, one person in a bustling metropolis.,0,180,20","I wasn't sure if I liked it or hated it. It oddly reminds me of a clothing store.,11,60,20","It looks cool but at the time looks like it was done by a talented 5 year old.,13,260,20","Seems unfinished and sloppy,-11,320,20","Ian","It looks cool but at the time looks like it was done by a talented 5 year old.,13,260,20","Eric","I like the color and the mix of sketches along with paint.,30,100,20","Angel","This one feels pretty neutral. Like a window into someone's life, one person in a bustling metropolis.,0,180,20","0"
"15147","","survey-text","180","1340020","0.0-180.0-0.0","ACON9O9NMFOHE","","","","{""Q0"":""I like how the top of the painting contrasted with the bottom.""}","","","","","","","","","","","","","","","","","","","","","","",""
"2126.4000000953674","","image-slider-response","181","1342148","0.0-181.0","ACON9O9NMFOHE","","","","","15","","","","","","","","","","","","","","","","","","","","","",""
"5006","","image-button-response","182","1347157","0.0-182.0","ACON9O9NMFOHE","img_art/12.jpg","2","","","","","","","","","","","","","","","","","","","","","","","","",""
"535","","image-button-response","183","1347693","0.0-183.0","ACON9O9NMFOHE","img_art/12.jpg","2","","","","","","","","","","","","","","","","","","","","","","","","",""
"1238","","image-button-response","184","1348933","0.0-184.0-0.0","ACON9O9NMFOHE","img_art/12.jpg","4","","","","","","","","","","","","","","","","","","","","","","","","",""
"3366","","image-button-response","185","1352301","0.0-185.0-0.0","ACON9O9NMFOHE","img_art/12.jpg","5","","","","","","","","","","","","","","","","","","","","","","","","",""
"null","","html-keyboard-response","186","1352804","0.0-186.0","ACON9O9NMFOHE","<p style=""font-size: 48px;"">+</p>","","","","","null","allTrialResponses","500","1","20","img_art/12.jpg","15","I like how the top of the painting contrasted with the bottom.","Luis,Eric,Angel,Joshua,Ian,Thomas","I like the fact it shares both light and edgy,32,400,20","I don't like the dark black with the bright colors, but this as a whole is nice.,25,100,20","This feels cosmopolitan. Like looking at a high rise apartment at night and seeing into everyone's windows.,20,180,20","I don't get this one. Doesn't evoke an emotional response.,-10,240,20","This is like going to a really old mcdoanlds in a tiny town and it's never been renovated so it's breaking down,-31,260,20","Very interesting. Makes me want to look at it for a long time.,16,220,20","Angel","This feels cosmopolitan. Like looking at a high rise apartment at night and seeing into everyone's windows.,20,180,20","Ian","This is like going to a really old mcdoanlds in a tiny town and it's never been renovated so it's breaking down,-31,260,20","Thomas","Very interesting. Makes me want to look at it for a long time.,16,220,20","0"
"1914","","survey-text","187","1354725","0.0-187.0-0.0","ACON9O9NMFOHE","","","","{""Q0"":""we""}","","","","","","","","","","","","","","","","","","","","","","",""
"25430","","survey-text","188","1380156","0.0-188.0-0.0","ACON9O9NMFOHE","","","","{""Q0"":""It reminds me of old tie-dye shirts I used to wear as a kid. A very nostalgic piece.""}","","","","","","","","","","","","","","","","","","","","","","",""
"1630","","image-slider-response","189","1381788","0.0-189.0","ACON9O9NMFOHE","","","","","29","","","","","","","","","","","","","","","","","","","","","",""
"4351","","image-button-response","190","1386790","0.0-190.0","ACON9O9NMFOHE","img_art/22.jpg","4","","","","","","","","","","","","","","","","","","","","","","","","",""
"204","","image-button-response","191","1386997","0.0-191.0","ACON9O9NMFOHE","img_art/22.jpg","4","","","","","","","","","","","","","","","","","","","","","","","","",""
"5014","","image-button-response","192","1392013","0.0-192.0-0.0","ACON9O9NMFOHE","img_art/22.jpg","2","","","","","","","","","","","","","","","","","","","","","","","","",""
"3357","","image-button-response","193","1395374","0.0-193.0-0.0","ACON9O9NMFOHE","img_art/22.jpg","5","","","","","","","","","","","","","","","","","","","","","","","","",""
"null","","html-keyboard-response","194","1396376","0.0-194.0","ACON9O9NMFOHE","<p style=""font-size: 48px;"">+</p>","","","","","null","allTrialResponses","1000","1","21","img_art/22.jpg","29","It reminds me of old tie-dye shirts I used to wear as a kid. A very nostalgic piece.","Noah,Kyle,Angel,Brandon,Ian,Thomas","displeasure - not a fan of the colour or the shapes,-18,260,20","I appreciate the artistic effort but it's not for me,0,340,20","This piece gives off a cool vibe. Reminds me of being out in the city at night.,20,180,20","Don't like this type of abstract work,-39,320,20","Its very warm, it reminds of someone not liking their painting so they destoryed it,26,260,20","Beautiful. I love the color contrast and gradients.,50,220,20","Ian","Its very warm, it reminds of someone not liking their painting so they destoryed it,26,260,20","Angel","This piece gives off a cool vibe. Reminds me of being out in the city at night.,20,180,20","Thomas","Beautiful. I love the color contrast and gradients.,50,220,20","0"
"26094","","survey-text","195","1422476","0.0-195.0-0.0","ACON9O9NMFOHE","","","","{""Q0"":""It looks like it would be a good album cover for a metal band.""}","","","","","","","","","","","","","","","","","","","","","","",""
"1574.6999998092651","","image-slider-response","196","1424052","0.0-196.0","ACON9O9NMFOHE","","","","","28","","","","","","","","","","","","","","","","","","","","","",""
"null","","image-button-response","197","1429054","0.0-197.0","ACON9O9NMFOHE","img_art/23.jpg","null","","","","","","","","","","","","","","","","","","","","","","","","",""
"1228","","image-button-response","198","1430284","0.0-198.0","ACON9O9NMFOHE","img_art/23.jpg","2","","","","","","","","","","","","","","","","","","","","","","","","",""
"2133","","image-button-response","199","1432420","0.0-199.0-0.0","ACON9O9NMFOHE","img_art/23.jpg","4","","","","","","","","","","","","","","","","","","","","","","","","",""
"4045","","image-button-response","200","1436468","0.0-200.0-0.0","ACON9O9NMFOHE","img_art/23.jpg","3","","","","","","","","","","","","","","","","","","","","","","","","",""
"null","","html-keyboard-response","201","1436971","0.0-201.0","ACON9O9NMFOHE","<p style=""font-size: 48px;"">+</p>","","","","","null","allTrialResponses","500","1","22","img_art/23.jpg","28","It looks like it would be a good album cover for a metal band.","Derek,Austin,Angel,Benjamin,Ian,Thomas","Very colorful and wild. It's cool and I like it,32,360,20","Fantastic blend of color and forms,43,240,20","I feel positive community and comfort. Singing along at a concert, united with a bunch of strangers through shared joy.,20,180,20","The background colors seem too dark and the middle images take away from it.,4,260,20","It's very colorful and different, the white looks like people dancing,26,260,20","Beautiful. Very detailed and colorful. I enjoy looking at it.,50,220,20","Angel","I feel positive community and comfort. Singing along at a concert, united with a bunch of strangers through shared joy.,20,180,20","Ian","It's very colorful and different, the white looks like people dancing,26,260,20","Benjamin","The background colors seem too dark and the middle images take away from it.,4,260,20","0"
"12869","","survey-text","202","1449844","0.0-202.0-0.0","ACON9O9NMFOHE","","","","{""Q0"":""It reminds me of something my 3 year old cousin would draw.""}","","","","","","","","","","","","","","","","","","","","","","",""
"1966.2000000476837","","image-slider-response","203","1451812","0.0-203.0","ACON9O9NMFOHE","","","","","-29","","","","","","","","","","","","","","","","","","","","","",""
"null","","image-button-response","204","1456814","0.0-204.0","ACON9O9NMFOHE","img_art/4.jpg","null","","","","","","","","","","","","","","","","","","","","","","","","",""
"612","","image-button-response","205","1457428","0.0-205.0","ACON9O9NMFOHE","img_art/4.jpg","2","","","","","","","","","","","","","","","","","","","","","","","","",""
"2494","","image-button-response","206","1459924","0.0-206.0-0.0","ACON9O9NMFOHE","img_art/4.jpg","4","","","","","","","","","","","","","","","","","","","","","","","","",""
"3581","","image-button-response","207","1463508","0.0-207.0-0.0","ACON9O9NMFOHE","img_art/4.jpg","0","","","","","","","","","","","","","","","","","","","","","","","","",""
"null","","html-keyboard-response","208","1464510","0.0-208.0","ACON9O9NMFOHE","<p style=""font-size: 48px;"">+</p>","","","","","null","allTrialResponses","1000","1","23","img_art/4.jpg","-29","It reminds me of something my 3 year old cousin would draw.","Marcus,Jordan,Angel,Benjamin,Ian,Jorge","Really like the colors, but don't like the object/squiggle in darker gold and black,4,60,20","A hand reaching for something it cannot obtain,-9,160,20","I feel kind of guilty looking at this, like I'm receiving a reward I don't I deserve.,-10,180,20","I like the bold style.,10,260,20","I just don't understand this one at all, I do not like it,-43,260,20","creepy as it looks like fingernails,-23,180,20","Angel","I feel kind of guilty looking at this, like I'm receiving a reward I don't I deserve.,-10,180,20","Ian","I just don't understand this one at all, I do not like it,-43,260,20","Marcus","Really like the colors, but don't like the object/squiggle in darker gold and black,4,60,20","0"
"19650","","survey-text","209","1484164","0.0-209.0-0.0","ACON9O9NMFOHE","","","","{""Q0"":""It looks like a boat about to take off for a cruise. I loved the colors.""}","","","","","","","","","","","","","","","","","","","","","","",""
"1694.3999998569489","","image-slider-response","210","1485860","0.0-210.0","ACON9O9NMFOHE","","","","","15","","","","","","","","","","","","","","","","","","","","","",""
"3542","","image-button-response","211","1490861","0.0-211.0","ACON9O9NMFOHE","img_art/20.jpg","2","","","","","","","","","","","","","","","","","","","","","","","","",""
"668","","image-button-response","212","1491532","0.0-212.0","ACON9O9NMFOHE","img_art/20.jpg","4","","","","","","","","","","","","","","","","","","","","","","","","",""
"1133","","image-button-response","213","1492668","0.0-213.0-0.0","ACON9O9NMFOHE","img_art/20.jpg","2","","","","","","","","","","","","","","","","","","","","","","","","",""
"1550","","image-button-response","214","1494220","0.0-214.0-0.0","ACON9O9NMFOHE","img_art/20.jpg","1","","","","","","","","","","","","","","","","","","","","","","","","",""
"null","","html-keyboard-response","215","1494723","0.0-215.0","ACON9O9NMFOHE","<p style=""font-size: 48px;"">+</p>","","","","","null","allTrialResponses","500","1","24","img_art/20.jpg","15","It looks like a boat about to take off for a cruise. I loved the colors.","Marcus,Paul,Angel,Tanner,Ian,Sean","I like the blues, and the sense of foreboding it makes me feel.,20,60,20","It looks like a junkyard and isn't appealing,-22,300,20","This looks like a ruin of what was once a thriving city.,-9,180,20","danger, car crash, stressful,-12,180,20","A painting within a painting, the inner painting looks like a car crash with a semi truck.,21,260,20","I like the detail on it, although I get a sad vibe to it,19,40,20","Ian","A painting within a painting, the inner painting looks like a car crash with a semi truck.,21,260,20","Angel","This looks like a ruin of what was once a thriving city.,-9,180,20","Paul","It looks like a junkyard and isn't appealing,-22,300,20","0"
"15811","","survey-text","216","1510539","0.0-216.0-0.0","ACON9O9NMFOHE","","","","{""Q0"":""It reminds me of something I would see in a science textbook from school.""}","","","","","","","","","","","","","","","","","","","","","","",""
"1646.8000001907349","","image-slider-response","217","1512187","0.0-217.0","ACON9O9NMFOHE","","","","","34","","","","","","","","","","","","","","","","","","","","","",""
"4750","","image-button-response","218","1517190","0.0-218.0","ACON9O9NMFOHE","img_art/13.jpg","4","","","","","","","","","","","","","","","","","","","","","","","","",""
"1764","","image-button-response","219","1518956","0.0-219.0","ACON9O9NMFOHE","img_art/13.jpg","2","","","","","","","","","","","","","","","","","","","","","","","","",""
"774","","image-button-response","220","1519732","0.0-220.0-0.0","ACON9O9NMFOHE","img_art/13.jpg","4","","","","","","","","","","","","","","","","","","","","","","","","",""
"3390","","image-button-response","221","1523124","0.0-221.0-0.0","ACON9O9NMFOHE","img_art/13.jpg","5","","","","","","","","","","","","","","","","","","","","","","","","",""
"null","","html-keyboard-response","222","1524629","0.0-222.0","ACON9O9NMFOHE","<p style=""font-size: 48px;"">+</p>","","","","","null","allTrialResponses","1500","1","25","img_art/13.jpg","34","It reminds me of something I would see in a science textbook from school.","Charles,Paul,Angel,Devin,Ian,James","It's like a pattern on a bus seat,10,100,20","It's like any other splatter paint art piece, nothing special,1,300,20","Reminds me of depression anxiety, but negativity is dampened by motion. It's trying to release itself through expression.,-10,180,20","Really love the colors,11,380,20","This looks like something that could be made off of windows paint, not a huge fan.,-30,260,20","This is a very cool painting, something an art teacher or professor would own.,22,380,20","Angel","Reminds me of depression anxiety, but negativity is dampened by motion. It's trying to release itself through expression.,-10,180,20","Ian","This looks like something that could be made off of windows paint, not a huge fan.,-30,260,20","James","This is a very cool painting, something an art teacher or professor would own.,22,380,20","0"
"3827","","survey-text","223","1528467","0.0-223.0-0.0","ACON9O9NMFOHE","","","","{""Q0"":""table""}","","","","","","","","","","","","","","","","","","","","","","",""
"18694","","survey-text","224","1547163","0.0-224.0-0.0","ACON9O9NMFOHE","","","","{""Q0"":""It looks like a painting a celebrity would own. A very strange piece.""}","","","","","","","","","","","","","","","","","","","","","","",""
"1590.3999998569489","","image-slider-response","225","1548755","0.0-225.0","ACON9O9NMFOHE","","","","","-12","","","","","","","","","","","","","","","","","","","","","",""
"2271","","image-button-response","226","1553758","0.0-226.0","ACON9O9NMFOHE","img_art/30.jpg","2","","","","","","","","","","","","","","","","","","","","","","","","",""
"667","","image-button-response","227","1554427","0.0-227.0","ACON9O9NMFOHE","img_art/30.jpg","2","","","","","","","","","","","","","","","","","","","","","","","","",""
"3287","","image-button-response","228","1557716","0.0-228.0-0.0","ACON9O9NMFOHE","img_art/30.jpg","4","","","","","","","","","","","","","","","","","","","","","","","","",""
"1237","","image-button-response","229","1558956","0.0-229.0-0.0","ACON9O9NMFOHE","img_art/30.jpg","3","","","","","","","","","","","","","","","","","","","","","","","","",""
"null","","html-keyboard-response","230","1559459","0.0-230.0","ACON9O9NMFOHE","<p style=""font-size: 48px;"">+</p>","","","","","null","allTrialResponses","500","1","26","img_art/30.jpg","-12","It looks like a painting a celebrity would own. A very strange piece.","Nathan,Kevin,Angel,Mitchell,Ian,James","It's okay. It should either have stuck to the grey-blue, or added more red. Seems unorganized (maybe that's the point?),-9,200,20","Some people dancing.,-7,320,20","It's like a child's art piece: carefree and not trying to conform to anything.,10,180,20","connection, Everything is connected even in contrast.,42,180,20","It looks like it was made by pre-k students.,-30,260,20","I like the fact that it's a painting.,21,380,20","Angel","It's like a child's art piece: carefree and not trying to conform to anything.,10,180,20","Ian","It looks like it was made by pre-k students.,-30,260,20","Mitchell","connection, Everything is connected even in contrast.,42,180,20","0"
"18354","","survey-text","231","1577819","0.0-231.0-0.0","ACON9O9NMFOHE","","","","{""Q0"":""I just don't understand this one at all. There not enough going on in this painting.""}","","","","","","","","","","","","","","","","","","","","","","",""
"2470.7000000476837","","image-slider-response","232","1580291","0.0-232.0","ACON9O9NMFOHE","","","","","-41","","","","","","","","","","","","","","","","","","","","","",""
"null","","image-button-response","233","1585295","0.0-233.0","ACON9O9NMFOHE","img_art/15.jpg","null","","","","","","","","","","","","","","","","","","","","","","","","",""
"1178","","image-button-response","234","1586476","0.0-234.0","ACON9O9NMFOHE","img_art/15.jpg","4","","","","","","","","","","","","","","","","","","","","","","","","",""
"988","","image-button-response","235","1587467","0.0-235.0-0.0","ACON9O9NMFOHE","img_art/15.jpg","2","","","","","","","","","","","","","","","","","","","","","","","","",""
"2325","","image-button-response","236","1589795","0.0-236.0-0.0","ACON9O9NMFOHE","img_art/15.jpg","0","","","","","","","","","","","","","","","","","","","","","","","","",""
"null","","html-keyboard-response","237","1591298","0.0-237.0","ACON9O9NMFOHE","<p style=""font-size: 48px;"">+</p>","","","","","null","allTrialResponses","1500","1","27","img_art/15.jpg","-41","I just don't understand this one at all. There not enough going on in this painting.","Antonio,Elijah,Angel,Mitchell,Ian,Shawn","Makes me think of a bush and flowers and spring and happy warm times,25,220,20","Makes me feel weird,-16,80,20","This is looking at a forest from above. I can see water and some pathways throughout. Nature.,20,180,20","ants on the ground playing with bubble gum. They may be thinking of how they can use it to build something,-30,180,20","This gives a skin crawling feeling. Like something that you could see under a mircoscope,10,260,20","Like the composition and lines,26,100,20","Ian","This gives a skin crawling feeling. Like something that you could see under a mircoscope,10,260,20","Angel","This is looking at a forest from above. I can see water and some pathways throughout. Nature.,20,180,20","Antonio","Makes me think of a bush and flowers and spring and happy warm times,25,220,20","0"
"23989","","survey-text","238","1615291","0.0-238.0-0.0","ACON9O9NMFOHE","","","","{""Q0"":""The warm colors make me think of springtime.""}","","","","","","","","","","","","","","","","","","","","","","",""
"1614.0999999046326","","image-slider-response","239","1616907","0.0-239.0","ACON9O9NMFOHE","","","","","27","","","","","","","","","","","","","","","","","","","","","",""
"null","","image-button-response","240","1621909","0.0-240.0","ACON9O9NMFOHE","img_art/1.jpg","null","","","","","","","","","","","","","","","","","","","","","","","","",""
"772","","image-button-response","241","1622683","0.0-241.0","ACON9O9NMFOHE","img_art/1.jpg","2","","","","","","","","","","","","","","","","","","","","","","","","",""
"1134","","image-button-response","242","1623819","0.0-242.0-0.0","ACON9O9NMFOHE","img_art/1.jpg","4","","","","","","","","","","","","","","","","","","","","","","","","",""
"3286","","image-button-response","243","1627107","0.0-243.0-0.0","ACON9O9NMFOHE","img_art/1.jpg","1","","","","","","","","","","","","","","","","","","","","","","","","",""
"null","","html-keyboard-response","244","1627609","0.0-244.0","ACON9O9NMFOHE","<p style=""font-size: 48px;"">+</p>","","","","","null","allTrialResponses","500","1","28","img_art/1.jpg","27","The warm colors make me think of springtime.","Antonio,Vincent,Angel,Jesus,Ian,Isaac","Felt nothing in response to this painting,3,220,20","I love the detail and colors like a beautiful autumn day,35,360,20","For some reason this makes me want to go ice skating. It's whimsical and free but also very smooth.,20,180,20","I like the simple aspect to the design,21,100,20","Someone painted a landscape and decided they didn't like it so they covered it up.,13,260,20","The colors are a little too intense.,1,280,20","Angel","For some reason this makes me want to go ice skating. It's whimsical and free but also very smooth.,20,180,20","Ian","Someone painted a landscape and decided they didn't like it so they covered it up.,13,260,20","Vincent","I love the detail and colors like a beautiful autumn day,35,360,20","0"
"10516","","survey-text","245","1638130","0.0-245.0-0.0","ACON9O9NMFOHE","","","","{""Q0"":""It makes me feel like I'm sitting in the park.""}","","","","","","","","","","","","","","","","","","","","","","",""
"1585.0999999046326","","image-slider-response","246","1639717","0.0-246.0","ACON9O9NMFOHE","","","","","24","","","","","","","","","","","","","","","","","","","","","",""
"null","","image-button-response","247","1644721","0.0-247.0","ACON9O9NMFOHE","img_art/26.jpg","null","","","","","","","","","","","","","","","","","","","","","","","","",""
"631","","image-button-response","248","1645354","0.0-248.0","ACON9O9NMFOHE","img_art/26.jpg","2","","","","","","","","","","","","","","","","","","","","","","","","",""
"863","","image-button-response","249","1646219","0.0-249.0-0.0","ACON9O9NMFOHE","img_art/26.jpg","4","","","","","","","","","","","","","","","","","","","","","","","","",""
"2749","","image-button-response","250","1648970","0.0-250.0-0.0","ACON9O9NMFOHE","img_art/26.jpg","5","","","","","","","","","","","","","","","","","","","","","","","","",""
"null","","html-keyboard-response","251","1649972","0.0-251.0","ACON9O9NMFOHE","<p style=""font-size: 48px;"">+</p>","","","","","null","allTrialResponses","1000","1","29","img_art/26.jpg","24","It makes me feel like I'm sitting in the park.","Tristan,Vincent,Angel,Alex,Ian,Peter","The feeling that I am looking at the world through a dingy filter makes this unpleasant for me.,-20,300,20","Small town and home feel on A nice day.,28,360,20","This piece feels pretty chill like it's just a normal day in the city.,10,180,20","I can make out a street view and I am a fan of watercolors but still too boring,15,100,20","This seems pretty and sweet, it's something I would like to actually see.,31,260,20","Reminds me of a European street, I desire to walk in this picture,28,320,20","Angel","This piece feels pretty chill like it's just a normal day in the city.,10,180,20","Ian","This seems pretty and sweet, it's something I would like to actually see.,31,260,20","Peter","Reminds me of a European street, I desire to walk in this picture,28,320,20","0"
"21865","","survey-text","252","1671842","0.0-252.0-0.0","ACON9O9NMFOHE","","","","{""Q0"":""It reminds me of staring at the sand at the beach. Kind of boring overall.""}","","","","","","","","","","","","","","","","","","","","","","",""
"1461.8999998569489","","image-slider-response","253","1673306","0.0-253.0","ACON9O9NMFOHE","","","","","-26","","","","","","","","","","","","","","","","","","","","","",""
"null","","image-button-response","254","1678308","0.0-254.0","ACON9O9NMFOHE","img_art/7.jpg","null","","","","","","","","","","","","","","","","","","","","","","","","",""
"2077","","image-button-response","255","1680386","0.0-255.0","ACON9O9NMFOHE","img_art/7.jpg","4","","","","","","","","","","","","","","","","","","","","","","","","",""
"854","","image-button-response","256","1681242","0.0-256.0-0.0","ACON9O9NMFOHE","img_art/7.jpg","2","","","","","","","","","","","","","","","","","","","","","","","","",""
"5110","","image-button-response","257","1686354","0.0-257.0-0.0","ACON9O9NMFOHE","img_art/7.jpg","0","","","","","","","","","","","","","","","","","","","","","","","","",""
"null","","html-keyboard-response","258","1687858","0.0-258.0","ACON9O9NMFOHE","<p style=""font-size: 48px;"">+</p>","","","","","null","allTrialResponses","1500","1","30","img_art/7.jpg","-26","It reminds me of staring at the sand at the beach. Kind of boring overall.","Jared,Christian,Angel,Shane,Ian,Peter","it looks like a dog ran through some wet cement,-22,400,20","would love to take a closer look at the texture,15,140,20","It's off-putting because it reminds me of walking over rough sand/rocks or having scabs on my skin.,-10,180,20","Dessert like almost like dry land,4,80,20","This looks like a literal picture of the ground so I'm really not too sure about this one.,-42,260,20","It's just like sand from the beach,2,320,20","Ian","This looks like a literal picture of the ground so I'm really not too sure about this one.,-42,260,20","Angel","It's off-putting because it reminds me of walking over rough sand/rocks or having scabs on my skin.,-10,180,20","Jared","it looks like a dog ran through some wet cement,-22,400,20","0"
"4259","","image-button-response_instructions","259","1692122","0.0-259.0","ACON9O9NMFOHE","","0","instructions","","","","","","","","","","","","","","","","","","","","","","","",""
"1004","","image-button-response","260","1693130","0.0-260.0","ACON9O9NMFOHE","","0","","","","","","","","","","","","","","","","","","","","","","","","",""
