"rt","url","trial_type","trial_index","time_elapsed","internal_node_id","participant_id","stimulus","button_pressed","Name","responses","response","key_press","variableName","fixationTime","condition","trial","photo","subjectRating","subjectResponse","agentsNames","agent_1_Response","agent_2_Response","agent_3_Response","agent_4_Response","agent_5_Response","agent_6_Response","kept_1_name","kept_1_response","kept_2_name","kept_2_response","kept_3_name","kept_3_response","errorCounter"
"6891","external_page_harvard.html","external-html","0","7020","0.0-0.0","AD1ILDUXZHASF","","","","","","","","","","","","","","","","","","","","","","","","","","",""
"3906","","image-button-response","1","10929","0.0-1.0","AD1ILDUXZHASF","","0","","","","","","","","","","","","","","","","","","","","","","","","",""
"1100","","image-button-response","2","12041","0.0-2.0-0.0","AD1ILDUXZHASF","","1","phone","","","","","","","","","","","","","","","","","","","","","","","",""
"2308","","survey-text","3","14352","0.0-3.0-0.0","AD1ILDUXZHASF","","","","{""Q0"":""AD1ILDUXZHASF""}","","","","","","","","","","","","","","","","","","","","","","",""
"2741","","image-button-response_instructions","4","17096","0.0-4.0","AD1ILDUXZHASF","","0","instructions","","","","","","","","","","","","","","","","","","","","","","","",""
"2190","","image-button-response_instructions","5","19290","0.0-5.0","AD1ILDUXZHASF","img_art/ins/popularity/ins1.png","0","instructions","","","","","","","","","","","","","","","","","","","","","","","",""
"2514","","image-button-response_instructions","6","21808","0.0-6.0","AD1ILDUXZHASF","img_art/ins/popularity/ins2.png","0","instructions","","","","","","","","","","","","","","","","","","","","","","","",""
"4150","","image-button-response_instructions","7","25960","0.0-7.0","AD1ILDUXZHASF","img_art/ins/popularity/ins2Extreme.png","0","instructions","","","","","","","","","","","","","","","","","","","","","","","",""
"3044","","image-button-response_instructions","8","29008","0.0-8.0","AD1ILDUXZHASF","img_art/ins/popularity/ins3KEEPpop.PNG","0","instructions","","","","","","","","","","","","","","","","","","","","","","","",""
"2078","","image-button-response_instructions","9","31088","0.0-9.0","AD1ILDUXZHASF","img_art/ins/popularity/ins3ANamepop.PNG","0","instructions","","","","","","","","","","","","","","","","","","","","","","","",""
"942","","image-button-response_instructions","10","32032","0.0-10.0","AD1ILDUXZHASF","img_art/ins/popularity/ins3ARatingpop.png","0","instructions","","","","","","","","","","","","","","","","","","","","","","","",""
"749","","image-button-response_instructions","11","32784","0.0-11.0","AD1ILDUXZHASF","img_art/ins/popularity/ins3ATextpop.png","0","instructions","","","","","","","","","","","","","","","","","","","","","","","",""
"1933","","image-button-response_instructions","12","34720","0.0-12.0","AD1ILDUXZHASF","img_art/ins/popularity/ins3ALikespop.png","0","instructions","","","","","","","","","","","","","","","","","","","","","","","",""
"4541","","image-button-response_instructions","13","39264","0.0-13.0","AD1ILDUXZHASF","img_art/ins/popularity/ins3KEEPpop.PNG","0","instructions","","","","","","","","","","","","","","","","","","","","","","","",""
"998","","image-button-response_instructions","14","40264","0.0-14.0","AD1ILDUXZHASF","img_art/ins/popularity/ins3_5RED.png","0","instructions","","","","","","","","","","","","","","","","","","","","","","","",""
"566","","image-button-response_instructions","15","40832","0.0-15.0","AD1ILDUXZHASF","img_art/ins/popularity/ins3KEEPpop.PNG","0","instructions","","","","","","","","","","","","","","","","","","","","","","","",""
"870","","image-button-response_instructions","16","41704","0.0-16.0","AD1ILDUXZHASF","img_art/ins/popularity/ins4KEEPpop.PNG","0","instructions","","","","","","","","","","","","","","","","","","","","","","","",""
"462","","image-button-response_instructions","17","42168","0.0-17.0","AD1ILDUXZHASF","img_art/ins/popularity/ins5KEEPpop.PNG","0","instructions","","","","","","","","","","","","","","","","","","","","","","","",""
"534","","image-button-response_instructions","18","42706","0.0-18.0","AD1ILDUXZHASF","","0","instructions","","","","","","","","","","","","","","","","","","","","","","","",""
"7562","","survey-text","19","50312","0.0-19.0-0.0","AD1ILDUXZHASF","","","","{""Q0"":""but""}","","","","","","","","","","","","","","","","","","","","","","",""
"11941","","survey-text","20","62256","0.0-20.0-0.0","AD1ILDUXZHASF","","","","{""Q0"":""Looks nice to me. Very nice colors.""}","","","","","","","","","","","","","","","","","","","","","","",""
"3252.100000023842","","image-slider-response","21","65513","0.0-21.0","AD1ILDUXZHASF","","","","","15","","","","","","","","","","","","","","","","","","","","","",""
"null","","image-button-response","22","70520","0.0-22.0","AD1ILDUXZHASF","img_art/ins/1.jpg","null","","","","","","","","","","","","","","","","","","","","","","","","",""
"7181","","image-button-response","23","77705","0.0-23.0","AD1ILDUXZHASF","img_art/ins/1.jpg","3","","","","","","","","","","","","","","","","","","","","","","","","",""
"1515","","image-button-response","24","79226","0.0-24.0-0.0","AD1ILDUXZHASF","img_art/ins/1.jpg","5","","","","","","","","","","","","","","","","","","","","","","","","",""
"1265","","image-button-response","25","80497","0.0-25.0-0.0","AD1ILDUXZHASF","img_art/ins/1.jpg","1","","","","","","","","","","","","","","","","","","","","","","","","",""
"null","","html-keyboard-response","26","81003","0.0-26.0","AD1ILDUXZHASF","<p style=""font-size: 48px;"">+</p>","","","","","null","allTrialResponses","500","1","-2","img_art/ins/1.jpg","15","Looks nice to me. Very nice colors.","Adam,Alex,Ben,Carl,Daniel,Jack","Seems like doodles,-20,20,20","very creative work.,36,40,20","This color reminds me of poo,-46,60,20","very calming artwork,42,80,20","It looks like a murder scene.,-48,100,20","I like the sophisticated brushwork,40,120,20","Carl","very calming artwork,42,80,20","Jack","I like the sophisticated brushwork,40,120,20","Alex","very creative work.,36,40,20","0"
"11868","","survey-text","27","92884","0.0-27.0-0.0","AD1ILDUXZHASF","","","","{""Q0"":""Looks like laziness""}","","","","","","","","","","","","","","","","","","","","","","",""
"1904.4000000357628","","image-slider-response","28","94791","0.0-28.0","AD1ILDUXZHASF","","","","","-11","","","","","","","","","","","","","","","","","","","","","",""
"null","","image-button-response","29","99795","0.0-29.0","AD1ILDUXZHASF","img_art/ins/2.jpg","null","","","","","","","","","","","","","","","","","","","","","","","","",""
"16722","","image-button-response","30","116521","0.0-30.0","AD1ILDUXZHASF","img_art/ins/2.jpg","4","","","","","","","","","","","","","","","","","","","","","","","","",""
"411","","image-button-response","31","116937","0.0-31.0-0.0","AD1ILDUXZHASF","img_art/ins/2.jpg","5","","","","","","","","","","","","","","","","","","","","","","","","",""
"276","","image-button-response","32","117218","0.0-32.0-0.0","AD1ILDUXZHASF","img_art/ins/2.jpg","2","","","","","","","","","","","","","","","","","","","","","","","","",""
"null","","html-keyboard-response","33","118221","0.0-33.0","AD1ILDUXZHASF","<p style=""font-size: 48px;"">+</p>","","","","","null","allTrialResponses","1000","1","-1","img_art/ins/2.jpg","-11","Looks like laziness","James,Alex,Kyle,Carl,John,Jack","looks too angry,-50,140,20","I like the blocks of color arrangements,30,40,20","Idk, it is just annoying,-32,180,20","I can feel the artist's passion in it,45,80,20","love the texture of paint,48,160,20","I would never be able to compose a sophisticated pallete like this,48,120,20","John","love the texture of paint,48,160,20","Jack","I would never be able to compose a sophisticated pallete like this,48,120,20","Kyle","Idk, it is just annoying,-32,180,20","0"
"7629","","survey-text","34","125856","0.0-34.0-0.0","AD1ILDUXZHASF","","","","{""Q0"":""I love the blue colors.""}","","","","","","","","","","","","","","","","","","","","","","",""
"10187.899999976158","","image-slider-response","35","136048","0.0-35.0","AD1ILDUXZHASF","","","","","30","","","","","","","","","","","","","","","","","","","","","",""
"3805","","image-button-response","36","141052","0.0-36.0","AD1ILDUXZHASF","img_art/ins/3.jpg","3","","","","","","","","","","","","","","","","","","","","","","","","",""
"5810","","image-button-response","37","146866","0.0-37.0","AD1ILDUXZHASF","img_art/ins/3.jpg","3","","","","","","","","","","","","","","","","","","","","","","","","",""
"1826","","image-button-response","38","148697","0.0-38.0-0.0","AD1ILDUXZHASF","img_art/ins/3.jpg","4","","","","","","","","","","","","","","","","","","","","","","","","",""
"396","","image-button-response","39","149098","0.0-39.0-0.0","AD1ILDUXZHASF","img_art/ins/3.jpg","5","","","","","","","","","","","","","","","","","","","","","","","","",""
"null","","html-keyboard-response","40","149601","0.0-40.0","AD1ILDUXZHASF","<p style=""font-size: 48px;"">+</p>","","","","","null","allTrialResponses","500","1","0","img_art/ins/3.jpg","30","I love the blue colors.","Sam,Ron,Kyle,Mike,John,Jack","I can feel a rainy day from this painting,18,240,20","It looks depressing,-26,220,20","It looks like a playground for bats,-36,180,20","enjoy the different shades of blue,22,200,20","I like the overlapping of brushes,41,160,20","I feel connected to the artist,40,120,20","Mike","enjoy the different shades of blue,22,200,20","John","I like the overlapping of brushes,41,160,20","Jack","I feel connected to the artist,40,120,20","0"
"24320","","image-button-response_instructions","41","173929","0.0-41.0","AD1ILDUXZHASF","","0","instructions","","","","","","","","","","","","","","","","","","","","","","","",""
"20045","","survey-likert","42","193976","0.0-42.0-0.0","AD1ILDUXZHASF","","","","{""Q0"":"""",""Q1"":0,""Q2"":1}","","","","","","","","","","","","","","","","","","","","","","",""
"8042","","survey-text","43","202032","0.0-43.0-0.0","AD1ILDUXZHASF","","","","{""Q0"":""rock""}","","","","","","","","","","","","","","","","","","","","","","",""
"12004","","survey-text","44","214040","0.0-44.0-0.0","AD1ILDUXZHASF","","","","{""Q0"":""I love the dark and light. Looks like roads""}","","","","","","","","","","","","","","","","","","","","","","",""
"2429","","image-slider-response","45","216472","0.0-45.0","AD1ILDUXZHASF","","","","","17","","","","","","","","","","","","","","","","","","","","","",""
"2002","","image-button-response","46","221519","0.0-46.0","AD1ILDUXZHASF","img_art/11.jpg","0","","","","","","","","","","","","","","","","","","","","","","","","",""
"455","","image-button-response","47","221978","0.0-47.0","AD1ILDUXZHASF","img_art/11.jpg","4","","","","","","","","","","","","","","","","","","","","","","","","",""
"586","","image-button-response","48","222569","0.0-48.0-0.0","AD1ILDUXZHASF","img_art/11.jpg","5","","","","","","","","","","","","","","","","","","","","","","","","",""
"363","","image-button-response","49","222937","0.0-49.0-0.0","AD1ILDUXZHASF","img_art/11.jpg","3","","","","","","","","","","","","","","","","","","","","","","","","",""
"null","","html-keyboard-response","50","223941","0.0-50.0","AD1ILDUXZHASF","<p style=""font-size: 48px;"">+</p>","","","","","null","allTrialResponses","1000","1","1","img_art/11.jpg","17","I love the dark and light. Looks like roads","Malik,Connor,Kevin,Tyler,Juan,Jack","I want to know which skyline the artist is depicting,26,40,20","Frank Lloyd Wright, music,24,240,20","Thats a creepy old rollercoasters abandoned,-2,320,20","Rainy day at an urban sea port. Portugal?,30,320,20","It makes me think of a rainy day and I like the colors. Also like the wavy lines.,22,260,20","makes me think of city highways & bridges on a rainy, foggy day. I like the melancholy it evokes.,43,320,20","Juan","It makes me think of a rainy day and I like the colors. Also like the wavy lines.,22,260,20","Jack","makes me think of city highways & bridges on a rainy, foggy day. I like the melancholy it evokes.,43,320,20","Tyler","Rainy day at an urban sea port. Portugal?,30,320,20","0"
"26413","","survey-text","51","250360","0.0-51.0-0.0","AD1ILDUXZHASF","","","","{""Q0"":""nice dark strokes.""}","","","","","","","","","","","","","","","","","","","","","","",""
"3620.5","","image-slider-response","52","253984","0.0-52.0","AD1ILDUXZHASF","","","","","8","","","","","","","","","","","","","","","","","","","","","",""
"3419","","image-button-response","53","258988","0.0-53.0","AD1ILDUXZHASF","img_art/30.jpg","4","","","","","","","","","","","","","","","","","","","","","","","","",""
"513","","image-button-response","54","259505","0.0-54.0","AD1ILDUXZHASF","img_art/30.jpg","3","","","","","","","","","","","","","","","","","","","","","","","","",""
"491","","image-button-response","55","260001","0.0-55.0-0.0","AD1ILDUXZHASF","img_art/30.jpg","4","","","","","","","","","","","","","","","","","","","","","","","","",""
"299","","image-button-response","56","260306","0.0-56.0-0.0","AD1ILDUXZHASF","img_art/30.jpg","5","","","","","","","","","","","","","","","","","","","","","","","","",""
"null","","html-keyboard-response","57","261809","0.0-57.0","AD1ILDUXZHASF","<p style=""font-size: 48px;"">+</p>","","","","","null","allTrialResponses","1500","1","2","img_art/30.jpg","8","nice dark strokes.","Corey,Aaron,Peter,Tyler,Juan,Jack","I dont like the colors whatsoever,-15,260,20","It looks like a pretty but unremarkable painting in a doctors office,15,20,20","I feel nothing towards,-1,320,20","Interesting brushstroke work, but not particularly memorable.,21,320,20","I like the red against the blue, but otherwise, it's not really my taste,4,260,20","love the movement of the brush strokes. very interesting piece.,38,320,20","Tyler","Interesting brushstroke work, but not particularly memorable.,21,320,20","Juan","I like the red against the blue, but otherwise, it's not really my taste,4,260,20","Jack","love the movement of the brush strokes. very interesting piece.,38,320,20","0"
"7481","","survey-text","58","269296","0.0-58.0-0.0","AD1ILDUXZHASF","","","","{""Q0"":""it's ok, I guess.""}","","","","","","","","","","","","","","","","","","","","","","",""
"3092.399999976158","","image-slider-response","59","272392","0.0-59.0","AD1ILDUXZHASF","","","","","1","","","","","","","","","","","","","","","","","","","","","",""
"4596","","image-button-response","60","277396","0.0-60.0","AD1ILDUXZHASF","img_art/12.jpg","1","","","","","","","","","","","","","","","","","","","","","","","","",""
"745","","image-button-response","61","278144","0.0-61.0","AD1ILDUXZHASF","img_art/12.jpg","1","","","","","","","","","","","","","","","","","","","","","","","","",""
"1228","","image-button-response","62","279377","0.0-62.0-0.0","AD1ILDUXZHASF","img_art/12.jpg","3","","","","","","","","","","","","","","","","","","","","","","","","",""
"611","","image-button-response","63","279993","0.0-63.0-0.0","AD1ILDUXZHASF","img_art/12.jpg","4","","","","","","","","","","","","","","","","","","","","","","","","",""
"null","","html-keyboard-response","64","280996","0.0-64.0","AD1ILDUXZHASF","<p style=""font-size: 48px;"">+</p>","","","","","null","allTrialResponses","1000","1","3","img_art/12.jpg","1","it's ok, I guess.","Timothy,Ethan,Jesse,Tyler,Juan,Jack","The shapes make me feel a bit uncomfortable,-10,240,20","The colors are ok. The piece reminds me of the 90s era, so I kinda like it!,-4,120,20","Just confuses me overall,-11,80,20","Different enough to be memorable. The gradient of hues is appealing and appeasing.,32,320,20","This is too abstract and the colors are too worn out.,-23,260,20","interesting, but feels like someone cut up a picture and pasted it together wrong. want to see the original,15,320,20","Ethan","The colors are ok. The piece reminds me of the 90s era, so I kinda like it!,-4,120,20","Tyler","Different enough to be memorable. The gradient of hues is appealing and appeasing.,32,320,20","Juan","This is too abstract and the colors are too worn out.,-23,260,20","0"
"7924","","survey-text","65","288928","0.0-65.0-0.0","AD1ILDUXZHASF","","","","{""Q0"":""seems too weird to me.""}","","","","","","","","","","","","","","","","","","","","","","",""
"3021.199999988079","","image-slider-response","66","291952","0.0-66.0","AD1ILDUXZHASF","","","","","-12","","","","","","","","","","","","","","","","","","","","","",""
"null","","image-button-response","67","297896","0.0-67.0","AD1ILDUXZHASF","img_art/2.jpg","null","","","","","","","","","","","","","","","","","","","","","","","","",""
"26228","","image-button-response","68","324145","0.0-68.0","AD1ILDUXZHASF","img_art/2.jpg","4","","","","","","","","","","","","","","","","","","","","","","","","",""
"505","","image-button-response","69","324659","0.0-69.0-0.0","AD1ILDUXZHASF","img_art/2.jpg","3","","","","","","","","","","","","","","","","","","","","","","","","",""
"960","","image-button-response","70","325625","0.0-70.0-0.0","AD1ILDUXZHASF","img_art/2.jpg","3","","","","","","","","","","","","","","","","","","","","","","","","",""
"2726","","image-button-response","71","331680","0.0-70.1-0.1","AD1ILDUXZHASF","img_art/2.jpg","2","","","","","","","","","","","","","","","","","","","","","","","","",""
"null","","html-keyboard-response","72","332183","0.0-71.0","AD1ILDUXZHASF","<p style=""font-size: 48px;"">+</p>","","","","","null","allTrialResponses","500","1","4","img_art/2.jpg","-12","seems too weird to me.","Dylan,Ethan,Sean,Tyler,Juan,Jorge","This is ugly- too plain and busy at the same time,-9,40,20","This looks like a professional abstract drawing. I like the shapes.,7,120,20","looks like a bunch of gibberish,-39,40,20","Grim and overwhelming,-6,320,20","I don't like the abstract nature of this painting or the colors used.,-50,260,20","Confused and disoriented,-33,180,20","Juan","I don't like the abstract nature of this painting or the colors used.,-50,260,20","Tyler","Grim and overwhelming,-6,320,20","Sean","looks like a bunch of gibberish,-39,40,20","2"
"6409","","survey-text","73","338600","0.0-72.0-0.0","AD1ILDUXZHASF","","","","{""Q0"":""Yikes. Too much""}","","","","","","","","","","","","","","","","","","","","","","",""
"3020.2999999523163","","image-slider-response","74","341624","0.0-73.0","AD1ILDUXZHASF","","","","","-7","","","","","","","","","","","","","","","","","","","","","",""
"2452","","image-button-response","75","346629","0.0-74.0","AD1ILDUXZHASF","img_art/9.jpg","4","","","","","","","","","","","","","","","","","","","","","","","","",""
"1542","","image-button-response","76","348177","0.0-75.0","AD1ILDUXZHASF","img_art/9.jpg","4","","","","","","","","","","","","","","","","","","","","","","","","",""
"363","","image-button-response","77","348554","0.0-76.0-0.0","AD1ILDUXZHASF","img_art/9.jpg","1","","","","","","","","","","","","","","","","","","","","","","","","",""
"1010","","image-button-response","78","349569","0.0-77.0-0.0","AD1ILDUXZHASF","img_art/9.jpg","2","","","","","","","","","","","","","","","","","","","","","","","","",""
"null","","html-keyboard-response","79","350572","0.0-78.0","AD1ILDUXZHASF","<p style=""font-size: 48px;"">+</p>","","","","","null","allTrialResponses","1000","1","5","img_art/9.jpg","-7","Yikes. Too much","Colton,Shane,Sean,Tyler,Juan,Victor","the colors are nice,6,220,20","Angry beast mouth,-37,80,20","Gives me anxiety,-23,40,20","No cohesive form whatsoever. Hard pass.,-31,320,20","It's too abstract for my taste. I wish there were more definition.,-9,260,20","The colors are okay, but this looks like someone scribbled with a crayon,1,340,20","Juan","It's too abstract for my taste. I wish there were more definition.,-9,260,20","Shane","Angry beast mouth,-37,80,20","Sean","Gives me anxiety,-23,40,20","2"
"3121","","survey-text","80","353704","0.0-79.0-0.0","AD1ILDUXZHASF","","","","{""Q0"":""sky""}","","","","","","","","","","","","","","","","","","","","","","",""
"10302","","survey-text","81","364008","0.0-80.0-0.0","AD1ILDUXZHASF","","","","{""Q0"":""I don't care for it. Too much""}","","","","","","","","","","","","","","","","","","","","","","",""
"2132.300000011921","","image-slider-response","82","366144","0.0-81.0","AD1ILDUXZHASF","","","","","-5","","","","","","","","","","","","","","","","","","","","","",""
"null","","image-button-response","83","371891","0.0-82.0","AD1ILDUXZHASF","img_art/28.jpg","null","","","","","","","","","","","","","","","","","","","","","","","","",""
"40064","","image-button-response","84","411961","0.0-83.0","AD1ILDUXZHASF","img_art/28.jpg","4","","","","","","","","","","","","","","","","","","","","","","","","",""
"1075","","image-button-response","85","413041","0.0-84.0-0.0","AD1ILDUXZHASF","img_art/28.jpg","3","","","","","","","","","","","","","","","","","","","","","","","","",""
"2035","","image-button-response","86","415080","0.0-85.0-0.0","AD1ILDUXZHASF","img_art/28.jpg","2","","","","","","","","","","","","","","","","","","","","","","","","",""
"null","","html-keyboard-response","87","416584","0.0-86.0","AD1ILDUXZHASF","<p style=""font-size: 48px;"">+</p>","","","","","null","allTrialResponses","1500","1","6","img_art/28.jpg","-5","I don't care for it. Too much","Jeffrey,Shane,Sean,Travis,Juan,Cameron","Nothing calls my attention,15,40,20","This is also something I would see in a serious but safe environment,14,80,20","it looks alright,-1,40,20","Hate it...brown and drab,-37,260,20","It's such a blah piece and way too abstract.,-50,260,20","dislike the colors. it looks like a bike, but misshapen wheels like it was wrecked.,-10,60,20","Juan","It's such a blah piece and way too abstract.,-50,260,20","Travis","Hate it...brown and drab,-37,260,20","Sean","it looks alright,-1,40,20","2"
"13880","","survey-text","88","430472","0.0-87.0-0.0","AD1ILDUXZHASF","","","","{""Q0"":""Looks like random colors on a canvas""}","","","","","","","","","","","","","","","","","","","","","","",""
"1300.199999988079","","image-slider-response","89","431776","0.0-88.0","AD1ILDUXZHASF","","","","","-9","","","","","","","","","","","","","","","","","","","","","",""
"3556","","image-button-response","90","436781","0.0-89.0","AD1ILDUXZHASF","img_art/21.jpg","2","","","","","","","","","","","","","","","","","","","","","","","","",""
"614","","image-button-response","91","437401","0.0-90.0","AD1ILDUXZHASF","img_art/21.jpg","2","","","","","","","","","","","","","","","","","","","","","","","","",""
"3283","","image-button-response","92","440689","0.0-91.0-0.0","AD1ILDUXZHASF","img_art/21.jpg","1","","","","","","","","","","","","","","","","","","","","","","","","",""
"315","","image-button-response","93","441009","0.0-92.0-0.0","AD1ILDUXZHASF","img_art/21.jpg","3","","","","","","","","","","","","","","","","","","","","","","","","",""
"null","","html-keyboard-response","94","442516","0.0-93.0","AD1ILDUXZHASF","<p style=""font-size: 48px;"">+</p>","","","","","null","allTrialResponses","1500","1","7","img_art/21.jpg","-9","Looks like random colors on a canvas","Kenneth,Edward,Sean,Travis,Juan,Luis","It actually reminded me of a place I've been to. So I had a positive reaction to it.,22,300,20","I love how vague it is but how you can imagine a story anyway, like clouds,45,60,20","my response to the picture is what is going on?,-13,40,20","I liked it...it looked like a storm raging.,12,260,20","The colors and softness work together to make something that's lovely.,42,260,20","I like the representation of love and hate in this,43,400,20","Sean","my response to the picture is what is going on?,-13,40,20","Edward","I love how vague it is but how you can imagine a story anyway, like clouds,45,60,20","Travis","I liked it...it looked like a storm raging.,12,260,20","2"
"13157","","survey-text","95","455681","0.0-94.0-0.0","AD1ILDUXZHASF","","","","{""Q0"":""Like rain on a flag. Very cool.""}","","","","","","","","","","","","","","","","","","","","","","",""
"2251.600000023842","","image-slider-response","96","457936","0.0-95.0","AD1ILDUXZHASF","","","","","45","","","","","","","","","","","","","","","","","","","","","",""
"null","","image-button-response","97","462941","0.0-96.0","AD1ILDUXZHASF","img_art/13.jpg","null","","","","","","","","","","","","","","","","","","","","","","","","",""
"240","","image-button-response","98","463184","0.0-97.0","AD1ILDUXZHASF","img_art/13.jpg","1","","","","","","","","","","","","","","","","","","","","","","","","",""
"1053","","image-button-response","99","464241","0.0-98.0-0.0","AD1ILDUXZHASF","img_art/13.jpg","3","","","","","","","","","","","","","","","","","","","","","","","","",""
"722","","image-button-response","100","464969","0.0-99.0-0.0","AD1ILDUXZHASF","img_art/13.jpg","0","","","","","","","","","","","","","","","","","","","","","","","","",""
"null","","html-keyboard-response","101","465972","0.0-100.0","AD1ILDUXZHASF","<p style=""font-size: 48px;"">+</p>","","","","","null","allTrialResponses","1000","1","8","img_art/13.jpg","45","Like rain on a flag. Very cool.","Derek,Edward,Sean,Travis,Garrett,Noah","This looks like a staple bedroom or bathroom piece,41,360,20","The colors are really pretty together,39,60,20","I like the colors,7,40,20","I love the colors and the texture,37,260,20","It looks like someone splattered a bunch of different colors to make a picture; I think its ugly.,-40,180,20","evokes a dampening feeling,-9,260,20","Edward","The colors are really pretty together,39,60,20","Travis","I love the colors and the texture,37,260,20","Derek","This looks like a staple bedroom or bathroom piece,41,360,20","2"
"14876","","survey-text","102","480855","0.0-101.0-0.0","AD1ILDUXZHASF","","","","{""Q0"":""Very cool. I like it a lot.""}","","","","","","","","","","","","","","","","","","","","","","",""
"1557.300000011921","","image-slider-response","103","482416","0.0-102.0","AD1ILDUXZHASF","","","","","22","","","","","","","","","","","","","","","","","","","","","",""
"2203","","image-button-response","104","487422","0.0-103.0","AD1ILDUXZHASF","img_art/8.jpg","3","","","","","","","","","","","","","","","","","","","","","","","","",""
"439","","image-button-response","105","487865","0.0-104.0","AD1ILDUXZHASF","img_art/8.jpg","0","","","","","","","","","","","","","","","","","","","","","","","","",""
"907","","image-button-response","106","488777","0.0-105.0-0.0","AD1ILDUXZHASF","img_art/8.jpg","3","","","","","","","","","","","","","","","","","","","","","","","","",""
"540","","image-button-response","107","489321","0.0-106.0-0.0","AD1ILDUXZHASF","img_art/8.jpg","2","","","","","","","","","","","","","","","","","","","","","","","","",""
"null","","html-keyboard-response","108","490324","0.0-107.0","AD1ILDUXZHASF","<p style=""font-size: 48px;"">+</p>","","","","","null","allTrialResponses","1000","1","9","img_art/8.jpg","22","Very cool. I like it a lot.","Derek,Edward,Mark,Travis,Spencer,Devon","It's simply gorgeous. This artist is very talented,50,360,20","It's too boxy for my taste,-10,60,20","The face makes me think its a statement of the almighty of big brother watching us. onfuCsion limits my enjoyment.,6,80,20","I like the colors and the scene.,24,260,20","Nice formats, I just don't like it much,-16,120,20","wow - the colors were very well mixed,12,400,20","Derek","It's simply gorgeous. This artist is very talented,50,360,20","Travis","I like the colors and the scene.,24,260,20","Mark","The face makes me think its a statement of the almighty of big brother watching us. onfuCsion limits my enjoyment.,6,80,20","2"
"10938","","survey-text","109","501272","0.0-108.0-0.0","AD1ILDUXZHASF","","","","{""Q0"":""Looks like spiders. I hate spiders!""}","","","","","","","","","","","","","","","","","","","","","","",""
"1861.199999988079","","image-slider-response","110","503136","0.0-109.0","AD1ILDUXZHASF","","","","","-31","","","","","","","","","","","","","","","","","","","","","",""
"null","","image-button-response","111","508140","0.0-110.0","AD1ILDUXZHASF","img_art/15.jpg","null","","","","","","","","","","","","","","","","","","","","","","","","",""
"658","","image-button-response","112","508801","0.0-111.0","AD1ILDUXZHASF","img_art/15.jpg","3","","","","","","","","","","","","","","","","","","","","","","","","",""
"5099","","image-button-response","113","513905","0.0-112.0-0.0","AD1ILDUXZHASF","img_art/15.jpg","2","","","","","","","","","","","","","","","","","","","","","","","","",""
"1154","","image-button-response","114","515065","0.0-113.0-0.0","AD1ILDUXZHASF","img_art/15.jpg","4","","","","","","","","","","","","","","","","","","","","","","","","",""
"null","","html-keyboard-response","115","516068","0.0-114.0","AD1ILDUXZHASF","<p style=""font-size: 48px;"">+</p>","","","","","null","allTrialResponses","1000","1","10","img_art/15.jpg","-31","Looks like spiders. I hate spiders!","Derek,Jeremy,Mark,Travis,Joshua,Gabriel","Although it looks a bit bland in terms of color, I really like the print/pattern,25,360,20","I feel nothing when looking at this,1,60,20","Chameleons on reeds. Nice but doesn't really make me feel anything.,11,80,20","Hate it...black dots.,-47,260,20","Like this for the colors and arrangement.,11,240,20","i kinda like this one but wouldnt buy it for myself,17,160,20","Travis","Hate it...black dots.,-47,260,20","Mark","Chameleons on reeds. Nice but doesn't really make me feel anything.,11,80,20","Joshua","Like this for the colors and arrangement.,11,240,20","2"
"9765","","survey-text","116","525848","0.0-115.0-0.0","AD1ILDUXZHASF","","","","{""Q0"":""our""}","","","","","","","","","","","","","","","","","","","","","","",""
"9799","","survey-text","117","535652","0.0-116.0-0.0","AD1ILDUXZHASF","","","","{""Q0"":""Interesting photo""}","","","","","","","","","","","","","","","","","","","","","","",""
"2527.199999988079","","image-slider-response","118","538183","0.0-117.0","AD1ILDUXZHASF","","","","","13","","","","","","","","","","","","","","","","","","","","","",""
"4827","","image-button-response","119","543188","0.0-118.0","AD1ILDUXZHASF","img_art/20.jpg","4","","","","","","","","","","","","","","","","","","","","","","","","",""
"824","","image-button-response","120","544017","0.0-119.0","AD1ILDUXZHASF","img_art/20.jpg","4","","","","","","","","","","","","","","","","","","","","","","","","",""
"275","","image-button-response","121","544297","0.0-120.0-0.0","AD1ILDUXZHASF","img_art/20.jpg","3","","","","","","","","","","","","","","","","","","","","","","","","",""
"436","","image-button-response","122","544736","0.0-121.0-0.0","AD1ILDUXZHASF","img_art/20.jpg","1","","","","","","","","","","","","","","","","","","","","","","","","",""
"null","","html-keyboard-response","123","545740","0.0-122.0","AD1ILDUXZHASF","<p style=""font-size: 48px;"">+</p>","","","","","null","allTrialResponses","1000","1","11","img_art/20.jpg","13","Interesting photo","Alexis,Caleb,Mark,Travis,Joshua,Steven","it is a bit disturbing, like a monster or ghost floating away from a bleak building,-8,140,20","Lovely composition, colors, and message.,35,40,20","Reminds me of persistance of time (a favorite of mine).,30,80,20","I liked this...I liked the blue and the black and I liked the smoothness to it.,31,260,20","Reminds me of the Southwest; i.e. New Mexico or Arizona. It's interesting.,12,240,20","It's okay, I see what looks like a truck laying on it's side. Meh,10,160,20","Joshua","Reminds me of the Southwest; i.e. New Mexico or Arizona. It's interesting.,12,240,20","Travis","I liked this...I liked the blue and the black and I liked the smoothness to it.,31,260,20","Caleb","Lovely composition, colors, and message.,35,40,20","2"
"19508","","survey-text","124","565258","0.0-123.0-0.0","AD1ILDUXZHASF","","","","{""Q0"":""Looks like buildings getting destroyed.""}","","","","","","","","","","","","","","","","","","","","","","",""
"8451.199999988079","","image-slider-response","125","573721","0.0-124.0","AD1ILDUXZHASF","","","","","-4","","","","","","","","","","","","","","","","","","","","","",""
"null","","image-button-response","126","578725","0.0-125.0","AD1ILDUXZHASF","img_art/10.jpg","null","","","","","","","","","","","","","","","","","","","","","","","","",""
"3839","","image-button-response","127","582569","0.0-126.0","AD1ILDUXZHASF","img_art/10.jpg","3","","","","","","","","","","","","","","","","","","","","","","","","",""
"684","","image-button-response","128","583257","0.0-127.0-0.0","AD1ILDUXZHASF","img_art/10.jpg","0","","","","","","","","","","","","","","","","","","","","","","","","",""
"715","","image-button-response","129","583977","0.0-128.0-0.0","AD1ILDUXZHASF","img_art/10.jpg","4","","","","","","","","","","","","","","","","","","","","","","","","",""
"null","","html-keyboard-response","130","584480","0.0-129.0","AD1ILDUXZHASF","<p style=""font-size: 48px;"">+</p>","","","","","null","allTrialResponses","500","1","12","img_art/10.jpg","-4","Looks like buildings getting destroyed.","Shawn,Caleb,Bryce,Travis,Joshua,Michael","Don't like the colorblock but the lines are nice,-20,100,20","This is a scribble of a mad man. Appears low effort.,-33,40,20","Kinda creepy not my favorite,-26,20,20","I liked it...it looked somewhat like a guitar.,32,260,20","This one is interesting. I like it.,11,240,20","Ugly and low skill. I wouldn't want it.,-50,140,20","Travis","I liked it...it looked somewhat like a guitar.,32,260,20","Shawn","Don't like the colorblock but the lines are nice,-20,100,20","Joshua","This one is interesting. I like it.,11,240,20","2"
"8837","","survey-text","131","593328","0.0-130.0-0.0","AD1ILDUXZHASF","","","","{""Q0"":""I don't like the colors.""}","","","","","","","","","","","","","","","","","","","","","","",""
"2379.399999976158","","image-slider-response","132","595713","0.0-131.0","AD1ILDUXZHASF","","","","","-11","","","","","","","","","","","","","","","","","","","","","",""
"null","","image-button-response","133","600717","0.0-132.0","AD1ILDUXZHASF","img_art/19.jpg","null","","","","","","","","","","","","","","","","","","","","","","","","",""
"1185","","image-button-response","134","601905","0.0-133.0","AD1ILDUXZHASF","img_art/19.jpg","3","","","","","","","","","","","","","","","","","","","","","","","","",""
"916","","image-button-response","135","602825","0.0-134.0-0.0","AD1ILDUXZHASF","img_art/19.jpg","4","","","","","","","","","","","","","","","","","","","","","","","","",""
"849","","image-button-response","136","603681","0.0-135.0-0.0","AD1ILDUXZHASF","img_art/19.jpg","5","","","","","","","","","","","","","","","","","","","","","","","","",""
"null","","html-keyboard-response","137","605186","0.0-136.0","AD1ILDUXZHASF","<p style=""font-size: 48px;"">+</p>","","","","","null","allTrialResponses","1500","1","13","img_art/19.jpg","-11","I don't like the colors.","Shawn,Thomas,Lucas,Travis,Joshua,Andrew","The use of space isn't my favorite.,-20,100,20","I like this as a whole, but the longer I look at it, the less it pleases me,-10,220,20","I can see kind of beach and sea full of people and buildings.,25,380,20","Nuetral...can't think of anything to say,4,260,20","Just don't like this one.,-9,240,20","It reminds me of sitting at a cafe on the side of a river.,45,160,20","Travis","Nuetral...can't think of anything to say,4,260,20","Joshua","Just don't like this one.,-9,240,20","Andrew","It reminds me of sitting at a cafe on the side of a river.,45,160,20","2"
"14182","","survey-text","138","619375","0.0-137.0-0.0","AD1ILDUXZHASF","","","","{""Q0"":""alien in nature?""}","","","","","","","","","","","","","","","","","","","","","","",""
"3717.199999988079","","image-slider-response","139","623096","0.0-138.0","AD1ILDUXZHASF","","","","","13","","","","","","","","","","","","","","","","","","","","","",""
"null","","image-button-response","140","628100","0.0-139.0","AD1ILDUXZHASF","img_art/25.jpg","null","","","","","","","","","","","","","","","","","","","","","","","","",""
"4921","","image-button-response","141","633024","0.0-140.0","AD1ILDUXZHASF","img_art/25.jpg","2","","","","","","","","","","","","","","","","","","","","","","","","",""
"761","","image-button-response","142","633789","0.0-141.0-0.0","AD1ILDUXZHASF","img_art/25.jpg","5","","","","","","","","","","","","","","","","","","","","","","","","",""
"478","","image-button-response","143","634273","0.0-142.0-0.0","AD1ILDUXZHASF","img_art/25.jpg","4","","","","","","","","","","","","","","","","","","","","","","","","",""
"null","","html-keyboard-response","144","635277","0.0-143.0","AD1ILDUXZHASF","<p style=""font-size: 48px;"">+</p>","","","","","null","allTrialResponses","1000","1","14","img_art/25.jpg","13","alien in nature?","Blake,Bradley,Stephen,Travis,Joshua,Andrew","ugly color and very sad old lady,-45,280,20","This one just has a dark feeling to me.,-50,300,20","It's nice but nothing special.,7,140,20","I hate the colors and the scene,-46,260,20","Looks like a voodoo figure in a New Orleans cemetery at night.,-5,240,20","It makes me feel a little uneasy, but I like the painting,11,160,20","Stephen","It's nice but nothing special.,7,140,20","Andrew","It makes me feel a little uneasy, but I like the painting,11,160,20","Joshua","Looks like a voodoo figure in a New Orleans cemetery at night.,-5,240,20","2"
"12138","","survey-text","145","647424","0.0-144.0-0.0","AD1ILDUXZHASF","","","","{""Q0"":""A tree in a building? Neat photo""}","","","","","","","","","","","","","","","","","","","","","","",""
"2788.199999988079","","image-slider-response","146","650216","0.0-145.0","AD1ILDUXZHASF","","","","","11","","","","","","","","","","","","","","","","","","","","","",""
"null","","image-button-response","147","655220","0.0-146.0","AD1ILDUXZHASF","img_art/17.jpg","null","","","","","","","","","","","","","","","","","","","","","","","","",""
"4923","","image-button-response","148","660147","0.0-147.0","AD1ILDUXZHASF","img_art/17.jpg","2","","","","","","","","","","","","","","","","","","","","","","","","",""
"281","","image-button-response","149","660433","0.0-148.0-0.0","AD1ILDUXZHASF","img_art/17.jpg","5","","","","","","","","","","","","","","","","","","","","","","","","",""
"931","","image-button-response","150","661369","0.0-149.0-0.0","AD1ILDUXZHASF","img_art/17.jpg","1","","","","","","","","","","","","","","","","","","","","","","","","",""
"null","","html-keyboard-response","151","662375","0.0-150.0","AD1ILDUXZHASF","<p style=""font-size: 48px;"">+</p>","","","","","null","allTrialResponses","1000","1","15","img_art/17.jpg","11","A tree in a building? Neat photo","Vincent,Miguel,Stephen,Joseph,Joshua,Andrew","Another favorite a relaxing day with nature a day to take it all In,34,360,20","Looks awesome .,33,160,20","I like the colorfulness.,17,140,20","I like the way the forest is taking over the buildings.,21,220,20","Looks like an abandoned building that is being overtaken by nature.,-10,240,20","A very inspiring piece,41,160,20","Stephen","I like the colorfulness.,17,140,20","Andrew","A very inspiring piece,41,160,20","Miguel","Looks awesome .,33,160,20","2"
"5923","","survey-text","152","668312","0.0-151.0-0.0","AD1ILDUXZHASF","","","","{""Q0"":""course""}","","","","","","","","","","","","","","","","","","","","","","",""
"9325","","survey-text","153","677641","0.0-152.0-0.0","AD1ILDUXZHASF","","","","{""Q0"":""Looks like poop and pee.""}","","","","","","","","","","","","","","","","","","","","","","",""
"2476.2000000476837","","image-slider-response","154","680121","0.0-153.0","AD1ILDUXZHASF","","","","","-50","","","","","","","","","","","","","","","","","","","","","",""
"null","","image-button-response","155","685125","0.0-154.0","AD1ILDUXZHASF","img_art/4.jpg","null","","","","","","","","","","","","","","","","","","","","","","","","",""
"984","","image-button-response","156","686112","0.0-155.0","AD1ILDUXZHASF","img_art/4.jpg","2","","","","","","","","","","","","","","","","","","","","","","","","",""
"988","","image-button-response","157","687105","0.0-156.0-0.0","AD1ILDUXZHASF","img_art/4.jpg","4","","","","","","","","","","","","","","","","","","","","","","","","",""
"357","","image-button-response","158","687465","0.0-157.0-0.0","AD1ILDUXZHASF","img_art/4.jpg","1","","","","","","","","","","","","","","","","","","","","","","","","",""
"null","","html-keyboard-response","159","687968","0.0-158.0","AD1ILDUXZHASF","<p style=""font-size: 48px;"">+</p>","","","","","null","allTrialResponses","500","1","16","img_art/4.jpg","-50","Looks like poop and pee.","Jordan,Miguel,Stephen,Grant,James,Andrew","A hand reaching for something it cannot obtain,-9,160,20","I don't like murky colors.,-40,160,20","Just doesn't look nice.,-40,140,20","This elicits no reaction in me.,0,200,20","Really don't care for the yellowish brown color in the center.,-19,380,20","Reminds me of a first place trophy,30,160,20","Stephen","Just doesn't look nice.,-40,140,20","James","Really don't care for the yellowish brown color in the center.,-19,380,20","Miguel","I don't like murky colors.,-40,160,20","2"
"11825","","survey-text","160","699800","0.0-159.0-0.0","AD1ILDUXZHASF","","","","{""Q0"":""random colors.""}","","","","","","","","","","","","","","","","","","","","","","",""
"3459.699999988079","","image-slider-response","161","703263","0.0-160.0","AD1ILDUXZHASF","","","","","-3","","","","","","","","","","","","","","","","","","","","","",""
"null","","image-button-response","162","708268","0.0-161.0","AD1ILDUXZHASF","img_art/22.jpg","null","","","","","","","","","","","","","","","","","","","","","","","","",""
"24360","","image-button-response","163","732634","0.0-162.0","AD1ILDUXZHASF","img_art/22.jpg","3","","","","","","","","","","","","","","","","","","","","","","","","",""
"1623","","image-button-response","164","734265","0.0-163.0-0.0","AD1ILDUXZHASF","img_art/22.jpg","2","","","","","","","","","","","","","","","","","","","","","","","","",""
"219","","image-button-response","165","734490","0.0-164.0-0.0","AD1ILDUXZHASF","img_art/22.jpg","5","","","","","","","","","","","","","","","","","","","","","","","","",""
"null","","html-keyboard-response","166","735995","0.0-165.0","AD1ILDUXZHASF","<p style=""font-size: 48px;"">+</p>","","","","","null","allTrialResponses","1500","1","17","img_art/22.jpg","-3","random colors.","Angel,Miguel,Stephen,Bryan,James,Daniel","This piece gives off a cool vibe. Reminds me of being out in the city at night.,20,180,20","Same az the last one?,-49,160,20","Didn't illicit any reaction,1,140,20","Love vibrant colors & the abstractness.,43,400,20","Like the black key and the rainbow color theme.,31,380,20","Organic sun spot on a flexible grid,18,320,20","Bryan","Love vibrant colors & the abstractness.,43,400,20","Stephen","Didn't illicit any reaction,1,140,20","Daniel","Organic sun spot on a flexible grid,18,320,20","2"
"8753","","survey-text","167","744756","0.0-166.0-0.0","AD1ILDUXZHASF","","","","{""Q0"":""A bird in a desert? Looks neat to me.""}","","","","","","","","","","","","","","","","","","","","","","",""
"2423.899999976158","","image-slider-response","168","747184","0.0-167.0","AD1ILDUXZHASF","","","","","24","","","","","","","","","","","","","","","","","","","","","",""
"3747","","image-button-response","169","752188","0.0-168.0","AD1ILDUXZHASF","img_art/6.jpg","5","","","","","","","","","","","","","","","","","","","","","","","","",""
"1304","","image-button-response","170","753497","0.0-169.0","AD1ILDUXZHASF","img_art/6.jpg","5","","","","","","","","","","","","","","","","","","","","","","","","",""
"986","","image-button-response","171","754489","0.0-170.0-0.0","AD1ILDUXZHASF","img_art/6.jpg","1","","","","","","","","","","","","","","","","","","","","","","","","",""
"624","","image-button-response","172","755121","0.0-171.0-0.0","AD1ILDUXZHASF","img_art/6.jpg","4","","","","","","","","","","","","","","","","","","","","","","","","",""
"null","","html-keyboard-response","173","755626","0.0-172.0","AD1ILDUXZHASF","<p style=""font-size: 48px;"">+</p>","","","","","null","allTrialResponses","500","1","18","img_art/6.jpg","24","A bird in a desert? Looks neat to me.","Marcus,Dakota,Stephen,Bryan,Scott,Daniel","I like the orange color, and I don't know why but I like this piece.,22,60,20","graceful and light,35,280,20","Good painting but too simple to care about it for very long.,-15,140,20","Growth in the desert?  Don't care for it very much.,-26,400,20","reminds me of a bird,31,20,20","Odd desert, nice sand color with headless bird,11,320,20","Daniel","Odd desert, nice sand color with headless bird,11,320,20","Dakota","graceful and light,35,280,20","Scott","reminds me of a bird,31,20,20","2"
"7086","","survey-text","174","762723","0.0-173.0-0.0","AD1ILDUXZHASF","","","","{""Q0"":""random colors on a canvas""}","","","","","","","","","","","","","","","","","","","","","","",""
"1730.0999999642372","","image-slider-response","175","764457","0.0-174.0","AD1ILDUXZHASF","","","","","-14","","","","","","","","","","","","","","","","","","","","","",""
"4146","","image-button-response","176","769463","0.0-175.0","AD1ILDUXZHASF","img_art/1.jpg","2","","","","","","","","","","","","","","","","","","","","","","","","",""
"590","","image-button-response","177","770057","0.0-176.0","AD1ILDUXZHASF","img_art/1.jpg","2","","","","","","","","","","","","","","","","","","","","","","","","",""
"573","","image-button-response","178","770632","0.0-177.0-0.0","AD1ILDUXZHASF","img_art/1.jpg","3","","","","","","","","","","","","","","","","","","","","","","","","",""
"385","","image-button-response","179","771025","0.0-178.0-0.0","AD1ILDUXZHASF","img_art/1.jpg","4","","","","","","","","","","","","","","","","","","","","","","","","",""
"null","","html-keyboard-response","180","772527","0.0-179.0","AD1ILDUXZHASF","<p style=""font-size: 48px;"">+</p>","","","","","null","allTrialResponses","1500","1","19","img_art/1.jpg","-14","random colors on a canvas","Samuel,Dakota,Brandon,Taylor,Scott,Daniel","feels like there is meaning,9,400,20","soft and touchable, muddled,15,280,20","Taco Bell wallpaper. Doesn't really make me feel anything,3,320,20","Deja vu. Haven't I seen this one before? Not bad for those living in the backwoods.,10,200,20","good colors and contrast,31,20,20","Nice colors with some 3D effects,15,320,20","Brandon","Taco Bell wallpaper. Doesn't really make me feel anything,3,320,20","Taylor","Deja vu. Haven't I seen this one before? Not bad for those living in the backwoods.,10,200,20","Scott","good colors and contrast,31,20,20","2"
"30427","","survey-text","181","802966","0.0-180.0-0.0","AD1ILDUXZHASF","","","","{""Q0"":""a tree in Africa?""}","","","","","","","","","","","","","","","","","","","","","","",""
"4414.5","","image-slider-response","182","807384","0.0-181.0","AD1ILDUXZHASF","","","","","4","","","","","","","","","","","","","","","","","","","","","",""
"4116","","image-button-response","183","812388","0.0-182.0","AD1ILDUXZHASF","img_art/14.jpg","5","","","","","","","","","","","","","","","","","","","","","","","","",""
"585","","image-button-response","184","812977","0.0-183.0","AD1ILDUXZHASF","img_art/14.jpg","5","","","","","","","","","","","","","","","","","","","","","","","","",""
"315","","image-button-response","185","813297","0.0-184.0-0.0","AD1ILDUXZHASF","img_art/14.jpg","4","","","","","","","","","","","","","","","","","","","","","","","","",""
"1099","","image-button-response","186","814401","0.0-185.0-0.0","AD1ILDUXZHASF","img_art/14.jpg","3","","","","","","","","","","","","","","","","","","","","","","","","",""
"null","","html-keyboard-response","187","815904","0.0-186.0","AD1ILDUXZHASF","<p style=""font-size: 48px;"">+</p>","","","","","null","allTrialResponses","1500","1","20","img_art/14.jpg","4","a tree in Africa?","Ian,Matthew,Brandon,Taylor,Scott,Brendan","This just looks like a kids watercolor painting.,-30,260,20","I like the color tone, it's kind of disturbing.,35,120,20","Don't like the colors on this. Too simple,-20,320,20","Are they blowing up a tree?,-5,200,20","its okay nothing special,11,20,20","it looks like a tree on desert,23,340,20","Brendan","it looks like a tree on desert,23,340,20","Scott","its okay nothing special,11,20,20","Taylor","Are they blowing up a tree?,-5,200,20","2"
"1961","","survey-text","188","817880","0.0-187.0-0.0","AD1ILDUXZHASF","","","","{""Q0"":""we""}","","","","","","","","","","","","","","","","","","","","","","",""
"7335","","survey-text","189","825218","0.0-188.0-0.0","AD1ILDUXZHASF","","","","{""Q0"":""Crossed out bad photo?""}","","","","","","","","","","","","","","","","","","","","","","",""
"2243.199999988079","","image-slider-response","190","827464","0.0-189.0","AD1ILDUXZHASF","","","","","-16","","","","","","","","","","","","","","","","","","","","","",""
"null","","image-button-response","191","832468","0.0-190.0","AD1ILDUXZHASF","img_art/29.jpg","null","","","","","","","","","","","","","","","","","","","","","","","","",""
"1560","","image-button-response","192","834033","0.0-191.0","AD1ILDUXZHASF","img_art/29.jpg","0","","","","","","","","","","","","","","","","","","","","","","","","",""
"524","","image-button-response","193","834561","0.0-192.0-0.0","AD1ILDUXZHASF","img_art/29.jpg","3","","","","","","","","","","","","","","","","","","","","","","","","",""
"411","","image-button-response","194","834977","0.0-193.0-0.0","AD1ILDUXZHASF","img_art/29.jpg","1","","","","","","","","","","","","","","","","","","","","","","","","",""
"null","","html-keyboard-response","195","836480","0.0-194.0","AD1ILDUXZHASF","<p style=""font-size: 48px;"">+</p>","","","","","null","allTrialResponses","1500","1","21","img_art/29.jpg","-16","Crossed out bad photo?","Jason,Devin,Anthony,Taylor,Scott,Brendan","I do not like the red x present in the picture,-6,20,20","Looks a bit messy,-13,380,20","Very interesting composition,41,200,20","I would give up and give it a red X too.,-5,200,20","feels random and not thoughtout,-37,20,20","it looks like a prison,-33,340,20","Jason","I do not like the red x present in the picture,-6,20,20","Taylor","I would give up and give it a red X too.,-5,200,20","Devin","Looks a bit messy,-13,380,20","2"
"8446","","survey-text","196","844935","0.0-195.0-0.0","AD1ILDUXZHASF","","","","{""Q0"":""slice of life?""}","","","","","","","","","","","","","","","","","","","","","","",""
"2604.5","","image-slider-response","197","847543","0.0-196.0","AD1ILDUXZHASF","","","","","4","","","","","","","","","","","","","","","","","","","","","",""
"null","","image-button-response","198","852891","0.0-197.0","AD1ILDUXZHASF","img_art/26.jpg","null","","","","","","","","","","","","","","","","","","","","","","","","",""
"18266","","image-button-response","199","871161","0.0-198.0","AD1ILDUXZHASF","img_art/26.jpg","4","","","","","","","","","","","","","","","","","","","","","","","","",""
"1388","","image-button-response","200","872553","0.0-199.0-0.0","AD1ILDUXZHASF","img_art/26.jpg","0","","","","","","","","","","","","","","","","","","","","","","","","",""
"2108","","image-button-response","201","874665","0.0-200.0-0.0","AD1ILDUXZHASF","img_art/26.jpg","1","","","","","","","","","","","","","","","","","","","","","","","","",""
"null","","html-keyboard-response","202","875168","0.0-201.0","AD1ILDUXZHASF","<p style=""font-size: 48px;"">+</p>","","","","","null","allTrialResponses","500","1","22","img_art/26.jpg","4","slice of life?","Jason,Devin,Robert,Taylor,David,Antonio","The colors look faded and blurry,2,20,20","I like the shapes but needs more detail i think,3,380,20","Day just begun in the city and the stores are opening their doors.,41,360,20","At least it is a bit of scenery.,10,200,20","The piece doesn't really invoke anything for me.,0,340,20","Calming and relaxing,28,220,20","David","The piece doesn't really invoke anything for me.,0,340,20","Jason","The colors look faded and blurry,2,20,20","Devin","I like the shapes but needs more detail i think,3,380,20","2"
"13612","","survey-text","203","888788","0.0-202.0-0.0","AD1ILDUXZHASF","","","","{""Q0"":""An eye in chaos?""}","","","","","","","","","","","","","","","","","","","","","","",""
"3632.400000035763","","image-slider-response","204","892424","0.0-203.0","AD1ILDUXZHASF","","","","","13","","","","","","","","","","","","","","","","","","","","","",""
"null","","image-button-response","205","897428","0.0-204.0","AD1ILDUXZHASF","img_art/23.jpg","null","","","","","","","","","","","","","","","","","","","","","","","","",""
"665","","image-button-response","206","898097","0.0-205.0","AD1ILDUXZHASF","img_art/23.jpg","2","","","","","","","","","","","","","","","","","","","","","","","","",""
"1380","","image-button-response","207","899481","0.0-206.0-0.0","AD1ILDUXZHASF","img_art/23.jpg","4","","","","","","","","","","","","","","","","","","","","","","","","",""
"291","","image-button-response","208","899776","0.0-207.0-0.0","AD1ILDUXZHASF","img_art/23.jpg","1","","","","","","","","","","","","","","","","","","","","","","","","",""
"null","","html-keyboard-response","209","901279","0.0-208.0","AD1ILDUXZHASF","<p style=""font-size: 48px;"">+</p>","","","","","null","allTrialResponses","1500","1","23","img_art/23.jpg","13","An eye in chaos?","Jason,Devin,Cole,John,David,Richard","Interesting contrast,9,20,20","background is great but the white is a bit weird,3,380,20","White in the middle look like people dancing naked,19,200,20","Very bright and eye catching.The White silhouettes remind me of people celebrating.,31,120,20","I like the symmetrical design and how it portrays the liveliness of a musical environment.,30,340,20","it's OK, but just OK, kind of interesting but I wouldn't spend money on it,4,340,20","Cole","White in the middle look like people dancing naked,19,200,20","David","I like the symmetrical design and how it portrays the liveliness of a musical environment.,30,340,20","Devin","background is great but the white is a bit weird,3,380,20","2"
"7683","","survey-text","210","908971","0.0-209.0-0.0","AD1ILDUXZHASF","","","","{""Q0"":""too creepy""}","","","","","","","","","","","","","","","","","","","","","","",""
"2417.399999976158","","image-slider-response","211","911392","0.0-210.0","AD1ILDUXZHASF","","","","","-20","","","","","","","","","","","","","","","","","","","","","",""
"null","","image-button-response","212","916396","0.0-211.0","AD1ILDUXZHASF","img_art/16.jpg","null","","","","","","","","","","","","","","","","","","","","","","","","",""
"73","","image-button-response","213","916473","0.0-212.0","AD1ILDUXZHASF","img_art/16.jpg","4","","","","","","","","","","","","","","","","","","","","","","","","",""
"540","","image-button-response","214","917017","0.0-213.0-0.0","AD1ILDUXZHASF","img_art/16.jpg","3","","","","","","","","","","","","","","","","","","","","","","","","",""
"1289","","image-button-response","215","918313","0.0-214.0-0.0","AD1ILDUXZHASF","img_art/16.jpg","5","","","","","","","","","","","","","","","","","","","","","","","","",""
"null","","html-keyboard-response","216","919315","0.0-215.0","AD1ILDUXZHASF","<p style=""font-size: 48px;"">+</p>","","","","","null","allTrialResponses","1000","1","24","img_art/16.jpg","-20","too creepy","Carlos,Devin,Cole,Trevor,David,Christian","Why is that bear there? It looks like it would be gross to touch. The texture bothers me.,-20,80,20","That bear looks unfitting!,-8,380,20","Weird mixed media piece,-50,200,20","very creepy with a bear and a gun,-50,280,20","The colored teddy bear clashes with the color scheme.,-20,340,20","don't know how to feel, I mean I respect it but I honestly don't know about this,-12,140,20","David","The colored teddy bear clashes with the color scheme.,-20,340,20","Trevor","very creepy with a bear and a gun,-50,280,20","Christian","don't know how to feel, I mean I respect it but I honestly don't know about this,-12,140,20","2"
"6634","","survey-text","217","925957","0.0-216.0-0.0","AD1ILDUXZHASF","","","","{""Q0"":""nice calm water fall""}","","","","","","","","","","","","","","","","","","","","","","",""
"3431.600000023842","","image-slider-response","218","929392","0.0-217.0","AD1ILDUXZHASF","","","","","40","","","","","","","","","","","","","","","","","","","","","",""
"4661","","image-button-response","219","934396","0.0-218.0","AD1ILDUXZHASF","img_art/24.jpg","0","","","","","","","","","","","","","","","","","","","","","","","","",""
"601","","image-button-response","220","935000","0.0-219.0","AD1ILDUXZHASF","img_art/24.jpg","0","","","","","","","","","","","","","","","","","","","","","","","","",""
"245","","image-button-response","221","935248","0.0-220.0-0.0","AD1ILDUXZHASF","img_art/24.jpg","3","","","","","","","","","","","","","","","","","","","","","","","","",""
"332","","image-button-response","222","935585","0.0-221.0-0.0","AD1ILDUXZHASF","img_art/24.jpg","4","","","","","","","","","","","","","","","","","","","","","","","","",""
"null","","html-keyboard-response","223","936087","0.0-222.0","AD1ILDUXZHASF","<p style=""font-size: 48px;"">+</p>","","","","","null","allTrialResponses","500","1","25","img_art/24.jpg","40","nice calm water fall","Mason,Adam,Kyle,Trevor,David,Christian","Nature, abstract, I'd hang this in my house.,37,100,20","I appreciate the earth tones. Soothing.,5,40,20","This one is nice because it reminds me of nature,18,340,20","I like how it looks like a waterfall in an exotic place,50,280,20","Invokes a strong sense of nature, since the piece can interpreted as a stream or an abstracted bird.,40,340,20","organized mess at first glance, would love to inspect this in closer proximity,39,140,20","Mason","Nature, abstract, I'd hang this in my house.,37,100,20","Trevor","I like how it looks like a waterfall in an exotic place,50,280,20","David","Invokes a strong sense of nature, since the piece can interpreted as a stream or an abstracted bird.,40,340,20","2"
"3301","","survey-text","224","939409","0.0-223.0-0.0","AD1ILDUXZHASF","","","","{""Q0"":""table""}","","","","","","","","","","","","","","","","","","","","","","",""
"6998","","survey-text","225","946410","0.0-224.0-0.0","AD1ILDUXZHASF","","","","{""Q0"":""random red streaks on white""}","","","","","","","","","","","","","","","","","","","","","","",""
"2754.800000011921","","image-slider-response","226","949167","0.0-225.0","AD1ILDUXZHASF","","","","","3","","","","","","","","","","","","","","","","","","","","","",""
"null","","image-button-response","227","954174","0.0-226.0","AD1ILDUXZHASF","img_art/3.jpg","null","","","","","","","","","","","","","","","","","","","","","","","","",""
"13911","","image-button-response","228","968089","0.0-227.0","AD1ILDUXZHASF","img_art/3.jpg","4","","","","","","","","","","","","","","","","","","","","","","","","",""
"1315","","image-button-response","229","969408","0.0-228.0-0.0","AD1ILDUXZHASF","img_art/3.jpg","1","","","","","","","","","","","","","","","","","","","","","","","","",""
"388","","image-button-response","230","969801","0.0-229.0-0.0","AD1ILDUXZHASF","img_art/3.jpg","3","","","","","","","","","","","","","","","","","","","","","","","","",""
"null","","html-keyboard-response","231","970303","0.0-230.0","AD1ILDUXZHASF","<p style=""font-size: 48px;"">+</p>","","","","","null","allTrialResponses","500","1","26","img_art/3.jpg","3","random red streaks on white","Mason,Hunter,Tristan,Trevor,David,Gregory","scribbles in red. 2 minute piece.,-30,100,20","strong color, interesting negative shapes,21,240,20","i like the colors particulairly the contrast of foreground to background. Exciting and thoughtful.,10,300,20","looks more classic but i'm not a fan of the colors,7,280,20","No clue what I'm looking. This just looks a series of scribbles in a box.,-20,340,20","Looks like somebody squirted ketchup everywhere,-40,220,20","David","No clue what I'm looking. This just looks a series of scribbles in a box.,-20,340,20","Hunter","strong color, interesting negative shapes,21,240,20","Trevor","looks more classic but i'm not a fan of the colors,7,280,20","2"
"14281","","survey-text","232","984597","0.0-231.0-0.0","AD1ILDUXZHASF","","","","{""Q0"":""cheese?""}","","","","","","","","","","","","","","","","","","","","","","",""
"17551.900000035763","","image-slider-response","233","1002152","0.0-232.0","AD1ILDUXZHASF","","","","","-9","","","","","","","","","","","","","","","","","","","","","",""
"3083","","image-button-response","234","1007156","0.0-233.0","AD1ILDUXZHASF","img_art/5.jpg","2","","","","","","","","","","","","","","","","","","","","","","","","",""
"401","","image-button-response","235","1007561","0.0-234.0","AD1ILDUXZHASF","img_art/5.jpg","5","","","","","","","","","","","","","","","","","","","","","","","","",""
"365","","image-button-response","236","1007928","0.0-235.0-0.0","AD1ILDUXZHASF","img_art/5.jpg","1","","","","","","","","","","","","","","","","","","","","","","","","",""
"324","","image-button-response","237","1008257","0.0-236.0-0.0","AD1ILDUXZHASF","img_art/5.jpg","2","","","","","","","","","","","","","","","","","","","","","","","","",""
"null","","html-keyboard-response","238","1009259","0.0-237.0","AD1ILDUXZHASF","<p style=""font-size: 48px;"">+</p>","","","","","null","allTrialResponses","1000","1","27","img_art/5.jpg","-9","cheese?","Seth,Hunter,Patrick,Trevor,David,Charles","I didn't care for this art piece. I wasn't sure about the color choice.,-15,60,20","strong appeal in contrast,27,240,20","It looks random,-10,280,20","looks like a little kids painting,-50,280,20","I like the simplicity of the design, but I can't tell what the image is trying to depict.,10,340,20","It feels positive and kind of uplifting,24,100,20","Charles","It feels positive and kind of uplifting,24,100,20","Hunter","strong appeal in contrast,27,240,20","Patrick","It looks random,-10,280,20","2"
"10636","","survey-text","239","1019906","0.0-238.0-0.0","AD1ILDUXZHASF","","","","{""Q0"":""random""}","","","","","","","","","","","","","","","","","","","","","","",""
"2458.2000000476837","","image-slider-response","240","1022368","0.0-239.0","AD1ILDUXZHASF","","","","","-2","","","","","","","","","","","","","","","","","","","","","",""
"4885","","image-button-response","241","1027371","0.0-240.0","AD1ILDUXZHASF","img_art/27.jpg","5","","","","","","","","","","","","","","","","","","","","","","","","",""
"1402","","image-button-response","242","1028777","0.0-241.0","AD1ILDUXZHASF","img_art/27.jpg","5","","","","","","","","","","","","","","","","","","","","","","","","",""
"283","","image-button-response","243","1029064","0.0-242.0-0.0","AD1ILDUXZHASF","img_art/27.jpg","2","","","","","","","","","","","","","","","","","","","","","","","","",""
"324","","image-button-response","244","1029393","0.0-243.0-0.0","AD1ILDUXZHASF","img_art/27.jpg","4","","","","","","","","","","","","","","","","","","","","","","","","",""
"null","","html-keyboard-response","245","1030396","0.0-244.0","AD1ILDUXZHASF","<p style=""font-size: 48px;"">+</p>","","","","","null","allTrialResponses","1000","1","28","img_art/27.jpg","-2","random","Logan,Hunter,Patrick,Alejandro,Jonathan,Charles","demon vs angel brawl over lemon lime sprite,-10,360,20","reminds me of kandinsky,10,240,20","Not cohesive design,-31,280,20","Muddied and directionless. Like someone dragged a brush across the paper for the sake of doing something.,-50,80,20","Very cool colors and I like the contrast of lights and darks,30,140,20","Nothing stands out,-23,100,20","Charles","Nothing stands out,-23,100,20","Patrick","Not cohesive design,-31,280,20","Jonathan","Very cool colors and I like the contrast of lights and darks,30,140,20","2"
"8093","","survey-text","246","1038501","0.0-245.0-0.0","AD1ILDUXZHASF","","","","{""Q0"":""Looks like bird poop on leaves""}","","","","","","","","","","","","","","","","","","","","","","",""
"2255.300000011921","","image-slider-response","247","1040760","0.0-246.0","AD1ILDUXZHASF","","","","","-43","","","","","","","","","","","","","","","","","","","","","",""
"null","","image-button-response","248","1045764","0.0-247.0","AD1ILDUXZHASF","img_art/7.jpg","null","","","","","","","","","","","","","","","","","","","","","","","","",""
"762","","image-button-response","249","1046529","0.0-248.0","AD1ILDUXZHASF","img_art/7.jpg","5","","","","","","","","","","","","","","","","","","","","","","","","",""
"692","","image-button-response","250","1047224","0.0-249.0-0.0","AD1ILDUXZHASF","img_art/7.jpg","0","","","","","","","","","","","","","","","","","","","","","","","","",""
"260","","image-button-response","251","1047489","0.0-250.0-0.0","AD1ILDUXZHASF","img_art/7.jpg","3","","","","","","","","","","","","","","","","","","","","","","","","",""
"null","","html-keyboard-response","252","1048491","0.0-251.0","AD1ILDUXZHASF","<p style=""font-size: 48px;"">+</p>","","","","","null","allTrialResponses","1000","1","29","img_art/7.jpg","-43","Looks like bird poop on leaves","Elijah,Nicholas,Patrick,Austin,Jonathan,Charles","Not highly impressed,-5,80,20","Makes me want to feel it,19,240,20","It feels cold and hard,-40,280,20","The picture is just random,-8,240,20","Looks like the surface of mars,29,140,20","Looks like a bad picture of a beach,-21,100,20","Charles","Looks like a bad picture of a beach,-21,100,20","Elijah","Not highly impressed,-5,80,20","Austin","The picture is just random,-8,240,20","2"
"19885","","survey-text","253","1068387","0.0-252.0-0.0","AD1ILDUXZHASF","","","","{""Q0"":""random colors on nothing""}","","","","","","","","","","","","","","","","","","","","","","",""
"1793.199999988079","","image-slider-response","254","1070184","0.0-253.0","AD1ILDUXZHASF","","","","","-16","","","","","","","","","","","","","","","","","","","","","",""
"null","","image-button-response","255","1075187","0.0-254.0","AD1ILDUXZHASF","img_art/18.jpg","null","","","","","","","","","","","","","","","","","","","","","","","","",""
"441","","image-button-response","256","1075632","0.0-255.0","AD1ILDUXZHASF","img_art/18.jpg","2","","","","","","","","","","","","","","","","","","","","","","","","",""
"812","","image-button-response","257","1076448","0.0-256.0-0.0","AD1ILDUXZHASF","img_art/18.jpg","5","","","","","","","","","","","","","","","","","","","","","","","","",""
"226","","image-button-response","258","1076680","0.0-257.0-0.0","AD1ILDUXZHASF","img_art/18.jpg","1","","","","","","","","","","","","","","","","","","","","","","","","",""
"null","","html-keyboard-response","259","1078183","0.0-258.0","AD1ILDUXZHASF","<p style=""font-size: 48px;"">+</p>","","","","","null","allTrialResponses","1500","1","30","img_art/18.jpg","-16","random colors on nothing","Elijah,Zachary,Jake,Austin,Chase,Charles","Makes me feel confused,16,80,20","This one seems rather ghoulish to me.,-41,400,20","It looks grotesque and violent.,-50,360,20","Nice abstract art,50,240,20","Kinda neat, looks like cavalry, or a knight.,15,120,20","I enjoy the detailed line work in this one,21,100,20","Jake","It looks grotesque and violent.,-50,360,20","Charles","I enjoy the detailed line work in this one,21,100,20","Zachary","This one seems rather ghoulish to me.,-41,400,20","2"
"1766","","image-button-response_instructions","260","1079960","0.0-259.0","AD1ILDUXZHASF","","0","instructions","","","","","","","","","","","","","","","","","","","","","","","",""
"679","","image-button-response","261","1080648","0.0-260.0","AD1ILDUXZHASF","","0","","","","","","","","","","","","","","","","","","","","","","","","",""
