"rt","url","trial_type","trial_index","time_elapsed","internal_node_id","participant_id","stimulus","button_pressed","Name","responses","response","key_press","variableName","fixationTime","condition","trial","photo","subjectRating","subjectResponse","agentsNames","agent_1_Response","agent_2_Response","agent_3_Response","agent_4_Response","agent_5_Response","agent_6_Response","kept_1_name","kept_1_response","kept_2_name","kept_2_response","kept_3_name","kept_3_response","errorCounter"
"4387","external_page_harvard.html","external-html","0","4553","0.0-0.0","ADVJB810K4OYR","","","","","","","","","","","","","","","","","","","","","","","","","","",""
"1229","","image-button-response","1","5786","0.0-1.0","ADVJB810K4OYR","","0","","","","","","","","","","","","","","","","","","","","","","","","",""
"1161","","image-button-response","2","6957","0.0-2.0-0.0","ADVJB810K4OYR","","0","phone","","","","","","","","","","","","","","","","","","","","","","","",""
"754","","image-button-response","3","11110","0.0-2.1-0.1","ADVJB810K4OYR","","1","phone","","","","","","","","","","","","","","","","","","","","","","","",""
"8826","","survey-text","4","19938","0.0-3.0-0.0","ADVJB810K4OYR","","","","{""Q0"":""ADVJB810K4OYR ""}","","","","","","","","","","","","","","","","","","","","","","",""
"3974","","survey-text","5","25702","0.0-3.1-0.1","ADVJB810K4OYR","","","","{""Q0"":""ADVJB810K4OYR""}","","","","","","","","","","","","","","","","","","","","","","",""
"2575","","image-button-response_instructions","6","28280","0.0-4.0","ADVJB810K4OYR","","0","instructions","","","","","","","","","","","","","","","","","","","","","","","",""
"1274","","image-button-response_instructions","7","29556","0.0-5.0","ADVJB810K4OYR","img_art/ins/popularity/ins1.png","0","instructions","","","","","","","","","","","","","","","","","","","","","","","",""
"2506","","image-button-response_instructions","8","32064","0.0-6.0","ADVJB810K4OYR","img_art/ins/popularity/ins2.png","0","instructions","","","","","","","","","","","","","","","","","","","","","","","",""
"1170","","image-button-response_instructions","9","33236","0.0-7.0","ADVJB810K4OYR","img_art/ins/popularity/ins2Extreme.png","0","instructions","","","","","","","","","","","","","","","","","","","","","","","",""
"790","","image-button-response_instructions","10","34028","0.0-8.0","ADVJB810K4OYR","img_art/ins/popularity/ins3KEEPpop.PNG","0","instructions","","","","","","","","","","","","","","","","","","","","","","","",""
"664","","image-button-response_instructions","11","34694","0.0-9.0","ADVJB810K4OYR","img_art/ins/popularity/ins3ANamepop.PNG","0","instructions","","","","","","","","","","","","","","","","","","","","","","","",""
"764","","image-button-response_instructions","12","35460","0.0-10.0","ADVJB810K4OYR","img_art/ins/popularity/ins3ARatingpop.png","0","instructions","","","","","","","","","","","","","","","","","","","","","","","",""
"572","","image-button-response_instructions","13","36034","0.0-11.0","ADVJB810K4OYR","img_art/ins/popularity/ins3ATextpop.png","0","instructions","","","","","","","","","","","","","","","","","","","","","","","",""
"762","","image-button-response_instructions","14","36797","0.0-12.0","ADVJB810K4OYR","img_art/ins/popularity/ins3ALikespop.png","0","instructions","","","","","","","","","","","","","","","","","","","","","","","",""
"557","","image-button-response_instructions","15","37356","0.0-13.0","ADVJB810K4OYR","img_art/ins/popularity/ins3KEEPpop.PNG","0","instructions","","","","","","","","","","","","","","","","","","","","","","","",""
"490","","image-button-response_instructions","16","37848","0.0-14.0","ADVJB810K4OYR","img_art/ins/popularity/ins3_5RED.png","0","instructions","","","","","","","","","","","","","","","","","","","","","","","",""
"774","","image-button-response_instructions","17","38624","0.0-15.0","ADVJB810K4OYR","img_art/ins/popularity/ins3KEEPpop.PNG","0","instructions","","","","","","","","","","","","","","","","","","","","","","","",""
"564","","image-button-response_instructions","18","39190","0.0-16.0","ADVJB810K4OYR","img_art/ins/popularity/ins4KEEPpop.PNG","0","instructions","","","","","","","","","","","","","","","","","","","","","","","",""
"650","","image-button-response_instructions","19","39842","0.0-17.0","ADVJB810K4OYR","img_art/ins/popularity/ins5KEEPpop.PNG","0","instructions","","","","","","","","","","","","","","","","","","","","","","","",""
"1270","","image-button-response_instructions","20","41115","0.0-18.0","ADVJB810K4OYR","","0","instructions","","","","","","","","","","","","","","","","","","","","","","","",""
"7793","","survey-text","21","48945","0.0-19.0-0.0","ADVJB810K4OYR","","","","{""Q0"":""but""}","","","","","","","","","","","","","","","","","","","","","","",""
"15987","","survey-text","22","64935","0.0-20.0-0.0","ADVJB810K4OYR","","","","{""Q0"":""looks simple""}","","","","","","","","","","","","","","","","","","","","","","",""
"4108.775000029709","","image-slider-response","23","69049","0.0-21.0","ADVJB810K4OYR","","","","","1","","","","","","","","","","","","","","","","","","","","","",""
"null","","image-button-response","24","74056","0.0-22.0","ADVJB810K4OYR","img_art/ins/1.jpg","null","","","","","","","","","","","","","","","","","","","","","","","","",""
"1121","","image-button-response","25","75181","0.0-23.0","ADVJB810K4OYR","img_art/ins/1.jpg","5","","","","","","","","","","","","","","","","","","","","","","","","",""
"2944","","image-button-response","26","78130","0.0-24.0-0.0","ADVJB810K4OYR","img_art/ins/1.jpg","2","","","","","","","","","","","","","","","","","","","","","","","","",""
"443","","image-button-response","27","78578","0.0-25.0-0.0","ADVJB810K4OYR","img_art/ins/1.jpg","1","","","","","","","","","","","","","","","","","","","","","","","","",""
"null","","html-keyboard-response","28","79582","0.0-26.0","ADVJB810K4OYR","<p style=""font-size: 48px;"">+</p>","","","","","null","allTrialResponses","1000","1","-2","img_art/ins/1.jpg","1","looks simple","Adam,Alex,Ben,Carl,Daniel,Jack","Seems like doodles,-20,20,20","very creative work.,36,40,20","This color reminds me of poo,-46,60,20","very calming artwork,42,80,20","It looks like a murder scene.,-48,100,20","I like the sophisticated brushwork,40,120,20","Jack","I like the sophisticated brushwork,40,120,20","Ben","This color reminds me of poo,-46,60,20","Alex","very creative work.,36,40,20","1"
"2531","","survey-text","29","82119","0.0-27.0-0.0","ADVJB810K4OYR","","","","{""Q0"":""looks simple""}","","","","","","","","","","","","","","","","","","","","","","",""
"2019.4050000282004","","image-slider-response","30","84141","0.0-28.0","ADVJB810K4OYR","","","","","9","","","","","","","","","","","","","","","","","","","","","",""
"3155","","image-button-response","31","89148","0.0-29.0","ADVJB810K4OYR","img_art/ins/2.jpg","5","","","","","","","","","","","","","","","","","","","","","","","","",""
"149","","image-button-response","32","89299","0.0-30.0","ADVJB810K4OYR","img_art/ins/2.jpg","0","","","","","","","","","","","","","","","","","","","","","","","","",""
"765","","image-button-response","33","90067","0.0-31.0-0.0","ADVJB810K4OYR","img_art/ins/2.jpg","3","","","","","","","","","","","","","","","","","","","","","","","","",""
"925","","image-button-response","34","90996","0.0-32.0-0.0","ADVJB810K4OYR","img_art/ins/2.jpg","1","","","","","","","","","","","","","","","","","","","","","","","","",""
"null","","html-keyboard-response","35","92499","0.0-33.0","ADVJB810K4OYR","<p style=""font-size: 48px;"">+</p>","","","","","null","allTrialResponses","1500","1","-1","img_art/ins/2.jpg","9","looks simple","Kyle,Alex,Ben,James,John,Jack","Idk, it is just annoying,-32,180,20","I like the blocks of color arrangements,30,40,20","meaningless painting,-45,60,20","looks too angry,-50,140,20","love the texture of paint,48,160,20","I would never be able to compose a sophisticated pallete like this,48,120,20","Kyle","Idk, it is just annoying,-32,180,20","James","looks too angry,-50,140,20","Alex","I like the blocks of color arrangements,30,40,20","1"
"2615","","survey-text","36","95120","0.0-34.0-0.0","ADVJB810K4OYR","","","","{""Q0"":""looks simple""}","","","","","","","","","","","","","","","","","","","","","","",""
"6989.990000030957","","image-slider-response","37","102114","0.0-35.0","ADVJB810K4OYR","","","","","-6","","","","","","","","","","","","","","","","","","","","","",""
"2236","","image-button-response","38","107120","0.0-36.0","ADVJB810K4OYR","img_art/ins/3.jpg","1","","","","","","","","","","","","","","","","","","","","","","","","",""
"769","","image-button-response","39","107893","0.0-37.0","ADVJB810K4OYR","img_art/ins/3.jpg","0","","","","","","","","","","","","","","","","","","","","","","","","",""
"1038","","image-button-response","40","108934","0.0-38.0-0.0","ADVJB810K4OYR","img_art/ins/3.jpg","1","","","","","","","","","","","","","","","","","","","","","","","","",""
"902","","image-button-response","41","109841","0.0-39.0-0.0","ADVJB810K4OYR","img_art/ins/3.jpg","2","","","","","","","","","","","","","","","","","","","","","","","","",""
"null","","html-keyboard-response","42","110843","0.0-40.0","ADVJB810K4OYR","<p style=""font-size: 48px;"">+</p>","","","","","null","allTrialResponses","1000","1","0","img_art/ins/3.jpg","-6","looks simple","Kyle,Alex,Mike,James,Ron,Sam","It looks like a playground for bats,-36,180,20","calming blue is very nice,36,40,20","enjoy the different shades of blue,22,200,20","My worst nightmare,-42,140,20","It looks depressing,-26,220,20","I can feel a rainy day from this painting,18,240,20","Kyle","It looks like a playground for bats,-36,180,20","Alex","calming blue is very nice,36,40,20","Mike","enjoy the different shades of blue,22,200,20","1"
"1334","","image-button-response_instructions","43","112184","0.0-41.0","ADVJB810K4OYR","","0","instructions","","","","","","","","","","","","","","","","","","","","","","","",""
"9606","","survey-likert","44","121793","0.0-42.0-0.0","ADVJB810K4OYR","","","","{""Q0"":"""",""Q1"":0,""Q2"":0}","","","","","","","","","","","","","","","","","","","","","","",""
"2931","","survey-likert","45","126077","0.0-42.1-0.1","ADVJB810K4OYR","","","","{""Q0"":"""",""Q1"":1,""Q2"":1}","","","","","","","","","","","","","","","","","","","","","","",""
"6284","","survey-likert","46","133403","0.0-42.2-0.2","ADVJB810K4OYR","","","","{""Q0"":"""",""Q1"":0,""Q2"":1}","","","","","","","","","","","","","","","","","","","","","","",""
"3487","","survey-text","47","136899","0.0-43.0-0.0","ADVJB810K4OYR","","","","{""Q0"":""rock""}","","","","","","","","","","","","","","","","","","","","","","",""
"3642","","survey-text","48","140543","0.0-44.0-0.0","ADVJB810K4OYR","","","","{""Q0"":""looks simple""}","","","","","","","","","","","","","","","","","","","","","","",""
"1695.3649999923073","","image-slider-response","49","142243","0.0-45.0","ADVJB810K4OYR","","","","","9","","","","","","","","","","","","","","","","","","","","","",""
"1024","","image-button-response","50","147285","0.0-46.0","ADVJB810K4OYR","img_art/1.jpg","4","","","","","","","","","","","","","","","","","","","","","","","","",""
"2752","","image-button-response","51","150041","0.0-47.0","ADVJB810K4OYR","img_art/1.jpg","1","","","","","","","","","","","","","","","","","","","","","","","","",""
"493","","image-button-response","52","150538","0.0-48.0-0.0","ADVJB810K4OYR","img_art/1.jpg","2","","","","","","","","","","","","","","","","","","","","","","","","",""
"564","","image-button-response","53","151107","0.0-49.0-0.0","ADVJB810K4OYR","img_art/1.jpg","5","","","","","","","","","","","","","","","","","","","","","","","","",""
"null","","html-keyboard-response","54","152610","0.0-50.0","ADVJB810K4OYR","<p style=""font-size: 48px;"">+</p>","","","","","null","allTrialResponses","1500","1","1","img_art/1.jpg","9","looks simple","Sean,Cody,Antonio,Ethan,Mitchell,Christopher","my reaction is that the picture is that Ive seen it before,-14,40,20","Pretty, nice use of color,40,180,20","Felt nothing in response to this painting,3,220,20","This piece feels soft and romantic to me. I do not care for so much orange though.,3,120,20","confused,animal like brain fog,0,180,20","it's boring despite all the colors,-2,160,20","Cody","Pretty, nice use of color,40,180,20","Antonio","Felt nothing in response to this painting,3,220,20","Christopher","it's boring despite all the colors,-2,160,20","3"
"4077","","survey-text","55","156693","0.0-51.0-0.0","ADVJB810K4OYR","","","","{""Q0"":""looks simple""}","","","","","","","","","","","","","","","","","","","","","","",""
"2183.7149999919347","","image-slider-response","56","158880","0.0-52.0","ADVJB810K4OYR","","","","","9","","","","","","","","","","","","","","","","","","","","","",""
"1798","","image-button-response","57","163884","0.0-53.0","ADVJB810K4OYR","img_art/6.jpg","3","","","","","","","","","","","","","","","","","","","","","","","","",""
"1146","","image-button-response","58","165034","0.0-54.0","ADVJB810K4OYR","img_art/6.jpg","0","","","","","","","","","","","","","","","","","","","","","","","","",""
"400","","image-button-response","59","165438","0.0-55.0-0.0","ADVJB810K4OYR","img_art/6.jpg","1","","","","","","","","","","","","","","","","","","","","","","","","",""
"658","","image-button-response","60","166101","0.0-56.0-0.0","ADVJB810K4OYR","img_art/6.jpg","2","","","","","","","","","","","","","","","","","","","","","","","","",""
"null","","html-keyboard-response","61","167104","0.0-57.0","ADVJB810K4OYR","<p style=""font-size: 48px;"">+</p>","","","","","null","allTrialResponses","1000","1","2","img_art/6.jpg","9","looks simple","Nathaniel,Cody,Antonio,Patrick,Blake,Christopher","Not my favorite, but I like the empty vibe and the imagination it invokes. A skinny girl with long legs, perhaps, looking over a cliff,9,220,20","Birds are cool but I don't love it,10,180,20","Lonely and kinda sad,-25,220,20","It looks sad and scary at the same time,11,280,20","one lonely thing trying to grow,-24,280,20","it's interesting but I don't love it,10,160,20","Nathaniel","Not my favorite, but I like the empty vibe and the imagination it invokes. A skinny girl with long legs, perhaps, looking over a cliff,9,220,20","Cody","Birds are cool but I don't love it,10,180,20","Antonio","Lonely and kinda sad,-25,220,20","3"
"9857","","survey-text","62","176969","0.0-58.0-0.0","ADVJB810K4OYR","","","","{""Q0"":""complex""}","","","","","","","","","","","","","","","","","","","","","","",""
"2448.6700000124983","","image-slider-response","63","179420","0.0-59.0","ADVJB810K4OYR","","","","","13","","","","","","","","","","","","","","","","","","","","","",""
"1100","","image-button-response","64","184424","0.0-60.0","ADVJB810K4OYR","img_art/8.jpg","0","","","","","","","","","","","","","","","","","","","","","","","","",""
"594","","image-button-response","65","185021","0.0-61.0","ADVJB810K4OYR","img_art/8.jpg","0","","","","","","","","","","","","","","","","","","","","","","","","",""
"479","","image-button-response","66","185503","0.0-62.0-0.0","ADVJB810K4OYR","img_art/8.jpg","1","","","","","","","","","","","","","","","","","","","","","","","","",""
"543","","image-button-response","67","186053","0.0-63.0-0.0","ADVJB810K4OYR","img_art/8.jpg","2","","","","","","","","","","","","","","","","","","","","","","","","",""
"null","","html-keyboard-response","68","187555","0.0-64.0","ADVJB810K4OYR","<p style=""font-size: 48px;"">+</p>","","","","","null","allTrialResponses","1500","1","3","img_art/8.jpg","13","complex","Nathaniel,Cody,Antonio,Luis,Jorge,Alejandro","Not a fan of abstract looking pieces with too many focal points. The tunnel and face, for example,-31,220,20","Love the colors & block-style,50,180,20","I love the colors in it and also the faces and door ways. Made me feel hopeful,35,220,20","I love the expressiveness of this,50,400,20","New power in the community,22,180,20","i like the abstract nature of a birds eye view of the city. The hard shapes and squares present with a softness rather than rigidity.,26,80,20","Nathaniel","Not a fan of abstract looking pieces with too many focal points. The tunnel and face, for example,-31,220,20","Cody","Love the colors & block-style,50,180,20","Antonio","I love the colors in it and also the faces and door ways. Made me feel hopeful,35,220,20","3"
"5962","","survey-text","69","193524","0.0-65.0-0.0","ADVJB810K4OYR","","","","{""Q0"":""simple""}","","","","","","","","","","","","","","","","","","","","","","",""
"2896.40500000678","","image-slider-response","70","196423","0.0-66.0","ADVJB810K4OYR","","","","","12","","","","","","","","","","","","","","","","","","","","","",""
"null","","image-button-response","71","201429","0.0-67.0","ADVJB810K4OYR","img_art/16.jpg","null","","","","","","","","","","","","","","","","","","","","","","","","",""
"2677","","image-button-response","72","204110","0.0-68.0","ADVJB810K4OYR","img_art/16.jpg","4","","","","","","","","","","","","","","","","","","","","","","","","",""
"961","","image-button-response","73","205074","0.0-69.0-0.0","ADVJB810K4OYR","img_art/16.jpg","1","","","","","","","","","","","","","","","","","","","","","","","","",""
"953","","image-button-response","74","206034","0.0-70.0-0.0","ADVJB810K4OYR","img_art/16.jpg","2","","","","","","","","","","","","","","","","","","","","","","","","",""
"null","","html-keyboard-response","75","207537","0.0-71.0","ADVJB810K4OYR","<p style=""font-size: 48px;"">+</p>","","","","","null","allTrialResponses","1500","1","4","img_art/16.jpg","12","simple","Nathaniel,Cody,Antonio,Cameron,Dustin,Ian","Creeps me out. Like..really creeps me out.,-48,220,20","Kind of creepyyyyyy,-41,180,20","Did not like at all. I think something sinister going on in the background and the bear a diversion,-50,220,20","Don't like teddy bears in art. I could draw that house.,-20,60,20","Upsetting and disturbing. Random bear and indistinguishable objects. None of it goes together. Too chaotic and random,-50,20,20","This looks like it was made by an art student filled with angst,-30,260,20","Dustin","Upsetting and disturbing. Random bear and indistinguishable objects. None of it goes together. Too chaotic and random,-50,20,20","Cody","Kind of creepyyyyyy,-41,180,20","Antonio","Did not like at all. I think something sinister going on in the background and the bear a diversion,-50,220,20","3"
"4628","","survey-text","76","212174","0.0-72.0-0.0","ADVJB810K4OYR","","","","{""Q0"":""weird""}","","","","","","","","","","","","","","","","","","","","","","",""
"6227","","survey-text","77","220502","0.0-72.1-0.1","ADVJB810K4OYR","","","","{""Q0"":""it looks wierd""}","","","","","","","","","","","","","","","","","","","","","","",""
"3309.06999995932","","image-slider-response","78","223814","0.0-73.0","ADVJB810K4OYR","","","","","-12","","","","","","","","","","","","","","","","","","","","","",""
"4580","","image-button-response","79","228821","0.0-74.0","ADVJB810K4OYR","img_art/19.jpg","4","","","","","","","","","","","","","","","","","","","","","","","","",""
"1861","","image-button-response","80","230685","0.0-75.0","ADVJB810K4OYR","img_art/19.jpg","4","","","","","","","","","","","","","","","","","","","","","","","","",""
"674","","image-button-response","81","231362","0.0-76.0-0.0","ADVJB810K4OYR","img_art/19.jpg","0","","","","","","","","","","","","","","","","","","","","","","","","",""
"974","","image-button-response","82","232341","0.0-77.0-0.0","ADVJB810K4OYR","img_art/19.jpg","3","","","","","","","","","","","","","","","","","","","","","","","","",""
"null","","html-keyboard-response","83","232848","0.0-78.0","ADVJB810K4OYR","<p style=""font-size: 48px;"">+</p>","","","","","null","allTrialResponses","500","1","5","img_art/19.jpg","-12","it looks wierd","Dalton,Cody,Antonio,Steven,Dustin,Devon","love the images I can pick out of this art,1,300,20","Interesting, leaves you wondering what it is,40,180,20","Chaotic. Too much going on in the picture,14,220,20","I like it, I see someone walking his dog in the early morning time,23,160,20","Too busy, makes me anxious and frustrated. Lots of movement in the brush strokes.,-9,20,20","this looks like a busy city lifestyle,24,400,20","Dustin","Too busy, makes me anxious and frustrated. Lots of movement in the brush strokes.,-9,20,20","Dalton","love the images I can pick out of this art,1,300,20","Steven","I like it, I see someone walking his dog in the early morning time,23,160,20","3"
"3247","","survey-text","84","236106","0.0-79.0-0.0","ADVJB810K4OYR","","","","{""Q0"":""sky""}","","","","","","","","","","","","","","","","","","","","","","",""
"14920","","survey-text","85","251028","0.0-80.0-0.0","ADVJB810K4OYR","","","","{""Q0"":""it looks creative""}","","","","","","","","","","","","","","","","","","","","","","",""
"2277.514999965206","","image-slider-response","86","253308","0.0-81.0","ADVJB810K4OYR","","","","","9","","","","","","","","","","","","","","","","","","","","","",""
"null","","image-button-response","87","258312","0.0-82.0","ADVJB810K4OYR","img_art/14.jpg","null","","","","","","","","","","","","","","","","","","","","","","","","",""
"758","","image-button-response","88","259074","0.0-83.0","ADVJB810K4OYR","img_art/14.jpg","3","","","","","","","","","","","","","","","","","","","","","","","","",""
"1216","","image-button-response","89","260293","0.0-84.0-0.0","ADVJB810K4OYR","img_art/14.jpg","1","","","","","","","","","","","","","","","","","","","","","","","","",""
"398","","image-button-response","90","260694","0.0-85.0-0.0","ADVJB810K4OYR","img_art/14.jpg","2","","","","","","","","","","","","","","","","","","","","","","","","",""
"null","","html-keyboard-response","91","261697","0.0-86.0","ADVJB810K4OYR","<p style=""font-size: 48px;"">+</p>","","","","","null","allTrialResponses","1000","1","6","img_art/14.jpg","9","it looks creative","Dalton,Timothy,Shawn,Steven,Dustin,Logan","nice simple art piece,2,300,20","Something about the cahotic imagery makes me uncomfortable,-15,240,20","Like the brushstrokes but not the composition,9,100,20","this one isn't bad, reminds me a tree that gives life, and people are waiting for someone new to be born,27,160,20","It represents growth. I see a plant/tree growing out of the ground. I like the rainbow of color in the painting.,31,20,20","I dont really vibe with the grayish color palette,-7,360,20","Steven","this one isn't bad, reminds me a tree that gives life, and people are waiting for someone new to be born,27,160,20","Timothy","Something about the cahotic imagery makes me uncomfortable,-15,240,20","Shawn","Like the brushstrokes but not the composition,9,100,20","3"
"7468","","survey-text","92","269174","0.0-87.0-0.0","ADVJB810K4OYR","","","","{""Q0"":""simple""}","","","","","","","","","","","","","","","","","","","","","","",""
"2583.3950000233017","","image-slider-response","93","271761","0.0-88.0","ADVJB810K4OYR","","","","","16","","","","","","","","","","","","","","","","","","","","","",""
"1529","","image-button-response","94","276767","0.0-89.0","ADVJB810K4OYR","img_art/23.jpg","1","","","","","","","","","","","","","","","","","","","","","","","","",""
"518","","image-button-response","95","277290","0.0-90.0","ADVJB810K4OYR","img_art/23.jpg","1","","","","","","","","","","","","","","","","","","","","","","","","",""
"813","","image-button-response","96","278106","0.0-91.0-0.0","ADVJB810K4OYR","img_art/23.jpg","4","","","","","","","","","","","","","","","","","","","","","","","","",""
"1375","","image-button-response","97","279486","0.0-92.0-0.0","ADVJB810K4OYR","img_art/23.jpg","5","","","","","","","","","","","","","","","","","","","","","","","","",""
"null","","html-keyboard-response","98","280989","0.0-93.0","ADVJB810K4OYR","<p style=""font-size: 48px;"">+</p>","","","","","null","allTrialResponses","1500","1","7","img_art/23.jpg","16","simple","Spencer,Timothy,Shawn,Steven,Nicholas,Carlos","Interesting, want to look at it more to identify,25,120,20","This feels so energized, i love it,50,240,20","Poster shop camp.,-40,100,20","NO, I don't get it,-50,160,20","The more i look at it the more i like it  the dots of color and very interesting,50,240,20","It feels active and vibrant.,20,80,20","Timothy","This feels so energized, i love it,50,240,20","Nicholas","The more i look at it the more i like it  the dots of color and very interesting,50,240,20","Carlos","It feels active and vibrant.,20,80,20","3"
"14281","","survey-text","99","295278","0.0-94.0-0.0","ADVJB810K4OYR","","","","{""Q0"":""it looks depressing""}","","","","","","","","","","","","","","","","","","","","","","",""
"4176.930000016","","image-slider-response","100","299459","0.0-95.0","ADVJB810K4OYR","","","","","-19","","","","","","","","","","","","","","","","","","","","","",""
"2858","","image-button-response","101","304468","0.0-96.0","ADVJB810K4OYR","img_art/20.jpg","3","","","","","","","","","","","","","","","","","","","","","","","","",""
"233","","image-button-response","102","304705","0.0-97.0","ADVJB810K4OYR","img_art/20.jpg","3","","","","","","","","","","","","","","","","","","","","","","","","",""
"826","","image-button-response","103","305535","0.0-98.0-0.0","ADVJB810K4OYR","img_art/20.jpg","5","","","","","","","","","","","","","","","","","","","","","","","","",""
"1149","","image-button-response","104","306688","0.0-99.0-0.0","ADVJB810K4OYR","img_art/20.jpg","1","","","","","","","","","","","","","","","","","","","","","","","","",""
"null","","html-keyboard-response","105","307690","0.0-100.0","ADVJB810K4OYR","<p style=""font-size: 48px;"">+</p>","","","","","null","allTrialResponses","1000","1","8","img_art/20.jpg","-19","it looks depressing","Jack,Timothy,Elijah,Cole,Nicholas,Carlos","could look for hours. love the brush work. color choices look like a desert.,50,320,20","Makes me think if a car crash or some sort of disaster,-20,240,20","Makes me feel impressed,9,80,20","Someone trying to be dali,-15,200,20","Use of white on foreground is too big and steals eyes away from rest of painting,2,240,20","It feels like it ""almost"" several things.,-10,80,20","Cole","Someone trying to be dali,-15,200,20","Carlos","It feels like it ""almost"" several things.,-10,80,20","Timothy","Makes me think if a car crash or some sort of disaster,-20,240,20","3"
"9813","","survey-text","106","317510","0.0-101.0-0.0","ADVJB810K4OYR","","","","{""Q0"":""it looks creepy""}","","","","","","","","","","","","","","","","","","","","","","",""
"5352.305000007618","","image-slider-response","107","322866","0.0-102.0","ADVJB810K4OYR","","","","","-31","","","","","","","","","","","","","","","","","","","","","",""
"4604","","image-button-response","108","327871","0.0-103.0","ADVJB810K4OYR","img_art/25.jpg","3","","","","","","","","","","","","","","","","","","","","","","","","",""
"328","","image-button-response","109","328203","0.0-104.0","ADVJB810K4OYR","img_art/25.jpg","3","","","","","","","","","","","","","","","","","","","","","","","","",""
"1238","","image-button-response","110","329445","0.0-105.0-0.0","ADVJB810K4OYR","img_art/25.jpg","0","","","","","","","","","","","","","","","","","","","","","","","","",""
"2128","","image-button-response","111","331577","0.0-106.0-0.0","ADVJB810K4OYR","img_art/25.jpg","5","","","","","","","","","","","","","","","","","","","","","","","","",""
"null","","html-keyboard-response","112","333081","0.0-107.0","ADVJB810K4OYR","<p style=""font-size: 48px;"">+</p>","","","","","null","allTrialResponses","1500","1","9","img_art/25.jpg","-31","it looks creepy","Brendan,Timothy,Chase,Cole,Jesus,Carlos","is this an ancient woman?,-16,340,20","This makes me feel uneasy,-20,240,20","Not particularly interesting for me. The green color is strange mixed with this.,-11,120,20","Its scary. It looks like someone overlooking hell,-34,200,20","Very nice color contrast and design.,40,100,20","The proportions are unpleasant.,-30,80,20","Cole","Its scary. It looks like someone overlooking hell,-34,200,20","Brendan","is this an ancient woman?,-16,340,20","Carlos","The proportions are unpleasant.,-30,80,20","3"
"15492","","survey-text","113","348581","0.0-108.0-0.0","ADVJB810K4OYR","","","","{""Q0"":""it looks very simple""}","","","","","","","","","","","","","","","","","","","","","","",""
"2816.999999980908","","image-slider-response","114","351403","0.0-109.0","ADVJB810K4OYR","","","","","-20","","","","","","","","","","","","","","","","","","","","","",""
"4275","","image-button-response","115","356408","0.0-110.0","ADVJB810K4OYR","img_art/4.jpg","0","","","","","","","","","","","","","","","","","","","","","","","","",""
"1339","","image-button-response","116","357750","0.0-111.0","ADVJB810K4OYR","img_art/4.jpg","0","","","","","","","","","","","","","","","","","","","","","","","","",""
"1521","","image-button-response","117","359274","0.0-112.0-0.0","ADVJB810K4OYR","img_art/4.jpg","3","","","","","","","","","","","","","","","","","","","","","","","","",""
"1342","","image-button-response","118","360620","0.0-113.0-0.0","ADVJB810K4OYR","img_art/4.jpg","2","","","","","","","","","","","","","","","","","","","","","","","","",""
"null","","html-keyboard-response","119","361623","0.0-114.0","ADVJB810K4OYR","<p style=""font-size: 48px;"">+</p>","","","","","null","allTrialResponses","1000","1","10","img_art/4.jpg","-20","it looks very simple","Brendan,Corey,Paul,Cole,Malik,Carlos","just a scuffed hand,-15,340,20","doesn't do anything for me,-4,260,20","The dark yellow color makes me think of mustard, which I dislike,-27,300,20","Fingerpaint of a hand?,-30,200,20","Reminds me of late night frustrated paintings of my own made of coffee,12,40,20","Movement. Snakes. Hair. The uncertainty makes my eye return.,21,80,20","Brendan","just a scuffed hand,-15,340,20","Cole","Fingerpaint of a hand?,-30,200,20","Paul","The dark yellow color makes me think of mustard, which I dislike,-27,300,20","3"
"3579","","survey-text","120","365215","0.0-115.0-0.0","ADVJB810K4OYR","","","","{""Q0"":""our""}","","","","","","","","","","","","","","","","","","","","","","",""
"7663","","survey-text","121","372881","0.0-116.0-0.0","ADVJB810K4OYR","","","","{""Q0"":""to simple""}","","","","","","","","","","","","","","","","","","","","","","",""
"2985.1650000200607","","image-slider-response","122","375869","0.0-117.0","ADVJB810K4OYR","","","","","-40","","","","","","","","","","","","","","","","","","","","","",""
"4788","","image-button-response","123","380875","0.0-118.0","ADVJB810K4OYR","img_art/5.jpg","4","","","","","","","","","","","","","","","","","","","","","","","","",""
"615","","image-button-response","124","381493","0.0-119.0","ADVJB810K4OYR","img_art/5.jpg","4","","","","","","","","","","","","","","","","","","","","","","","","",""
"687","","image-button-response","125","382183","0.0-120.0-0.0","ADVJB810K4OYR","img_art/5.jpg","1","","","","","","","","","","","","","","","","","","","","","","","","",""
"1158","","image-button-response","126","383345","0.0-121.0-0.0","ADVJB810K4OYR","img_art/5.jpg","5","","","","","","","","","","","","","","","","","","","","","","","","",""
"null","","html-keyboard-response","127","384352","0.0-122.0","ADVJB810K4OYR","<p style=""font-size: 48px;"">+</p>","","","","","null","allTrialResponses","1000","1","11","img_art/5.jpg","-40","to simple","Brendan,Christian,Paul,Cole,Robert,Stephen","a volcano erruption,21,340,20","sorry not my style,-37,140,20","I like how simple it is and the pink brushstrokes are nice,27,300,20","It looks like a poorly drawn pear,17,200,20","This did not do a thing for me.,-50,360,20","Very little going on.,-4,140,20","Robert","This did not do a thing for me.,-50,360,20","Christian","sorry not my style,-37,140,20","Stephen","Very little going on.,-4,140,20","3"
"9754","","survey-text","128","394112","0.0-123.0-0.0","ADVJB810K4OYR","","","","{""Q0"":""it looks disgusting""}","","","","","","","","","","","","","","","","","","","","","","",""
"3179.069999954663","","image-slider-response","129","397295","0.0-124.0","ADVJB810K4OYR","","","","","-33","","","","","","","","","","","","","","","","","","","","","",""
"3014","","image-button-response","130","402302","0.0-125.0","ADVJB810K4OYR","img_art/2.jpg","3","","","","","","","","","","","","","","","","","","","","","","","","",""
"560","","image-button-response","131","402866","0.0-126.0","ADVJB810K4OYR","img_art/2.jpg","1","","","","","","","","","","","","","","","","","","","","","","","","",""
"713","","image-button-response","132","403584","0.0-127.0-0.0","ADVJB810K4OYR","img_art/2.jpg","3","","","","","","","","","","","","","","","","","","","","","","","","",""
"1233","","image-button-response","133","404820","0.0-128.0-0.0","ADVJB810K4OYR","img_art/2.jpg","5","","","","","","","","","","","","","","","","","","","","","","","","",""
"null","","html-keyboard-response","134","405825","0.0-129.0","ADVJB810K4OYR","<p style=""font-size: 48px;"">+</p>","","","","","null","allTrialResponses","1000","1","12","img_art/2.jpg","-33","it looks disgusting","Matthew,Christian,Brian,Tyler,Robert,Stephen","I think I can make out a face in there.,25,120,20","do not understand,-21,140,20","I like how it looks like a cute smiling face,43,380,20","Grim and overwhelming,-6,320,20","The colors are what I like. It looks like a smiling face too.,32,360,20","Colors mix nicely.,5,140,20","Christian","do not understand,-21,140,20","Tyler","Grim and overwhelming,-6,320,20","Stephen","Colors mix nicely.,5,140,20","3"
"6447","","survey-text","135","412280","0.0-130.0-0.0","ADVJB810K4OYR","","","","{""Q0"":""it looks kinda cool""}","","","","","","","","","","","","","","","","","","","","","","",""
"3571.8449999694712","","image-slider-response","136","415856","0.0-131.0","ADVJB810K4OYR","","","","","16","","","","","","","","","","","","","","","","","","","","","",""
"2765","","image-button-response","137","420861","0.0-132.0","ADVJB810K4OYR","img_art/10.jpg","1","","","","","","","","","","","","","","","","","","","","","","","","",""
"679","","image-button-response","138","421543","0.0-133.0","ADVJB810K4OYR","img_art/10.jpg","1","","","","","","","","","","","","","","","","","","","","","","","","",""
"1998","","image-button-response","139","423544","0.0-134.0-0.0","ADVJB810K4OYR","img_art/10.jpg","3","","","","","","","","","","","","","","","","","","","","","","","","",""
"601","","image-button-response","140","424149","0.0-135.0-0.0","ADVJB810K4OYR","img_art/10.jpg","4","","","","","","","","","","","","","","","","","","","","","","","","",""
"null","","html-keyboard-response","141","424655","0.0-136.0","ADVJB810K4OYR","<p style=""font-size: 48px;"">+</p>","","","","","null","allTrialResponses","500","1","13","img_art/10.jpg","16","it looks kinda cool","Charles,Christian,Alex,Tyler,Kyle,Stephen","Also too all over the place, I don't see any pattern or anything that's supposed to stand out,-19,100,20","gives a sense of a roller coaster unit splashed in water. it's not but i love it nevertheless,44,140,20","This could be a guitar, or it could be a completely random shape.,-3,100,20","In proper lighting I might enjoy this,11,320,20","It's okay but not giving me the strongest reaction,6,340,20","Very nice painting, would like it more with different color choice.,6,140,20","Christian","gives a sense of a roller coaster unit splashed in water. it's not but i love it nevertheless,44,140,20","Tyler","In proper lighting I might enjoy this,11,320,20","Kyle","It's okay but not giving me the strongest reaction,6,340,20","3"
"9020","","survey-text","142","433683","0.0-137.0-0.0","ADVJB810K4OYR","","","","{""Q0"":""it looks too simple""}","","","","","","","","","","","","","","","","","","","","","","",""
"2959.9400000297464","","image-slider-response","143","436646","0.0-138.0","ADVJB810K4OYR","","","","","-9","","","","","","","","","","","","","","","","","","","","","",""
"1771","","image-button-response","144","441650","0.0-139.0","ADVJB810K4OYR","img_art/3.jpg","4","","","","","","","","","","","","","","","","","","","","","","","","",""
"1224","","image-button-response","145","442879","0.0-140.0","ADVJB810K4OYR","img_art/3.jpg","0","","","","","","","","","","","","","","","","","","","","","","","","",""
"1052","","image-button-response","146","443935","0.0-141.0-0.0","ADVJB810K4OYR","img_art/3.jpg","1","","","","","","","","","","","","","","","","","","","","","","","","",""
"453","","image-button-response","147","444393","0.0-142.0-0.0","ADVJB810K4OYR","img_art/3.jpg","2","","","","","","","","","","","","","","","","","","","","","","","","",""
"null","","html-keyboard-response","148","444897","0.0-143.0","ADVJB810K4OYR","<p style=""font-size: 48px;"">+</p>","","","","","null","allTrialResponses","500","1","14","img_art/3.jpg","-9","it looks too simple","Derek,Christian,Colton,Tyler,Kyle,Noah","Looks messy and too much for my eyes,-35,360,20","sorry do not understand,-26,140,20","looks like a kid scribbled with crayon,-35,220,20","This doesn't grab me. Perhaps the red is meant to be provocative; I find it gimmicky.,-9,320,20","I don't really have a strong reaction to this one,0,340,20","I struggle to see the art,-20,260,20","Derek","Looks messy and too much for my eyes,-35,360,20","Christian","sorry do not understand,-26,140,20","Colton","looks like a kid scribbled with crayon,-35,220,20","3"
"18300","","survey-text","149","463206","0.0-144.0-0.0","ADVJB810K4OYR","","","","{""Q0"":""this one looks creative""}","","","","","","","","","","","","","","","","","","","","","","",""
"4134.365000005346","","image-slider-response","150","467343","0.0-145.0","ADVJB810K4OYR","","","","","32","","","","","","","","","","","","","","","","","","","","","",""
"null","","image-button-response","151","472348","0.0-146.0","ADVJB810K4OYR","img_art/11.jpg","null","","","","","","","","","","","","","","","","","","","","","","","","",""
"1223","","image-button-response","152","473573","0.0-147.0","ADVJB810K4OYR","img_art/11.jpg","0","","","","","","","","","","","","","","","","","","","","","","","","",""
"1230","","image-button-response","153","474806","0.0-148.0-0.0","ADVJB810K4OYR","img_art/11.jpg","1","","","","","","","","","","","","","","","","","","","","","","","","",""
"930","","image-button-response","154","475742","0.0-149.0-0.0","ADVJB810K4OYR","img_art/11.jpg","2","","","","","","","","","","","","","","","","","","","","","","","","",""
"null","","html-keyboard-response","155","477248","0.0-150.0","ADVJB810K4OYR","<p style=""font-size: 48px;"">+</p>","","","","","null","allTrialResponses","1500","1","15","img_art/11.jpg","32","this one looks creative","Derek,Christian,Colton,Nathan,Shane,Jason","There's a lot going on in this painting but it is pleasing and neat looking,31,360,20","to me, perfect reflection of the modern commute,32,140,20","the wavy lines are nice and pleasing,13,220,20","Reminds me of some of post-apocalyptic view of street lights or maybe a city,30,200,20","City on a hill, tranquility,42,80,20","Interesting use of color,9,20,20","Derek","There's a lot going on in this painting but it is pleasing and neat looking,31,360,20","Christian","to me, perfect reflection of the modern commute,32,140,20","Colton","the wavy lines are nice and pleasing,13,220,20","3"
"3882","","survey-text","156","481144","0.0-151.0-0.0","ADVJB810K4OYR","","","","{""Q0"":""course""}","","","","","","","","","","","","","","","","","","","","","","",""
"8572","","survey-text","157","489719","0.0-152.0-0.0","ADVJB810K4OYR","","","","{""Q0"":""it looks very simple""}","","","","","","","","","","","","","","","","","","","","","","",""
"3133.4849999984726","","image-slider-response","158","492856","0.0-153.0","ADVJB810K4OYR","","","","","-23","","","","","","","","","","","","","","","","","","","","","",""
"null","","image-button-response","159","497866","0.0-154.0","ADVJB810K4OYR","img_art/28.jpg","null","","","","","","","","","","","","","","","","","","","","","","","","",""
"731","","image-button-response","160","498601","0.0-155.0","ADVJB810K4OYR","img_art/28.jpg","2","","","","","","","","","","","","","","","","","","","","","","","","",""
"2753","","image-button-response","161","501359","0.0-156.0-0.0","ADVJB810K4OYR","img_art/28.jpg","3","","","","","","","","","","","","","","","","","","","","","","","","",""
"580","","image-button-response","162","501943","0.0-157.0-0.0","ADVJB810K4OYR","img_art/28.jpg","5","","","","","","","","","","","","","","","","","","","","","","","","",""
"null","","html-keyboard-response","163","503449","0.0-158.0","ADVJB810K4OYR","<p style=""font-size: 48px;"">+</p>","","","","","null","allTrialResponses","1500","1","16","img_art/28.jpg","-23","it looks very simple","Derek,Christian,Colton,Zachary,Joseph,Jordan","The colors are dull but there's some kind of nostalgic essence of this painting,15,360,20","the color scheme is very well matched but i just didn't like it,-6,140,20","not a fan of the colors or strokes used,-27,220,20","Too muted and bland. I like my art to be vivid.,-11,400,20","Don't love it, don't hate it. It's just there.,1,220,20","A messy bed room,-7,160,20","Colton","not a fan of the colors or strokes used,-27,220,20","Zachary","Too muted and bland. I like my art to be vivid.,-11,400,20","Jordan","A messy bed room,-7,160,20","3"
"7036","","survey-text","164","510494","0.0-159.0-0.0","ADVJB810K4OYR","","","","{""Q0"":""too simple for me""}","","","","","","","","","","","","","","","","","","","","","","",""
"2269.4849999970756","","image-slider-response","165","512766","0.0-160.0","ADVJB810K4OYR","","","","","-7","","","","","","","","","","","","","","","","","","","","","",""
"2075","","image-button-response","166","517772","0.0-161.0","ADVJB810K4OYR","img_art/26.jpg","4","","","","","","","","","","","","","","","","","","","","","","","","",""
"909","","image-button-response","167","518687","0.0-162.0","ADVJB810K4OYR","img_art/26.jpg","4","","","","","","","","","","","","","","","","","","","","","","","","",""
"998","","image-button-response","168","519689","0.0-163.0-0.0","ADVJB810K4OYR","img_art/26.jpg","1","","","","","","","","","","","","","","","","","","","","","","","","",""
"1292","","image-button-response","169","520985","0.0-164.0-0.0","ADVJB810K4OYR","img_art/26.jpg","2","","","","","","","","","","","","","","","","","","","","","","","","",""
"null","","html-keyboard-response","170","522490","0.0-165.0","ADVJB810K4OYR","<p style=""font-size: 48px;"">+</p>","","","","","null","allTrialResponses","1500","1","17","img_art/26.jpg","-7","too simple for me","Jonathan,Samuel,Colton,Zachary,Jesse,Jordan","It's relaxing to look at but I wish it was just a little more defined,20,140,20","reminds me of a hometown,7,400,20","very impressionistic,11,220,20","Pretty trees and bushes around fancy brown stones. I like the soft nature.,20,400,20","Looks bland and boring,-5,80,20","Reminds me of walks in my dads city when I was little,22,160,20","Jesse","Looks bland and boring,-5,80,20","Samuel","reminds me of a hometown,7,400,20","Colton","very impressionistic,11,220,20","3"
"10959","","survey-text","171","533458","0.0-166.0-0.0","ADVJB810K4OYR","","","","{""Q0"":""this looks very well done""}","","","","","","","","","","","","","","","","","","","","","","",""
"5353.919999965001","","image-slider-response","172","538815","0.0-167.0","ADVJB810K4OYR","","","","","33","","","","","","","","","","","","","","","","","","","","","",""
"3531","","image-button-response","173","543820","0.0-168.0","ADVJB810K4OYR","img_art/24.jpg","2","","","","","","","","","","","","","","","","","","","","","","","","",""
"238","","image-button-response","174","544062","0.0-169.0","ADVJB810K4OYR","img_art/24.jpg","2","","","","","","","","","","","","","","","","","","","","","","","","",""
"2595","","image-button-response","175","546660","0.0-170.0-0.0","ADVJB810K4OYR","img_art/24.jpg","5","","","","","","","","","","","","","","","","","","","","","","","","",""
"1756","","image-button-response","176","548420","0.0-171.0-0.0","ADVJB810K4OYR","img_art/24.jpg","1","","","","","","","","","","","","","","","","","","","","","","","","",""
"null","","html-keyboard-response","177","549423","0.0-172.0","ADVJB810K4OYR","<p style=""font-size: 48px;"">+</p>","","","","","null","allTrialResponses","1000","1","18","img_art/24.jpg","33","this looks very well done","Scott,Samuel,Colton,Hunter,Jesse,Caleb","pretty like a waterfall,22,20,20","tranquility in the stream,34,400,20","reminds me of a beautiful waterfall,50,220,20","feels overdone, but still executed well,0,240,20","Love the colors and contrast. Feels peaceful.,33,80,20","This is gorgeous. Strong, saturated colors and clear meaning.,50,40,20","Colton","reminds me of a beautiful waterfall,50,220,20","Caleb","This is gorgeous. Strong, saturated colors and clear meaning.,50,40,20","Samuel","tranquility in the stream,34,400,20","3"
"7961","","survey-text","178","557394","0.0-173.0-0.0","ADVJB810K4OYR","","","","{""Q0"":""too simple""}","","","","","","","","","","","","","","","","","","","","","","",""
"3310.455000028014","","image-slider-response","179","560708","0.0-174.0","ADVJB810K4OYR","","","","","-25","","","","","","","","","","","","","","","","","","","","","",""
"3916","","image-button-response","180","565712","0.0-175.0","ADVJB810K4OYR","img_art/7.jpg","5","","","","","","","","","","","","","","","","","","","","","","","","",""
"995","","image-button-response","181","566711","0.0-176.0","ADVJB810K4OYR","img_art/7.jpg","5","","","","","","","","","","","","","","","","","","","","","","","","",""
"1482","","image-button-response","182","568197","0.0-177.0-0.0","ADVJB810K4OYR","img_art/7.jpg","4","","","","","","","","","","","","","","","","","","","","","","","","",""
"1493","","image-button-response","183","569695","0.0-178.0-0.0","ADVJB810K4OYR","img_art/7.jpg","1","","","","","","","","","","","","","","","","","","","","","","","","",""
"null","","html-keyboard-response","184","570698","0.0-179.0","ADVJB810K4OYR","<p style=""font-size: 48px;"">+</p>","","","","","null","allTrialResponses","1000","1","19","img_art/7.jpg","-25","too simple","William,Samuel,Colton,Ryan,Eric,Caleb","looks like a photograph,-4,380,20","looking down on earth,19,400,20","reminds me of a cave wall,-21,220,20","I hate everything about this painting from the cors to it looking like a war,-50,380,20","This piece is really simple but the colors and texture work well together.,20,100,20","More saturated color, even more interpretations to have.,44,40,20","Caleb","More saturated color, even more interpretations to have.,44,40,20","Eric","This piece is really simple but the colors and texture work well together.,20,100,20","Samuel","looking down on earth,19,400,20","3"
"10965","","survey-text","185","581671","0.0-180.0-0.0","ADVJB810K4OYR","","","","{""Q0"":""this is a very creative art work""}","","","","","","","","","","","","","","","","","","","","","","",""
"3098.3649999834597","","image-slider-response","186","584774","0.0-181.0","ADVJB810K4OYR","","","","","36","","","","","","","","","","","","","","","","","","","","","",""
"1973","","image-button-response","187","589779","0.0-182.0","ADVJB810K4OYR","img_art/17.jpg","5","","","","","","","","","","","","","","","","","","","","","","","","",""
"1248","","image-button-response","188","591032","0.0-183.0","ADVJB810K4OYR","img_art/17.jpg","5","","","","","","","","","","","","","","","","","","","","","","","","",""
"546","","image-button-response","189","591581","0.0-184.0-0.0","ADVJB810K4OYR","img_art/17.jpg","4","","","","","","","","","","","","","","","","","","","","","","","","",""
"1464","","image-button-response","190","593050","0.0-185.0-0.0","ADVJB810K4OYR","img_art/17.jpg","3","","","","","","","","","","","","","","","","","","","","","","","","",""
"null","","html-keyboard-response","191","594056","0.0-186.0","ADVJB810K4OYR","<p style=""font-size: 48px;"">+</p>","","","","","null","allTrialResponses","1000","1","20","img_art/17.jpg","36","this is a very creative art work","Mark,Samuel,Bryce,Kenneth,Eric,Caleb","A coming storm but I think I would appreciate it more with more contrast.,-12,80,20","muted tones brings me down,-13,400,20","Doesnt really do anythingb for me.,4,20,20","I really like this, especially the tree.,23,300,20","This picture is calming to me, and I love the colors.,45,100,20","Not even abstract to me, very clear meaning.,44,40,20","Caleb","Not even abstract to me, very clear meaning.,44,40,20","Eric","This picture is calming to me, and I love the colors.,45,100,20","Kenneth","I really like this, especially the tree.,23,300,20","3"
"3191","","survey-text","192","597265","0.0-187.0-0.0","ADVJB810K4OYR","","","","{""Q0"":""we""}","","","","","","","","","","","","","","","","","","","","","","",""
"9841","","survey-text","193","607108","0.0-188.0-0.0","ADVJB810K4OYR","","","","{""Q0"":""simple""}","","","","","","","","","","","","","","","","","","","","","","",""
"3699.765000026673","","image-slider-response","194","610813","0.0-189.0","ADVJB810K4OYR","","","","","-50","","","","","","","","","","","","","","","","","","","","","",""
"null","","image-button-response","195","615822","0.0-190.0","ADVJB810K4OYR","img_art/30.jpg","null","","","","","","","","","","","","","","","","","","","","","","","","",""
"2633","","image-button-response","196","618458","0.0-191.0","ADVJB810K4OYR","img_art/30.jpg","1","","","","","","","","","","","","","","","","","","","","","","","","",""
"4893","","image-button-response","197","623354","0.0-192.0-0.0","ADVJB810K4OYR","img_art/30.jpg","5","","","","","","","","","","","","","","","","","","","","","","","","",""
"2013","","image-button-response","198","625372","0.0-193.0-0.0","ADVJB810K4OYR","img_art/30.jpg","2","","","","","","","","","","","","","","","","","","","","","","","","",""
"null","","html-keyboard-response","199","625873","0.0-194.0","ADVJB810K4OYR","<p style=""font-size: 48px;"">+</p>","","","","","null","allTrialResponses","500","1","21","img_art/30.jpg","-50","simple","Edward,Tristan,Grant,Kenneth,Eric,Caleb","My son made me a painting that looked like this,26,60,20","Too much abstraction for me, leaving my focus mainly on color. I like the texture.,-20,300,20","The brush strokes are appealing, and make me want to look at this longer.,11,200,20","The red helps it to pop.,13,300,20","I love the colors, the style, and the uniqueness in this piece. I love everything.,50,100,20","Colors are nice but it just seems too simple.,-26,40,20","Tristan","Too much abstraction for me, leaving my focus mainly on color. I like the texture.,-20,300,20","Caleb","Colors are nice but it just seems too simple.,-26,40,20","Grant","The brush strokes are appealing, and make me want to look at this longer.,11,200,20","3"
"6155","","survey-text","200","632044","0.0-195.0-0.0","ADVJB810K4OYR","","","","{""Q0"":""very creative""}","","","","","","","","","","","","","","","","","","","","","","",""
"5032.579999999143","","image-slider-response","201","637080","0.0-196.0","ADVJB810K4OYR","","","","","20","","","","","","","","","","","","","","","","","","","","","",""
"2127","","image-button-response","202","642084","0.0-197.0","ADVJB810K4OYR","img_art/12.jpg","4","","","","","","","","","","","","","","","","","","","","","","","","",""
"422","","image-button-response","203","642511","0.0-198.0","ADVJB810K4OYR","img_art/12.jpg","4","","","","","","","","","","","","","","","","","","","","","","","","",""
"436","","image-button-response","204","642951","0.0-199.0-0.0","ADVJB810K4OYR","img_art/12.jpg","5","","","","","","","","","","","","","","","","","","","","","","","","",""
"894","","image-button-response","205","643849","0.0-200.0-0.0","ADVJB810K4OYR","img_art/12.jpg","3","","","","","","","","","","","","","","","","","","","","","","","","",""
"null","","html-keyboard-response","206","645353","0.0-201.0","ADVJB810K4OYR","<p style=""font-size: 48px;"">+</p>","","","","","null","allTrialResponses","1500","1","22","img_art/12.jpg","20","very creative","Lucas,Tristan,Grant,Victor,Angel,Caleb","Seems to be puzzles.,25,380,20","Quite lovely with depth and possibility.,21,300,20","This elicits no reaction in me.,0,200,20","I like the colors and pattern,21,340,20","This feels cosmopolitan. Like looking at a high rise apartment at night and seeing into everyone's windows.,20,180,20","Almost natural flowing between abstract sections.,27,40,20","Angel","This feels cosmopolitan. Like looking at a high rise apartment at night and seeing into everyone's windows.,20,180,20","Caleb","Almost natural flowing between abstract sections.,27,40,20","Victor","I like the colors and pattern,21,340,20","3"
"12343","","survey-text","207","657705","0.0-202.0-0.0","ADVJB810K4OYR","","","","{""Q0"":""looks simple""}","","","","","","","","","","","","","","","","","","","","","","",""
"1733.2300000125542","","image-slider-response","208","659440","0.0-203.0","ADVJB810K4OYR","","","","","-17","","","","","","","","","","","","","","","","","","","","","",""
"2393","","image-button-response","209","664446","0.0-204.0","ADVJB810K4OYR","img_art/27.jpg","2","","","","","","","","","","","","","","","","","","","","","","","","",""
"598","","image-button-response","210","665047","0.0-205.0","ADVJB810K4OYR","img_art/27.jpg","2","","","","","","","","","","","","","","","","","","","","","","","","",""
"640","","image-button-response","211","665691","0.0-206.0-0.0","ADVJB810K4OYR","img_art/27.jpg","3","","","","","","","","","","","","","","","","","","","","","","","","",""
"920","","image-button-response","212","666616","0.0-207.0-0.0","ADVJB810K4OYR","img_art/27.jpg","5","","","","","","","","","","","","","","","","","","","","","","","","",""
"null","","html-keyboard-response","213","667623","0.0-208.0","ADVJB810K4OYR","<p style=""font-size: 48px;"">+</p>","","","","","null","allTrialResponses","1000","1","23","img_art/27.jpg","-17","looks simple","Jeremy,Seth,Jared,Victor,Angel,Caleb","Pleased. Reminds me of a child drawing,46,60,20","I don't care for the green scribbles; not sure what they are. But I adore the colors in the background.,24,60,20","meh. it is neutral to me.,1,400,20","doesn't look like any effort was put into this piece.,-19,340,20","Makes me think of Japanese food. I perceive it as comfortable and healthy.,20,180,20","An abstract piece with such lifeless colors.,-26,40,20","Jared","meh. it is neutral to me.,1,400,20","Victor","doesn't look like any effort was put into this piece.,-19,340,20","Caleb","An abstract piece with such lifeless colors.,-26,40,20","3"
"10289","","survey-text","214","677922","0.0-209.0-0.0","ADVJB810K4OYR","","","","{""Q0"":""this is very well done and creative""}","","","","","","","","","","","","","","","","","","","","","","",""
"2836.859999981243","","image-slider-response","215","680761","0.0-210.0","ADVJB810K4OYR","","","","","50","","","","","","","","","","","","","","","","","","","","","",""
"null","","image-button-response","216","685766","0.0-211.0","ADVJB810K4OYR","img_art/18.jpg","null","","","","","","","","","","","","","","","","","","","","","","","","",""
"1404","","image-button-response","217","687172","0.0-212.0","ADVJB810K4OYR","img_art/18.jpg","2","","","","","","","","","","","","","","","","","","","","","","","","",""
"350","","image-button-response","218","687526","0.0-213.0-0.0","ADVJB810K4OYR","img_art/18.jpg","1","","","","","","","","","","","","","","","","","","","","","","","","",""
"916","","image-button-response","219","688446","0.0-214.0-0.0","ADVJB810K4OYR","img_art/18.jpg","4","","","","","","","","","","","","","","","","","","","","","","","","",""
"null","","html-keyboard-response","220","688950","0.0-215.0","ADVJB810K4OYR","<p style=""font-size: 48px;"">+</p>","","","","","null","allTrialResponses","500","1","24","img_art/18.jpg","50","this is very well done and creative","David,Thomas,Jared,Victor,Garrett,Caleb","I like how the image gives off an impression of bravery.,25,340,20","I could stare at this for long stretches of time and still find new details. I love it.,40,220,20","it looks like people,9,400,20","nice balance of color. The different sizes and types of strokes give a lot to look at,18,340,20","I think its supposed to be a boat and the boat looks kind of interesting to me.,10,180,20","Accents make this piece.,21,40,20","Jared","it looks like people,9,400,20","Thomas","I could stare at this for long stretches of time and still find new details. I love it.,40,220,20","Garrett","I think its supposed to be a boat and the boat looks kind of interesting to me.,10,180,20","3"
"3092","","survey-text","221","692052","0.0-216.0-0.0","ADVJB810K4OYR","","","","{""Q0"":""looks simple""}","","","","","","","","","","","","","","","","","","","","","","",""
"2367.3950000084005","","image-slider-response","222","694422","0.0-217.0","ADVJB810K4OYR","","","","","-15","","","","","","","","","","","","","","","","","","","","","",""
"2664","","image-button-response","223","699426","0.0-218.0","ADVJB810K4OYR","img_art/15.jpg","2","","","","","","","","","","","","","","","","","","","","","","","","",""
"2718","","image-button-response","224","702147","0.0-219.0","ADVJB810K4OYR","img_art/15.jpg","2","","","","","","","","","","","","","","","","","","","","","","","","",""
"2057","","image-button-response","225","704207","0.0-220.0-0.0","ADVJB810K4OYR","img_art/15.jpg","4","","","","","","","","","","","","","","","","","","","","","","","","",""
"405","","image-button-response","226","704617","0.0-221.0-0.0","ADVJB810K4OYR","img_art/15.jpg","5","","","","","","","","","","","","","","","","","","","","","","","","",""
"null","","html-keyboard-response","227","705620","0.0-222.0","ADVJB810K4OYR","<p style=""font-size: 48px;"">+</p>","","","","","null","allTrialResponses","1000","1","25","img_art/15.jpg","-15","looks simple","Vincent,Thomas,Jared,Adam,Garrett,Alexis","I like the colors and the different style This brings,7,360,20","Interesting, and I don't dislike it.,9,220,20","i cant find somthing ilike about it,-31,400,20","Eyes hunt for the blue in the black.,5,40,20","Not enough colors to make it interesting and doesn't look like anything is happening.,-20,180,20","it is dark and gloomy,-9,140,20","Jared","i cant find somthing ilike about it,-31,400,20","Garrett","Not enough colors to make it interesting and doesn't look like anything is happening.,-20,180,20","Alexis","it is dark and gloomy,-9,140,20","3"
"4272","","survey-text","228","709912","0.0-223.0-0.0","ADVJB810K4OYR","","","","{""Q0"":""table""}","","","","","","","","","","","","","","","","","","","","","","",""
"12641","","survey-text","229","722556","0.0-224.0-0.0","ADVJB810K4OYR","","","","{""Q0"":""looks like lips""}","","","","","","","","","","","","","","","","","","","","","","",""
"3523.0699999956414","","image-slider-response","230","726083","0.0-225.0","ADVJB810K4OYR","","","","","-22","","","","","","","","","","","","","","","","","","","","","",""
"3115","","image-button-response","231","731090","0.0-226.0","ADVJB810K4OYR","img_art/9.jpg","3","","","","","","","","","","","","","","","","","","","","","","","","",""
"1470","","image-button-response","232","732563","0.0-227.0","ADVJB810K4OYR","img_art/9.jpg","0","","","","","","","","","","","","","","","","","","","","","","","","",""
"945","","image-button-response","233","733511","0.0-228.0-0.0","ADVJB810K4OYR","img_art/9.jpg","0","","","","","","","","","","","","","","","","","","","","","","","","",""
"773","","image-button-response","234","737286","0.0-228.1-0.1","ADVJB810K4OYR","img_art/9.jpg","3","","","","","","","","","","","","","","","","","","","","","","","","",""
"925","","image-button-response","235","738216","0.0-229.0-0.0","ADVJB810K4OYR","img_art/9.jpg","1","","","","","","","","","","","","","","","","","","","","","","","","",""
"null","","html-keyboard-response","236","739718","0.0-230.0","ADVJB810K4OYR","<p style=""font-size: 48px;"">+</p>","","","","","null","allTrialResponses","1500","1","26","img_art/9.jpg","-22","looks like lips","Alexander,James,Jared,Anthony,Garrett,Alexis","The mouth of an ugly beast.,-25,120,20","This has some of my favorite colors, and I like it,21,380,20","it looks like a lady resting. it is soothing.,4,400,20","This piece is very boring to look at.,-27,200,20","This looks like someone sleeping in a bed, and I think the colors make it look interesting.,20,180,20","This photo make me feel peaceful. It looks like a woman sleeping in a garden,42,140,20","Alexander","The mouth of an ugly beast.,-25,120,20","Anthony","This piece is very boring to look at.,-27,200,20","James","This has some of my favorite colors, and I like it,21,380,20","5"
"8306","","survey-text","237","748036","0.0-231.0-0.0","ADVJB810K4OYR","","","","{""Q0"":""it looks 3d""}","","","","","","","","","","","","","","","","","","","","","","",""
"2269.0699999802746","","image-slider-response","238","750308","0.0-232.0","ADVJB810K4OYR","","","","","22","","","","","","","","","","","","","","","","","","","","","",""
"null","","image-button-response","239","755315","0.0-233.0","ADVJB810K4OYR","img_art/29.jpg","null","","","","","","","","","","","","","","","","","","","","","","","","",""
"4605","","image-button-response","240","759922","0.0-234.0","ADVJB810K4OYR","img_art/29.jpg","4","","","","","","","","","","","","","","","","","","","","","","","","",""
"493","","image-button-response","241","760418","0.0-235.0-0.0","ADVJB810K4OYR","img_art/29.jpg","3","","","","","","","","","","","","","","","","","","","","","","","","",""
"1135","","image-button-response","242","761556","0.0-236.0-0.0","ADVJB810K4OYR","img_art/29.jpg","2","","","","","","","","","","","","","","","","","","","","","","","","",""
"null","","html-keyboard-response","243","762058","0.0-237.0","ADVJB810K4OYR","<p style=""font-size: 48px;"">+</p>","","","","","null","allTrialResponses","500","1","27","img_art/29.jpg","22","it looks 3d","Alexander,James,Richard,Anthony,John,Dylan","Tested and failed a lot of ideas.,-20,120,20","It has a red X on there, and x's mean bad in my perspective,-29,380,20","it's OK, no clue to what's going on but good use of light and dark,4,340,20","Very interesting composition,41,200,20","Its interesting although doesnt illicit any strong emotions from me,10,120,20","I don't like this. It is ugly and dark,-29,40,20","John","Its interesting although doesnt illicit any strong emotions from me,10,120,20","Anthony","Very interesting composition,41,200,20","Richard","it's OK, no clue to what's going on but good use of light and dark,4,340,20","5"
"14683","","survey-text","244","776759","0.0-238.0-0.0","ADVJB810K4OYR","","","","{""Q0"":""looks like a storm about to approach""}","","","","","","","","","","","","","","","","","","","","","","",""
"2282.820000022184","","image-slider-response","245","779044","0.0-239.0","ADVJB810K4OYR","","","","","16","","","","","","","","","","","","","","","","","","","","","",""
"4038","","image-button-response","246","784050","0.0-240.0","ADVJB810K4OYR","img_art/21.jpg","0","","","","","","","","","","","","","","","","","","","","","","","","",""
"1097","","image-button-response","247","785150","0.0-241.0","ADVJB810K4OYR","img_art/21.jpg","0","","","","","","","","","","","","","","","","","","","","","","","","",""
"1623","","image-button-response","248","786777","0.0-242.0-0.0","ADVJB810K4OYR","img_art/21.jpg","4","","","","","","","","","","","","","","","","","","","","","","","","",""
"1788","","image-button-response","249","788569","0.0-243.0-0.0","ADVJB810K4OYR","img_art/21.jpg","1","","","","","","","","","","","","","","","","","","","","","","","","",""
"null","","html-keyboard-response","250","790071","0.0-244.0","ADVJB810K4OYR","<p style=""font-size: 48px;"">+</p>","","","","","null","allTrialResponses","1500","1","28","img_art/21.jpg","16","looks like a storm about to approach","Adrian,Connor,Richard,Anthony,John,Isaiah","I like this piece more the more I look at. Still wouldn't want it in my home, though.,8,60,20","Love the colors and hue, ocean,38,240,20","setting sun sky? nice colors and blending,14,340,20","Bland, this painting is my least favorite,-20,200,20","I like the colors that were used and the stark contrast between the two sides,25,120,20","I feel the same serene excitement that I feel watching a sunrise on a beach.,38,300,20","Adrian","I like this piece more the more I look at. Still wouldn't want it in my home, though.,8,60,20","John","I like the colors that were used and the stark contrast between the two sides,25,120,20","Connor","Love the colors and hue, ocean,38,240,20","5"
"19510","","survey-text","251","809595","0.0-245.0-0.0","ADVJB810K4OYR","","","","{""Q0"":""this is layered with different design""}","","","","","","","","","","","","","","","","","","","","","","",""
"2547.3499999498017","","image-slider-response","252","812145","0.0-246.0","ADVJB810K4OYR","","","","","13","","","","","","","","","","","","","","","","","","","","","",""
"4393","","image-button-response","253","817151","0.0-247.0","ADVJB810K4OYR","img_art/13.jpg","3","","","","","","","","","","","","","","","","","","","","","","","","",""
"1256","","image-button-response","254","818410","0.0-248.0","ADVJB810K4OYR","img_art/13.jpg","3","","","","","","","","","","","","","","","","","","","","","","","","",""
"784","","image-button-response","255","819198","0.0-249.0-0.0","ADVJB810K4OYR","img_art/13.jpg","4","","","","","","","","","","","","","","","","","","","","","","","","",""
"398","","image-button-response","256","819601","0.0-250.0-0.0","ADVJB810K4OYR","img_art/13.jpg","5","","","","","","","","","","","","","","","","","","","","","","","","",""
"null","","html-keyboard-response","257","821105","0.0-251.0","ADVJB810K4OYR","<p style=""font-size: 48px;"">+</p>","","","","","null","allTrialResponses","1500","1","29","img_art/13.jpg","13","this is layered with different design","Adrian,Connor,Bryan,Brandon,John,Travis","I find this oddly pleasant, but I object to this style. It's just a background with splatters. How is that art?,-5,60,20","Color palette is complementary,40,240,20","Love the colors, love the abstractness, love this Jackson Pollock type painting.,48,400,20","Simple, but pleasing. The blue gradient is a favorite of mine,32,320,20","Pretty and it reminds me of rain droplets running down a window on a rainy day.,40,120,20","I love the colors and the texture,37,260,20","Brandon","Simple, but pleasing. The blue gradient is a favorite of mine,32,320,20","John","Pretty and it reminds me of rain droplets running down a window on a rainy day.,40,120,20","Travis","I love the colors and the texture,37,260,20","5"
"7217","","survey-text","258","828334","0.0-252.0-0.0","ADVJB810K4OYR","","","","{""Q0"":""creative use of shapes""}","","","","","","","","","","","","","","","","","","","","","","",""
"3170.8400000352412","","image-slider-response","259","831508","0.0-253.0","ADVJB810K4OYR","","","","","28","","","","","","","","","","","","","","","","","","","","","",""
"null","","image-button-response","260","836512","0.0-254.0","ADVJB810K4OYR","img_art/22.jpg","null","","","","","","","","","","","","","","","","","","","","","","","","",""
"5083","","image-button-response","261","841599","0.0-255.0","ADVJB810K4OYR","img_art/22.jpg","1","","","","","","","","","","","","","","","","","","","","","","","","",""
"428","","image-button-response","262","842031","0.0-256.0-0.0","ADVJB810K4OYR","img_art/22.jpg","2","","","","","","","","","","","","","","","","","","","","","","","","",""
"1306","","image-button-response","263","843341","0.0-257.0-0.0","ADVJB810K4OYR","img_art/22.jpg","4","","","","","","","","","","","","","","","","","","","","","","","","",""
"null","","html-keyboard-response","264","843843","0.0-258.0","ADVJB810K4OYR","<p style=""font-size: 48px;"">+</p>","","","","","null","allTrialResponses","500","1","30","img_art/22.jpg","28","creative use of shapes","Jake,Jose,Gregory,Brandon,John,Travis","It's bland and ugly.,-21,360,20","Cool squares but what's the circle?,38,200,20","Like the mix of warm and cool colors,15,220,20","Don't like this type of abstract work,-39,320,20","Its okay,it doesnt make me feel any sort of strong emotion,1,120,20","Don't like it...too much red,-17,260,20","Jose","Cool squares but what's the circle?,38,200,20","Gregory","Like the mix of warm and cool colors,15,220,20","John","Its okay,it doesnt make me feel any sort of strong emotion,1,120,20","5"
"2394","","image-button-response_instructions","265","846251","0.0-259.0","ADVJB810K4OYR","","0","instructions","","","","","","","","","","","","","","","","","","","","","","","",""
"1274","","image-button-response","266","847534","0.0-260.0","ADVJB810K4OYR","","0","","","","","","","","","","","","","","","","","","","","","","","","",""
