"rt","url","trial_type","trial_index","time_elapsed","internal_node_id","participant_id","stimulus","button_pressed","Name","responses","response","key_press","variableName","fixationTime","condition","trial","photo","subjectRating","subjectResponse","agentsNames","agent_1_Response","agent_2_Response","agent_3_Response","agent_4_Response","agent_5_Response","agent_6_Response","kept_1_name","kept_1_response","kept_2_name","kept_2_response","kept_3_name","kept_3_response","errorCounter"
"8845","external_page_harvard.html","external-html","0","8939","0.0-0.0","AG2YM9OWQP690","","","","","","","","","","","","","","","","","","","","","","","","","","",""
"1771","","image-button-response","1","10713","0.0-1.0","AG2YM9OWQP690","","1","","","","","","","","","","","","","","","","","","","","","","","","",""
"2246","","image-button-response","2","12968","0.0-2.0-0.0","AG2YM9OWQP690","","1","phone","","","","","","","","","","","","","","","","","","","","","","","",""
"8037","","survey-text","3","21008","0.0-3.0-0.0","AG2YM9OWQP690","","","","{""Q0"":""AG2YM9OWQP690""}","","","","","","","","","","","","","","","","","","","","","","",""
"8915","","image-button-response_instructions","4","29927","0.0-4.0","AG2YM9OWQP690","","0","instructions","","","","","","","","","","","","","","","","","","","","","","","",""
"25173","","image-button-response_instructions","5","55103","0.0-5.0","AG2YM9OWQP690","img_art/ins/popularity/ins1.png","0","instructions","","","","","","","","","","","","","","","","","","","","","","","",""
"5512","","image-button-response_instructions","6","60618","0.0-6.0","AG2YM9OWQP690","img_art/ins/popularity/ins2.png","0","instructions","","","","","","","","","","","","","","","","","","","","","","","",""
"16788","","image-button-response_instructions","7","77408","0.0-7.0","AG2YM9OWQP690","img_art/ins/popularity/ins2Extreme.png","0","instructions","","","","","","","","","","","","","","","","","","","","","","","",""
"5766","","image-button-response_instructions","8","83176","0.0-8.0","AG2YM9OWQP690","img_art/ins/popularity/ins3KEEPpop.PNG","0","instructions","","","","","","","","","","","","","","","","","","","","","","","",""
"5242","","image-button-response_instructions","9","88420","0.0-9.0","AG2YM9OWQP690","img_art/ins/popularity/ins3ANamepop.PNG","0","instructions","","","","","","","","","","","","","","","","","","","","","","","",""
"3164","","image-button-response_instructions","10","91586","0.0-10.0","AG2YM9OWQP690","img_art/ins/popularity/ins3ARatingpop.png","0","instructions","","","","","","","","","","","","","","","","","","","","","","","",""
"3410","","image-button-response_instructions","11","94998","0.0-11.0","AG2YM9OWQP690","img_art/ins/popularity/ins3ATextpop.png","0","instructions","","","","","","","","","","","","","","","","","","","","","","","",""
"7466","","image-button-response_instructions","12","102466","0.0-12.0","AG2YM9OWQP690","img_art/ins/popularity/ins3ALikespop.png","0","instructions","","","","","","","","","","","","","","","","","","","","","","","",""
"11519","","image-button-response_instructions","13","113987","0.0-13.0","AG2YM9OWQP690","img_art/ins/popularity/ins3KEEPpop.PNG","0","instructions","","","","","","","","","","","","","","","","","","","","","","","",""
"7716","","image-button-response_instructions","14","121705","0.0-14.0","AG2YM9OWQP690","img_art/ins/popularity/ins3_5RED.png","0","instructions","","","","","","","","","","","","","","","","","","","","","","","",""
"7260","","image-button-response_instructions","15","128967","0.0-15.0","AG2YM9OWQP690","img_art/ins/popularity/ins3KEEPpop.PNG","0","instructions","","","","","","","","","","","","","","","","","","","","","","","",""
"8562","","image-button-response_instructions","16","137531","0.0-16.0","AG2YM9OWQP690","img_art/ins/popularity/ins4KEEPpop.PNG","0","instructions","","","","","","","","","","","","","","","","","","","","","","","",""
"5012","","image-button-response_instructions","17","142545","0.0-17.0","AG2YM9OWQP690","img_art/ins/popularity/ins5KEEPpop.PNG","0","instructions","","","","","","","","","","","","","","","","","","","","","","","",""
"1916","","image-button-response_instructions","18","144463","0.0-18.0","AG2YM9OWQP690","","0","instructions","","","","","","","","","","","","","","","","","","","","","","","",""
"16628","","survey-text","19","161139","0.0-19.0-0.0","AG2YM9OWQP690","","","","{""Q0"":""but""}","","","","","","","","","","","","","","","","","","","","","","",""
"18222","","survey-text","20","179365","0.0-20.0-0.0","AG2YM9OWQP690","","","","{""Q0"":""I think this painting is ugly""}","","","","","","","","","","","","","","","","","","","","","","",""
"6922","","image-slider-response","21","186292","0.0-21.0","AG2YM9OWQP690","","","","","-39","","","","","","","","","","","","","","","","","","","","","",""
"null","","image-button-response","22","191310","0.0-22.0","AG2YM9OWQP690","img_art/ins/1.jpg","null","","","","","","","","","","","","","","","","","","","","","","","","",""
"10396","","image-button-response","23","201710","0.0-23.0","AG2YM9OWQP690","img_art/ins/1.jpg","3","","","","","","","","","","","","","","","","","","","","","","","","",""
"10553","","image-button-response","24","212267","0.0-24.0-0.0","AG2YM9OWQP690","img_art/ins/1.jpg","1","","","","","","","","","","","","","","","","","","","","","","","","",""
"9647","","image-button-response","25","221919","0.0-25.0-0.0","AG2YM9OWQP690","img_art/ins/1.jpg","0","","","","","","","","","","","","","","","","","","","","","","","","",""
"null","","html-keyboard-response","26","222433","0.0-26.0","AG2YM9OWQP690","<p style=""font-size: 48px;"">+</p>","","","","","null","allTrialResponses","500","1","-2","img_art/ins/1.jpg","-39","I think this painting is ugly","Allison,Ashley,Beth,Dora,Erika,Jen","looks like a lot of things going on in the mist,20,20,20","I just don't get why these type of art would be popular,-32,40,20","This color reminds me of poo,-46,60,20","looks like what my niece in 3rd grade did this afternoon,-50,80,20","I like the sophisticated brushwork,40,100,20","It reminds me of a candy land dream I had,36,120,20","Dora","looks like what my niece in 3rd grade did this afternoon,-50,80,20","Ashley","I just don't get why these type of art would be popular,-32,40,20","Allison","looks like a lot of things going on in the mist,20,20,20","0"
"24944","","survey-text","27","247384","0.0-27.0-0.0","AG2YM9OWQP690","","","","{""Q0"":""very dark colors and makes me depressed""}","","","","","","","","","","","","","","","","","","","","","","",""
"4106.599999904633","","image-slider-response","28","251494","0.0-28.0","AG2YM9OWQP690","","","","","-50","","","","","","","","","","","","","","","","","","","","","",""
"null","","image-button-response","29","256511","0.0-29.0","AG2YM9OWQP690","img_art/ins/2.jpg","null","","","","","","","","","","","","","","","","","","","","","","","","",""
"3683","","image-button-response","30","260197","0.0-30.0","AG2YM9OWQP690","img_art/ins/2.jpg","3","","","","","","","","","","","","","","","","","","","","","","","","",""
"9556","","image-button-response","31","269757","0.0-31.0-0.0","AG2YM9OWQP690","img_art/ins/2.jpg","1","","","","","","","","","","","","","","","","","","","","","","","","",""
"18727","","image-button-response","32","288489","0.0-32.0-0.0","AG2YM9OWQP690","img_art/ins/2.jpg","4","","","","","","","","","","","","","","","","","","","","","","","","",""
"null","","html-keyboard-response","33","289499","0.0-33.0","AG2YM9OWQP690","<p style=""font-size: 48px;"">+</p>","","","","","null","allTrialResponses","1000","1","-1","img_art/ins/2.jpg","-50","very dark colors and makes me depressed","Allison,Ashley,Jenna,Dora,Kara,Katie","I don't have strong feelings about this,10,20,20","Idk, it is just annoying,-32,40,20","One of my pet peevs,-48,140,20","looks too angry,-50,80,20","I like the blocks of color arrangements,30,160,20","too much color!,-28,180,20","Dora","looks too angry,-50,80,20","Ashley","Idk, it is just annoying,-32,40,20","Kara","I like the blocks of color arrangements,30,160,20","0"
"22982","","survey-text","34","312487","0.0-34.0-0.0","AG2YM9OWQP690","","","","{""Q0"":""I feel like I am in freezer with ice all around me""}","","","","","","","","","","","","","","","","","","","","","","",""
"4451.900000095367","","image-slider-response","35","316942","0.0-35.0","AG2YM9OWQP690","","","","","-12","","","","","","","","","","","","","","","","","","","","","",""
"null","","image-button-response","36","321958","0.0-36.0","AG2YM9OWQP690","img_art/ins/3.jpg","null","","","","","","","","","","","","","","","","","","","","","","","","",""
"6705","","image-button-response","37","328666","0.0-37.0","AG2YM9OWQP690","img_art/ins/3.jpg","5","","","","","","","","","","","","","","","","","","","","","","","","",""
"9658","","image-button-response","38","338328","0.0-38.0-0.0","AG2YM9OWQP690","img_art/ins/3.jpg","0","","","","","","","","","","","","","","","","","","","","","","","","",""
"2856","","image-button-response","39","341188","0.0-39.0-0.0","AG2YM9OWQP690","img_art/ins/3.jpg","1","","","","","","","","","","","","","","","","","","","","","","","","",""
"null","","html-keyboard-response","40","342205","0.0-40.0","AG2YM9OWQP690","<p style=""font-size: 48px;"">+</p>","","","","","null","allTrialResponses","1000","1","0","img_art/ins/3.jpg","-12","I feel like I am in freezer with ice all around me","Leslie,Ashley,Mary,Dora,Kara,Rose","It's an alright work,15,200,20","It looks like a playground for bats,-36,40,20","I like the overlapping of brushes,41,220,20","My worst nightmare,-42,80,20","calming blue is very nice,36,160,20","My daily routine, it's depressing,-20,240,20","Rose","My daily routine, it's depressing,-20,240,20","Leslie","It's an alright work,15,200,20","Ashley","It looks like a playground for bats,-36,40,20","0"
"8306","","image-button-response_instructions","41","350519","0.0-41.0","AG2YM9OWQP690","","0","instructions","","","","","","","","","","","","","","","","","","","","","","","",""
"17112","","survey-likert","42","367634","0.0-42.0-0.0","AG2YM9OWQP690","","","","{""Q0"":"""",""Q1"":0,""Q2"":1}","","","","","","","","","","","","","","","","","","","","","","",""
"6133","","survey-text","43","373779","0.0-43.0-0.0","AG2YM9OWQP690","","","","{""Q0"":""rock""}","","","","","","","","","","","","","","","","","","","","","","",""
"16061","","survey-text","44","389843","0.0-44.0-0.0","AG2YM9OWQP690","","","","{""Q0"":""It looks like death in the desert""}","","","","","","","","","","","","","","","","","","","","","","",""
"4435.799999952316","","image-slider-response","45","394282","0.0-45.0","AG2YM9OWQP690","","","","","-50","","","","","","","","","","","","","","","","","","","","","",""
"null","","image-button-response","46","399340","0.0-46.0","AG2YM9OWQP690","img_art/20.jpg","null","","","","","","","","","","","","","","","","","","","","","","","","",""
"8390","","image-button-response","47","407734","0.0-47.0","AG2YM9OWQP690","img_art/20.jpg","3","","","","","","","","","","","","","","","","","","","","","","","","",""
"3980","","image-button-response","48","411718","0.0-48.0-0.0","AG2YM9OWQP690","img_art/20.jpg","5","","","","","","","","","","","","","","","","","","","","","","","","",""
"6372","","image-button-response","49","418094","0.0-49.0-0.0","AG2YM9OWQP690","img_art/20.jpg","2","","","","","","","","","","","","","","","","","","","","","","","","",""
"null","","html-keyboard-response","50","419597","0.0-50.0","AG2YM9OWQP690","<p style=""font-size: 48px;"">+</p>","","","","","null","allTrialResponses","1500","1","1","img_art/20.jpg","-50","It looks like death in the desert","Jennifer,Lauren,Sophia,Katie,Autumn,Gabriela","Neutral, this piece doesn't strike me as particularly bad or good,0,380,20","I like how the image is depicting a scene.,10,340,20","A truck rolled over?  I do like the pictures and the technique though.,25,280,20","I don't like it. Dark sky and black figures. White objects remind me of bones.,-30,160,20","It's ok. Very abstract.,18,340,20","it is a bit disturbing, like a monster or ghost floating away from a bleak building,-8,140,20","Katie","I don't like it. Dark sky and black figures. White objects remind me of bones.,-30,160,20","Gabriela","it is a bit disturbing, like a monster or ghost floating away from a bleak building,-8,140,20","Sophia","A truck rolled over?  I do like the pictures and the technique though.,25,280,20","0"
"24953","","survey-text","51","444557","0.0-51.0-0.0","AG2YM9OWQP690","","","","{""Q0"":""looks like space  planets""}","","","","","","","","","","","","","","","","","","","","","","",""
"4280.799999952316","","image-slider-response","52","448840","0.0-52.0","AG2YM9OWQP690","","","","","12","","","","","","","","","","","","","","","","","","","","","",""
"null","","image-button-response","53","453847","0.0-53.0","AG2YM9OWQP690","img_art/1.jpg","null","","","","","","","","","","","","","","","","","","","","","","","","",""
"6602","","image-button-response","54","460453","0.0-54.0","AG2YM9OWQP690","img_art/1.jpg","2","","","","","","","","","","","","","","","","","","","","","","","","",""
"5782","","image-button-response","55","466239","0.0-55.0-0.0","AG2YM9OWQP690","img_art/1.jpg","4","","","","","","","","","","","","","","","","","","","","","","","","",""
"7157","","image-button-response","56","473401","0.0-56.0-0.0","AG2YM9OWQP690","img_art/1.jpg","1","","","","","","","","","","","","","","","","","","","","","","","","",""
"null","","html-keyboard-response","57","473908","0.0-57.0","AG2YM9OWQP690","<p style=""font-size: 48px;"">+</p>","","","","","null","allTrialResponses","500","1","2","img_art/1.jpg","12","looks like space  planets","Morgan,Emma,Sophia,Katie,Shelby,Gabriela","Flat colors with no flavor.,5,380,20","Pretty, nice use of color,40,60,20","This is a great piece that has a lot more going on the longer you look at it. I like it!,30,280,20","Too messy. Just looks like a mess of dark colors.,-20,160,20","This one has a pleasent energy,15,240,20","This photo reminds me of a fall afternoon, serene,11,140,20","Sophia","This is a great piece that has a lot more going on the longer you look at it. I like it!,30,280,20","Shelby","This one has a pleasent energy,15,240,20","Emma","Pretty, nice use of color,40,60,20","0"
"34922","","survey-text","58","508837","0.0-58.0-0.0","AG2YM9OWQP690","","","","{""Q0"":""looks like overhead view of a planet or something""}","","","","","","","","","","","","","","","","","","","","","","",""
"3390.600000143051","","image-slider-response","59","512231","0.0-59.0","AG2YM9OWQP690","","","","","-25","","","","","","","","","","","","","","","","","","","","","",""
"null","","image-button-response","60","517244","0.0-60.0","AG2YM9OWQP690","img_art/7.jpg","null","","","","","","","","","","","","","","","","","","","","","","","","",""
"11814","","image-button-response","61","529061","0.0-61.0","AG2YM9OWQP690","img_art/7.jpg","4","","","","","","","","","","","","","","","","","","","","","","","","",""
"9545","","image-button-response","62","538609","0.0-62.0-0.0","AG2YM9OWQP690","img_art/7.jpg","1","","","","","","","","","","","","","","","","","","","","","","","","",""
"4532","","image-button-response","63","543145","0.0-63.0-0.0","AG2YM9OWQP690","img_art/7.jpg","0","","","","","","","","","","","","","","","","","","","","","","","","",""
"null","","html-keyboard-response","64","544152","0.0-64.0","AG2YM9OWQP690","<p style=""font-size: 48px;"">+</p>","","","","","null","allTrialResponses","1000","1","3","img_art/7.jpg","-25","looks like overhead view of a planet or something","Haley,Emma,Sophia,Kristen,Shelby,Alyssa","Confusion, mild aversion,-36,220,20","Cool, makes me think of archeology,15,60,20","Is this cookie dough?  Yum!,-10,280,20","sand, beach, tranquil,10,280,20","This feels very earthy and grounded,20,240,20","It looks like someone took a picture of a muddy ground and called it art.,-41,160,20","Shelby","This feels very earthy and grounded,20,240,20","Emma","Cool, makes me think of archeology,15,60,20","Haley","Confusion, mild aversion,-36,220,20","0"
"43541","","survey-text","65","587701","0.0-65.0-0.0","AG2YM9OWQP690","","","","{""Q0"":""looks weird and like a flower laying in different positions""}","","","","","","","","","","","","","","","","","","","","","","",""
"3972.0999999046326","","image-slider-response","66","591676","0.0-66.0","AG2YM9OWQP690","","","","","-50","","","","","","","","","","","","","","","","","","","","","",""
"null","","image-button-response","67","596683","0.0-67.0","AG2YM9OWQP690","img_art/15.jpg","null","","","","","","","","","","","","","","","","","","","","","","","","",""
"282","","image-button-response","68","596969","0.0-68.0","AG2YM9OWQP690","img_art/15.jpg","2","","","","","","","","","","","","","","","","","","","","","","","","",""
"18925","","image-button-response","69","615900","0.0-69.0-0.0","AG2YM9OWQP690","img_art/15.jpg","4","","","","","","","","","","","","","","","","","","","","","","","","",""
"4233","","image-button-response","70","620137","0.0-70.0-0.0","AG2YM9OWQP690","img_art/15.jpg","0","","","","","","","","","","","","","","","","","","","","","","","","",""
"null","","html-keyboard-response","71","621141","0.0-71.0","AG2YM9OWQP690","<p style=""font-size: 48px;"">+</p>","","","","","null","allTrialResponses","1000","1","4","img_art/15.jpg","-50","looks weird and like a flower laying in different positions","Haley,Emma,Molly,Chloe,Shelby,Amy","Interesting, and I don't dislike it.,9,220,20","Don't love it but it's cute,16,60,20","I can't see the meaning of the painting.,-30,340,20","Like the composition and lines,26,220,20","This painting gives a calm vibe but no stronger emotions than that,10,240,20","basic colors and pleasing shapes providing a calming effect,15,220,20","Molly","I can't see the meaning of the painting.,-30,340,20","Shelby","This painting gives a calm vibe but no stronger emotions than that,10,240,20","Haley","Interesting, and I don't dislike it.,9,220,20","0"
"27334","","survey-text","72","648483","0.0-72.0-0.0","AG2YM9OWQP690","","","","{""Q0"":""looks like its upside down and two people maybe""}","","","","","","","","","","","","","","","","","","","","","","",""
"4602.799999952316","","image-slider-response","73","653089","0.0-73.0","AG2YM9OWQP690","","","","","-20","","","","","","","","","","","","","","","","","","","","","",""
"null","","image-button-response","74","658101","0.0-74.0","AG2YM9OWQP690","img_art/28.jpg","null","","","","","","","","","","","","","","","","","","","","","","","","",""
"4012","","image-button-response","75","662115","0.0-75.0","AG2YM9OWQP690","img_art/28.jpg","3","","","","","","","","","","","","","","","","","","","","","","","","",""
"6915","","image-button-response","76","669033","0.0-76.0-0.0","AG2YM9OWQP690","img_art/28.jpg","5","","","","","","","","","","","","","","","","","","","","","","","","",""
"8150","","image-button-response","77","677187","0.0-77.0-0.0","AG2YM9OWQP690","img_art/28.jpg","1","","","","","","","","","","","","","","","","","","","","","","","","",""
"null","","html-keyboard-response","78","678699","0.0-78.0","AG2YM9OWQP690","<p style=""font-size: 48px;"">+</p>","","","","","null","allTrialResponses","1500","1","5","img_art/28.jpg","-20","looks like its upside down and two people maybe","Haley,Kayla,Molly,Lindsey,Shelby,Kaitlyn","I can't explain why, but I really love this one,50,220,20","Don't love it, don't hate it. It's just there.,1,180,20","This painting is mysterious, it makes me curious.,5,340,20","Not a fan of the drab colors but it looks a little bit interesting.,-7,400,20","This one gives me an uneasy feeling,-10,240,20","Not sure what way this picture is suppose to be oriented,-5,80,20","Lindsey","Not a fan of the drab colors but it looks a little bit interesting.,-7,400,20","Kaitlyn","Not sure what way this picture is suppose to be oriented,-5,80,20","Kayla","Don't love it, don't hate it. It's just there.,1,180,20","0"
"4428","","survey-text","79","683138","0.0-79.0-0.0","AG2YM9OWQP690","","","","{""Q0"":""sky""}","","","","","","","","","","","","","","","","","","","","","","",""
"27348","","survey-text","80","710488","0.0-80.0-0.0","AG2YM9OWQP690","","","","{""Q0"":""clash of colors  too dark feel uneasy""}","","","","","","","","","","","","","","","","","","","","","","",""
"5861.099999904633","","image-slider-response","81","716352","0.0-81.0","AG2YM9OWQP690","","","","","-45","","","","","","","","","","","","","","","","","","","","","",""
"null","","image-button-response","82","721375","0.0-82.0","AG2YM9OWQP690","img_art/2.jpg","null","","","","","","","","","","","","","","","","","","","","","","","","",""
"1273","","image-button-response","83","722651","0.0-83.0","AG2YM9OWQP690","img_art/2.jpg","2","","","","","","","","","","","","","","","","","","","","","","","","",""
"2725","","image-button-response","84","725379","0.0-84.0-0.0","AG2YM9OWQP690","img_art/2.jpg","5","","","","","","","","","","","","","","","","","","","","","","","","",""
"9548","","image-button-response","85","734931","0.0-85.0-0.0","AG2YM9OWQP690","img_art/2.jpg","3","","","","","","","","","","","","","","","","","","","","","","","","",""
"null","","html-keyboard-response","86","735937","0.0-86.0","AG2YM9OWQP690","<p style=""font-size: 48px;"">+</p>","","","","","null","allTrialResponses","1000","1","6","img_art/2.jpg","-45","clash of colors  too dark feel uneasy","Jacqueline,Kayla,Leslie,Lindsey,Olivia,Kaitlyn","A bit ugly with the greens.,-20,300,20","Different cultures. I like that it brings differences together.,4,180,20","The colors are entirely unappealing and very unpleasant to look at.,-20,380,20","Not a fan of the colors or the style.,-31,400,20","i liked the bright colors,13,40,20","Too jumbled and disorienting,-13,80,20","Leslie","The colors are entirely unappealing and very unpleasant to look at.,-20,380,20","Kaitlyn","Too jumbled and disorienting,-13,80,20","Lindsey","Not a fan of the colors or the style.,-31,400,20","0"
"31131","","survey-text","87","767074","0.0-87.0-0.0","AG2YM9OWQP690","","","","{""Q0"":""fall day""}","","","","","","","","","","","","","","","","","","","","","","",""
"3370.7000000476837","","image-slider-response","88","770448","0.0-88.0","AG2YM9OWQP690","","","","","-4","","","","","","","","","","","","","","","","","","","","","",""
"null","","image-button-response","89","775468","0.0-89.0","AG2YM9OWQP690","img_art/27.jpg","null","","","","","","","","","","","","","","","","","","","","","","","","",""
"2831","","image-button-response","90","778303","0.0-90.0","AG2YM9OWQP690","img_art/27.jpg","1","","","","","","","","","","","","","","","","","","","","","","","","",""
"18719","","image-button-response","91","797025","0.0-91.0-0.0","AG2YM9OWQP690","img_art/27.jpg","4","","","","","","","","","","","","","","","","","","","","","","","","",""
"12919","","image-button-response","92","809949","0.0-92.0-0.0","AG2YM9OWQP690","img_art/27.jpg","3","","","","","","","","","","","","","","","","","","","","","","","","",""
"null","","html-keyboard-response","93","810964","0.0-93.0","AG2YM9OWQP690","<p style=""font-size: 48px;"">+</p>","","","","","null","allTrialResponses","1000","1","7","img_art/27.jpg","-4","fall day","Cassidy,Victoria,Leslie,Lindsey,Diana,Kaitlyn","doesn't look like any effort was put into this piece.,-19,140,20","reminds me of fall,33,400,20","This feels like I'm looking at a child's scribbles.,-27,380,20","Looks like my niece's doodles.,-50,400,20","I don't care for the green scribbles; not sure what they are. But I adore the colors in the background.,24,380,20","The variation of orange is nice,9,80,20","Victoria","reminds me of fall,33,400,20","Diana","I don't care for the green scribbles; not sure what they are. But I adore the colors in the background.,24,380,20","Lindsey","Looks like my niece's doodles.,-50,400,20","0"
"36704","","survey-text","94","847676","0.0-94.0-0.0","AG2YM9OWQP690","","","","{""Q0"":""winter storm with earth opening up and someone riding a horse""}","","","","","","","","","","","","","","","","","","","","","","",""
"6915.200000047684","","image-slider-response","95","854594","0.0-95.0","AG2YM9OWQP690","","","","","-50","","","","","","","","","","","","","","","","","","","","","",""
"null","","image-button-response","96","859604","0.0-96.0","AG2YM9OWQP690","img_art/18.jpg","null","","","","","","","","","","","","","","","","","","","","","","","","",""
"15907","","image-button-response","97","875514","0.0-97.0","AG2YM9OWQP690","img_art/18.jpg","4","","","","","","","","","","","","","","","","","","","","","","","","",""
"10208","","image-button-response","98","885725","0.0-98.0-0.0","AG2YM9OWQP690","img_art/18.jpg","3","","","","","","","","","","","","","","","","","","","","","","","","",""
"34890","","image-button-response","99","920618","0.0-99.0-0.0","AG2YM9OWQP690","img_art/18.jpg","2","","","","","","","","","","","","","","","","","","","","","","","","",""
"null","","html-keyboard-response","100","922125","0.0-100.0","AG2YM9OWQP690","<p style=""font-size: 48px;"">+</p>","","","","","null","allTrialResponses","1500","1","8","img_art/18.jpg","-50","winter storm with earth opening up and someone riding a horse","Angela,Victoria,Mary,Lindsey,Diana,Nicole","like the grays and contrast of the yellow. This piece feels a bit angry,10,260,20","Makes me think of stormy oceans,20,400,20","I like the expression of this piece. The colors are very outdated though.,-5,180,20","Interesting piece - gives you more the more you look at it. I like it but wouldn't buy it.,11,400,20","This painting reminds me of the 4 horsemen of the apocalypse. It feels haunting.,31,380,20","There's danger in this painting and it's awesome,40,20,20","Diana","This painting reminds me of the 4 horsemen of the apocalypse. It feels haunting.,31,380,20","Lindsey","Interesting piece - gives you more the more you look at it. I like it but wouldn't buy it.,11,400,20","Mary","I like the expression of this piece. The colors are very outdated though.,-5,180,20","0"
"92070","","survey-text","101","1014201","0.0-101.0-0.0","AG2YM9OWQP690","","","","{""Q0"":""Looks like a roller coaster coming out of river""}","","","","","","","","","","","","","","","","","","","","","","",""
"9304.799999952316","","image-slider-response","102","1023509","0.0-102.0","AG2YM9OWQP690","","","","","-19","","","","","","","","","","","","","","","","","","","","","",""
"null","","image-button-response","103","1028517","0.0-103.0","AG2YM9OWQP690","img_art/10.jpg","null","","","","","","","","","","","","","","","","","","","","","","","","",""
"21355","","image-button-response","104","1049874","0.0-104.0","AG2YM9OWQP690","img_art/10.jpg","3","","","","","","","","","","","","","","","","","","","","","","","","",""
"917","","image-button-response","105","1050794","0.0-105.0-0.0","AG2YM9OWQP690","img_art/10.jpg","4","","","","","","","","","","","","","","","","","","","","","","","","",""
"19353","","image-button-response","106","1070150","0.0-106.0-0.0","AG2YM9OWQP690","img_art/10.jpg","1","","","","","","","","","","","","","","","","","","","","","","","","",""
"null","","html-keyboard-response","107","1071660","0.0-107.0","AG2YM9OWQP690","<p style=""font-size: 48px;"">+</p>","","","","","null","allTrialResponses","1500","1","9","img_art/10.jpg","-19","Looks like a roller coaster coming out of river","Cheyenne,Grace,Mary,Lindsey,Diana,Kelly","Very nice painting, would like it more with different color choice.,6,200,20","First impression was musical instrument then, because of the gray colors, death.,5,180,20","The flow of lines is off. There are curvy and straight angry lines. It's not flattering at all.,-27,180,20","Looks like a violin. Not a fan of the smudges and smears, but my initial reaction was positive.,11,400,20","It reminds me of the ocean. Almost like a battlefield, but on the water.,19,380,20","I cant tell what this is supposed to be, but I enjoy the simplicity of it.,28,220,20","Lindsey","Looks like a violin. Not a fan of the smudges and smears, but my initial reaction was positive.,11,400,20","Diana","It reminds me of the ocean. Almost like a battlefield, but on the water.,19,380,20","Grace","First impression was musical instrument then, because of the gray colors, death.,5,180,20","0"
"20093","","survey-text","108","1091760","0.0-108.0-0.0","AG2YM9OWQP690","","","","{""Q0"":""clash of colors .  maybe seasons""}","","","","","","","","","","","","","","","","","","","","","","",""
"3996.699999809265","","image-slider-response","109","1095760","0.0-109.0","AG2YM9OWQP690","","","","","-41","","","","","","","","","","","","","","","","","","","","","",""
"null","","image-button-response","110","1100776","0.0-110.0","AG2YM9OWQP690","img_art/12.jpg","null","","","","","","","","","","","","","","","","","","","","","","","","",""
"4806","","image-button-response","111","1105586","0.0-111.0","AG2YM9OWQP690","img_art/12.jpg","3","","","","","","","","","","","","","","","","","","","","","","","","",""
"9365","","image-button-response","112","1114955","0.0-112.0-0.0","AG2YM9OWQP690","img_art/12.jpg","5","","","","","","","","","","","","","","","","","","","","","","","","",""
"3958","","image-button-response","113","1118918","0.0-113.0-0.0","AG2YM9OWQP690","img_art/12.jpg","4","","","","","","","","","","","","","","","","","","","","","","","","",""
"null","","html-keyboard-response","114","1119942","0.0-114.0","AG2YM9OWQP690","<p style=""font-size: 48px;"">+</p>","","","","","null","allTrialResponses","1000","1","10","img_art/12.jpg","-41","clash of colors .  maybe seasons","Marissa,Grace,Heather,Lindsey,Diana,Gabrielle","It reminds me of the documentary Paris is Burning, though I'm not sure why,11,160,20","Love the colors & the abstractness.,31,180,20","beautiful also reminds me of a quilt,1,260,20","Ugly colors and I'm just not too much a fan of cubist abstract art.,-50,400,20","This is beautiful. It looks like 1,000 different sunrises and sunsets.,44,380,20","seems too dark on top and too common on the bottom,-19,160,20","Lindsey","Ugly colors and I'm just not too much a fan of cubist abstract art.,-50,400,20","Gabrielle","seems too dark on top and too common on the bottom,-19,160,20","Diana","This is beautiful. It looks like 1,000 different sunrises and sunsets.,44,380,20","0"
"5358","","survey-text","115","1125315","0.0-115.0-0.0","AG2YM9OWQP690","","","","{""Q0"":""our""}","","","","","","","","","","","","","","","","","","","","","","",""
"32195","","survey-text","116","1157513","0.0-116.0-0.0","AG2YM9OWQP690","","","","{""Q0"":""a child doodling . No idea what it is""}","","","","","","","","","","","","","","","","","","","","","","",""
"2724.7000000476837","","image-slider-response","117","1160240","0.0-117.0","AG2YM9OWQP690","","","","","-50","","","","","","","","","","","","","","","","","","","","","",""
"null","","image-button-response","118","1165256","0.0-118.0","AG2YM9OWQP690","img_art/3.jpg","null","","","","","","","","","","","","","","","","","","","","","","","","",""
"707","","image-button-response","119","1165966","0.0-119.0","AG2YM9OWQP690","img_art/3.jpg","2","","","","","","","","","","","","","","","","","","","","","","","","",""
"3474","","image-button-response","120","1169442","0.0-120.0-0.0","AG2YM9OWQP690","img_art/3.jpg","3","","","","","","","","","","","","","","","","","","","","","","","","",""
"10466","","image-button-response","121","1179912","0.0-121.0-0.0","AG2YM9OWQP690","img_art/3.jpg","0","","","","","","","","","","","","","","","","","","","","","","","","",""
"null","","html-keyboard-response","122","1181415","0.0-122.0","AG2YM9OWQP690","<p style=""font-size: 48px;"">+</p>","","","","","null","allTrialResponses","1500","1","11","img_art/3.jpg","-50","a child doodling . No idea what it is","Brittany,Kaitlin,Sabrina,Lindsey,Diana,Gabrielle","I don't care for art that looks like it was just scribbled.,-19,40,20","good choice of color,12,60,20","I dont really feel anything from this, i cant see or understand any of it,-20,120,20","Angry red crayons, like a child throwing a tantrum. No thanks.,-10,400,20","I didn't feel the color choice when I first looked. I did however like the placement of the gray.,-28,380,20","7th grade art, not much effort to do this.,-39,160,20","Sabrina","I dont really feel anything from this, i cant see or understand any of it,-20,120,20","Lindsey","Angry red crayons, like a child throwing a tantrum. No thanks.,-10,400,20","Brittany","I don't care for art that looks like it was just scribbled.,-19,40,20","0"
"15511","","survey-text","123","1196933","0.0-123.0-0.0","AG2YM9OWQP690","","","","{""Q0"":""a fall day in town peaceful""}","","","","","","","","","","","","","","","","","","","","","","",""
"5824.200000047684","","image-slider-response","124","1202759","0.0-124.0","AG2YM9OWQP690","","","","","32","","","","","","","","","","","","","","","","","","","","","",""
"null","","image-button-response","125","1207768","0.0-125.0","AG2YM9OWQP690","img_art/26.jpg","null","","","","","","","","","","","","","","","","","","","","","","","","",""
"2403","","image-button-response","126","1210174","0.0-126.0","AG2YM9OWQP690","img_art/26.jpg","3","","","","","","","","","","","","","","","","","","","","","","","","",""
"6089","","image-button-response","127","1216266","0.0-127.0-0.0","AG2YM9OWQP690","img_art/26.jpg","5","","","","","","","","","","","","","","","","","","","","","","","","",""
"6018","","image-button-response","128","1222288","0.0-128.0-0.0","AG2YM9OWQP690","img_art/26.jpg","1","","","","","","","","","","","","","","","","","","","","","","","","",""
"null","","html-keyboard-response","129","1223307","0.0-129.0","AG2YM9OWQP690","<p style=""font-size: 48px;"">+</p>","","","","","null","allTrialResponses","1000","1","12","img_art/26.jpg","32","a fall day in town peaceful","Brittany,Amanda,Sabrina,Lindsey,Monica,Madison","It looks boring and too rough.,-9,40,20","Pleasant to look at,28,180,20","I dont see any expression,-29,120,20","I see a suburban neighborhood with townhouses and trees. Not a fan of the colors or style.,-16,400,20","It looks empty and unfinished,-28,360,20","Colors look glum; photograph is not properly contrasted and does not reflect the appropriate amount of natural light.,-10,60,20","Lindsey","I see a suburban neighborhood with townhouses and trees. Not a fan of the colors or style.,-16,400,20","Madison","Colors look glum; photograph is not properly contrasted and does not reflect the appropriate amount of natural light.,-10,60,20","Amanda","Pleasant to look at,28,180,20","0"
"17711","","survey-text","130","1241025","0.0-130.0-0.0","AG2YM9OWQP690","","","","{""Q0"":""beautiful waterfall . nice color ""}","","","","","","","","","","","","","","","","","","","","","","",""
"2544.7000000476837","","image-slider-response","131","1243573","0.0-131.0","AG2YM9OWQP690","","","","","38","","","","","","","","","","","","","","","","","","","","","",""
"null","","image-button-response","132","1248577","0.0-132.0","AG2YM9OWQP690","img_art/24.jpg","null","","","","","","","","","","","","","","","","","","","","","","","","",""
"495","","image-button-response","133","1249076","0.0-133.0","AG2YM9OWQP690","img_art/24.jpg","3","","","","","","","","","","","","","","","","","","","","","","","","",""
"14138","","image-button-response","134","1263218","0.0-134.0-0.0","AG2YM9OWQP690","img_art/24.jpg","1","","","","","","","","","","","","","","","","","","","","","","","","",""
"868","","image-button-response","135","1264090","0.0-135.0-0.0","AG2YM9OWQP690","img_art/24.jpg","2","","","","","","","","","","","","","","","","","","","","","","","","",""
"null","","html-keyboard-response","136","1265097","0.0-136.0","AG2YM9OWQP690","<p style=""font-size: 48px;"">+</p>","","","","","null","allTrialResponses","1000","1","13","img_art/24.jpg","38","beautiful waterfall . nice color ","Kelsey,Amanda,Shannon,Lindsey,Erin,Madison","this one is just a bit too harsh,-13,240,20","Beautiful,  peaceful,50,180,20","I like the way the colors are put together, and I can imagine this picture in real life.,40,220,20","I like the colors and see a stream in a wooded setting. Makes me feel calm and cheerful.,27,400,20","Too literal, not abstract,-29,120,20","Exceedingly garish,-19,60,20","Lindsey","I like the colors and see a stream in a wooded setting. Makes me feel calm and cheerful.,27,400,20","Amanda","Beautiful,  peaceful,50,180,20","Shannon","I like the way the colors are put together, and I can imagine this picture in real life.,40,220,20","0"
"38335","","survey-text","137","1303439","0.0-137.0-0.0","AG2YM9OWQP690","","","","{""Q0"":""someone older taking a brush and just tossing it onto canvas ""}","","","","","","","","","","","","","","","","","","","","","","",""
"8259.100000143051","","image-slider-response","138","1311701","0.0-138.0","AG2YM9OWQP690","","","","","11","","","","","","","","","","","","","","","","","","","","","",""
"null","","image-button-response","139","1316706","0.0-139.0","AG2YM9OWQP690","img_art/13.jpg","null","","","","","","","","","","","","","","","","","","","","","","","","",""
"8130","","image-button-response","140","1324839","0.0-140.0","AG2YM9OWQP690","img_art/13.jpg","0","","","","","","","","","","","","","","","","","","","","","","","","",""
"5404","","image-button-response","141","1330248","0.0-141.0-0.0","AG2YM9OWQP690","img_art/13.jpg","3","","","","","","","","","","","","","","","","","","","","","","","","",""
"16309","","image-button-response","142","1346560","0.0-142.0-0.0","AG2YM9OWQP690","img_art/13.jpg","0","","","","","","","","","","","","","","","","","","","","","","","","",""
"3250","","image-button-response","143","1355671","0.0-142.1-0.1","AG2YM9OWQP690","img_art/13.jpg","2","","","","","","","","","","","","","","","","","","","","","","","","",""
"null","","html-keyboard-response","144","1357176","0.0-143.0","AG2YM9OWQP690","<p style=""font-size: 48px;"">+</p>","","","","","null","allTrialResponses","1500","1","14","img_art/13.jpg","11","someone older taking a brush and just tossing it onto canvas ","Jasmine,Amanda,Shannon,Lindsey,Dominique,Megan","I like the colors together,17,340,20","Feels calm and could be placed in anyones house,43,180,20","It looks like someone splattered a bunch of different colors to make a picture; I think its ugly.,-40,220,20","I find this oddly pleasant, but I object to this style. It's just a background with splatters. How is that art?,-5,400,20","I love the colors reminds me of a rainy day..it's calm and relaxing,32,400,20","Average overly symmetrical safe,-26,200,20","Jasmine","I like the colors together,17,340,20","Lindsey","I find this oddly pleasant, but I object to this style. It's just a background with splatters. How is that art?,-5,400,20","Shannon","It looks like someone splattered a bunch of different colors to make a picture; I think its ugly.,-40,220,20","2"
"22741","","survey-text","145","1379924","0.0-144.0-0.0","AG2YM9OWQP690","","","","{""Q0"":""like the idea but not the colors . seems old like old days ""}","","","","","","","","","","","","","","","","","","","","","","",""
"2999","","image-slider-response","146","1382926","0.0-145.0","AG2YM9OWQP690","","","","","-19","","","","","","","","","","","","","","","","","","","","","",""
"null","","image-button-response","147","1387932","0.0-146.0","AG2YM9OWQP690","img_art/14.jpg","null","","","","","","","","","","","","","","","","","","","","","","","","",""
"9775","","image-button-response","148","1397709","0.0-147.0","AG2YM9OWQP690","img_art/14.jpg","4","","","","","","","","","","","","","","","","","","","","","","","","",""
"1662","","image-button-response","149","1399375","0.0-148.0-0.0","AG2YM9OWQP690","img_art/14.jpg","5","","","","","","","","","","","","","","","","","","","","","","","","",""
"13825","","image-button-response","150","1413203","0.0-149.0-0.0","AG2YM9OWQP690","img_art/14.jpg","0","","","","","","","","","","","","","","","","","","","","","","","","",""
"null","","html-keyboard-response","151","1414714","0.0-150.0","AG2YM9OWQP690","<p style=""font-size: 48px;"">+</p>","","","","","null","allTrialResponses","1500","1","15","img_art/14.jpg","-19","like the idea but not the colors . seems old like old days ","Jasmine,Maria,Shannon,Lindsey,Melissa,Vanessa","The colors are nice and it reminds me of a shrub or tree,10,340,20","I enjoy what comes across as a playful take on nature themes,26,120,20","I like this picture because it looks like a tree and the colors used look cool.,20,220,20","Warm, positive, growth.,8,400,20","makes me feel sad,-2,240,20","I don't like the colors, but I espeically don't like all the negative space.,-20,380,20","Melissa","makes me feel sad,-2,240,20","Vanessa","I don't like the colors, but I espeically don't like all the negative space.,-20,380,20","Jasmine","The colors are nice and it reminds me of a shrub or tree,10,340,20","2"
"5740","","survey-text","152","1420467","0.0-151.0-0.0","AG2YM9OWQP690","","","","{""Q0"":""course""}","","","","","","","","","","","","","","","","","","","","","","",""
"23417","","survey-text","153","1443887","0.0-152.0-0.0","AG2YM9OWQP690","","","","{""Q0"":""maybe a town in another country by the sea""}","","","","","","","","","","","","","","","","","","","","","","",""
"4360.599999904633","","image-slider-response","154","1448251","0.0-153.0","AG2YM9OWQP690","","","","","14","","","","","","","","","","","","","","","","","","","","","",""
"null","","image-button-response","155","1453259","0.0-154.0","AG2YM9OWQP690","img_art/19.jpg","null","","","","","","","","","","","","","","","","","","","","","","","","",""
"10275","","image-button-response","156","1463537","0.0-155.0","AG2YM9OWQP690","img_art/19.jpg","3","","","","","","","","","","","","","","","","","","","","","","","","",""
"10018","","image-button-response","157","1473559","0.0-156.0-0.0","AG2YM9OWQP690","img_art/19.jpg","2","","","","","","","","","","","","","","","","","","","","","","","","",""
"798","","image-button-response","158","1474361","0.0-157.0-0.0","AG2YM9OWQP690","img_art/19.jpg","1","","","","","","","","","","","","","","","","","","","","","","","","",""
"null","","html-keyboard-response","159","1475364","0.0-158.0","AG2YM9OWQP690","<p style=""font-size: 48px;"">+</p>","","","","","null","allTrialResponses","1000","1","16","img_art/19.jpg","14","maybe a town in another country by the sea","Jasmine,Cynthia,Jessica,Sara,Melissa,Vanessa","Just stirred a negative reaction. Don't really like it perhaps because of the structure?,-8,340,20","confused and emotional,-4,320,20","Vibrant and colorful,13,400,20","I like the vibrant color blocks,13,160,20","feels free and loose,3,240,20","Again, this is too abstract.,-10,380,20","Sara","I like the vibrant color blocks,13,160,20","Jessica","Vibrant and colorful,13,400,20","Cynthia","confused and emotional,-4,320,20","2"
"34055","","survey-text","160","1509426","0.0-159.0-0.0","AG2YM9OWQP690","","","","{""Q0"":""angry tone with a whole bunch of people ""}","","","","","","","","","","","","","","","","","","","","","","",""
"2944.7999999523163","","image-slider-response","161","1512375","0.0-160.0","AG2YM9OWQP690","","","","","-50","","","","","","","","","","","","","","","","","","","","","",""
"null","","image-button-response","162","1517397","0.0-161.0","AG2YM9OWQP690","img_art/23.jpg","null","","","","","","","","","","","","","","","","","","","","","","","","",""
"14616","","image-button-response","163","1532015","0.0-162.0","AG2YM9OWQP690","img_art/23.jpg","0","","","","","","","","","","","","","","","","","","","","","","","","",""
"15067","","image-button-response","164","1547085","0.0-163.0-0.0","AG2YM9OWQP690","img_art/23.jpg","5","","","","","","","","","","","","","","","","","","","","","","","","",""
"4430","","image-button-response","165","1551520","0.0-164.0-0.0","AG2YM9OWQP690","img_art/23.jpg","4","","","","","","","","","","","","","","","","","","","","","","","","",""
"null","","html-keyboard-response","166","1552536","0.0-165.0","AG2YM9OWQP690","<p style=""font-size: 48px;"">+</p>","","","","","null","allTrialResponses","1000","1","17","img_art/23.jpg","-50","angry tone with a whole bunch of people ","Laura,Cynthia,Jessica,Sara,Taylor,Christina","teeth! dancing people, celebrations,-39,320,20","puzzled with curiosity,31,320,20","This is very cool!,24,400,20","Beautiful color scheme,21,160,20","The color contrast makes me happy,40,340,20","nice bright colors but looks like it's from the 90's,6,240,20","Laura","teeth! dancing people, celebrations,-39,320,20","Christina","nice bright colors but looks like it's from the 90's,6,240,20","Taylor","The color contrast makes me happy,40,340,20","2"
"39744","","survey-text","167","1592286","0.0-166.0-0.0","AG2YM9OWQP690","","","","{""Q0"":""dark dreary toys""}","","","","","","","","","","","","","","","","","","","","","","",""
"2732.7000000476837","","image-slider-response","168","1595022","0.0-167.0","AG2YM9OWQP690","","","","","-48","","","","","","","","","","","","","","","","","","","","","",""
"null","","image-button-response","169","1600029","0.0-168.0","AG2YM9OWQP690","img_art/16.jpg","null","","","","","","","","","","","","","","","","","","","","","","","","",""
"629","","image-button-response","170","1600661","0.0-169.0","AG2YM9OWQP690","img_art/16.jpg","0","","","","","","","","","","","","","","","","","","","","","","","","",""
"2261","","image-button-response","171","1602925","0.0-170.0-0.0","AG2YM9OWQP690","img_art/16.jpg","3","","","","","","","","","","","","","","","","","","","","","","","","",""
"2512","","image-button-response","172","1605441","0.0-171.0-0.0","AG2YM9OWQP690","img_art/16.jpg","5","","","","","","","","","","","","","","","","","","","","","","","","",""
"null","","html-keyboard-response","173","1606944","0.0-172.0","AG2YM9OWQP690","<p style=""font-size: 48px;"">+</p>","","","","","null","allTrialResponses","1500","1","18","img_art/16.jpg","-48","dark dreary toys","Laura,Anna,Alexa,Kimberly,Taylor,Christina","depressing and confrontational,-9,320,20","It's edgy but cool,10,300,20","I can't figure out the meaning of this painting but it is pleasant to look at,40,40,20","Weird and creepy,-30,260,20","It just makes me feel uncomfortable,-25,340,20","very creepy with a bear and a gun,-50,240,20","Laura","depressing and confrontational,-9,320,20","Kimberly","Weird and creepy,-30,260,20","Christina","very creepy with a bear and a gun,-50,240,20","2"
"26412","","survey-text","174","1633364","0.0-173.0-0.0","AG2YM9OWQP690","","","","{""Q0"":""looks like scissors rope and a hand""}","","","","","","","","","","","","","","","","","","","","","","",""
"4202.600000143051","","image-slider-response","175","1637570","0.0-174.0","AG2YM9OWQP690","","","","","-47","","","","","","","","","","","","","","","","","","","","","",""
"null","","image-button-response","176","1642581","0.0-175.0","AG2YM9OWQP690","img_art/4.jpg","null","","","","","","","","","","","","","","","","","","","","","","","","",""
"14228","","image-button-response","177","1656813","0.0-176.0","AG2YM9OWQP690","img_art/4.jpg","3","","","","","","","","","","","","","","","","","","","","","","","","",""
"3007","","image-button-response","178","1659823","0.0-177.0-0.0","AG2YM9OWQP690","img_art/4.jpg","5","","","","","","","","","","","","","","","","","","","","","","","","",""
"9801","","image-button-response","179","1669627","0.0-178.0-0.0","AG2YM9OWQP690","img_art/4.jpg","1","","","","","","","","","","","","","","","","","","","","","","","","",""
"null","","html-keyboard-response","180","1670135","0.0-179.0","AG2YM9OWQP690","<p style=""font-size: 48px;"">+</p>","","","","","null","allTrialResponses","500","1","19","img_art/4.jpg","-47","looks like scissors rope and a hand","Laura,Caitlin,Amber,Kimberly,Allison,Christina","spontaneous, without hesitation,22,320,20","They give out trophies now for fighting with brass knuckles?,-20,80,20","I like the bold style.,10,200,20","It's ok, theres nothing that draws me away from it I guess,0,260,20","McDonald's French Fries.,-10,140,20","not enough color and too yellow for me. Not my favorite colors,-10,240,20","Kimberly","It's ok, theres nothing that draws me away from it I guess,0,260,20","Christina","not enough color and too yellow for me. Not my favorite colors,-10,240,20","Caitlin","They give out trophies now for fighting with brass knuckles?,-20,80,20","2"
"43193","","survey-text","181","1713338","0.0-180.0-0.0","AG2YM9OWQP690","","","","{""Q0"":""what exactly am I looking at . I thought a bird at first standing on the ground""}","","","","","","","","","","","","","","","","","","","","","","",""
"2931.699999809265","","image-slider-response","182","1716273","0.0-181.0","AG2YM9OWQP690","","","","","-49","","","","","","","","","","","","","","","","","","","","","",""
"null","","image-button-response","183","1721288","0.0-182.0","AG2YM9OWQP690","img_art/6.jpg","null","","","","","","","","","","","","","","","","","","","","","","","","",""
"9902","","image-button-response","184","1731193","0.0-183.0","AG2YM9OWQP690","img_art/6.jpg","0","","","","","","","","","","","","","","","","","","","","","","","","",""
"7709","","image-button-response","185","1738906","0.0-184.0-0.0","AG2YM9OWQP690","img_art/6.jpg","4","","","","","","","","","","","","","","","","","","","","","","","","",""
"8557","","image-button-response","186","1747467","0.0-185.0-0.0","AG2YM9OWQP690","img_art/6.jpg","1","","","","","","","","","","","","","","","","","","","","","","","","",""
"null","","html-keyboard-response","187","1748487","0.0-186.0","AG2YM9OWQP690","<p style=""font-size: 48px;"">+</p>","","","","","null","allTrialResponses","1000","1","20","img_art/6.jpg","-49","what exactly am I looking at . I thought a bird at first standing on the ground","Tiffany,Caitlin,Brianna,Kimberly,Caroline,Christina","The painting makes me happy. Like I'm looking at a little bird.,6,360,20","A crow on one leg?,-10,80,20","Nice desert scene,10,20,20","It's pretty dour,-10,260,20","Lonely and kinda sad,-25,100,20","i like the simplicity of the tree and the colors,50,240,20","Tiffany","The painting makes me happy. Like I'm looking at a little bird.,6,360,20","Caroline","Lonely and kinda sad,-25,100,20","Caitlin","A crow on one leg?,-10,80,20","2"
"3736","","survey-text","188","1752239","0.0-187.0-0.0","AG2YM9OWQP690","","","","{""Q0"":""we""}","","","","","","","","","","","","","","","","","","","","","","",""
"23292","","survey-text","189","1775534","0.0-188.0-0.0","AG2YM9OWQP690","","","","{""Q0"":""lots of colorful slides ""}","","","","","","","","","","","","","","","","","","","","","","",""
"6121.400000095367","","image-slider-response","190","1781658","0.0-189.0","AG2YM9OWQP690","","","","","4","","","","","","","","","","","","","","","","","","","","","",""
"null","","image-button-response","191","1786668","0.0-190.0","AG2YM9OWQP690","img_art/30.jpg","null","","","","","","","","","","","","","","","","","","","","","","","","",""
"4875","","image-button-response","192","1791546","0.0-191.0","AG2YM9OWQP690","img_art/30.jpg","1","","","","","","","","","","","","","","","","","","","","","","","","",""
"48671","","image-button-response","193","1840220","0.0-192.0-0.0","AG2YM9OWQP690","img_art/30.jpg","3","","","","","","","","","","","","","","","","","","","","","","","","",""
"3612","","image-button-response","194","1843836","0.0-193.0-0.0","AG2YM9OWQP690","img_art/30.jpg","2","","","","","","","","","","","","","","","","","","","","","","","","",""
"null","","html-keyboard-response","195","1844848","0.0-194.0","AG2YM9OWQP690","<p style=""font-size: 48px;"">+</p>","","","","","null","allTrialResponses","1000","1","21","img_art/30.jpg","4","lots of colorful slides ","Tiffany,Caitlin,Michelle,Mariah,Caroline,Jamie","The painting doesn't elicit any response from me.,0,360,20","My kid drew this same picture at daycare!!!,5,80,20","Don't like it at all, looks like a someone smeared paint with their fingers,-25,280,20","It just feels hasty and not well composed. Has an angsty teen feel,-31,140,20","Fear. It looks like snakes in the picture,13,100,20","Cool design and contrast of colors,30,320,20","Caitlin","My kid drew this same picture at daycare!!!,5,80,20","Mariah","It just feels hasty and not well composed. Has an angsty teen feel,-31,140,20","Michelle","Don't like it at all, looks like a someone smeared paint with their fingers,-25,280,20","2"
"60396","","survey-text","196","1905253","0.0-195.0-0.0","AG2YM9OWQP690","","","","{""Q0"":""dislike the colors and looks like a orbit satellite type object""}","","","","","","","","","","","","","","","","","","","","","","",""
"3590.7000000476837","","image-slider-response","197","1908847","0.0-196.0","AG2YM9OWQP690","","","","","-18","","","","","","","","","","","","","","","","","","","","","",""
"null","","image-button-response","198","1913858","0.0-197.0","AG2YM9OWQP690","img_art/22.jpg","null","","","","","","","","","","","","","","","","","","","","","","","","",""
"10475","","image-button-response","199","1924335","0.0-198.0","AG2YM9OWQP690","img_art/22.jpg","4","","","","","","","","","","","","","","","","","","","","","","","","",""
"3253","","image-button-response","200","1927591","0.0-199.0-0.0","AG2YM9OWQP690","img_art/22.jpg","2","","","","","","","","","","","","","","","","","","","","","","","","",""
"6002","","image-button-response","201","1933598","0.0-200.0-0.0","AG2YM9OWQP690","img_art/22.jpg","5","","","","","","","","","","","","","","","","","","","","","","","","",""
"null","","html-keyboard-response","202","1934102","0.0-201.0","AG2YM9OWQP690","<p style=""font-size: 48px;"">+</p>","","","","","null","allTrialResponses","500","1","22","img_art/22.jpg","-18","dislike the colors and looks like a orbit satellite type object","Madeline,Caitlin,Michelle,Mariah,Margaret,Cassandra","I really like the colors here,3,40,20","Looks like the kind of art I would see at the doctor's office.,-5,80,20","Not a huge fan of the blocks, also very abstract, I have no idea what it is,8,280,20","The colors are pleasant, the shapes are inviting.,21,140,20","i feel like this is a a basic art piece that a school would have on the wall,-24,100,20","Don't like it...too much red,-17,120,20","Margaret","i feel like this is a a basic art piece that a school would have on the wall,-24,100,20","Michelle","Not a huge fan of the blocks, also very abstract, I have no idea what it is,8,280,20","Cassandra","Don't like it...too much red,-17,120,20","2"
"23747","","survey-text","203","1957857","0.0-202.0-0.0","AG2YM9OWQP690","","","","{""Q0"":""this is art maybe I should do something and become rich""}","","","","","","","","","","","","","","","","","","","","","","",""
"2788","","image-slider-response","204","1960648","0.0-203.0","AG2YM9OWQP690","","","","","-50","","","","","","","","","","","","","","","","","","","","","",""
"4989","","image-button-response","205","1965656","0.0-204.0","AG2YM9OWQP690","img_art/5.jpg","0","","","","","","","","","","","","","","","","","","","","","","","","",""
"2529","","image-button-response","206","1968188","0.0-205.0","AG2YM9OWQP690","img_art/5.jpg","2","","","","","","","","","","","","","","","","","","","","","","","","",""
"7067","","image-button-response","207","1975258","0.0-206.0-0.0","AG2YM9OWQP690","img_art/5.jpg","3","","","","","","","","","","","","","","","","","","","","","","","","",""
"5556","","image-button-response","208","1980817","0.0-207.0-0.0","AG2YM9OWQP690","img_art/5.jpg","5","","","","","","","","","","","","","","","","","","","","","","","","",""
"null","","html-keyboard-response","209","1981832","0.0-208.0","AG2YM9OWQP690","<p style=""font-size: 48px;"">+</p>","","","","","null","allTrialResponses","1000","1","23","img_art/5.jpg","-50","this is art maybe I should do something and become rich","Sierra,Natalie,Michelle,Sydney,Margaret,Cassandra","i dont like the yellow or the shape,-26,260,20","the picture looks ok,8,400,20","What is this? It looks like no effort was put into this work,-2,280,20","I'm reminded of a volcano with weird colors.,-5,320,20","simple. love the color scheme,27,100,20","This was awful and it looked like someone took minimul effort with it... no time at all.,-49,120,20","Michelle","What is this? It looks like no effort was put into this work,-2,280,20","Sydney","I'm reminded of a volcano with weird colors.,-5,320,20","Cassandra","This was awful and it looked like someone took minimul effort with it... no time at all.,-49,120,20","2"
"24798","","survey-text","210","2006639","0.0-209.0-0.0","AG2YM9OWQP690","","","","{""Q0"":""angry violent  blood""}","","","","","","","","","","","","","","","","","","","","","","",""
"2906.100000143051","","image-slider-response","211","2009549","0.0-210.0","AG2YM9OWQP690","","","","","-46","","","","","","","","","","","","","","","","","","","","","",""
"null","","image-button-response","212","2014566","0.0-211.0","AG2YM9OWQP690","img_art/21.jpg","null","","","","","","","","","","","","","","","","","","","","","","","","",""
"6027","","image-button-response","213","2020596","0.0-212.0","AG2YM9OWQP690","img_art/21.jpg","0","","","","","","","","","","","","","","","","","","","","","","","","",""
"13377","","image-button-response","214","2033977","0.0-213.0-0.0","AG2YM9OWQP690","img_art/21.jpg","1","","","","","","","","","","","","","","","","","","","","","","","","",""
"9321","","image-button-response","215","2043302","0.0-214.0-0.0","AG2YM9OWQP690","img_art/21.jpg","5","","","","","","","","","","","","","","","","","","","","","","","","",""
"null","","html-keyboard-response","216","2044818","0.0-215.0","AG2YM9OWQP690","<p style=""font-size: 48px;"">+</p>","","","","","null","allTrialResponses","1500","1","24","img_art/21.jpg","-46","angry violent  blood","Julia,Kylie,Michelle,Sydney,Erika,Cassandra","there's not enough fine detail in this one,-27,40,20","Makes me think of a battleship targeting a beautiful mountainside,0,300,20","The colors are very nice. I like the dots because they remind me of pearls,5,280,20","I love everything about this piece.,50,320,20","Indistinct, but beautiful hues,10,100,20","I liked it...it looked like a storm raging.,12,120,20","Julia","there's not enough fine detail in this one,-27,40,20","Kylie","Makes me think of a battleship targeting a beautiful mountainside,0,300,20","Cassandra","I liked it...it looked like a storm raging.,12,120,20","2"
"31998","","survey-text","217","2076825","0.0-216.0-0.0","AG2YM9OWQP690","","","","{""Q0"":""It looks like the colors are escaping the canvas painting area""}","","","","","","","","","","","","","","","","","","","","","","",""
"4211.099999904633","","image-slider-response","218","2081039","0.0-217.0","AG2YM9OWQP690","","","","","14","","","","","","","","","","","","","","","","","","","","","",""
"null","","image-button-response","219","2086046","0.0-218.0","AG2YM9OWQP690","img_art/17.jpg","null","","","","","","","","","","","","","","","","","","","","","","","","",""
"9490","","image-button-response","220","2095538","0.0-219.0","AG2YM9OWQP690","img_art/17.jpg","2","","","","","","","","","","","","","","","","","","","","","","","","",""
"4193","","image-button-response","221","2099736","0.0-220.0-0.0","AG2YM9OWQP690","img_art/17.jpg","5","","","","","","","","","","","","","","","","","","","","","","","","",""
"2576","","image-button-response","222","2102315","0.0-221.0-0.0","AG2YM9OWQP690","img_art/17.jpg","1","","","","","","","","","","","","","","","","","","","","","","","","",""
"null","","html-keyboard-response","223","2103327","0.0-222.0","AG2YM9OWQP690","<p style=""font-size: 48px;"">+</p>","","","","","null","allTrialResponses","1000","1","25","img_art/17.jpg","14","It looks like the colors are escaping the canvas painting area","Julia,Kylie,Emily,Mackenzie,Erica,Cassandra","I'm not into paintings of trees,-18,40,20","Looks like an explosion of pretty artwork,45,300,20","There is better structure and direction in this one.,19,40,20","Very fun textures,32,20,20","Makes me warm and cozy just by looking at it,29,80,20","Very pretty...the colors and good and flow well.,33,120,20","Emily","There is better structure and direction in this one.,19,40,20","Cassandra","Very pretty...the colors and good and flow well.,33,120,20","Kylie","Looks like an explosion of pretty artwork,45,300,20","2"
"5765","","survey-text","224","2109107","0.0-223.0-0.0","AG2YM9OWQP690","","","","{""Q0"":""table""}","","","","","","","","","","","","","","","","","","","","","","",""
"130401","","survey-text","225","2239511","0.0-224.0-0.0","AG2YM9OWQP690","","","","{""Q0"":""someone doing a take of someone doing artwork on the ground in the city ""}","","","","","","","","","","","","","","","","","","","","","","",""
"4446.899999856949","","image-slider-response","226","2243961","0.0-225.0","AG2YM9OWQP690","","","","","-50","","","","","","","","","","","","","","","","","","","","","",""
"null","","image-button-response","227","2248968","0.0-226.0","AG2YM9OWQP690","img_art/29.jpg","null","","","","","","","","","","","","","","","","","","","","","","","","",""
"4935","","image-button-response","228","2253905","0.0-227.0","AG2YM9OWQP690","img_art/29.jpg","0","","","","","","","","","","","","","","","","","","","","","","","","",""
"3795","","image-button-response","229","2257703","0.0-228.0-0.0","AG2YM9OWQP690","img_art/29.jpg","4","","","","","","","","","","","","","","","","","","","","","","","","",""
"10090","","image-button-response","230","2267797","0.0-229.0-0.0","AG2YM9OWQP690","img_art/29.jpg","1","","","","","","","","","","","","","","","","","","","","","","","","",""
"null","","html-keyboard-response","231","2268328","0.0-230.0","AG2YM9OWQP690","<p style=""font-size: 48px;"">+</p>","","","","","null","allTrialResponses","500","1","26","img_art/29.jpg","-50","someone doing a take of someone doing artwork on the ground in the city ","Jordan,Kylie,Emily,Hailey,Alexandra,Cassandra","Yeah, I don't know. It's clearly a situation where art is the reject of something more,-27,20,20","Reminds me of graffitti gone wrong,15,300,20","Looks literally like garbage.,-45,40,20","a hot fireplace with things to burn. warm,12,200,20","I don't like this. It is ugly and dark,-29,60,20","Neural...just a blackboard jungle.,3,120,20","Jordan","Yeah, I don't know. It's clearly a situation where art is the reject of something more,-27,20,20","Alexandra","I don't like this. It is ugly and dark,-29,60,20","Kylie","Reminds me of graffitti gone wrong,15,300,20","2"
"19534","","survey-text","232","2287875","0.0-231.0-0.0","AG2YM9OWQP690","","","","{""Q0"":""a person made of sticks walking ""}","","","","","","","","","","","","","","","","","","","","","","",""
"3583.2999999523163","","image-slider-response","233","2291461","0.0-232.0","AG2YM9OWQP690","","","","","-40","","","","","","","","","","","","","","","","","","","","","",""
"null","","image-button-response","234","2296466","0.0-233.0","AG2YM9OWQP690","img_art/25.jpg","null","","","","","","","","","","","","","","","","","","","","","","","","",""
"3816","","image-button-response","235","2300285","0.0-234.0","AG2YM9OWQP690","img_art/25.jpg","3","","","","","","","","","","","","","","","","","","","","","","","","",""
"995","","image-button-response","236","2301283","0.0-235.0-0.0","AG2YM9OWQP690","img_art/25.jpg","4","","","","","","","","","","","","","","","","","","","","","","","","",""
"2488","","image-button-response","237","2303775","0.0-236.0-0.0","AG2YM9OWQP690","img_art/25.jpg","5","","","","","","","","","","","","","","","","","","","","","","","","",""
"null","","html-keyboard-response","238","2305284","0.0-237.0","AG2YM9OWQP690","<p style=""font-size: 48px;"">+</p>","","","","","null","allTrialResponses","1500","1","27","img_art/25.jpg","-40","a person made of sticks walking ","Jordan,Kylie,Claire,Meghan,Alexandra,Samantha","It's fine, belongs in a church, or somewhere else mystical,15,20,20","Egyptian heiroglyphics and painting,15,300,20","the colors are pretty,11,260,20","reminds me of a zombie,-36,220,20","This is too dark and creepy. I also hate the color,-30,60,20","It is interesting but too creapy for me,-29,140,20","Meghan","reminds me of a zombie,-36,220,20","Alexandra","This is too dark and creepy. I also hate the color,-30,60,20","Samantha","It is interesting but too creapy for me,-29,140,20","2"
"36490","","survey-text","239","2341784","0.0-238.0-0.0","AG2YM9OWQP690","","","","{""Q0"":""I like the colors . reminds me of a city with highways all over the place and town in the background""}","","","","","","","","","","","","","","","","","","","","","","",""
"4228.799999952316","","image-slider-response","240","2346016","0.0-239.0","AG2YM9OWQP690","","","","","26","","","","","","","","","","","","","","","","","","","","","",""
"null","","image-button-response","241","2351029","0.0-240.0","AG2YM9OWQP690","img_art/11.jpg","null","","","","","","","","","","","","","","","","","","","","","","","","",""
"10952","","image-button-response","242","2361985","0.0-241.0","AG2YM9OWQP690","img_art/11.jpg","4","","","","","","","","","","","","","","","","","","","","","","","","",""
"1850","","image-button-response","243","2363839","0.0-242.0-0.0","AG2YM9OWQP690","img_art/11.jpg","5","","","","","","","","","","","","","","","","","","","","","","","","",""
"12090","","image-button-response","244","2375933","0.0-243.0-0.0","AG2YM9OWQP690","img_art/11.jpg","3","","","","","","","","","","","","","","","","","","","","","","","","",""
"null","","html-keyboard-response","245","2376940","0.0-244.0","AG2YM9OWQP690","<p style=""font-size: 48px;"">+</p>","","","","","null","allTrialResponses","1000","1","28","img_art/11.jpg","26","I like the colors . reminds me of a city with highways all over the place and town in the background","Bailey,Paige,Angelica,Meghan,Alexandra,Samantha","Kind of bizzare in that I can imagine ships or something from it.,11,360,20","gave me a sense of gloom,-21,60,20","This is very unappealing.,-11,280,20","makes me feel dizzy,-37,220,20","I normally would not like this photo, but the design is nice.,21,60,20","Love the colors and flow,50,140,20","Alexandra","I normally would not like this photo, but the design is nice.,21,60,20","Samantha","Love the colors and flow,50,140,20","Meghan","makes me feel dizzy,-37,220,20","2"
"19285","","survey-text","246","2396236","0.0-245.0-0.0","AG2YM9OWQP690","","","","{""Q0"":""like you can see inside teh window watching a woman asleep""}","","","","","","","","","","","","","","","","","","","","","","",""
"2577.5","","image-slider-response","247","2398817","0.0-246.0","AG2YM9OWQP690","","","","","5","","","","","","","","","","","","","","","","","","","","","",""
"null","","image-button-response","248","2403827","0.0-247.0","AG2YM9OWQP690","img_art/9.jpg","null","","","","","","","","","","","","","","","","","","","","","","","","",""
"624","","image-button-response","249","2404453","0.0-248.0","AG2YM9OWQP690","img_art/9.jpg","0","","","","","","","","","","","","","","","","","","","","","","","","",""
"8223","","image-button-response","250","2412679","0.0-249.0-0.0","AG2YM9OWQP690","img_art/9.jpg","5","","","","","","","","","","","","","","","","","","","","","","","","",""
"2985","","image-button-response","251","2415667","0.0-250.0-0.0","AG2YM9OWQP690","img_art/9.jpg","3","","","","","","","","","","","","","","","","","","","","","","","","",""
"null","","html-keyboard-response","252","2416173","0.0-251.0","AG2YM9OWQP690","<p style=""font-size: 48px;"">+</p>","","","","","null","allTrialResponses","500","1","29","img_art/9.jpg","5","like you can see inside teh window watching a woman asleep","Stephanie,Savannah,Chelsea,Meghan,Alexandra,Samantha","Someone sleeping in a cave. Dont like the scribble look.,-30,300,20","Unfinished, weird composition.,-34,200,20","I don't like the obvious lines of colored pencil on the border.,-24,180,20","looks like someone resting,12,220,20","This picture is too busy and ugly,-20,60,20","Some nice colors but i do not like it,-18,140,20","Stephanie","Someone sleeping in a cave. Dont like the scribble look.,-30,300,20","Samantha","Some nice colors but i do not like it,-18,140,20","Meghan","looks like someone resting,12,220,20","2"
"60100","","survey-text","253","2476284","0.0-252.0-0.0","AG2YM9OWQP690","","","","{""Q0"":""a town and lots of stuff but not sure what it means  and a person man coming from sky with blue hair""}","","","","","","","","","","","","","","","","","","","","","","",""
"3416.399999856949","","image-slider-response","254","2479704","0.0-253.0","AG2YM9OWQP690","","","","","-43","","","","","","","","","","","","","","","","","","","","","",""
"null","","image-button-response","255","2484720","0.0-254.0","AG2YM9OWQP690","img_art/8.jpg","null","","","","","","","","","","","","","","","","","","","","","","","","",""
"456","","image-button-response","256","2485178","0.0-255.0","AG2YM9OWQP690","img_art/8.jpg","2","","","","","","","","","","","","","","","","","","","","","","","","",""
"3793","","image-button-response","257","2488974","0.0-256.0-0.0","AG2YM9OWQP690","img_art/8.jpg","0","","","","","","","","","","","","","","","","","","","","","","","","",""
"4328","","image-button-response","258","2493306","0.0-257.0-0.0","AG2YM9OWQP690","img_art/8.jpg","3","","","","","","","","","","","","","","","","","","","","","","","","",""
"null","","html-keyboard-response","259","2494330","0.0-258.0","AG2YM9OWQP690","<p style=""font-size: 48px;"">+</p>","","","","","null","allTrialResponses","1000","1","30","img_art/8.jpg","-43","a town and lots of stuff but not sure what it means  and a person man coming from sky with blue hair","Stephanie,Makayla,Sarah,Meghan,Elizabeth,Samantha","I like the colors and geometrical shapes but the face in the sky makes it look scary,-10,300,20","I see water and structures that resemble Ancient Rome,15,80,20","it's interesting but i don't enjoy the style,-5,180,20","the face is creepy,-49,220,20","Very unique and different,31,20,20","The face bothers me,-25,140,20","Sarah","it's interesting but i don't enjoy the style,-5,180,20","Stephanie","I like the colors and geometrical shapes but the face in the sky makes it look scary,-10,300,20","Meghan","the face is creepy,-49,220,20","2"
"9437","","image-button-response_instructions","260","2503774","0.0-259.0","AG2YM9OWQP690","","0","instructions","","","","","","","","","","","","","","","","","","","","","","","",""
"1665","","image-button-response","261","2505448","0.0-260.0","AG2YM9OWQP690","","0","","","","","","","","","","","","","","","","","","","","","","","","",""
