"rt","url","trial_type","trial_index","time_elapsed","internal_node_id","participant_id","stimulus","button_pressed","Name","responses","response","key_press","variableName","fixationTime","condition","trial","photo","subjectRating","subjectResponse","agentsNames","agent_1_Response","agent_2_Response","agent_3_Response","agent_4_Response","agent_5_Response","agent_6_Response","kept_1_name","kept_1_response","kept_2_name","kept_2_response","kept_3_name","kept_3_response","errorCounter"
"32427","external_page_harvard.html","external-html","0","32530","0.0-0.0","AHYTT3T8W9Y9Y","","","","","","","","","","","","","","","","","","","","","","","","","","",""
"1335","","image-button-response","1","33871","0.0-1.0","AHYTT3T8W9Y9Y","","1","","","","","","","","","","","","","","","","","","","","","","","","",""
"2772","","image-button-response","2","36660","0.0-2.0-0.0","AHYTT3T8W9Y9Y","","1","phone","","","","","","","","","","","","","","","","","","","","","","","",""
"3146","","survey-text","3","39810","0.0-3.0-0.0","AHYTT3T8W9Y9Y","","","","{""Q0"":""AHYTT3T8W9Y9Y""}","","","","","","","","","","","","","","","","","","","","","","",""
"4034","","image-button-response_instructions","4","43848","0.0-4.0","AHYTT3T8W9Y9Y","","0","instructions","","","","","","","","","","","","","","","","","","","","","","","",""
"16679","","image-button-response_instructions","5","60531","0.0-5.0","AHYTT3T8W9Y9Y","img_art/ins/popularity/ins1.png","0","instructions","","","","","","","","","","","","","","","","","","","","","","","",""
"4373","","image-button-response_instructions","6","64908","0.0-6.0","AHYTT3T8W9Y9Y","img_art/ins/popularity/ins2.png","0","instructions","","","","","","","","","","","","","","","","","","","","","","","",""
"4896","","image-button-response_instructions","7","69806","0.0-7.0","AHYTT3T8W9Y9Y","img_art/ins/popularity/ins2Extreme.png","0","instructions","","","","","","","","","","","","","","","","","","","","","","","",""
"28940","","image-button-response_instructions","8","98748","0.0-8.0","AHYTT3T8W9Y9Y","img_art/ins/popularity/ins3KEEPpop.PNG","0","instructions","","","","","","","","","","","","","","","","","","","","","","","",""
"3590","","image-button-response_instructions","9","102341","0.0-9.0","AHYTT3T8W9Y9Y","img_art/ins/popularity/ins3ANamepop.PNG","0","instructions","","","","","","","","","","","","","","","","","","","","","","","",""
"6772","","image-button-response_instructions","10","109116","0.0-10.0","AHYTT3T8W9Y9Y","img_art/ins/popularity/ins3ARatingpop.png","0","instructions","","","","","","","","","","","","","","","","","","","","","","","",""
"2943","","image-button-response_instructions","11","112061","0.0-11.0","AHYTT3T8W9Y9Y","img_art/ins/popularity/ins3ATextpop.png","0","instructions","","","","","","","","","","","","","","","","","","","","","","","",""
"4324","","image-button-response_instructions","12","116387","0.0-12.0","AHYTT3T8W9Y9Y","img_art/ins/popularity/ins3ALikespop.png","0","instructions","","","","","","","","","","","","","","","","","","","","","","","",""
"9616","","image-button-response_instructions","13","126009","0.0-13.0","AHYTT3T8W9Y9Y","img_art/ins/popularity/ins3KEEPpop.PNG","0","instructions","","","","","","","","","","","","","","","","","","","","","","","",""
"11182","","image-button-response_instructions","14","137194","0.0-14.0","AHYTT3T8W9Y9Y","img_art/ins/popularity/ins3_5RED.png","0","instructions","","","","","","","","","","","","","","","","","","","","","","","",""
"4064","","image-button-response_instructions","15","141261","0.0-15.0","AHYTT3T8W9Y9Y","img_art/ins/popularity/ins3KEEPpop.PNG","0","instructions","","","","","","","","","","","","","","","","","","","","","","","",""
"7094","","image-button-response_instructions","16","148358","0.0-16.0","AHYTT3T8W9Y9Y","img_art/ins/popularity/ins4KEEPpop.PNG","0","instructions","","","","","","","","","","","","","","","","","","","","","","","",""
"7489","","image-button-response_instructions","17","155850","0.0-17.0","AHYTT3T8W9Y9Y","img_art/ins/popularity/ins5KEEPpop.PNG","0","instructions","","","","","","","","","","","","","","","","","","","","","","","",""
"1371","","image-button-response_instructions","18","157222","0.0-18.0","AHYTT3T8W9Y9Y","","0","instructions","","","","","","","","","","","","","","","","","","","","","","","",""
"6381","","survey-text","19","163677","0.0-19.0-0.0","AHYTT3T8W9Y9Y","","","","{""Q0"":""but""}","","","","","","","","","","","","","","","","","","","","","","",""
"14313","","survey-text","20","177995","0.0-20.0-0.0","AHYTT3T8W9Y9Y","","","","{""Q0"":""I like the mixture of colors used.""}","","","","","","","","","","","","","","","","","","","","","","",""
"7507.900000002235","","image-slider-response","21","185522","0.0-21.0","AHYTT3T8W9Y9Y","","","","","16","","","","","","","","","","","","","","","","","","","","","",""
"null","","image-button-response","22","190549","0.0-22.0","AHYTT3T8W9Y9Y","img_art/ins/1.jpg","null","","","","","","","","","","","","","","","","","","","","","","","","",""
"2389","","image-button-response","23","192952","0.0-23.0","AHYTT3T8W9Y9Y","img_art/ins/1.jpg","4","","","","","","","","","","","","","","","","","","","","","","","","",""
"5677","","image-button-response","24","198634","0.0-24.0-0.0","AHYTT3T8W9Y9Y","img_art/ins/1.jpg","5","","","","","","","","","","","","","","","","","","","","","","","","",""
"996","","image-button-response","25","199635","0.0-25.0-0.0","AHYTT3T8W9Y9Y","img_art/ins/1.jpg","0","","","","","","","","","","","","","","","","","","","","","","","","",""
"null","","html-keyboard-response","26","200141","0.0-26.0","AHYTT3T8W9Y9Y","<p style=""font-size: 48px;"">+</p>","","","","","null","allTrialResponses","500","1","-2","img_art/ins/1.jpg","16","I like the mixture of colors used.","Allison,Ashley,Beth,Dora,Erika,Jen","looks like a lot of things going on in the mist,20,20,20","I just don't get why these type of art would be popular,-32,40,20","This color reminds me of poo,-46,60,20","looks like what my niece in 3rd grade did this afternoon,-50,80,20","I like the sophisticated brushwork,40,100,20","It reminds me of a candy land dream I had,36,120,20","Erika","I like the sophisticated brushwork,40,100,20","Jen","It reminds me of a candy land dream I had,36,120,20","Allison","looks like a lot of things going on in the mist,20,20,20","0"
"29567","","survey-text","27","229716","0.0-27.0-0.0","AHYTT3T8W9Y9Y","","","","{""Q0"":""It reminds in of a house near a stream.""}","","","","","","","","","","","","","","","","","","","","","","",""
"3996.89999999851","","image-slider-response","28","233716","0.0-28.0","AHYTT3T8W9Y9Y","","","","","30","","","","","","","","","","","","","","","","","","","","","",""
"4234","","image-button-response","29","238733","0.0-29.0","AHYTT3T8W9Y9Y","img_art/ins/2.jpg","1","","","","","","","","","","","","","","","","","","","","","","","","",""
"824","","image-button-response","30","239569","0.0-30.0","AHYTT3T8W9Y9Y","img_art/ins/2.jpg","1","","","","","","","","","","","","","","","","","","","","","","","","",""
"6389","","image-button-response","31","245964","0.0-31.0-0.0","AHYTT3T8W9Y9Y","img_art/ins/2.jpg","4","","","","","","","","","","","","","","","","","","","","","","","","",""
"3991","","image-button-response","32","249960","0.0-32.0-0.0","AHYTT3T8W9Y9Y","img_art/ins/2.jpg","5","","","","","","","","","","","","","","","","","","","","","","","","",""
"null","","html-keyboard-response","33","250963","0.0-33.0","AHYTT3T8W9Y9Y","<p style=""font-size: 48px;"">+</p>","","","","","null","allTrialResponses","1000","1","-1","img_art/ins/2.jpg","30","It reminds in of a house near a stream.","Allison,Kara,Katie,Jenna,Erika,Jen","I don't have strong feelings about this,10,20,20","I like the blocks of color arrangements,30,160,20","too much color!,-28,180,20","One of my pet peevs,-48,140,20","I would never be able to compose a sophisticated pallete like this,48,100,20","It reminds me of a fireplace,36,120,20","Kara","I like the blocks of color arrangements,30,160,20","Erika","I would never be able to compose a sophisticated pallete like this,48,100,20","Jen","It reminds me of a fireplace,36,120,20","0"
"9709","","survey-text","34","260679","0.0-34.0-0.0","AHYTT3T8W9Y9Y","","","","{""Q0"":""It reminds me of snow and the winter.""}","","","","","","","","","","","","","","","","","","","","","","",""
"3856.89999999851","","image-slider-response","35","264539","0.0-35.0","AHYTT3T8W9Y9Y","","","","","33","","","","","","","","","","","","","","","","","","","","","",""
"null","","image-button-response","36","269543","0.0-36.0","AHYTT3T8W9Y9Y","img_art/ins/3.jpg","null","","","","","","","","","","","","","","","","","","","","","","","","",""
"1903","","image-button-response","37","271449","0.0-37.0","AHYTT3T8W9Y9Y","img_art/ins/3.jpg","1","","","","","","","","","","","","","","","","","","","","","","","","",""
"3069","","image-button-response","38","274524","0.0-38.0-0.0","AHYTT3T8W9Y9Y","img_art/ins/3.jpg","4","","","","","","","","","","","","","","","","","","","","","","","","",""
"2280","","image-button-response","39","276809","0.0-39.0-0.0","AHYTT3T8W9Y9Y","img_art/ins/3.jpg","0","","","","","","","","","","","","","","","","","","","","","","","","",""
"null","","html-keyboard-response","40","278325","0.0-40.0","AHYTT3T8W9Y9Y","<p style=""font-size: 48px;"">+</p>","","","","","null","allTrialResponses","1500","1","0","img_art/ins/3.jpg","33","It reminds me of snow and the winter.","Mary,Kara,Rose,Leslie,Erika,Jen","I like the overlapping of brushes,41,220,20","calming blue is very nice,36,160,20","My daily routine, it's depressing,-20,240,20","It's an alright work,15,200,20","I feel connected to the artist,40,100,20","I can feel a rainy day from this painting,18,120,20","Kara","calming blue is very nice,36,160,20","Erika","I feel connected to the artist,40,100,20","Mary","I like the overlapping of brushes,41,220,20","0"
"5319","","image-button-response_instructions","41","283655","0.0-41.0","AHYTT3T8W9Y9Y","","0","instructions","","","","","","","","","","","","","","","","","","","","","","","",""
"15976","","survey-likert","42","299640","0.0-42.0-0.0","AHYTT3T8W9Y9Y","","","","{""Q0"":"""",""Q1"":0,""Q2"":1}","","","","","","","","","","","","","","","","","","","","","","",""
"5483","","survey-text","43","305134","0.0-43.0-0.0","AHYTT3T8W9Y9Y","","","","{""Q0"":""rock""}","","","","","","","","","","","","","","","","","","","","","","",""
"33437","","survey-text","44","338574","0.0-44.0-0.0","AHYTT3T8W9Y9Y","","","","{""Q0"":""I don't like it. It looks like just blocks of paint.""}","","","","","","","","","","","","","","","","","","","","","","",""
"3836.60000000149","","image-slider-response","45","342414","0.0-45.0","AHYTT3T8W9Y9Y","","","","","-35","","","","","","","","","","","","","","","","","","","","","",""
"4343","","image-button-response","46","347467","0.0-46.0","AHYTT3T8W9Y9Y","img_art/2.jpg","3","","","","","","","","","","","","","","","","","","","","","","","","",""
"1211","","image-button-response","47","348684","0.0-47.0","AHYTT3T8W9Y9Y","img_art/2.jpg","5","","","","","","","","","","","","","","","","","","","","","","","","",""
"933","","image-button-response","48","349623","0.0-48.0-0.0","AHYTT3T8W9Y9Y","img_art/2.jpg","3","","","","","","","","","","","","","","","","","","","","","","","","",""
"2925","","image-button-response","49","352552","0.0-49.0-0.0","AHYTT3T8W9Y9Y","img_art/2.jpg","0","","","","","","","","","","","","","","","","","","","","","","","","",""
"null","","html-keyboard-response","50","353571","0.0-50.0","AHYTT3T8W9Y9Y","<p style=""font-size: 48px;"">+</p>","","","","","null","allTrialResponses","1000","1","1","img_art/2.jpg","-35","I don't like it. It looks like just blocks of paint.","Madeline,Victoria,Melissa,Jamie,Julia,Lindsey","I don't really like this style,-5,40,20","I like the colors,22,400,20","appealing colors,4,240,20","Awful color coordination and design,-35,320,20","I like how it looks like a cute smiling face,43,40,20","Not a fan of the colors or the style.,-31,400,20","Lindsey","Not a fan of the colors or the style.,-31,400,20","Jamie","Awful color coordination and design,-35,320,20","Madeline","I don't really like this style,-5,40,20","0"
"14833","","survey-text","51","368411","0.0-51.0-0.0","AHYTT3T8W9Y9Y","","","","{""Q0"":""It looks very angry.""}","","","","","","","","","","","","","","","","","","","","","","",""
"6141.10000000149","","image-slider-response","52","374556","0.0-52.0","AHYTT3T8W9Y9Y","","","","","-48","","","","","","","","","","","","","","","","","","","","","",""
"1501","","image-button-response","53","379560","0.0-53.0","AHYTT3T8W9Y9Y","img_art/3.jpg","0","","","","","","","","","","","","","","","","","","","","","","","","",""
"665","","image-button-response","54","380230","0.0-54.0","AHYTT3T8W9Y9Y","img_art/3.jpg","1","","","","","","","","","","","","","","","","","","","","","","","","",""
"646","","image-button-response","55","380880","0.0-55.0-0.0","AHYTT3T8W9Y9Y","img_art/3.jpg","0","","","","","","","","","","","","","","","","","","","","","","","","",""
"2164","","image-button-response","56","383049","0.0-56.0-0.0","AHYTT3T8W9Y9Y","img_art/3.jpg","0","","","","","","","","","","","","","","","","","","","","","","","","",""
"3156","","image-button-response","57","389688","0.0-56.1-0.1","AHYTT3T8W9Y9Y","img_art/3.jpg","2","","","","","","","","","","","","","","","","","","","","","","","","",""
"null","","html-keyboard-response","58","390710","0.0-57.0","AHYTT3T8W9Y9Y","<p style=""font-size: 48px;"">+</p>","","","","","null","allTrialResponses","1000","1","2","img_art/3.jpg","-48","It looks very angry.","Madeline,Rachel,Kelsey,Jamie,Kaitlin,Lindsey","Scribbly a bit too much,-30,40,20","Too red and chaotic. Not calming.,-41,80,20","just scribbles, not pleasing,-30,240,20","Looks like somebody squirted ketchup everywhere,-40,320,20","good choice of color,12,60,20","Angry red crayons, like a child throwing a tantrum. No thanks.,-10,400,20","Rachel","Too red and chaotic. Not calming.,-41,80,20","Madeline","Scribbly a bit too much,-30,40,20","Kelsey","just scribbles, not pleasing,-30,240,20","2"
"16927","","survey-text","59","407645","0.0-58.0-0.0","AHYTT3T8W9Y9Y","","","","{""Q0"":""I like the symmetry and boxed layout in the painting.""}","","","","","","","","","","","","","","","","","","","","","","",""
"3010.699999999255","","image-slider-response","60","410659","0.0-59.0","AHYTT3T8W9Y9Y","","","","","18","","","","","","","","","","","","","","","","","","","","","",""
"null","","image-button-response","61","415663","0.0-60.0","AHYTT3T8W9Y9Y","img_art/12.jpg","null","","","","","","","","","","","","","","","","","","","","","","","","",""
"1347","","image-button-response","62","417014","0.0-61.0","AHYTT3T8W9Y9Y","img_art/12.jpg","0","","","","","","","","","","","","","","","","","","","","","","","","",""
"4494","","image-button-response","63","421512","0.0-62.0-0.0","AHYTT3T8W9Y9Y","img_art/12.jpg","4","","","","","","","","","","","","","","","","","","","","","","","","",""
"11005","","image-button-response","64","432523","0.0-63.0-0.0","AHYTT3T8W9Y9Y","img_art/12.jpg","3","","","","","","","","","","","","","","","","","","","","","","","","",""
"null","","html-keyboard-response","65","433526","0.0-64.0","AHYTT3T8W9Y9Y","<p style=""font-size: 48px;"">+</p>","","","","","null","allTrialResponses","1000","1","3","img_art/12.jpg","18","I like the symmetry and boxed layout in the painting.","Madeline,Rachel,Kelsey,Kayla,Katherine,Tiffany","Love the shapes here,12,40,20","I like how it's split into tiny squares, but otherwise, not very intriguing.,-18,80,20","dont like the squares,-16,240,20","Yay! Lots of people, lots of lives.,25,180,20","Not sure why but this is my favorite. I'd put it on my wall,50,120,20","The painting makes me uncomfortable. The smears in the boxes feel like a giant mess.,-16,360,20","Madeline","Love the shapes here,12,40,20","Katherine","Not sure why but this is my favorite. I'd put it on my wall,50,120,20","Kayla","Yay! Lots of people, lots of lives.,25,180,20","2"
"11543","","survey-text","66","445077","0.0-65.0-0.0","AHYTT3T8W9Y9Y","","","","{""Q0"":""I like the texture used.""}","","","","","","","","","","","","","","","","","","","","","","",""
"3054.800000000745","","image-slider-response","67","448136","0.0-66.0","AHYTT3T8W9Y9Y","","","","","14","","","","","","","","","","","","","","","","","","","","","",""
"null","","image-button-response","68","453143","0.0-67.0","AHYTT3T8W9Y9Y","img_art/1.jpg","null","","","","","","","","","","","","","","","","","","","","","","","","",""
"4240","","image-button-response","69","457393","0.0-68.0","AHYTT3T8W9Y9Y","img_art/1.jpg","4","","","","","","","","","","","","","","","","","","","","","","","","",""
"881","","image-button-response","70","458278","0.0-69.0-0.0","AHYTT3T8W9Y9Y","img_art/1.jpg","2","","","","","","","","","","","","","","","","","","","","","","","","",""
"1687","","image-button-response","71","459971","0.0-70.0-0.0","AHYTT3T8W9Y9Y","img_art/1.jpg","5","","","","","","","","","","","","","","","","","","","","","","","","",""
"null","","html-keyboard-response","72","460488","0.0-71.0","AHYTT3T8W9Y9Y","<p style=""font-size: 48px;"">+</p>","","","","","null","allTrialResponses","500","1","4","img_art/1.jpg","14","I like the texture used.","Madeline,Sarah,Briana,Kayla,Katherine,Leah","Quite messy looking,-22,40,20","it's boring despite all the colors,-2,180,20","I like the colors. But it doesnt look like anything,27,400,20","Happy! Reminds me of hiking in tennesee.,18,180,20","Blurry but that's how emotions are a lot of the time.,27,120,20","Pretty intermeshing of colors, happy,32,360,20","Katherine","Blurry but that's how emotions are a lot of the time.,27,120,20","Briana","I like the colors. But it doesnt look like anything,27,400,20","Leah","Pretty intermeshing of colors, happy,32,360,20","2"
"17585","","survey-text","73","478083","0.0-72.0-0.0","AHYTT3T8W9Y9Y","","","","{""Q0"":""Difficult to distinguish but I like the colors and shapes.""}","","","","","","","","","","","","","","","","","","","","","","",""
"2567","","image-slider-response","74","480655","0.0-73.0","AHYTT3T8W9Y9Y","","","","","27","","","","","","","","","","","","","","","","","","","","","",""
"2198","","image-button-response","75","485668","0.0-74.0","AHYTT3T8W9Y9Y","img_art/20.jpg","0","","","","","","","","","","","","","","","","","","","","","","","","",""
"2418","","image-button-response","76","488091","0.0-75.0","AHYTT3T8W9Y9Y","img_art/20.jpg","0","","","","","","","","","","","","","","","","","","","","","","","","",""
"883","","image-button-response","77","488978","0.0-76.0-0.0","AHYTT3T8W9Y9Y","img_art/20.jpg","1","","","","","","","","","","","","","","","","","","","","","","","","",""
"4588","","image-button-response","78","493571","0.0-77.0-0.0","AHYTT3T8W9Y9Y","img_art/20.jpg","4","","","","","","","","","","","","","","","","","","","","","","","","",""
"null","","html-keyboard-response","79","494088","0.0-78.0","AHYTT3T8W9Y9Y","<p style=""font-size: 48px;"">+</p>","","","","","null","allTrialResponses","500","1","5","img_art/20.jpg","27","Difficult to distinguish but I like the colors and shapes.","Lauren,Crystal,Briana,Abigail,Katherine,Leah","I like how the image is depicting a scene.,10,340,20","The pulling and sagging nature is very beautiful.,30,300,20","Someone trying to be dali,-15,400,20","A mountain vacation,46,20,20","More dark colors and blurry objects.,13,120,20","A sad past town, pollution, guess I like happier scenes,-30,360,20","Lauren","I like how the image is depicting a scene.,10,340,20","Crystal","The pulling and sagging nature is very beautiful.,30,300,20","Katherine","More dark colors and blurry objects.,13,120,20","2"
"4182","","survey-text","80","498285","0.0-79.0-0.0","AHYTT3T8W9Y9Y","","","","{""Q0"":""sky""}","","","","","","","","","","","","","","","","","","","","","","",""
"10750","","survey-text","81","509038","0.0-80.0-0.0","AHYTT3T8W9Y9Y","","","","{""Q0"":""It reminds me of a highway.""}","","","","","","","","","","","","","","","","","","","","","","",""
"2917.5","","image-slider-response","82","511959","0.0-81.0","AHYTT3T8W9Y9Y","","","","","-15","","","","","","","","","","","","","","","","","","","","","",""
"null","","image-button-response","83","516962","0.0-82.0","AHYTT3T8W9Y9Y","img_art/11.jpg","null","","","","","","","","","","","","","","","","","","","","","","","","",""
"2194","","image-button-response","84","519160","0.0-83.0","AHYTT3T8W9Y9Y","img_art/11.jpg","2","","","","","","","","","","","","","","","","","","","","","","","","",""
"3185","","image-button-response","85","522350","0.0-84.0-0.0","AHYTT3T8W9Y9Y","img_art/11.jpg","5","","","","","","","","","","","","","","","","","","","","","","","","",""
"2627","","image-button-response","86","524981","0.0-85.0-0.0","AHYTT3T8W9Y9Y","img_art/11.jpg","1","","","","","","","","","","","","","","","","","","","","","","","","",""
"null","","html-keyboard-response","87","525989","0.0-86.0","AHYTT3T8W9Y9Y","<p style=""font-size: 48px;"">+</p>","","","","","null","allTrialResponses","1000","1","6","img_art/11.jpg","-15","It reminds me of a highway.","Lauren,Crystal,Sara,Anna,Katherine,Stephanie","I like how this piece can be interpreted in different ways, such as a village on hilly terrain.,10,340,20","Enjoyed the lines representing different paths that encompass different entities,20,300,20","Looks sad but clean,31,160,20","It makes me think of a coastal sea town.,50,300,20","Makes me feel like my vision is breaking,19,120,20","Rainy dreary day in a town.,7,300,20","Sara","Looks sad but clean,31,160,20","Stephanie","Rainy dreary day in a town.,7,300,20","Crystal","Enjoyed the lines representing different paths that encompass different entities,20,300,20","2"
"17576","","survey-text","88","543573","0.0-87.0-0.0","AHYTT3T8W9Y9Y","","","","{""Q0"":""It looks very blurry and uninteresting.""}","","","","","","","","","","","","","","","","","","","","","","",""
"3624","","image-slider-response","89","547202","0.0-88.0","AHYTT3T8W9Y9Y","","","","","-20","","","","","","","","","","","","","","","","","","","","","",""
"null","","image-button-response","90","552214","0.0-89.0","AHYTT3T8W9Y9Y","img_art/21.jpg","null","","","","","","","","","","","","","","","","","","","","","","","","",""
"696","","image-button-response","91","552914","0.0-90.0","AHYTT3T8W9Y9Y","img_art/21.jpg","2","","","","","","","","","","","","","","","","","","","","","","","","",""
"2990","","image-button-response","92","555909","0.0-91.0-0.0","AHYTT3T8W9Y9Y","img_art/21.jpg","5","","","","","","","","","","","","","","","","","","","","","","","","",""
"2319","","image-button-response","93","558233","0.0-92.0-0.0","AHYTT3T8W9Y9Y","img_art/21.jpg","1","","","","","","","","","","","","","","","","","","","","","","","","",""
"null","","html-keyboard-response","94","558750","0.0-93.0","AHYTT3T8W9Y9Y","<p style=""font-size: 48px;"">+</p>","","","","","null","allTrialResponses","500","1","7","img_art/21.jpg","-20","It looks very blurry and uninteresting.","Brittany,Crystal,Sara,Mary,Jenna,Stephanie","Alright. I like the colors.,5,40,20","Feels like a clash between land and sea,31,300,20","It looks confusing,-21,160,20","This is lovely. I like the mix of colors, the warn and cool slowly combining.,39,180,20","beautiful. reminds me of a storm brewing over sea. i love the white dots.,45,360,20","A battle at sea, the red is a bomb exploding.,-31,300,20","Sara","It looks confusing,-21,160,20","Stephanie","A battle at sea, the red is a bomb exploding.,-31,300,20","Crystal","Feels like a clash between land and sea,31,300,20","2"
"21390","","survey-text","95","580152","0.0-94.0-0.0","AHYTT3T8W9Y9Y","","","","{""Q0"":""It looks like a mistake that the artist wants to take back.""}","","","","","","","","","","","","","","","","","","","","","","",""
"3081.900000002235","","image-slider-response","96","583237","0.0-95.0","AHYTT3T8W9Y9Y","","","","","-33","","","","","","","","","","","","","","","","","","","","","",""
"4705","","image-button-response","97","588251","0.0-96.0","AHYTT3T8W9Y9Y","img_art/29.jpg","2","","","","","","","","","","","","","","","","","","","","","","","","",""
"890","","image-button-response","98","589145","0.0-97.0","AHYTT3T8W9Y9Y","img_art/29.jpg","2","","","","","","","","","","","","","","","","","","","","","","","","",""
"2913","","image-button-response","99","592061","0.0-98.0-0.0","AHYTT3T8W9Y9Y","img_art/29.jpg","0","","","","","","","","","","","","","","","","","","","","","","","","",""
"7339","","image-button-response","100","599404","0.0-99.0-0.0","AHYTT3T8W9Y9Y","img_art/29.jpg","4","","","","","","","","","","","","","","","","","","","","","","","","",""
"null","","html-keyboard-response","101","600426","0.0-100.0","AHYTT3T8W9Y9Y","<p style=""font-size: 48px;"">+</p>","","","","","null","allTrialResponses","1000","1","8","img_art/29.jpg","-33","It looks like a mistake that the artist wants to take back.","Brianna,Crystal,Sara,Alexandria,Katie,Stephanie","It has a red X on there, and x's mean bad in my perspective,-29,20,20","Reminiscent of Jackson Pollock with a hint of abstract structure with the bordering.,32,300,20","I don't like the black,-50,160,20","it is difficult to look at but you can't look away,-25,80,20","Don't get it! Too dark and random. Perhaps it was the start of something but the artist stopped and cancelled out the work.,-50,160,20","Looks like a murder,-50,300,20","Sara","I don't like the black,-50,160,20","Brianna","It has a red X on there, and x's mean bad in my perspective,-29,20,20","Katie","Don't get it! Too dark and random. Perhaps it was the start of something but the artist stopped and cancelled out the work.,-50,160,20","2"
"13434","","survey-text","102","613868","0.0-101.0-0.0","AHYTT3T8W9Y9Y","","","","{""Q0"":""I like the multi colors. It looks like confetti.""}","","","","","","","","","","","","","","","","","","","","","","",""
"3449.699999999255","","image-slider-response","103","617321","0.0-102.0","AHYTT3T8W9Y9Y","","","","","15","","","","","","","","","","","","","","","","","","","","","",""
"null","","image-button-response","104","622333","0.0-103.0","AHYTT3T8W9Y9Y","img_art/23.jpg","null","","","","","","","","","","","","","","","","","","","","","","","","",""
"868","","image-button-response","105","623206","0.0-104.0","AHYTT3T8W9Y9Y","img_art/23.jpg","3","","","","","","","","","","","","","","","","","","","","","","","","",""
"1419","","image-button-response","106","624630","0.0-105.0-0.0","AHYTT3T8W9Y9Y","img_art/23.jpg","0","","","","","","","","","","","","","","","","","","","","","","","","",""
"3506","","image-button-response","107","628141","0.0-106.0-0.0","AHYTT3T8W9Y9Y","img_art/23.jpg","1","","","","","","","","","","","","","","","","","","","","","","","","",""
"null","","html-keyboard-response","108","629145","0.0-107.0","AHYTT3T8W9Y9Y","<p style=""font-size: 48px;"">+</p>","","","","","null","allTrialResponses","1000","1","9","img_art/23.jpg","15","I like the multi colors. It looks like confetti.","Brianna,Kelly,Sara,Claire,Katie,Jasmine","I love the rainbow!,12,20,20","Love this. I love the white, really pops with the colors surrounding it.,44,220,20","Beautiful color scheme,21,160,20","the pattern is pleasing to the eye,28,260,20","I don't get it! the white in the middle of the speckled rainbow is confusing.,-10,160,20","Mostly neutral but a bit too guady with the brash colors,-6,340,20","Claire","the pattern is pleasing to the eye,28,260,20","Brianna","I love the rainbow!,12,20,20","Kelly","Love this. I love the white, really pops with the colors surrounding it.,44,220,20","2"
"12890","","survey-text","109","642044","0.0-108.0-0.0","AHYTT3T8W9Y9Y","","","","{""Q0"":""It is too blurry for me. I don't get what I'm looking at.""}","","","","","","","","","","","","","","","","","","","","","","",""
"3281.39999999851","","image-slider-response","110","645330","0.0-109.0","AHYTT3T8W9Y9Y","","","","","-18","","","","","","","","","","","","","","","","","","","","","",""
"null","","image-button-response","111","650334","0.0-110.0","AHYTT3T8W9Y9Y","img_art/22.jpg","null","","","","","","","","","","","","","","","","","","","","","","","","",""
"5312","","image-button-response","112","655650","0.0-111.0","AHYTT3T8W9Y9Y","img_art/22.jpg","2","","","","","","","","","","","","","","","","","","","","","","","","",""
"968","","image-button-response","113","656623","0.0-112.0-0.0","AHYTT3T8W9Y9Y","img_art/22.jpg","4","","","","","","","","","","","","","","","","","","","","","","","","",""
"2754","","image-button-response","114","659380","0.0-113.0-0.0","AHYTT3T8W9Y9Y","img_art/22.jpg","1","","","","","","","","","","","","","","","","","","","","","","","","",""
"null","","html-keyboard-response","115","661089","0.0-114.0","AHYTT3T8W9Y9Y","<p style=""font-size: 48px;"">+</p>","","","","","null","allTrialResponses","1000","1","10","img_art/22.jpg","-18","It is too blurry for me. I don't get what I'm looking at.","Brianna,Kelly,Madison,Claire,Savannah,Haley","Like the black key and the rainbow color theme.,31,20,20","I really enjoy the blended colors.,20,220,20","Like the colors, and the even blur. The more I look, the more a story forms. A very narrative image.,18,60,20","I enjoy the colors used,24,260,20","Seems too simple.,-19,200,20","Beautiful. I love the color contrast and gradients.,50,220,20","Madison","Like the colors, and the even blur. The more I look, the more a story forms. A very narrative image.,18,60,20","Savannah","Seems too simple.,-19,200,20","Kelly","I really enjoy the blended colors.,20,220,20","2"
"9927","","survey-text","116","671129","0.0-115.0-0.0","AHYTT3T8W9Y9Y","","","","{""Q0"":""our""}","","","","","","","","","","","","","","","","","","","","","","",""
"11957","","survey-text","117","683089","0.0-116.0-0.0","AHYTT3T8W9Y9Y","","","","{""Q0"":""It seems very simple and not artistic.""}","","","","","","","","","","","","","","","","","","","","","","",""
"2962.699999999255","","image-slider-response","118","686055","0.0-117.0","AHYTT3T8W9Y9Y","","","","","-28","","","","","","","","","","","","","","","","","","","","","",""
"3669","","image-button-response","119","691062","0.0-118.0","AHYTT3T8W9Y9Y","img_art/26.jpg","1","","","","","","","","","","","","","","","","","","","","","","","","",""
"1012","","image-button-response","120","692079","0.0-119.0","AHYTT3T8W9Y9Y","img_art/26.jpg","1","","","","","","","","","","","","","","","","","","","","","","","","",""
"920","","image-button-response","121","693004","0.0-120.0-0.0","AHYTT3T8W9Y9Y","img_art/26.jpg","3","","","","","","","","","","","","","","","","","","","","","","","","",""
"1248","","image-button-response","122","694258","0.0-121.0-0.0","AHYTT3T8W9Y9Y","img_art/26.jpg","4","","","","","","","","","","","","","","","","","","","","","","","","",""
"null","","html-keyboard-response","123","695767","0.0-122.0","AHYTT3T8W9Y9Y","<p style=""font-size: 48px;"">+</p>","","","","","null","allTrialResponses","1500","1","11","img_art/26.jpg","-28","It seems very simple and not artistic.","Elizabeth,Kelly,Madison,Alexis,Savannah,Amanda","Like the soft blend of colors,26,20,20","Very subdued, but wouldn't give it a 2nd notice.,4,220,20","Colors look glum; photograph is not properly contrasted and does not reflect the appropriate amount of natural light.,-10,60,20","Much too simple and without color for my taste,-33,100,20","Appears childish and unfinished.,-20,200,20","Pleasant to look at,28,180,20","Kelly","Very subdued, but wouldn't give it a 2nd notice.,4,220,20","Alexis","Much too simple and without color for my taste,-33,100,20","Savannah","Appears childish and unfinished.,-20,200,20","2"
"8641","","survey-text","124","704417","0.0-123.0-0.0","AHYTT3T8W9Y9Y","","","","{""Q0"":""It looks very chaotic and dark.""}","","","","","","","","","","","","","","","","","","","","","","",""
"2550.199999999255","","image-slider-response","125","706972","0.0-124.0","AHYTT3T8W9Y9Y","","","","","-17","","","","","","","","","","","","","","","","","","","","","",""
"null","","image-button-response","126","711975","0.0-125.0","AHYTT3T8W9Y9Y","img_art/9.jpg","null","","","","","","","","","","","","","","","","","","","","","","","","",""
"1168","","image-button-response","127","713147","0.0-126.0","AHYTT3T8W9Y9Y","img_art/9.jpg","1","","","","","","","","","","","","","","","","","","","","","","","","",""
"764","","image-button-response","128","713915","0.0-127.0-0.0","AHYTT3T8W9Y9Y","img_art/9.jpg","2","","","","","","","","","","","","","","","","","","","","","","","","",""
"4077","","image-button-response","129","717997","0.0-128.0-0.0","AHYTT3T8W9Y9Y","img_art/9.jpg","4","","","","","","","","","","","","","","","","","","","","","","","","",""
"null","","html-keyboard-response","130","719506","0.0-129.0","AHYTT3T8W9Y9Y","<p style=""font-size: 48px;"">+</p>","","","","","null","allTrialResponses","1500","1","12","img_art/9.jpg","-17","It looks very chaotic and dark.","Megan,Kelly,Cheyenne,Alexis,Savannah,Michelle","A troubled painter was influenced by anger and mad at the woman in the middle, color not bad,-32,200,20","It looks like a child drew it.,-28,220,20","Too much going on, don't know what the focus is,-11,200,20","I like the sense of forboding, the green creates a claustrophobic feeling,10,100,20","Unfinished, weird composition.,-34,200,20","Alright, I can see a reclining lady, I'm just glad to be able to tell what's in the picture,5,280,20","Kelly","It looks like a child drew it.,-28,220,20","Cheyenne","Too much going on, don't know what the focus is,-11,200,20","Savannah","Unfinished, weird composition.,-34,200,20","2"
"27963","","survey-text","131","747489","0.0-130.0-0.0","AHYTT3T8W9Y9Y","","","","{""Q0"":""It looks like a tree with the branches unfolding.""}","","","","","","","","","","","","","","","","","","","","","","",""
"3353.099999997765","","image-slider-response","132","750846","0.0-131.0","AHYTT3T8W9Y9Y","","","","","26","","","","","","","","","","","","","","","","","","","","","",""
"null","","image-button-response","133","755861","0.0-132.0","AHYTT3T8W9Y9Y","img_art/17.jpg","null","","","","","","","","","","","","","","","","","","","","","","","","",""
"4031","","image-button-response","134","759896","0.0-133.0","AHYTT3T8W9Y9Y","img_art/17.jpg","1","","","","","","","","","","","","","","","","","","","","","","","","",""
"2921","","image-button-response","135","762821","0.0-134.0-0.0","AHYTT3T8W9Y9Y","img_art/17.jpg","2","","","","","","","","","","","","","","","","","","","","","","","","",""
"1770","","image-button-response","136","764598","0.0-135.0-0.0","AHYTT3T8W9Y9Y","img_art/17.jpg","4","","","","","","","","","","","","","","","","","","","","","","","","",""
"null","","html-keyboard-response","137","766115","0.0-136.0","AHYTT3T8W9Y9Y","<p style=""font-size: 48px;"">+</p>","","","","","null","allTrialResponses","1500","1","13","img_art/17.jpg","26","It looks like a tree with the branches unfolding.","Angelica,Kelly,Cheyenne,Katelyn,Savannah,Makayla","This could have been good but was poorly done.,-5,280,20","I really like this, especially the tree.,23,220,20","I like the colorfulness.,17,200,20","Doesnt completely turn me off but wouldnt look twice,-3,100,20","Not even abstract to me, very clear meaning.,44,200,20","I feel okay , it's like a tree,28,80,20","Kelly","I really like this, especially the tree.,23,220,20","Cheyenne","I like the colorfulness.,17,200,20","Savannah","Not even abstract to me, very clear meaning.,44,200,20","2"
"16156","","survey-text","138","782284","0.0-137.0-0.0","AHYTT3T8W9Y9Y","","","","{""Q0"":""I don't know what I'm looking at. It is confusing.""}","","","","","","","","","","","","","","","","","","","","","","",""
"2705.5","","image-slider-response","139","784994","0.0-138.0","AHYTT3T8W9Y9Y","","","","","-25","","","","","","","","","","","","","","","","","","","","","",""
"null","","image-button-response","140","790002","0.0-139.0","AHYTT3T8W9Y9Y","img_art/7.jpg","null","","","","","","","","","","","","","","","","","","","","","","","","",""
"874","","image-button-response","141","790879","0.0-140.0","AHYTT3T8W9Y9Y","img_art/7.jpg","1","","","","","","","","","","","","","","","","","","","","","","","","",""
"2487","","image-button-response","142","793371","0.0-141.0-0.0","AHYTT3T8W9Y9Y","img_art/7.jpg","3","","","","","","","","","","","","","","","","","","","","","","","","",""
"3261","","image-button-response","143","796639","0.0-142.0-0.0","AHYTT3T8W9Y9Y","img_art/7.jpg","5","","","","","","","","","","","","","","","","","","","","","","","","",""
"null","","html-keyboard-response","144","797649","0.0-143.0","AHYTT3T8W9Y9Y","<p style=""font-size: 48px;"">+</p>","","","","","null","allTrialResponses","1000","1","14","img_art/7.jpg","-25","I don't know what I'm looking at. It is confusing.","Autumn,Kelly,Cheyenne,Alicia,Savannah,Sophia","Well done minimalism.,35,340,20","My firs thought was ""gross""...not sure what this is and I dont think i want to know.,-19,220,20","Nice realistic feel but nothing stands out.,4,200,20","I don't get it. looks like a picture of the ground.,-42,120,20","More saturated color, even more interpretations to have.,44,200,20","Is this cookie dough?  Yum!,-10,280,20","Kelly","My firs thought was ""gross""...not sure what this is and I dont think i want to know.,-19,220,20","Alicia","I don't get it. looks like a picture of the ground.,-42,120,20","Sophia","Is this cookie dough?  Yum!,-10,280,20","2"
"18048","","survey-text","145","815708","0.0-144.0-0.0","AHYTT3T8W9Y9Y","","","","{""Q0"":""The green squiggly lines mess up the painting for me.""}","","","","","","","","","","","","","","","","","","","","","","",""
"3175.89999999851","","image-slider-response","146","818888","0.0-145.0","AHYTT3T8W9Y9Y","","","","","-22","","","","","","","","","","","","","","","","","","","","","",""
"null","","image-button-response","147","823906","0.0-146.0","AHYTT3T8W9Y9Y","img_art/27.jpg","null","","","","","","","","","","","","","","","","","","","","","","","","",""
"4474","","image-button-response","148","828384","0.0-147.0","AHYTT3T8W9Y9Y","img_art/27.jpg","1","","","","","","","","","","","","","","","","","","","","","","","","",""
"2753","","image-button-response","149","831142","0.0-148.0-0.0","AHYTT3T8W9Y9Y","img_art/27.jpg","2","","","","","","","","","","","","","","","","","","","","","","","","",""
"3151","","image-button-response","150","834298","0.0-149.0-0.0","AHYTT3T8W9Y9Y","img_art/27.jpg","4","","","","","","","","","","","","","","","","","","","","","","","","",""
"null","","html-keyboard-response","151","834804","0.0-150.0","AHYTT3T8W9Y9Y","<p style=""font-size: 48px;"">+</p>","","","","","null","allTrialResponses","500","1","15","img_art/27.jpg","-22","The green squiggly lines mess up the painting for me.","Monica,Kelly,Miranda,Alicia,Diana,Sophia","It tries to remind me of the autumn season but it's grey and looks dirty,-5,360,20","The green stick drawings or whatever they are ruin it for me.,-23,220,20","I'm not a fan. It looks like something my nephews (1 and 2) would make,-8,320,20","dont like it, don't hate it, meh.,2,120,20","I don't care for the green scribbles; not sure what they are. But I adore the colors in the background.,24,380,20","Yikes. I think I made this in kindergarten.,-20,280,20","Kelly","The green stick drawings or whatever they are ruin it for me.,-23,220,20","Miranda","I'm not a fan. It looks like something my nephews (1 and 2) would make,-8,320,20","Diana","I don't care for the green scribbles; not sure what they are. But I adore the colors in the background.,24,380,20","2"
"4949","","survey-text","152","839776","0.0-151.0-0.0","AHYTT3T8W9Y9Y","","","","{""Q0"":""course""}","","","","","","","","","","","","","","","","","","","","","","",""
"19195","","survey-text","153","858975","0.0-152.0-0.0","AHYTT3T8W9Y9Y","","","","{""Q0"":""I like the black and white lines but I don't know what the teddy bear is doing there.""}","","","","","","","","","","","","","","","","","","","","","","",""
"3085.39999999851","","image-slider-response","154","862063","0.0-153.0","AHYTT3T8W9Y9Y","","","","","-8","","","","","","","","","","","","","","","","","","","","","",""
"null","","image-button-response","155","867081","0.0-154.0","AHYTT3T8W9Y9Y","img_art/16.jpg","null","","","","","","","","","","","","","","","","","","","","","","","","",""
"989","","image-button-response","156","868073","0.0-155.0","AHYTT3T8W9Y9Y","img_art/16.jpg","1","","","","","","","","","","","","","","","","","","","","","","","","",""
"3881","","image-button-response","157","871959","0.0-156.0-0.0","AHYTT3T8W9Y9Y","img_art/16.jpg","3","","","","","","","","","","","","","","","","","","","","","","","","",""
"1633","","image-button-response","158","873597","0.0-157.0-0.0","AHYTT3T8W9Y9Y","img_art/16.jpg","4","","","","","","","","","","","","","","","","","","","","","","","","",""
"null","","html-keyboard-response","159","874601","0.0-158.0","AHYTT3T8W9Y9Y","<p style=""font-size: 48px;"">+</p>","","","","","null","allTrialResponses","1000","1","16","img_art/16.jpg","-8","I like the black and white lines but I don't know what the teddy bear is doing there.","Leslie,Kelly,Miranda,Gabriela,Diana,Hailey","This is making me feel nervous in an enjoyable way.,20,380,20","Looks like someone got really high and did a bad photoshop job.,-27,220,20","This looks like it was made by an art student filled with angst,-30,320,20","It looks very generic, like items were pasted onto the background,-38,140,20","This one isn't for me. It came off as strange but not in a good way.,-44,380,20","cute and warm. i like the bear,15,200,20","Kelly","Looks like someone got really high and did a bad photoshop job.,-27,220,20","Gabriela","It looks very generic, like items were pasted onto the background,-38,140,20","Diana","This one isn't for me. It came off as strange but not in a good way.,-44,380,20","2"
"24222","","survey-text","160","898835","0.0-159.0-0.0","AHYTT3T8W9Y9Y","","","","{""Q0"":""I like the face in the sky and the architecture of the buildings.""}","","","","","","","","","","","","","","","","","","","","","","",""
"2854","","image-slider-response","161","901692","0.0-160.0","AHYTT3T8W9Y9Y","","","","","39","","","","","","","","","","","","","","","","","","","","","",""
"null","","image-button-response","162","906705","0.0-161.0","AHYTT3T8W9Y9Y","img_art/8.jpg","null","","","","","","","","","","","","","","","","","","","","","","","","",""
"391","","image-button-response","163","907098","0.0-162.0","AHYTT3T8W9Y9Y","img_art/8.jpg","1","","","","","","","","","","","","","","","","","","","","","","","","",""
"2621","","image-button-response","164","909725","0.0-163.0-0.0","AHYTT3T8W9Y9Y","img_art/8.jpg","3","","","","","","","","","","","","","","","","","","","","","","","","",""
"1624","","image-button-response","165","911355","0.0-164.0-0.0","AHYTT3T8W9Y9Y","img_art/8.jpg","5","","","","","","","","","","","","","","","","","","","","","","","","",""
"null","","html-keyboard-response","166","912364","0.0-165.0","AHYTT3T8W9Y9Y","<p style=""font-size: 48px;"">+</p>","","","","","null","allTrialResponses","1000","1","17","img_art/8.jpg","39","I like the face in the sky and the architecture of the buildings.","Destiny,Kelly,Alexandra,Gabriela,Diana,Natalie","a cute little cute with some protectors,25,360,20","Interesting, i really like the face and the moon. Realy detailed and you see something new with each look.,11,220,20","The colors are nice but the big face in the sky is creepy,-11,60,20","I like that it sort of looks like a cityscape,9,140,20","I don't care for the piece, but I appreciate the talent that it took to create it.,22,380,20","looks nice, like the details,25,400,20","Kelly","Interesting, i really like the face and the moon. Realy detailed and you see something new with each look.,11,220,20","Gabriela","I like that it sort of looks like a cityscape,9,140,20","Natalie","looks nice, like the details,25,400,20","2"
"12455","","survey-text","167","924829","0.0-166.0-0.0","AHYTT3T8W9Y9Y","","","","{""Q0"":""I like the array of colors used.""}","","","","","","","","","","","","","","","","","","","","","","",""
"3400.099999997765","","image-slider-response","168","928232","0.0-167.0","AHYTT3T8W9Y9Y","","","","","25","","","","","","","","","","","","","","","","","","","","","",""
"null","","image-button-response","169","933239","0.0-168.0","AHYTT3T8W9Y9Y","img_art/13.jpg","null","","","","","","","","","","","","","","","","","","","","","","","","",""
"1175","","image-button-response","170","934418","0.0-169.0","AHYTT3T8W9Y9Y","img_art/13.jpg","1","","","","","","","","","","","","","","","","","","","","","","","","",""
"989","","image-button-response","171","935411","0.0-170.0-0.0","AHYTT3T8W9Y9Y","img_art/13.jpg","2","","","","","","","","","","","","","","","","","","","","","","","","",""
"2268","","image-button-response","172","937685","0.0-171.0-0.0","AHYTT3T8W9Y9Y","img_art/13.jpg","4","","","","","","","","","","","","","","","","","","","","","","","","",""
"null","","html-keyboard-response","173","938204","0.0-172.0","AHYTT3T8W9Y9Y","<p style=""font-size: 48px;"">+</p>","","","","","null","allTrialResponses","500","1","18","img_art/13.jpg","25","I like the array of colors used.","Courtney,Kelly,Meghan,Gabriela,Caitlin,Natalie","Debree on top of a calm pond.,18,280,20","I would hang this photo in my room.,21,220,20","I like the transition to other colors,24,220,20","It looks too common, is a bit boring,-41,140,20","Simple and in my favorite color. I actually like this one.,40,80,20","I like the colors,7,400,20","Kelly","I would hang this photo in my room.,21,220,20","Meghan","I like the transition to other colors,24,220,20","Caitlin","Simple and in my favorite color. I actually like this one.,40,80,20","2"
"12709","","survey-text","174","950922","0.0-173.0-0.0","AHYTT3T8W9Y9Y","","","","{""Q0"":""I don't get it. It looks uninteresting.""}","","","","","","","","","","","","","","","","","","","","","","",""
"2616.800000000745","","image-slider-response","175","953542","0.0-174.0","AHYTT3T8W9Y9Y","","","","","-34","","","","","","","","","","","","","","","","","","","","","",""
"null","","image-button-response","176","958548","0.0-175.0","AHYTT3T8W9Y9Y","img_art/5.jpg","null","","","","","","","","","","","","","","","","","","","","","","","","",""
"5893","","image-button-response","177","964445","0.0-176.0","AHYTT3T8W9Y9Y","img_art/5.jpg","4","","","","","","","","","","","","","","","","","","","","","","","","",""
"1185","","image-button-response","178","965636","0.0-177.0-0.0","AHYTT3T8W9Y9Y","img_art/5.jpg","5","","","","","","","","","","","","","","","","","","","","","","","","",""
"2229","","image-button-response","179","967870","0.0-178.0-0.0","AHYTT3T8W9Y9Y","img_art/5.jpg","1","","","","","","","","","","","","","","","","","","","","","","","","",""
"null","","html-keyboard-response","180","968883","0.0-179.0","AHYTT3T8W9Y9Y","<p style=""font-size: 48px;"">+</p>","","","","","null","allTrialResponses","1000","1","19","img_art/5.jpg","-34","I don't get it. It looks uninteresting.","Kaitlyn,Kelly,Meghan,Kristen,Caitlin,Breanna","Wish the background had been kept clean; distracts from main object,11,80,20","It looks like daffy duck's leg with a random trail of pink.,-22,220,20","I like it but I don't know why,15,220,20","sharp, painful yet playful,-5,280,20","More kindergarten art class. Who buys this stuff?,-45,80,20","Makes me feel weird,-16,380,20","Caitlin","More kindergarten art class. Who buys this stuff?,-45,80,20","Breanna","Makes me feel weird,-16,380,20","Kelly","It looks like daffy duck's leg with a random trail of pink.,-22,220,20","2"
"9656","","survey-text","181","978550","0.0-180.0-0.0","AHYTT3T8W9Y9Y","","","","{""Q0"":""I like the texture of the painting.""}","","","","","","","","","","","","","","","","","","","","","","",""
"2477.699999999255","","image-slider-response","182","981032","0.0-181.0","AHYTT3T8W9Y9Y","","","","","28","","","","","","","","","","","","","","","","","","","","","",""
"null","","image-button-response","183","986050","0.0-182.0","AHYTT3T8W9Y9Y","img_art/25.jpg","null","","","","","","","","","","","","","","","","","","","","","","","","",""
"901","","image-button-response","184","986954","0.0-183.0","AHYTT3T8W9Y9Y","img_art/25.jpg","1","","","","","","","","","","","","","","","","","","","","","","","","",""
"3777","","image-button-response","185","990735","0.0-184.0-0.0","AHYTT3T8W9Y9Y","img_art/25.jpg","5","","","","","","","","","","","","","","","","","","","","","","","","",""
"2565","","image-button-response","186","993306","0.0-185.0-0.0","AHYTT3T8W9Y9Y","img_art/25.jpg","3","","","","","","","","","","","","","","","","","","","","","","","","",""
"null","","html-keyboard-response","187","993809","0.0-186.0","AHYTT3T8W9Y9Y","<p style=""font-size: 48px;"">+</p>","","","","","null","allTrialResponses","500","1","20","img_art/25.jpg","28","I like the texture of the painting.","Rebecca,Kelly,Grace,Dominique,Caitlin,Breanna","I'm sorry but I don't uderstand this,-20,100,20","I love the color. I don't know what exactly is going on but I like it.,24,220,20","Scary. Something out of a Stephen King book/movie.,-31,180,20","Iike this picture; it speaks to me on a personal level. But seems to scare the ones around me.,7,400,20","Wish I was that thin.,-5,80,20","Makes me feel intrigued,13,380,20","Kelly","I love the color. I don't know what exactly is going on but I like it.,24,220,20","Breanna","Makes me feel intrigued,13,380,20","Dominique","Iike this picture; it speaks to me on a personal level. But seems to scare the ones around me.,7,400,20","2"
"4388","","survey-text","188","998216","0.0-187.0-0.0","AHYTT3T8W9Y9Y","","","","{""Q0"":""we""}","","","","","","","","","","","","","","","","","","","","","","",""
"10044","","survey-text","189","1008266","0.0-188.0-0.0","AHYTT3T8W9Y9Y","","","","{""Q0"":""It doesn't look creative at all.""}","","","","","","","","","","","","","","","","","","","","","","",""
"2976.900000002235","","image-slider-response","190","1011246","0.0-189.0","AHYTT3T8W9Y9Y","","","","","-31","","","","","","","","","","","","","","","","","","","","","",""
"3670","","image-button-response","191","1016252","0.0-190.0","AHYTT3T8W9Y9Y","img_art/4.jpg","1","","","","","","","","","","","","","","","","","","","","","","","","",""
"711","","image-button-response","192","1016967","0.0-191.0","AHYTT3T8W9Y9Y","img_art/4.jpg","0","","","","","","","","","","","","","","","","","","","","","","","","",""
"850","","image-button-response","193","1017821","0.0-192.0-0.0","AHYTT3T8W9Y9Y","img_art/4.jpg","1","","","","","","","","","","","","","","","","","","","","","","","","",""
"3686","","image-button-response","194","1021512","0.0-193.0-0.0","AHYTT3T8W9Y9Y","img_art/4.jpg","2","","","","","","","","","","","","","","","","","","","","","","","","",""
"null","","html-keyboard-response","195","1022521","0.0-194.0","AHYTT3T8W9Y9Y","<p style=""font-size: 48px;"">+</p>","","","","","null","allTrialResponses","1000","1","21","img_art/4.jpg","-31","It doesn't look creative at all.","Hannah,Kelly,Gabrielle,Dominique,Kathryn,Breanna","looks very rudimentary and too simple.,-14,240,20","The longer I stare at this the less I like it.,-19,220,20","too childish, not really art in my world,-50,160,20","I like it not sure much of how I feel about it,7,400,20","I feel kind of guilty looking at this, like I'm receiving a reward I don't I deserve.,-10,140,20","Looks like a hand, not very impressed,-22,380,20","Hannah","looks very rudimentary and too simple.,-14,240,20","Kelly","The longer I stare at this the less I like it.,-19,220,20","Gabrielle","too childish, not really art in my world,-50,160,20","2"
"17071","","survey-text","196","1039604","0.0-195.0-0.0","AHYTT3T8W9Y9Y","","","","{""Q0"":""I don't like the brushstrokes used.""}","","","","","","","","","","","","","","","","","","","","","","",""
"2717.60000000149","","image-slider-response","197","1042326","0.0-196.0","AHYTT3T8W9Y9Y","","","","","-24","","","","","","","","","","","","","","","","","","","","","",""
"null","","image-button-response","198","1048114","0.0-197.0","AHYTT3T8W9Y9Y","img_art/10.jpg","null","","","","","","","","","","","","","","","","","","","","","","","","",""
"16989","","image-button-response","199","1065109","0.0-198.0","AHYTT3T8W9Y9Y","img_art/10.jpg","1","","","","","","","","","","","","","","","","","","","","","","","","",""
"1144","","image-button-response","200","1066259","0.0-199.0-0.0","AHYTT3T8W9Y9Y","img_art/10.jpg","2","","","","","","","","","","","","","","","","","","","","","","","","",""
"1901","","image-button-response","201","1068166","0.0-200.0-0.0","AHYTT3T8W9Y9Y","img_art/10.jpg","4","","","","","","","","","","","","","","","","","","","","","","","","",""
"null","","html-keyboard-response","202","1069186","0.0-201.0","AHYTT3T8W9Y9Y","<p style=""font-size: 48px;"">+</p>","","","","","null","allTrialResponses","1000","1","22","img_art/10.jpg","-24","I don't like the brushstrokes used.","Hannah,Kelly,Gabrielle,Morgan,Catherine,Angela","This one is interesting. I like it.,11,240,20","I cant tell what this is supposed to be, but I enjoy the simplicity of it.,28,220,20","interesting portrayal of a violin?,10,160,20","Roller coaster on an island.,9,380,20","Circle of life, with highs and lows, good and bad. You always weather the storm and come out on top.,40,160,20","This makes me think of a city, specifically London.,20,260,20","Kelly","I cant tell what this is supposed to be, but I enjoy the simplicity of it.,28,220,20","Gabrielle","interesting portrayal of a violin?,10,160,20","Catherine","Circle of life, with highs and lows, good and bad. You always weather the storm and come out on top.,40,160,20","2"
"11370","","survey-text","203","1080566","0.0-202.0-0.0","AHYTT3T8W9Y9Y","","","","{""Q0"":""I don't like the colors used.""}","","","","","","","","","","","","","","","","","","","","","","",""
"3085.699999999255","","image-slider-response","204","1083655","0.0-203.0","AHYTT3T8W9Y9Y","","","","","-24","","","","","","","","","","","","","","","","","","","","","",""
"null","","image-button-response","205","1088670","0.0-204.0","AHYTT3T8W9Y9Y","img_art/30.jpg","null","","","","","","","","","","","","","","","","","","","","","","","","",""
"1204","","image-button-response","206","1089877","0.0-205.0","AHYTT3T8W9Y9Y","img_art/30.jpg","0","","","","","","","","","","","","","","","","","","","","","","","","",""
"1721","","image-button-response","207","1091602","0.0-206.0-0.0","AHYTT3T8W9Y9Y","img_art/30.jpg","2","","","","","","","","","","","","","","","","","","","","","","","","",""
"1531","","image-button-response","208","1093138","0.0-207.0-0.0","AHYTT3T8W9Y9Y","img_art/30.jpg","3","","","","","","","","","","","","","","","","","","","","","","","","",""
"null","","html-keyboard-response","209","1094150","0.0-208.0","AHYTT3T8W9Y9Y","<p style=""font-size: 48px;"">+</p>","","","","","null","allTrialResponses","1000","1","23","img_art/30.jpg","-24","I don't like the colors used.","Amy,Kelly,Gabrielle,Jordan,Catherine,Mariah","Too much abstraction for me, leaving my focus mainly on color. I like the texture.,-20,220,20","The red helps it to pop.,13,220,20","looks very childish, like your kid did it,-33,160,20","cant see the meaning behind it,-20,20,20","connection, Everything is connected even in contrast.,42,160,20","It just feels hasty and not well composed. Has an angsty teen feel,-31,140,20","Amy","Too much abstraction for me, leaving my focus mainly on color. I like the texture.,-20,220,20","Gabrielle","looks very childish, like your kid did it,-33,160,20","Jordan","cant see the meaning behind it,-20,20,20","2"
"9897","","survey-text","210","1104057","0.0-209.0-0.0","AHYTT3T8W9Y9Y","","","","{""Q0"":""It looks very detailed but unfinished.""}","","","","","","","","","","","","","","","","","","","","","","",""
"3110.5","","image-slider-response","211","1107171","0.0-210.0","AHYTT3T8W9Y9Y","","","","","-6","","","","","","","","","","","","","","","","","","","","","",""
"null","","image-button-response","212","1113112","0.0-211.0","AHYTT3T8W9Y9Y","img_art/14.jpg","null","","","","","","","","","","","","","","","","","","","","","","","","",""
"7422","","image-button-response","213","1120537","0.0-212.0","AHYTT3T8W9Y9Y","img_art/14.jpg","0","","","","","","","","","","","","","","","","","","","","","","","","",""
"2692","","image-button-response","214","1123234","0.0-213.0-0.0","AHYTT3T8W9Y9Y","img_art/14.jpg","3","","","","","","","","","","","","","","","","","","","","","","","","",""
"3890","","image-button-response","215","1127127","0.0-214.0-0.0","AHYTT3T8W9Y9Y","img_art/14.jpg","2","","","","","","","","","","","","","","","","","","","","","","","","",""
"null","","html-keyboard-response","216","1128143","0.0-215.0","AHYTT3T8W9Y9Y","<p style=""font-size: 48px;"">+</p>","","","","","null","allTrialResponses","1000","1","24","img_art/14.jpg","-6","It looks very detailed but unfinished.","Amy,Mikayla,Gabrielle,Jordan,Olivia,Kylie","In others I might say the colors are garish. Here it works perfectly. The balance is wondrous and unlimiting.,25,220,20","The red looks like blood and im not a huge fan,15,300,20","the colors are peaceful and nature colors, soft,37,160,20","this one isn't bad, reminds me a tree that gives life, and people are waiting for someone new to be born,27,20,20","tree of life brings hope,7,40,20","Confusion or an explosion,40,300,20","Amy","In others I might say the colors are garish. Here it works perfectly. The balance is wondrous and unlimiting.,25,220,20","Jordan","this one isn't bad, reminds me a tree that gives life, and people are waiting for someone new to be born,27,20,20","Gabrielle","the colors are peaceful and nature colors, soft,37,160,20","2"
"15844","","survey-text","217","1143997","0.0-216.0-0.0","AHYTT3T8W9Y9Y","","","","{""Q0"":""It looks too dark for me. I don't know what I am looking at.""}","","","","","","","","","","","","","","","","","","","","","","",""
"3104.5","","image-slider-response","218","1147106","0.0-217.0","AHYTT3T8W9Y9Y","","","","","-29","","","","","","","","","","","","","","","","","","","","","",""
"null","","image-button-response","219","1152114","0.0-218.0","AHYTT3T8W9Y9Y","img_art/28.jpg","null","","","","","","","","","","","","","","","","","","","","","","","","",""
"4257","","image-button-response","220","1156376","0.0-219.0","AHYTT3T8W9Y9Y","img_art/28.jpg","1","","","","","","","","","","","","","","","","","","","","","","","","",""
"1016","","image-button-response","221","1157401","0.0-220.0-0.0","AHYTT3T8W9Y9Y","img_art/28.jpg","5","","","","","","","","","","","","","","","","","","","","","","","","",""
"1040","","image-button-response","222","1158447","0.0-221.0-0.0","AHYTT3T8W9Y9Y","img_art/28.jpg","4","","","","","","","","","","","","","","","","","","","","","","","","",""
"null","","html-keyboard-response","223","1159973","0.0-222.0","AHYTT3T8W9Y9Y","<p style=""font-size: 48px;"">+</p>","","","","","null","allTrialResponses","1500","1","25","img_art/28.jpg","-29","It looks too dark for me. I don't know what I am looking at.","Amy,Erin,Gabrielle,Jordan,Chloe,Emma","Contemplative and a little dark. The muted colors and subject create a sense of mystery.,15,220,20","Dislike color palette and amoeba,-9,120,20","bland coloring but pattern interesting,2,160,20","It's a bike that was left abandoned by someone who doesnt care for it,1,20,20","Evocative but a little dreary.,20,220,20","Don't love the colors,-10,60,20","Erin","Dislike color palette and amoeba,-9,120,20","Emma","Don't love the colors,-10,60,20","Chloe","Evocative but a little dreary.,20,220,20","2"
"3649","","survey-text","224","1163642","0.0-223.0-0.0","AHYTT3T8W9Y9Y","","","","{""Q0"":""table""}","","","","","","","","","","","","","","","","","","","","","","",""
"13628","","survey-text","225","1177273","0.0-224.0-0.0","AHYTT3T8W9Y9Y","","","","{""Q0"":""I like the colors used and the water really stands out.""}","","","","","","","","","","","","","","","","","","","","","","",""
"2641","","image-slider-response","226","1179918","0.0-225.0","AHYTT3T8W9Y9Y","","","","","40","","","","","","","","","","","","","","","","","","","","","",""
"null","","image-button-response","227","1184944","0.0-226.0","AHYTT3T8W9Y9Y","img_art/24.jpg","null","","","","","","","","","","","","","","","","","","","","","","","","",""
"808","","image-button-response","228","1185757","0.0-227.0","AHYTT3T8W9Y9Y","img_art/24.jpg","5","","","","","","","","","","","","","","","","","","","","","","","","",""
"3598","","image-button-response","229","1189359","0.0-228.0-0.0","AHYTT3T8W9Y9Y","img_art/24.jpg","0","","","","","","","","","","","","","","","","","","","","","","","","",""
"1226","","image-button-response","230","1190591","0.0-229.0-0.0","AHYTT3T8W9Y9Y","img_art/24.jpg","2","","","","","","","","","","","","","","","","","","","","","","","","",""
"null","","html-keyboard-response","231","1191101","0.0-230.0","AHYTT3T8W9Y9Y","<p style=""font-size: 48px;"">+</p>","","","","","null","allTrialResponses","500","1","26","img_art/24.jpg","40","I like the colors used and the water really stands out.","Bailey,Erin,Paige,Ashley,Chloe,Emma","Feels surreal, in a way, and vibrant,37,360,20","Too literal, not abstract,-29,120,20","somewhat happy. I like the colors,38,60,20","NOt quite Bob Ross, but still good.,30,320,20","Pretty but cheesy,-15,220,20","Beautiful, good colors, love water,50,60,20","Emma","Beautiful, good colors, love water,50,60,20","Bailey","Feels surreal, in a way, and vibrant,37,360,20","Paige","somewhat happy. I like the colors,38,60,20","2"
"12644","","survey-text","232","1203756","0.0-231.0-0.0","AHYTT3T8W9Y9Y","","","","{""Q0"":""I like the composition. ""}","","","","","","","","","","","","","","","","","","","","","","",""
"2849.60000000149","","image-slider-response","233","1206609","0.0-232.0","AHYTT3T8W9Y9Y","","","","","15","","","","","","","","","","","","","","","","","","","","","",""
"null","","image-button-response","234","1211615","0.0-233.0","AHYTT3T8W9Y9Y","img_art/15.jpg","null","","","","","","","","","","","","","","","","","","","","","","","","",""
"4777","","image-button-response","235","1216396","0.0-234.0","AHYTT3T8W9Y9Y","img_art/15.jpg","4","","","","","","","","","","","","","","","","","","","","","","","","",""
"1225","","image-button-response","236","1217626","0.0-235.0-0.0","AHYTT3T8W9Y9Y","img_art/15.jpg","5","","","","","","","","","","","","","","","","","","","","","","","","",""
"1218","","image-button-response","237","1218848","0.0-236.0-0.0","AHYTT3T8W9Y9Y","img_art/15.jpg","3","","","","","","","","","","","","","","","","","","","","","","","","",""
"null","","html-keyboard-response","238","1219366","0.0-237.0","AHYTT3T8W9Y9Y","<p style=""font-size: 48px;"">+</p>","","","","","null","allTrialResponses","500","1","27","img_art/15.jpg","15","I like the composition. ","Bailey,Vanessa,Paige,Sabrina,Kimberly,Emma","This is passable, but personally it just has nothing I'd like to see.,-14,360,20","I don't even know what's going on here. Again, this is too abstract.,-21,380,20","I feel nothing when looking at this,1,60,20","Extreme darkness and sadness,-30,120,20","it looks like lavender,10,260,20","Don't love it but it's cute,16,60,20","Kimberly","it looks like lavender,10,260,20","Emma","Don't love it but it's cute,16,60,20","Sabrina","Extreme darkness and sadness,-30,120,20","2"
"12841","","survey-text","239","1232218","0.0-238.0-0.0","AHYTT3T8W9Y9Y","","","","{""Q0"":""It looks lonely and very emotional.""}","","","","","","","","","","","","","","","","","","","","","","",""
"3935.300000000745","","image-slider-response","240","1236157","0.0-239.0","AHYTT3T8W9Y9Y","","","","","20","","","","","","","","","","","","","","","","","","","","","",""
"null","","image-button-response","241","1241161","0.0-240.0","AHYTT3T8W9Y9Y","img_art/6.jpg","null","","","","","","","","","","","","","","","","","","","","","","","","",""
"939","","image-button-response","242","1242104","0.0-241.0","AHYTT3T8W9Y9Y","img_art/6.jpg","2","","","","","","","","","","","","","","","","","","","","","","","","",""
"1612","","image-button-response","243","1243720","0.0-242.0-0.0","AHYTT3T8W9Y9Y","img_art/6.jpg","4","","","","","","","","","","","","","","","","","","","","","","","","",""
"1882","","image-button-response","244","1245605","0.0-243.0-0.0","AHYTT3T8W9Y9Y","img_art/6.jpg","3","","","","","","","","","","","","","","","","","","","","","","","","",""
"null","","html-keyboard-response","245","1247122","0.0-244.0","AHYTT3T8W9Y9Y","<p style=""font-size: 48px;"">+</p>","","","","","null","allTrialResponses","1500","1","28","img_art/6.jpg","20","It looks lonely and very emotional.","Emily,Alexa,Amber,Sabrina,Kimberly,Emma","Looks like a kid created it.,-50,40,20","Too basic for me,-20,40,20","Something very simplistic about it. The colors mesh well.,10,200,20","I love the representation of death and life.,50,120,20","It's pretty dour,-10,260,20","Birds are cool but I don't love it,10,60,20","Amber","Something very simplistic about it. The colors mesh well.,10,200,20","Kimberly","It's pretty dour,-10,260,20","Sabrina","I love the representation of death and life.,50,120,20","2"
"13398","","survey-text","246","1260540","0.0-245.0-0.0","AHYTT3T8W9Y9Y","","","","{""Q0"":""It looks very chaotic and the colors seem very bland.""}","","","","","","","","","","","","","","","","","","","","","","",""
"2921.800000000745","","image-slider-response","247","1263465","0.0-246.0","AHYTT3T8W9Y9Y","","","","","-17","","","","","","","","","","","","","","","","","","","","","",""
"null","","image-button-response","248","1268483","0.0-247.0","AHYTT3T8W9Y9Y","img_art/19.jpg","null","","","","","","","","","","","","","","","","","","","","","","","","",""
"1442","","image-button-response","249","1269929","0.0-248.0","AHYTT3T8W9Y9Y","img_art/19.jpg","1","","","","","","","","","","","","","","","","","","","","","","","","",""
"2113","","image-button-response","250","1272045","0.0-249.0-0.0","AHYTT3T8W9Y9Y","img_art/19.jpg","0","","","","","","","","","","","","","","","","","","","","","","","","",""
"5520","","image-button-response","251","1277570","0.0-250.0-0.0","AHYTT3T8W9Y9Y","img_art/19.jpg","5","","","","","","","","","","","","","","","","","","","","","","","","",""
"null","","html-keyboard-response","252","1279076","0.0-251.0","AHYTT3T8W9Y9Y","<p style=""font-size: 48px;"">+</p>","","","","","null","allTrialResponses","1500","1","29","img_art/19.jpg","-17","It looks very chaotic and the colors seem very bland.","Cynthia,Caroline,Amber,Sabrina,Kimberly,Andrea","confused and emotional,-4,320,20","Chaotic. Too much going on in the picture,14,100,20","Reminds me of a busy village.,16,200,20","Gives a very open and freeing vibe,42,120,20","The blue makes it look like it has depth,11,260,20","Feels like a cafe in Paris.,35,240,20","Caroline","Chaotic. Too much going on in the picture,14,100,20","Cynthia","confused and emotional,-4,320,20","Andrea","Feels like a cafe in Paris.,35,240,20","2"
"15522","","survey-text","253","1294609","0.0-252.0-0.0","AHYTT3T8W9Y9Y","","","","{""Q0"":""The painting looks confusing.""}","","","","","","","","","","","","","","","","","","","","","","",""
"4019","","image-slider-response","254","1298631","0.0-253.0","AHYTT3T8W9Y9Y","","","","","-18","","","","","","","","","","","","","","","","","","","","","",""
"null","","image-button-response","255","1303650","0.0-254.0","AHYTT3T8W9Y9Y","img_art/18.jpg","null","","","","","","","","","","","","","","","","","","","","","","","","",""
"1672","","image-button-response","256","1305328","0.0-255.0","AHYTT3T8W9Y9Y","img_art/18.jpg","3","","","","","","","","","","","","","","","","","","","","","","","","",""
"7091","","image-button-response","257","1312423","0.0-256.0-0.0","AHYTT3T8W9Y9Y","img_art/18.jpg","2","","","","","","","","","","","","","","","","","","","","","","","","",""
"2525","","image-button-response","258","1314953","0.0-257.0-0.0","AHYTT3T8W9Y9Y","img_art/18.jpg","1","","","","","","","","","","","","","","","","","","","","","","","","",""
"null","","html-keyboard-response","259","1315462","0.0-258.0","AHYTT3T8W9Y9Y","<p style=""font-size: 48px;"">+</p>","","","","","null","allTrialResponses","500","1","30","img_art/18.jpg","-18","The painting looks confusing.","Cynthia,Caroline,Kaylee,Sydney,Michaela,Andrea","Imaginative, makes me feel creative.,42,320,20","I think of the ocean and a boat tossed about on the waves. In the upper left is a figure. It is pleasant,30,100,20","looks like a war,22,200,20","I like the colors being used, but I don't like the chaos in the middle of it.,20,320,20","Reminds me of the four horsemen of the apocalypse,29,260,20","I see an artistic representation of the riding of last of the four horseman. Its stunning.,45,240,20","Sydney","I like the colors being used, but I don't like the chaos in the middle of it.,20,320,20","Kaylee","looks like a war,22,200,20","Caroline","I think of the ocean and a boat tossed about on the waves. In the upper left is a figure. It is pleasant,30,100,20","2"
"3956","","image-button-response_instructions","260","1319430","0.0-259.0","AHYTT3T8W9Y9Y","","0","instructions","","","","","","","","","","","","","","","","","","","","","","","",""
"1420","","image-button-response","261","1320868","0.0-260.0","AHYTT3T8W9Y9Y","","0","","","","","","","","","","","","","","","","","","","","","","","","",""
