"rt","url","trial_type","trial_index","time_elapsed","internal_node_id","participant_id","stimulus","button_pressed","Name","responses","response","key_press","variableName","fixationTime","condition","trial","photo","subjectRating","subjectResponse","agentsNames","agent_1_Response","agent_2_Response","agent_3_Response","agent_4_Response","agent_5_Response","agent_6_Response","kept_1_name","kept_1_response","kept_2_name","kept_2_response","kept_3_name","kept_3_response","errorCounter"
"19976","external_page_harvard.html","external-html","0","20036","0.0-0.0","AI5RMOS8R652G","","","","","","","","","","","","","","","","","","","","","","","","","","",""
"1750","","image-button-response","1","21787","0.0-1.0","AI5RMOS8R652G","","1","","","","","","","","","","","","","","","","","","","","","","","","",""
"1947","","image-button-response","2","23738","0.0-2.0-0.0","AI5RMOS8R652G","","1","phone","","","","","","","","","","","","","","","","","","","","","","","",""
"4937","","survey-text","3","28678","0.0-3.0-0.0","AI5RMOS8R652G","","","","{""Q0"":""AI5RMOS8R652G""}","","","","","","","","","","","","","","","","","","","","","","",""
"10645","","image-button-response_instructions","4","39326","0.0-4.0","AI5RMOS8R652G","","0","instructions","","","","","","","","","","","","","","","","","","","","","","","",""
"14292","","image-button-response_instructions","5","53620","0.0-5.0","AI5RMOS8R652G","img_art/ins/popularity/ins1.png","0","instructions","","","","","","","","","","","","","","","","","","","","","","","",""
"5795","","image-button-response_instructions","6","59417","0.0-6.0","AI5RMOS8R652G","img_art/ins/popularity/ins2.png","0","instructions","","","","","","","","","","","","","","","","","","","","","","","",""
"4511","","image-button-response_instructions","7","63930","0.0-7.0","AI5RMOS8R652G","img_art/ins/popularity/ins2Extreme.png","0","instructions","","","","","","","","","","","","","","","","","","","","","","","",""
"11801","","image-button-response_instructions","8","75734","0.0-8.0","AI5RMOS8R652G","img_art/ins/popularity/ins3KEEPpop.PNG","0","instructions","","","","","","","","","","","","","","","","","","","","","","","",""
"4969","","image-button-response_instructions","9","80706","0.0-9.0","AI5RMOS8R652G","img_art/ins/popularity/ins3ANamepop.PNG","0","instructions","","","","","","","","","","","","","","","","","","","","","","","",""
"4309","","image-button-response_instructions","10","85017","0.0-10.0","AI5RMOS8R652G","img_art/ins/popularity/ins3ARatingpop.png","0","instructions","","","","","","","","","","","","","","","","","","","","","","","",""
"3146","","image-button-response_instructions","11","88165","0.0-11.0","AI5RMOS8R652G","img_art/ins/popularity/ins3ATextpop.png","0","instructions","","","","","","","","","","","","","","","","","","","","","","","",""
"11193","","image-button-response_instructions","12","99359","0.0-12.0","AI5RMOS8R652G","img_art/ins/popularity/ins3ALikespop.png","0","instructions","","","","","","","","","","","","","","","","","","","","","","","",""
"31860","","image-button-response_instructions","13","131221","0.0-13.0","AI5RMOS8R652G","img_art/ins/popularity/ins3KEEPpop.PNG","0","instructions","","","","","","","","","","","","","","","","","","","","","","","",""
"12728","","image-button-response_instructions","14","143951","0.0-14.0","AI5RMOS8R652G","img_art/ins/popularity/ins3_5RED.png","0","instructions","","","","","","","","","","","","","","","","","","","","","","","",""
"6529","","image-button-response_instructions","15","150481","0.0-15.0","AI5RMOS8R652G","img_art/ins/popularity/ins3KEEPpop.PNG","0","instructions","","","","","","","","","","","","","","","","","","","","","","","",""
"11039","","image-button-response_instructions","16","161521","0.0-16.0","AI5RMOS8R652G","img_art/ins/popularity/ins4KEEPpop.PNG","0","instructions","","","","","","","","","","","","","","","","","","","","","","","",""
"10358","","image-button-response_instructions","17","171880","0.0-17.0","AI5RMOS8R652G","img_art/ins/popularity/ins5KEEPpop.PNG","0","instructions","","","","","","","","","","","","","","","","","","","","","","","",""
"1634","","image-button-response_instructions","18","173516","0.0-18.0","AI5RMOS8R652G","","0","instructions","","","","","","","","","","","","","","","","","","","","","","","",""
"10648","","survey-text","19","184197","0.0-19.0-0.0","AI5RMOS8R652G","","","","{""Q0"":""but""}","","","","","","","","","","","","","","","","","","","","","","",""
"79703","","survey-text","20","263904","0.0-20.0-0.0","AI5RMOS8R652G","","","","{""Q0"":""It is colorful and that aspect is enjoyable. However, I'm not in love with the style.""}","","","","","","","","","","","","","","","","","","","","","","",""
"8898.799999952316","","image-slider-response","21","272809","0.0-21.0","AI5RMOS8R652G","","","","","-7","","","","","","","","","","","","","","","","","","","","","",""
"null","","image-button-response","22","277817","0.0-22.0","AI5RMOS8R652G","img_art/ins/1.jpg","null","","","","","","","","","","","","","","","","","","","","","","","","",""
"8757","","image-button-response","23","286579","0.0-23.0","AI5RMOS8R652G","img_art/ins/1.jpg","4","","","","","","","","","","","","","","","","","","","","","","","","",""
"5040","","image-button-response","24","291623","0.0-24.0-0.0","AI5RMOS8R652G","img_art/ins/1.jpg","0","","","","","","","","","","","","","","","","","","","","","","","","",""
"4401","","image-button-response","25","296029","0.0-25.0-0.0","AI5RMOS8R652G","img_art/ins/1.jpg","5","","","","","","","","","","","","","","","","","","","","","","","","",""
"null","","html-keyboard-response","26","297534","0.0-26.0","AI5RMOS8R652G","<p style=""font-size: 48px;"">+</p>","","","","","null","allTrialResponses","1500","1","-2","img_art/ins/1.jpg","-7","It is colorful and that aspect is enjoyable. However, I'm not in love with the style.","Allison,Ashley,Beth,Dora,Erika,Jen","looks like a lot of things going on in the mist,20,20,20","I just don't get why these type of art would be popular,-32,40,20","This color reminds me of poo,-46,60,20","looks like what my niece in 3rd grade did this afternoon,-50,80,20","I like the sophisticated brushwork,40,100,20","It reminds me of a candy land dream I had,36,120,20","Erika","I like the sophisticated brushwork,40,100,20","Allison","looks like a lot of things going on in the mist,20,20,20","Jen","It reminds me of a candy land dream I had,36,120,20","0"
"85936","","survey-text","27","383474","0.0-27.0-0.0","AI5RMOS8R652G","","","","{""Q0"":""The texture is really fun and it reminds me of a city. It's interesting. ""}","","","","","","","","","","","","","","","","","","","","","","",""
"6730.700000047684","","image-slider-response","28","390208","0.0-28.0","AI5RMOS8R652G","","","","","9","","","","","","","","","","","","","","","","","","","","","",""
"null","","image-button-response","29","395217","0.0-29.0","AI5RMOS8R652G","img_art/ins/2.jpg","null","","","","","","","","","","","","","","","","","","","","","","","","",""
"7293","","image-button-response","30","402517","0.0-30.0","AI5RMOS8R652G","img_art/ins/2.jpg","1","","","","","","","","","","","","","","","","","","","","","","","","",""
"5448","","image-button-response","31","407970","0.0-31.0-0.0","AI5RMOS8R652G","img_art/ins/2.jpg","5","","","","","","","","","","","","","","","","","","","","","","","","",""
"5630","","image-button-response","32","413604","0.0-32.0-0.0","AI5RMOS8R652G","img_art/ins/2.jpg","4","","","","","","","","","","","","","","","","","","","","","","","","",""
"null","","html-keyboard-response","33","415108","0.0-33.0","AI5RMOS8R652G","<p style=""font-size: 48px;"">+</p>","","","","","null","allTrialResponses","1500","1","-1","img_art/ins/2.jpg","9","The texture is really fun and it reminds me of a city. It's interesting. ","Allison,Kara,Katie,Jenna,Erika,Jen","I don't have strong feelings about this,10,20,20","I like the blocks of color arrangements,30,160,20","too much color!,-28,180,20","One of my pet peevs,-48,140,20","I would never be able to compose a sophisticated pallete like this,48,100,20","It reminds me of a fireplace,36,120,20","Kara","I like the blocks of color arrangements,30,160,20","Jen","It reminds me of a fireplace,36,120,20","Erika","I would never be able to compose a sophisticated pallete like this,48,100,20","0"
"90011","","survey-text","34","505131","0.0-34.0-0.0","AI5RMOS8R652G","","","","{""Q0"":""It looks very icy and cold. I feel like I'm looking through the ice on a pond in winter. ""}","","","","","","","","","","","","","","","","","","","","","","",""
"7287.399999976158","","image-slider-response","35","512421","0.0-35.0","AI5RMOS8R652G","","","","","28","","","","","","","","","","","","","","","","","","","","","",""
"null","","image-button-response","36","517426","0.0-36.0","AI5RMOS8R652G","img_art/ins/3.jpg","null","","","","","","","","","","","","","","","","","","","","","","","","",""
"4579","","image-button-response","37","522009","0.0-37.0","AI5RMOS8R652G","img_art/ins/3.jpg","5","","","","","","","","","","","","","","","","","","","","","","","","",""
"5649","","image-button-response","38","527662","0.0-38.0-0.0","AI5RMOS8R652G","img_art/ins/3.jpg","1","","","","","","","","","","","","","","","","","","","","","","","","",""
"4320","","image-button-response","39","531986","0.0-39.0-0.0","AI5RMOS8R652G","img_art/ins/3.jpg","0","","","","","","","","","","","","","","","","","","","","","","","","",""
"null","","html-keyboard-response","40","532492","0.0-40.0","AI5RMOS8R652G","<p style=""font-size: 48px;"">+</p>","","","","","null","allTrialResponses","500","1","0","img_art/ins/3.jpg","28","It looks very icy and cold. I feel like I'm looking through the ice on a pond in winter. ","Mary,Kara,Rose,Leslie,Erika,Jen","I like the overlapping of brushes,41,220,20","calming blue is very nice,36,160,20","My daily routine, it's depressing,-20,240,20","It's an alright work,15,200,20","I feel connected to the artist,40,100,20","I can feel a rainy day from this painting,18,120,20","Jen","I can feel a rainy day from this painting,18,120,20","Kara","calming blue is very nice,36,160,20","Mary","I like the overlapping of brushes,41,220,20","0"
"8242","","image-button-response_instructions","41","540746","0.0-41.0","AI5RMOS8R652G","","0","instructions","","","","","","","","","","","","","","","","","","","","","","","",""
"13478","","survey-likert","42","554227","0.0-42.0-0.0","AI5RMOS8R652G","","","","{""Q0"":"""",""Q1"":0,""Q2"":1}","","","","","","","","","","","","","","","","","","","","","","",""
"5239","","survey-text","43","559475","0.0-43.0-0.0","AI5RMOS8R652G","","","","{""Q0"":""rock""}","","","","","","","","","","","","","","","","","","","","","","",""
"51051","","survey-text","44","610526","0.0-44.0-0.0","AI5RMOS8R652G","","","","{""Q0"":""The more I look at it, the more I see and that's fun, but the color palette is drab.""}","","","","","","","","","","","","","","","","","","","","","","",""
"8319.899999976158","","image-slider-response","45","618850","0.0-45.0","AI5RMOS8R652G","","","","","-4","","","","","","","","","","","","","","","","","","","","","",""
"null","","image-button-response","46","623881","0.0-46.0","AI5RMOS8R652G","img_art/19.jpg","null","","","","","","","","","","","","","","","","","","","","","","","","",""
"11829","","image-button-response","47","635711","0.0-47.0","AI5RMOS8R652G","img_art/19.jpg","0","","","","","","","","","","","","","","","","","","","","","","","","",""
"5562","","image-button-response","48","641276","0.0-48.0-0.0","AI5RMOS8R652G","img_art/19.jpg","4","","","","","","","","","","","","","","","","","","","","","","","","",""
"2518","","image-button-response","49","643798","0.0-49.0-0.0","AI5RMOS8R652G","img_art/19.jpg","3","","","","","","","","","","","","","","","","","","","","","","","","",""
"null","","html-keyboard-response","50","644804","0.0-50.0","AI5RMOS8R652G","<p style=""font-size: 48px;"">+</p>","","","","","null","allTrialResponses","1000","1","1","img_art/19.jpg","-4","The more I look at it, the more I see and that's fun, but the color palette is drab.","Haley,Autumn,Megan,Amy,Kaitlin,Marissa","I like this as a whole, but the longer I look at it, the less it pleases me,-10,220,20","Messy and kid like.,-36,340,20","Simple, scratchy lack of negative space.,-10,200,20","Though provoking. Adventurous.,10,220,20","this looks like a busy city lifestyle,24,60,20","It makes me feel like it is of a street of bakeries,15,160,20","Haley","I like this as a whole, but the longer I look at it, the less it pleases me,-10,220,20","Kaitlin","this looks like a busy city lifestyle,24,60,20","Amy","Though provoking. Adventurous.,10,220,20","0"
"57427","","survey-text","51","702239","0.0-51.0-0.0","AI5RMOS8R652G","","","","{""Q0"":""It reminds me of things getting caught in a spider web and I want to dust it away. ""}","","","","","","","","","","","","","","","","","","","","","","",""
"6084.299999952316","","image-slider-response","52","708326","0.0-52.0","AI5RMOS8R652G","","","","","-8","","","","","","","","","","","","","","","","","","","","","",""
"null","","image-button-response","53","713332","0.0-53.0","AI5RMOS8R652G","img_art/13.jpg","null","","","","","","","","","","","","","","","","","","","","","","","","",""
"13484","","image-button-response","54","726819","0.0-54.0","AI5RMOS8R652G","img_art/13.jpg","2","","","","","","","","","","","","","","","","","","","","","","","","",""
"3714","","image-button-response","55","730538","0.0-55.0-0.0","AI5RMOS8R652G","img_art/13.jpg","5","","","","","","","","","","","","","","","","","","","","","","","","",""
"2516","","image-button-response","56","733060","0.0-56.0-0.0","AI5RMOS8R652G","img_art/13.jpg","3","","","","","","","","","","","","","","","","","","","","","","","","",""
"null","","html-keyboard-response","57","734067","0.0-57.0","AI5RMOS8R652G","<p style=""font-size: 48px;"">+</p>","","","","","null","allTrialResponses","1000","1","2","img_art/13.jpg","-8","It reminds me of things getting caught in a spider web and I want to dust it away. ","Haley,Kaylee,Maria,Amy,Kaitlin,Chloe","Nothing about this stands out to me,-10,220,20","its crazy to the point that i cant get it,-28,200,20","evokes a dampening feeling,-9,120,20","I recognize the beauty of this but FOR ME its large degree of abstraction diminishes my emotional interaction.,-10,220,20","I like this picture. The choice of colors are good,31,60,20","Industrial Jackson Pollock knock-off,-20,220,20","Maria","evokes a dampening feeling,-9,120,20","Chloe","Industrial Jackson Pollock knock-off,-20,220,20","Amy","I recognize the beauty of this but FOR ME its large degree of abstraction diminishes my emotional interaction.,-10,220,20","0"
"66100","","survey-text","58","800177","0.0-58.0-0.0","AI5RMOS8R652G","","","","{""Q0"":""Surrealist and really fun to look at despite certain aspects being a bit creepy. ""}","","","","","","","","","","","","","","","","","","","","","","",""
"8447.399999976158","","image-slider-response","59","808628","0.0-59.0","AI5RMOS8R652G","","","","","21","","","","","","","","","","","","","","","","","","","","","",""
"null","","image-button-response","60","813636","0.0-60.0","AI5RMOS8R652G","img_art/8.jpg","null","","","","","","","","","","","","","","","","","","","","","","","","",""
"11184","","image-button-response","61","824824","0.0-61.0","AI5RMOS8R652G","img_art/8.jpg","4","","","","","","","","","","","","","","","","","","","","","","","","",""
"10688","","image-button-response","62","835517","0.0-62.0-0.0","AI5RMOS8R652G","img_art/8.jpg","3","","","","","","","","","","","","","","","","","","","","","","","","",""
"1082","","image-button-response","63","836605","0.0-63.0-0.0","AI5RMOS8R652G","img_art/8.jpg","1","","","","","","","","","","","","","","","","","","","","","","","","",""
"null","","html-keyboard-response","64","837614","0.0-64.0","AI5RMOS8R652G","<p style=""font-size: 48px;"">+</p>","","","","","null","allTrialResponses","1000","1","3","img_art/8.jpg","21","Surrealist and really fun to look at despite certain aspects being a bit creepy. ","Brooke,Emma,Maria,Amy,Emily,Chloe","what's going on here. looks like scary town.,-25,60,20","Love the colors & block-style,50,60,20","not sure what to make of this - just neutral again,-1,120,20","The definition and the colors give make this painting accessible and thought provoking.,30,220,20","It is interesting to look at. Abstract but ordered.,9,40,20","Cheesy. A little too knock you over the dead with its message without making it emotional,-31,220,20","Emily","It is interesting to look at. Abstract but ordered.,9,40,20","Amy","The definition and the colors give make this painting accessible and thought provoking.,30,220,20","Emma","Love the colors & block-style,50,60,20","0"
"36374","","survey-text","65","874001","0.0-65.0-0.0","AI5RMOS8R652G","","","","{""Q0"":""It looks very childish but I do like the background color choices. ""}","","","","","","","","","","","","","","","","","","","","","","",""
"5077.300000071526","","image-slider-response","66","879082","0.0-66.0","AI5RMOS8R652G","","","","","-5","","","","","","","","","","","","","","","","","","","","","",""
"null","","image-button-response","67","884088","0.0-67.0","AI5RMOS8R652G","img_art/27.jpg","null","","","","","","","","","","","","","","","","","","","","","","","","",""
"820","","image-button-response","68","884913","0.0-68.0","AI5RMOS8R652G","img_art/27.jpg","3","","","","","","","","","","","","","","","","","","","","","","","","",""
"12900","","image-button-response","69","897818","0.0-69.0-0.0","AI5RMOS8R652G","img_art/27.jpg","0","","","","","","","","","","","","","","","","","","","","","","","","",""
"12508","","image-button-response","70","910329","0.0-70.0-0.0","AI5RMOS8R652G","img_art/27.jpg","1","","","","","","","","","","","","","","","","","","","","","","","","",""
"null","","html-keyboard-response","71","911836","0.0-71.0","AI5RMOS8R652G","<p style=""font-size: 48px;"">+</p>","","","","","null","allTrialResponses","1500","1","4","img_art/27.jpg","-5","It looks very childish but I do like the background color choices. ","Kelly,Emma,Savannah,Amy,Emily,Katelyn","The green stick drawings or whatever they are ruin it for me.,-23,220,20","Not sure how I feel about this. Messy, even for art. But good colors.,0,60,20","An abstract piece with such lifeless colors.,-26,200,20","The colors provide a complexity to the nearly child-like sketches.,5,220,20","Anyone could do that.,-31,40,20","Doesnt look like anything to me. Doesnt capture my attention.,-25,100,20","Amy","The colors provide a complexity to the nearly child-like sketches.,5,220,20","Kelly","The green stick drawings or whatever they are ruin it for me.,-23,220,20","Emma","Not sure how I feel about this. Messy, even for art. But good colors.,0,60,20","0"
"49108","","survey-text","72","960958","0.0-72.0-0.0","AI5RMOS8R652G","","","","{""Q0"":""Really creepy but very interesting. I reminds me of a scarecrow. ""}","","","","","","","","","","","","","","","","","","","","","","",""
"6340.899999976158","","image-slider-response","73","967302","0.0-73.0","AI5RMOS8R652G","","","","","10","","","","","","","","","","","","","","","","","","","","","",""
"4828","","image-button-response","74","972310","0.0-74.0","AI5RMOS8R652G","img_art/25.jpg","4","","","","","","","","","","","","","","","","","","","","","","","","",""
"12714","","image-button-response","75","985028","0.0-75.0","AI5RMOS8R652G","img_art/25.jpg","3","","","","","","","","","","","","","","","","","","","","","","","","",""
"5919","","image-button-response","76","990951","0.0-76.0-0.0","AI5RMOS8R652G","img_art/25.jpg","1","","","","","","","","","","","","","","","","","","","","","","","","",""
"12061","","image-button-response","77","1003017","0.0-77.0-0.0","AI5RMOS8R652G","img_art/25.jpg","0","","","","","","","","","","","","","","","","","","","","","","","","",""
"null","","html-keyboard-response","78","1003522","0.0-78.0","AI5RMOS8R652G","<p style=""font-size: 48px;"">+</p>","","","","","null","allTrialResponses","500","1","5","img_art/25.jpg","10","Really creepy but very interesting. I reminds me of a scarecrow. ","Kelly,Emma,Samantha,Amy,Erika,Kathryn","I love the color. I don't know what exactly is going on but I like it.,24,220,20","Like the colors and the figure,30,60,20","It is interesting but too creapy for me,-29,140,20","The limited palette make this figure mysterious and interpret-able.,20,220,20","Very cryptic and ancient,36,100,20","I feel uneasy. Like watching someone powerful ready to perform a ritual, but I don't know their intentions.,-10,140,20","Amy","The limited palette make this figure mysterious and interpret-able.,20,220,20","Emma","Like the colors and the figure,30,60,20","Kelly","I love the color. I don't know what exactly is going on but I like it.,24,220,20","0"
"6044","","survey-text","79","1009573","0.0-79.0-0.0","AI5RMOS8R652G","","","","{""Q0"":""sky""}","","","","","","","","","","","","","","","","","","","","","","",""
"78048","","survey-text","80","1087624","0.0-80.0-0.0","AI5RMOS8R652G","","","","{""Q0"":""I feel like I'm looking into a garbage bag. I can't shake feeling that there is a message I can't quite grasp.""}","","","","","","","","","","","","","","","","","","","","","","",""
"5881.399999976158","","image-slider-response","81","1093509","0.0-81.0","AI5RMOS8R652G","","","","","3","","","","","","","","","","","","","","","","","","","","","",""
"null","","image-button-response","82","1098515","0.0-82.0","AI5RMOS8R652G","img_art/29.jpg","null","","","","","","","","","","","","","","","","","","","","","","","","",""
"3937","","image-button-response","83","1102456","0.0-83.0","AI5RMOS8R652G","img_art/29.jpg","5","","","","","","","","","","","","","","","","","","","","","","","","",""
"4602","","image-button-response","84","1107061","0.0-84.0-0.0","AI5RMOS8R652G","img_art/29.jpg","3","","","","","","","","","","","","","","","","","","","","","","","","",""
"14643","","image-button-response","85","1121709","0.0-85.0-0.0","AI5RMOS8R652G","img_art/29.jpg","1","","","","","","","","","","","","","","","","","","","","","","","","",""
"null","","html-keyboard-response","86","1122213","0.0-86.0","AI5RMOS8R652G","<p style=""font-size: 48px;"">+</p>","","","","","null","allTrialResponses","500","1","6","img_art/29.jpg","3","I feel like I'm looking into a garbage bag. I can't shake feeling that there is a message I can't quite grasp.","Kelly,Emma,Sydney,Amy,Taylor,Kimberly","Too much going on, and I don't like the colors. It looks like a crime scene.,-50,220,20","Feels messy, stressful,-22,60,20","I like that the colors are toned down even though they're everywhere.,5,320,20","The textures bring this painting alive. A window to another existence with infinite possibility.,25,220,20","It seems like there's anger in the painting.,-20,340,20","I like the usage of a physical object,33,260,20","Kimberly","I like the usage of a physical object,33,260,20","Amy","The textures bring this painting alive. A window to another existence with infinite possibility.,25,220,20","Emma","Feels messy, stressful,-22,60,20","0"
"137485","","survey-text","87","1259712","0.0-87.0-0.0","AI5RMOS8R652G","","","","{""Q0"":""Some of the different strokes and dots are thought provoking, but overall, I think it is dull. ""}","","","","","","","","","","","","","","","","","","","","","","",""
"4256.800000071526","","image-slider-response","88","1263973","0.0-88.0","AI5RMOS8R652G","","","","","-11","","","","","","","","","","","","","","","","","","","","","",""
"null","","image-button-response","89","1268979","0.0-89.0","AI5RMOS8R652G","img_art/10.jpg","null","","","","","","","","","","","","","","","","","","","","","","","","",""
"4246","","image-button-response","90","1273227","0.0-90.0","AI5RMOS8R652G","img_art/10.jpg","0","","","","","","","","","","","","","","","","","","","","","","","","",""
"8811","","image-button-response","91","1282045","0.0-91.0-0.0","AI5RMOS8R652G","img_art/10.jpg","5","","","","","","","","","","","","","","","","","","","","","","","","",""
"1637","","image-button-response","92","1283687","0.0-92.0-0.0","AI5RMOS8R652G","img_art/10.jpg","2","","","","","","","","","","","","","","","","","","","","","","","","",""
"null","","html-keyboard-response","93","1284691","0.0-93.0","AI5RMOS8R652G","<p style=""font-size: 48px;"">+</p>","","","","","null","allTrialResponses","1000","1","7","img_art/10.jpg","-11","Some of the different strokes and dots are thought provoking, but overall, I think it is dull. ","Meghan,Emma,Olivia,Amy,Victoria,Kimberly","kind of reminds me of a map,1,220,20","Feels musical .....,40,60,20","feeling the turmoil and ride,12,40,20","Highly abstract and yet the shapes and colors provide an emotional accessibility for me.,20,220,20","absolutely beautiful piece of art,49,400,20","Also too all over the place, I don't see any pattern or anything that's supposed to stand out,-19,260,20","Meghan","kind of reminds me of a map,1,220,20","Kimberly","Also too all over the place, I don't see any pattern or anything that's supposed to stand out,-19,260,20","Olivia","feeling the turmoil and ride,12,40,20","0"
"63343","","survey-text","94","1348043","0.0-94.0-0.0","AI5RMOS8R652G","","","","{""Q0"":""Very earthy and there is something calming about it despite its haphazard appearance. ""}","","","","","","","","","","","","","","","","","","","","","","",""
"5348.799999952316","","image-slider-response","95","1353394","0.0-95.0","AI5RMOS8R652G","","","","","17","","","","","","","","","","","","","","","","","","","","","",""
"null","","image-button-response","96","1358401","0.0-96.0","AI5RMOS8R652G","img_art/28.jpg","null","","","","","","","","","","","","","","","","","","","","","","","","",""
"10652","","image-button-response","97","1369055","0.0-97.0","AI5RMOS8R652G","img_art/28.jpg","5","","","","","","","","","","","","","","","","","","","","","","","","",""
"11581","","image-button-response","98","1380640","0.0-98.0-0.0","AI5RMOS8R652G","img_art/28.jpg","4","","","","","","","","","","","","","","","","","","","","","","","","",""
"1746","","image-button-response","99","1382391","0.0-99.0-0.0","AI5RMOS8R652G","img_art/28.jpg","2","","","","","","","","","","","","","","","","","","","","","","","","",""
"null","","html-keyboard-response","100","1382894","0.0-100.0","AI5RMOS8R652G","<p style=""font-size: 48px;"">+</p>","","","","","null","allTrialResponses","500","1","8","img_art/28.jpg","17","Very earthy and there is something calming about it despite its haphazard appearance. ","Meghan,Alexandra,Olivia,Alyssa,Amanda,Kimberly","I don't like the color choice,-30,220,20","Boring, looks like it belongs in a coffee shop,-20,60,20","conversating means hope,15,40,20","Not a fan of the bleak and dreary colors,-10,160,20","Colors look too muddy for my liking,-33,180,20","The thing on the right is kind of weird/fetus-y,-12,260,20","Kimberly","The thing on the right is kind of weird/fetus-y,-12,260,20","Amanda","Colors look too muddy for my liking,-33,180,20","Olivia","conversating means hope,15,40,20","0"
"64908","","survey-text","101","1447812","0.0-101.0-0.0","AI5RMOS8R652G","","","","{""Q0"":""Its very somber and, to me, it depicts an accident. I do like that it tells a story.""}","","","","","","","","","","","","","","","","","","","","","","",""
"3183.3000000715256","","image-slider-response","102","1450998","0.0-102.0","AI5RMOS8R652G","","","","","20","","","","","","","","","","","","","","","","","","","","","",""
"null","","image-button-response","103","1456005","0.0-103.0","AI5RMOS8R652G","img_art/20.jpg","null","","","","","","","","","","","","","","","","","","","","","","","","",""
"7174","","image-button-response","104","1463184","0.0-104.0","AI5RMOS8R652G","img_art/20.jpg","2","","","","","","","","","","","","","","","","","","","","","","","","",""
"15874","","image-button-response","105","1479064","0.0-105.0-0.0","AI5RMOS8R652G","img_art/20.jpg","5","","","","","","","","","","","","","","","","","","","","","","","","",""
"5942","","image-button-response","106","1485010","0.0-106.0-0.0","AI5RMOS8R652G","img_art/20.jpg","0","","","","","","","","","","","","","","","","","","","","","","","","",""
"null","","html-keyboard-response","107","1486516","0.0-107.0","AI5RMOS8R652G","<p style=""font-size: 48px;"">+</p>","","","","","null","allTrialResponses","1500","1","9","img_art/20.jpg","20","Its very somber and, to me, it depicts an accident. I do like that it tells a story.","Jasmine,Sara,Olivia,Julia,Amanda,Kimberly","This one is okay but I don't really care for it,5,340,20","Looks calm but a bit dark,21,160,20","crash after traffic causing grief,-11,40,20","The colors are nice, and the shapes conjure the decay of the city in the face of natural entropy,19,40,20","Too negative looks like a car and plane crash,-50,180,20","Something bad has happened TO reality,-23,260,20","Olivia","crash after traffic causing grief,-11,40,20","Kimberly","Something bad has happened TO reality,-23,260,20","Jasmine","This one is okay but I don't really care for it,5,340,20","0"
"64030","","survey-text","108","1550560","0.0-108.0-0.0","AI5RMOS8R652G","","","","{""Q0"":""I find this one cheerful and enjoy the colors. It looks like a round character jumping in the center. I find it whimsical. ""}","","","","","","","","","","","","","","","","","","","","","","",""
"7609.299999952316","","image-slider-response","109","1558172","0.0-109.0","AI5RMOS8R652G","","","","","31","","","","","","","","","","","","","","","","","","","","","",""
"null","","image-button-response","110","1563182","0.0-110.0","AI5RMOS8R652G","img_art/22.jpg","null","","","","","","","","","","","","","","","","","","","","","","","","",""
"5898","","image-button-response","111","1569085","0.0-111.0","AI5RMOS8R652G","img_art/22.jpg","1","","","","","","","","","","","","","","","","","","","","","","","","",""
"7684","","image-button-response","112","1576774","0.0-112.0-0.0","AI5RMOS8R652G","img_art/22.jpg","4","","","","","","","","","","","","","","","","","","","","","","","","",""
"18512","","image-button-response","113","1595292","0.0-113.0-0.0","AI5RMOS8R652G","img_art/22.jpg","3","","","","","","","","","","","","","","","","","","","","","","","","",""
"null","","html-keyboard-response","114","1596796","0.0-114.0","AI5RMOS8R652G","<p style=""font-size: 48px;"">+</p>","","","","","null","allTrialResponses","1500","1","10","img_art/22.jpg","31","I find this one cheerful and enjoy the colors. It looks like a round character jumping in the center. I find it whimsical. ","Jasmine,Elizabeth,Olivia,Diana,Monica,Kimberly","I appreciate the artistic effort but it's not for me,0,340,20","Great color palette,29,20,20","ball of light in 90s,8,40,20","I think the colors are beautiful they remind me of a sunset.,13,380,20","I really like the bright colors and sunset feel,31,360,20","I like the key near the sphere in the center,19,260,20","Elizabeth","Great color palette,29,20,20","Monica","I really like the bright colors and sunset feel,31,360,20","Diana","I think the colors are beautiful they remind me of a sunset.,13,380,20","0"
"4860","","survey-text","115","1601679","0.0-115.0-0.0","AI5RMOS8R652G","","","","{""Q0"":""our""}","","","","","","","","","","","","","","","","","","","","","","",""
"114269","","survey-text","116","1715951","0.0-116.0-0.0","AI5RMOS8R652G","","","","{""Q0"":""For some reason, this reminds me of Frankenstein's monster. It might be all the green and squiggly line at the top. It's a bit fun. ""}","","","","","","","","","","","","","","","","","","","","","","",""
"6017.799999952316","","image-slider-response","117","1721971","0.0-117.0","AI5RMOS8R652G","","","","","11","","","","","","","","","","","","","","","","","","","","","",""
"null","","image-button-response","118","1726975","0.0-118.0","AI5RMOS8R652G","img_art/2.jpg","null","","","","","","","","","","","","","","","","","","","","","","","","",""
"13901","","image-button-response","119","1740880","0.0-119.0","AI5RMOS8R652G","img_art/2.jpg","5","","","","","","","","","","","","","","","","","","","","","","","","",""
"19054","","image-button-response","120","1759938","0.0-120.0-0.0","AI5RMOS8R652G","img_art/2.jpg","4","","","","","","","","","","","","","","","","","","","","","","","","",""
"12243","","image-button-response","121","1772185","0.0-121.0-0.0","AI5RMOS8R652G","img_art/2.jpg","2","","","","","","","","","","","","","","","","","","","","","","","","",""
"null","","html-keyboard-response","122","1773693","0.0-122.0","AI5RMOS8R652G","<p style=""font-size: 48px;"">+</p>","","","","","null","allTrialResponses","1500","1","11","img_art/2.jpg","11","For some reason, this reminds me of Frankenstein's monster. It might be all the green and squiggly line at the top. It's a bit fun. ","Vanessa,Elizabeth,Sarah,Diana,Monica,Miranda","I don't like the abstract nature of this painting or the colors used.,-50,380,20","Good color pallette,12,20,20","nope. just looks like a mess,-28,180,20","I think I see people sitting in lawn chairs in a circle watching an event. Not really sure so I rated it lower.,-35,380,20","I like the blue color in the center but that's it, the green is a gross color,-3,360,20","I don't really like this but at the same time it's cute. It looks like a little monster kid.,-9,320,20","Miranda","I don't really like this but at the same time it's cute. It looks like a little monster kid.,-9,320,20","Monica","I like the blue color in the center but that's it, the green is a gross color,-3,360,20","Sarah","nope. just looks like a mess,-28,180,20","0"
"68864","","survey-text","123","1842583","0.0-123.0-0.0","AI5RMOS8R652G","","","","{""Q0"":""Colors remind me of an autumn forest. It makes me feel serene.""}","","","","","","","","","","","","","","","","","","","","","","",""
"4293.200000047684","","image-slider-response","124","1846879","0.0-124.0","AI5RMOS8R652G","","","","","30","","","","","","","","","","","","","","","","","","","","","",""
"null","","image-button-response","125","1851883","0.0-125.0","AI5RMOS8R652G","img_art/1.jpg","null","","","","","","","","","","","","","","","","","","","","","","","","",""
"5631","","image-button-response","126","1857517","0.0-126.0","AI5RMOS8R652G","img_art/1.jpg","0","","","","","","","","","","","","","","","","","","","","","","","","",""
"9980","","image-button-response","127","1867502","0.0-127.0-0.0","AI5RMOS8R652G","img_art/1.jpg","5","","","","","","","","","","","","","","","","","","","","","","","","",""
"3771","","image-button-response","128","1871278","0.0-128.0-0.0","AI5RMOS8R652G","img_art/1.jpg","1","","","","","","","","","","","","","","","","","","","","","","","","",""
"null","","html-keyboard-response","129","1871783","0.0-129.0","AI5RMOS8R652G","<p style=""font-size: 48px;"">+</p>","","","","","null","allTrialResponses","500","1","12","img_art/1.jpg","30","Colors remind me of an autumn forest. It makes me feel serene.","Shannon,Leah,Sarah,Rebecca,Monica,Miranda","I think that this picture has nice colors and its pleasing to the eyes.,20,220,20","Pretty intermeshing of colors, happy,32,360,20","it's boring despite all the colors,-2,180,20","bamboo boat in sunset,12,100,20","I like the yellow and purple but the large red spot reminds me of blood and isn't great,6,360,20","Someone painted a landscape and decided they didn't like it so they covered it up.,13,320,20","Shannon","I think that this picture has nice colors and its pleasing to the eyes.,20,220,20","Miranda","Someone painted a landscape and decided they didn't like it so they covered it up.,13,320,20","Leah","Pretty intermeshing of colors, happy,32,360,20","0"
"68282","","survey-text","130","1940079","0.0-130.0-0.0","AI5RMOS8R652G","","","","{""Q0"":""The flowing water is very soothing but it feels like the colors surrounding it should be softer. Overall, it's jarring to me. ""}","","","","","","","","","","","","","","","","","","","","","","",""
"4453.100000023842","","image-slider-response","131","1944535","0.0-131.0","AI5RMOS8R652G","","","","","-19","","","","","","","","","","","","","","","","","","","","","",""
"null","","image-button-response","132","1949541","0.0-132.0","AI5RMOS8R652G","img_art/24.jpg","null","","","","","","","","","","","","","","","","","","","","","","","","",""
"8392","","image-button-response","133","1957935","0.0-133.0","AI5RMOS8R652G","img_art/24.jpg","5","","","","","","","","","","","","","","","","","","","","","","","","",""
"2524","","image-button-response","134","1960462","0.0-134.0-0.0","AI5RMOS8R652G","img_art/24.jpg","2","","","","","","","","","","","","","","","","","","","","","","","","",""
"3933","","image-button-response","135","1964398","0.0-135.0-0.0","AI5RMOS8R652G","img_art/24.jpg","3","","","","","","","","","","","","","","","","","","","","","","","","",""
"null","","html-keyboard-response","136","1965400","0.0-136.0","AI5RMOS8R652G","<p style=""font-size: 48px;"">+</p>","","","","","null","allTrialResponses","1000","1","13","img_art/24.jpg","-19","The flowing water is very soothing but it feels like the colors surrounding it should be softer. Overall, it's jarring to me. ","Shannon,Leah,Mikayla,Sabrina,Alexa,Miranda","I like the way the colors are put together, and I can imagine this picture in real life.,40,220,20","Happy, the forest as I would love to see it,50,360,20","Looks like a waterfall!,34,300,20","Love the natural vibe,50,120,20","I absolutely adore this painting. The colors, designs, everything. It's phenomenal,50,40,20","I find the colors work really well. It's very pretty but I have no idea as what it is.,34,320,20","Miranda","I find the colors work really well. It's very pretty but I have no idea as what it is.,34,320,20","Mikayla","Looks like a waterfall!,34,300,20","Sabrina","Love the natural vibe,50,120,20","0"
"75291","","survey-text","137","2040705","0.0-137.0-0.0","AI5RMOS8R652G","","","","{""Q0"":""It feels like a play on pixels. I do like the shift in colors from brighter at the bottom to black, white and tan on top. ""}","","","","","","","","","","","","","","","","","","","","","","",""
"6475.5","","image-slider-response","138","2047183","0.0-138.0","AI5RMOS8R652G","","","","","15","","","","","","","","","","","","","","","","","","","","","",""
"null","","image-button-response","139","2052189","0.0-139.0","AI5RMOS8R652G","img_art/12.jpg","null","","","","","","","","","","","","","","","","","","","","","","","","",""
"3699","","image-button-response","140","2055892","0.0-140.0","AI5RMOS8R652G","img_art/12.jpg","3","","","","","","","","","","","","","","","","","","","","","","","","",""
"4342","","image-button-response","141","2060238","0.0-141.0-0.0","AI5RMOS8R652G","img_art/12.jpg","4","","","","","","","","","","","","","","","","","","","","","","","","",""
"13303","","image-button-response","142","2073545","0.0-142.0-0.0","AI5RMOS8R652G","img_art/12.jpg","5","","","","","","","","","","","","","","","","","","","","","","","","",""
"null","","html-keyboard-response","143","2074548","0.0-143.0","AI5RMOS8R652G","<p style=""font-size: 48px;"">+</p>","","","","","null","allTrialResponses","1000","1","14","img_art/12.jpg","15","It feels like a play on pixels. I do like the shift in colors from brighter at the bottom to black, white and tan on top. ","Jennifer,Kristen,Mikayla,Sabrina,Molly,Miranda","This piece doesn't provoke any kind of reaction,0,380,20","stressful, upsetting,-10,280,20","A little bit boring.,-24,300,20","I like the fact it shares both light and edgy,32,120,20","Seems to be puzzles.,25,340,20","This is like going to a really old mcdoanlds in a tiny town and it's never been renovated so it's breaking down,-31,320,20","Sabrina","I like the fact it shares both light and edgy,32,120,20","Molly","Seems to be puzzles.,25,340,20","Miranda","This is like going to a really old mcdoanlds in a tiny town and it's never been renovated so it's breaking down,-31,320,20","0"
"164142","","survey-text","144","2238702","0.0-144.0-0.0","AI5RMOS8R652G","","","","{""Q0"":""At first it invoked dread, but after looking at it, It looks like a knight slaying a beast for a woman. It depicts a lot of action. ""}","","","","","","","","","","","","","","","","","","","","","","",""
"3029.600000023842","","image-slider-response","145","2241734","0.0-145.0","AI5RMOS8R652G","","","","","23","","","","","","","","","","","","","","","","","","","","","",""
"null","","image-button-response","146","2246743","0.0-146.0","AI5RMOS8R652G","img_art/18.jpg","null","","","","","","","","","","","","","","","","","","","","","","","","",""
"2091","","image-button-response","147","2248837","0.0-147.0","AI5RMOS8R652G","img_art/18.jpg","3","","","","","","","","","","","","","","","","","","","","","","","","",""
"4843","","image-button-response","148","2253684","0.0-148.0-0.0","AI5RMOS8R652G","img_art/18.jpg","1","","","","","","","","","","","","","","","","","","","","","","","","",""
"2645","","image-button-response","149","2256334","0.0-149.0-0.0","AI5RMOS8R652G","img_art/18.jpg","2","","","","","","","","","","","","","","","","","","","","","","","","",""
"null","","html-keyboard-response","150","2257837","0.0-150.0","AI5RMOS8R652G","<p style=""font-size: 48px;"">+</p>","","","","","null","allTrialResponses","1500","1","15","img_art/18.jpg","23","At first it invoked dread, but after looking at it, It looks like a knight slaying a beast for a woman. It depicts a lot of action. ","Danielle,Natalie,Claire,Sabrina,Molly,Miranda","Doesn't really speak to me well but I can appreciate it,10,340,20","my response to the picture is a little bit of anxiety but I like the detail,16,400,20","reminds me of greek mythology,22,260,20","I love the battle vibe in this,50,120,20","White and yellow look awesome and the picture's dynamics are wonderful.,30,340,20","This one raises some questions, there could be some sort of fight or battle going on.,11,320,20","Sabrina","I love the battle vibe in this,50,120,20","Natalie","my response to the picture is a little bit of anxiety but I like the detail,16,400,20","Claire","reminds me of greek mythology,22,260,20","0"
"5350","","survey-text","151","2263219","0.0-151.0-0.0","AI5RMOS8R652G","","","","{""Q0"":""course""}","","","","","","","","","","","","","","","","","","","","","","",""
"77109","","survey-text","152","2340331","0.0-152.0-0.0","AI5RMOS8R652G","","","","{""Q0"":""It looks grotesque like looking at a skin disease through a microscope. It is very detailed but still off putting. ""}","","","","","","","","","","","","","","","","","","","","","","",""
"9306.5","","image-slider-response","153","2349639","0.0-153.0","AI5RMOS8R652G","","","","","-32","","","","","","","","","","","","","","","","","","","","","",""
"null","","image-button-response","154","2354647","0.0-154.0","AI5RMOS8R652G","img_art/7.jpg","null","","","","","","","","","","","","","","","","","","","","","","","","",""
"2907","","image-button-response","155","2357558","0.0-155.0","AI5RMOS8R652G","img_art/7.jpg","1","","","","","","","","","","","","","","","","","","","","","","","","",""
"8071","","image-button-response","156","2365634","0.0-156.0-0.0","AI5RMOS8R652G","img_art/7.jpg","3","","","","","","","","","","","","","","","","","","","","","","","","",""
"8029","","image-button-response","157","2373668","0.0-157.0-0.0","AI5RMOS8R652G","img_art/7.jpg","2","","","","","","","","","","","","","","","","","","","","","","","","",""
"null","","html-keyboard-response","158","2374671","0.0-158.0","AI5RMOS8R652G","<p style=""font-size: 48px;"">+</p>","","","","","null","allTrialResponses","1000","1","16","img_art/7.jpg","-32","It looks grotesque like looking at a skin disease through a microscope. It is very detailed but still off putting. ","Michaela,Natalie,Claire,Sabrina,Tiffany,Amber","It looks like maybe some seeds?,14,260,20","does not look good,-42,400,20","reminds me of a cave wall,-21,260,20","Not getting the vibe i would like from this,-30,120,20","I feel relaxed and a little nostalgic, like I'm exploring the wall of a very old building.,18,360,20","Dull and confusing,-24,200,20","Natalie","does not look good,-42,400,20","Sabrina","Not getting the vibe i would like from this,-30,120,20","Claire","reminds me of a cave wall,-21,260,20","0"
"110878","","survey-text","159","2485565","0.0-159.0-0.0","AI5RMOS8R652G","","","","{""Q0"":""I like background, it's like confetti at a party. The white in front looks like bad graffiti that destroys it rather than enhances it. ""}","","","","","","","","","","","","","","","","","","","","","","",""
"4146","","image-slider-response","160","2489714","0.0-160.0","AI5RMOS8R652G","","","","","17","","","","","","","","","","","","","","","","","","","","","",""
"null","","image-button-response","161","2494724","0.0-161.0","AI5RMOS8R652G","img_art/23.jpg","null","","","","","","","","","","","","","","","","","","","","","","","","",""
"5613","","image-button-response","162","2500342","0.0-162.0","AI5RMOS8R652G","img_art/23.jpg","5","","","","","","","","","","","","","","","","","","","","","","","","",""
"5129","","image-button-response","163","2505476","0.0-163.0-0.0","AI5RMOS8R652G","img_art/23.jpg","1","","","","","","","","","","","","","","","","","","","","","","","","",""
"6146","","image-button-response","164","2511629","0.0-164.0-0.0","AI5RMOS8R652G","img_art/23.jpg","4","","","","","","","","","","","","","","","","","","","","","","","","",""
"null","","html-keyboard-response","165","2513133","0.0-165.0","AI5RMOS8R652G","<p style=""font-size: 48px;"">+</p>","","","","","null","allTrialResponses","1500","1","17","img_art/23.jpg","17","I like background, it's like confetti at a party. The white in front looks like bad graffiti that destroys it rather than enhances it. ","Ashley,Natalie,Claire,Sabrina,Brianna,Cassidy","A line dance, it's really strinkingly beautiful.,50,320,20","so much detail .,31,400,20","the pattern is pleasing to the eye,28,260,20","I dont like the chaos of this,-20,120,20","I love the rainbow!,12,20,20","I like the colors, the tiny dots, and the contrast between the white and background,28,140,20","Cassidy","I like the colors, the tiny dots, and the contrast between the white and background,28,140,20","Natalie","so much detail .,31,400,20","Brianna","I love the rainbow!,12,20,20","0"
"90900","","survey-text","166","2604052","0.0-166.0-0.0","AI5RMOS8R652G","","","","{""Q0"":""Love the soft and delicate colors and strokes. It relaxes me. ""}","","","","","","","","","","","","","","","","","","","","","","",""
"8229.199999928474","","image-slider-response","167","2612284","0.0-167.0","AI5RMOS8R652G","","","","","39","","","","","","","","","","","","","","","","","","","","","",""
"null","","image-button-response","168","2617289","0.0-168.0","AI5RMOS8R652G","img_art/17.jpg","null","","","","","","","","","","","","","","","","","","","","","","","","",""
"1490","","image-button-response","169","2618783","0.0-169.0","AI5RMOS8R652G","img_art/17.jpg","1","","","","","","","","","","","","","","","","","","","","","","","","",""
"2117","","image-button-response","170","2620904","0.0-170.0-0.0","AI5RMOS8R652G","img_art/17.jpg","2","","","","","","","","","","","","","","","","","","","","","","","","",""
"4916","","image-button-response","171","2625827","0.0-171.0-0.0","AI5RMOS8R652G","img_art/17.jpg","5","","","","","","","","","","","","","","","","","","","","","","","","",""
"null","","html-keyboard-response","172","2626330","0.0-172.0","AI5RMOS8R652G","<p style=""font-size: 48px;"">+</p>","","","","","null","allTrialResponses","500","1","18","img_art/17.jpg","39","Love the soft and delicate colors and strokes. It relaxes me. ","Kaitlyn,Natalie,Catherine,Kayla,Brianna,Cassidy","Very beautiful,19,80,20","my response to the picture is that it looks beautiful,27,400,20","Nature coming to the inside of your space that you are locked into.,50,160,20","I like the way the forest is taking over the buildings.,21,180,20","It's nice and realistic looking.,12,20,20","cool. Sharp and blocky below, light and flowing on top. Overall pleasing to look at,32,140,20","Natalie","my response to the picture is that it looks beautiful,27,400,20","Catherine","Nature coming to the inside of your space that you are locked into.,50,160,20","Cassidy","cool. Sharp and blocky below, light and flowing on top. Overall pleasing to look at,32,140,20","0"
"88482","","survey-text","173","2714830","0.0-173.0-0.0","AI5RMOS8R652G","","","","{""Q0"":""It is like a child drew a picture based on what they saw in an art museum.  I like the lounging lady but the outside really distracts from her. ""}","","","","","","","","","","","","","","","","","","","","","","",""
"4908","","image-slider-response","174","2719741","0.0-174.0","AI5RMOS8R652G","","","","","3","","","","","","","","","","","","","","","","","","","","","",""
"null","","image-button-response","175","2724744","0.0-175.0","AI5RMOS8R652G","img_art/9.jpg","null","","","","","","","","","","","","","","","","","","","","","","","","",""
"1525","","image-button-response","176","2726272","0.0-176.0","AI5RMOS8R652G","img_art/9.jpg","5","","","","","","","","","","","","","","","","","","","","","","","","",""
"7742","","image-button-response","177","2734015","0.0-177.0-0.0","AI5RMOS8R652G","img_art/9.jpg","4","","","","","","","","","","","","","","","","","","","","","","","","",""
"5709","","image-button-response","178","2739730","0.0-178.0-0.0","AI5RMOS8R652G","img_art/9.jpg","2","","","","","","","","","","","","","","","","","","","","","","","","",""
"null","","html-keyboard-response","179","2740738","0.0-179.0","AI5RMOS8R652G","<p style=""font-size: 48px;"">+</p>","","","","","null","allTrialResponses","1000","1","19","img_art/9.jpg","3","It is like a child drew a picture based on what they saw in an art museum.  I like the lounging lady but the outside really distracts from her. ","Jordan,Natalie,Catherine,Jacqueline,Michelle,Cassidy","I just dont like it, no reaction from me at all,-50,20,20","Gives me anxiety,-23,400,20","Cozy, In her own world. feminine .,30,160,20","Looks like a sloppy iguana.,-11,300,20","Alright, I can see a reclining lady, I'm just glad to be able to tell what's in the picture,5,280,20","The colors are okay, but this looks like someone scribbled with a crayon,1,140,20","Cassidy","The colors are okay, but this looks like someone scribbled with a crayon,1,140,20","Michelle","Alright, I can see a reclining lady, I'm just glad to be able to tell what's in the picture,5,280,20","Catherine","Cozy, In her own world. feminine .,30,160,20","0"
"78729","","survey-text","180","2819487","0.0-180.0-0.0","AI5RMOS8R652G","","","","{""Q0"":""Though, I see birds in trees, the darkness makes me feel depressed. ""}","","","","","","","","","","","","","","","","","","","","","","",""
"3598","","image-slider-response","181","2823087","0.0-181.0","AI5RMOS8R652G","","","","","-16","","","","","","","","","","","","","","","","","","","","","",""
"null","","image-button-response","182","2828091","0.0-182.0","AI5RMOS8R652G","img_art/15.jpg","null","","","","","","","","","","","","","","","","","","","","","","","","",""
"5097","","image-button-response","183","2833193","0.0-183.0","AI5RMOS8R652G","img_art/15.jpg","5","","","","","","","","","","","","","","","","","","","","","","","","",""
"1819","","image-button-response","184","2835017","0.0-184.0-0.0","AI5RMOS8R652G","img_art/15.jpg","1","","","","","","","","","","","","","","","","","","","","","","","","",""
"10676","","image-button-response","185","2845697","0.0-185.0-0.0","AI5RMOS8R652G","img_art/15.jpg","4","","","","","","","","","","","","","","","","","","","","","","","","",""
"null","","html-keyboard-response","186","2846703","0.0-186.0","AI5RMOS8R652G","<p style=""font-size: 48px;"">+</p>","","","","","null","allTrialResponses","1000","1","20","img_art/15.jpg","-16","Though, I see birds in trees, the darkness makes me feel depressed. ","Gabrielle,Briana,Catherine,Chelsea,Michelle,Cassidy","dark and provoking,-50,160,20","It reminds me of when you look up into a tree,21,400,20","ants on the ground playing with bubble gum. They may be thinking of how they can use it to build something,-30,160,20","The colors are too busy.,-39,180,20","Interesting to look at but I don't appreciate the abstraction,2,280,20","I like the random blue dabs to break up the black, but it looks unfinished.,4,140,20","Cassidy","I like the random blue dabs to break up the black, but it looks unfinished.,4,140,20","Briana","It reminds me of when you look up into a tree,21,400,20","Michelle","Interesting to look at but I don't appreciate the abstraction,2,280,20","0"
"3638","","survey-text","187","2850373","0.0-187.0-0.0","AI5RMOS8R652G","","","","{""Q0"":""we""}","","","","","","","","","","","","","","","","","","","","","","",""
"122467","","survey-text","188","2972842","0.0-188.0-0.0","AI5RMOS8R652G","","","","{""Q0"":""There is a juxtaposition between the cute house and bear and the other side that is more violent. It made me think. ""}","","","","","","","","","","","","","","","","","","","","","","",""
"5917.600000023842","","image-slider-response","189","2978764","0.0-189.0","AI5RMOS8R652G","","","","","7","","","","","","","","","","","","","","","","","","","","","",""
"null","","image-button-response","190","2983772","0.0-190.0","AI5RMOS8R652G","img_art/16.jpg","null","","","","","","","","","","","","","","","","","","","","","","","","",""
"1454","","image-button-response","191","2985230","0.0-191.0","AI5RMOS8R652G","img_art/16.jpg","3","","","","","","","","","","","","","","","","","","","","","","","","",""
"6953","","image-button-response","192","2992186","0.0-192.0-0.0","AI5RMOS8R652G","img_art/16.jpg","2","","","","","","","","","","","","","","","","","","","","","","","","",""
"4625","","image-button-response","193","2996818","0.0-193.0-0.0","AI5RMOS8R652G","img_art/16.jpg","4","","","","","","","","","","","","","","","","","","","","","","","","",""
"null","","html-keyboard-response","194","2998322","0.0-194.0","AI5RMOS8R652G","<p style=""font-size: 48px;"">+</p>","","","","","null","allTrialResponses","1500","1","21","img_art/16.jpg","7","There is a juxtaposition between the cute house and bear and the other side that is more violent. It made me think. ","Madison,Briana,Cassandra,Katherine,Michelle,Cassidy","Pop art, Tate Modern horse dung.,-50,60,20","Weird mixed media piece,-50,400,20","I like the teddy bear,but a neutral feeling,5,120,20","Super weird. Id like to know more about it,24,120,20","I'm a fan of collage and of reminiscing about childhood so this was nice,10,280,20","I don't know why, I just don't like it,-28,140,20","Katherine","Super weird. Id like to know more about it,24,120,20","Cassandra","I like the teddy bear,but a neutral feeling,5,120,20","Michelle","I'm a fan of collage and of reminiscing about childhood so this was nice,10,280,20","0"
"108543","","survey-text","195","3106873","0.0-195.0-0.0","AI5RMOS8R652G","","","","{""Q0"":""I think of a rainy day and it makes me want to curl up under blankets. I like tiny pops of color.""}","","","","","","","","","","","","","","","","","","","","","","",""
"3366.9000000953674","","image-slider-response","196","3110242","0.0-196.0","AI5RMOS8R652G","","","","","21","","","","","","","","","","","","","","","","","","","","","",""
"null","","image-button-response","197","3115250","0.0-197.0","AI5RMOS8R652G","img_art/11.jpg","null","","","","","","","","","","","","","","","","","","","","","","","","",""
"4450","","image-button-response","198","3119702","0.0-198.0","AI5RMOS8R652G","img_art/11.jpg","2","","","","","","","","","","","","","","","","","","","","","","","","",""
"7824","","image-button-response","199","3127529","0.0-199.0-0.0","AI5RMOS8R652G","img_art/11.jpg","1","","","","","","","","","","","","","","","","","","","","","","","","",""
"6193","","image-button-response","200","3133725","0.0-200.0-0.0","AI5RMOS8R652G","img_art/11.jpg","3","","","","","","","","","","","","","","","","","","","","","","","","",""
"null","","html-keyboard-response","201","3135228","0.0-201.0","AI5RMOS8R652G","<p style=""font-size: 48px;"">+</p>","","","","","null","allTrialResponses","1500","1","22","img_art/11.jpg","21","I think of a rainy day and it makes me want to curl up under blankets. I like tiny pops of color.","Laura,Destiny,Cassandra,Katherine,Michelle,Cheyenne","i think of beatnik music and dark piano lounges,25,320,20","life is a highway,12,360,20","I liked it it looked like an roller coasters at an amusment park.,16,120,20","Makes me feel like my vision is breaking,19,120,20","I think this is a city but I'm not sure, very abstract,18,280,20","Very good use of colors,44,200,20","Cassandra","I liked it it looked like an roller coasters at an amusment park.,16,120,20","Destiny","life is a highway,12,360,20","Katherine","Makes me feel like my vision is breaking,19,120,20","0"
"62345","","survey-text","202","3197582","0.0-202.0-0.0","AI5RMOS8R652G","","","","{""Q0"":""It looks like someone just experimenting with paint. It's very chaotic and puts me on edge.""}","","","","","","","","","","","","","","","","","","","","","","",""
"3507.9000000953674","","image-slider-response","203","3201093","0.0-203.0","AI5RMOS8R652G","","","","","-19","","","","","","","","","","","","","","","","","","","","","",""
"4833","","image-button-response","204","3206097","0.0-204.0","AI5RMOS8R652G","img_art/14.jpg","5","","","","","","","","","","","","","","","","","","","","","","","","",""
"1353","","image-button-response","205","3207457","0.0-205.0","AI5RMOS8R652G","img_art/14.jpg","5","","","","","","","","","","","","","","","","","","","","","","","","",""
"943","","image-button-response","206","3208404","0.0-206.0-0.0","AI5RMOS8R652G","img_art/14.jpg","4","","","","","","","","","","","","","","","","","","","","","","","","",""
"9308","","image-button-response","207","3217715","0.0-207.0-0.0","AI5RMOS8R652G","img_art/14.jpg","1","","","","","","","","","","","","","","","","","","","","","","","","",""
"null","","html-keyboard-response","208","3218221","0.0-208.0","AI5RMOS8R652G","<p style=""font-size: 48px;"">+</p>","","","","","null","allTrialResponses","500","1","23","img_art/14.jpg","-19","It looks like someone just experimenting with paint. It's very chaotic and puts me on edge.","Christina,Destiny,Cassandra,Katherine,Sierra,Shelby","has a tree look to it and it's colors are happy,9,240,20","I dont really vibe with the grayish color palette,-7,360,20","I kind of like it...I like the white back ground,11,120,20","I don't like the color red,30,120,20","it put me on edge.,-11,260,20","Something about the cahotic imagery makes me uncomfortable,-15,240,20","Shelby","Something about the cahotic imagery makes me uncomfortable,-15,240,20","Sierra","it put me on edge.,-11,260,20","Destiny","I dont really vibe with the grayish color palette,-7,360,20","0"
"72004","","survey-text","209","3290248","0.0-209.0-0.0","AI5RMOS8R652G","","","","{""Q0"":""The brown color is just awful and reminds me of excrement. It could possibly depict smoke from a chimney but the color choice is awful. ""}","","","","","","","","","","","","","","","","","","","","","","",""
"6585.199999928474","","image-slider-response","210","3296836","0.0-210.0","AI5RMOS8R652G","","","","","-47","","","","","","","","","","","","","","","","","","","","","",""
"4316","","image-button-response","211","3301842","0.0-211.0","AI5RMOS8R652G","img_art/4.jpg","1","","","","","","","","","","","","","","","","","","","","","","","","",""
"1261","","image-button-response","212","3303107","0.0-212.0","AI5RMOS8R652G","img_art/4.jpg","1","","","","","","","","","","","","","","","","","","","","","","","","",""
"5451","","image-button-response","213","3308562","0.0-213.0-0.0","AI5RMOS8R652G","img_art/4.jpg","2","","","","","","","","","","","","","","","","","","","","","","","","",""
"5425","","image-button-response","214","3313992","0.0-214.0-0.0","AI5RMOS8R652G","img_art/4.jpg","5","","","","","","","","","","","","","","","","","","","","","","","","",""
"null","","html-keyboard-response","215","3315496","0.0-215.0","AI5RMOS8R652G","<p style=""font-size: 48px;"">+</p>","","","","","null","allTrialResponses","1500","1","24","img_art/4.jpg","-47","The brown color is just awful and reminds me of excrement. It could possibly depict smoke from a chimney but the color choice is awful. ","Melissa,Destiny,Alexis,Caroline,Sierra,Shelby","appealing warm palette,6,240,20","it looks like a preschooler just dragged his fingers around,-36,360,20","Really don't like this. Kindergarten art, sorry.,-50,100,20","Blah feeling, nothing,-8,100,20","it looks like a deformed hand,-9,260,20","The colors feel a bit off to me,-10,240,20","Destiny","it looks like a preschooler just dragged his fingers around,-36,360,20","Alexis","Really don't like this. Kindergarten art, sorry.,-50,100,20","Shelby","The colors feel a bit off to me,-10,240,20","0"
"77294","","survey-text","216","3392807","0.0-216.0-0.0","AI5RMOS8R652G","","","","{""Q0"":""The simplicity is very appealing. It looks like a crow perched on something. It is a very sunny and happy shade of orange too. ""}","","","","","","","","","","","","","","","","","","","","","","",""
"5754.699999928474","","image-slider-response","217","3398564","0.0-217.0","AI5RMOS8R652G","","","","","24","","","","","","","","","","","","","","","","","","","","","",""
"null","","image-button-response","218","3403569","0.0-218.0","AI5RMOS8R652G","img_art/6.jpg","null","","","","","","","","","","","","","","","","","","","","","","","","",""
"2151","","image-button-response","219","3405726","0.0-219.0","AI5RMOS8R652G","img_art/6.jpg","3","","","","","","","","","","","","","","","","","","","","","","","","",""
"11770","","image-button-response","220","3417500","0.0-220.0-0.0","AI5RMOS8R652G","img_art/6.jpg","4","","","","","","","","","","","","","","","","","","","","","","","","",""
"4457","","image-button-response","221","3421961","0.0-221.0-0.0","AI5RMOS8R652G","img_art/6.jpg","0","","","","","","","","","","","","","","","","","","","","","","","","",""
"null","","html-keyboard-response","222","3422467","0.0-222.0","AI5RMOS8R652G","<p style=""font-size: 48px;"">+</p>","","","","","null","allTrialResponses","500","1","25","img_art/6.jpg","24","The simplicity is very appealing. It looks like a crow perched on something. It is a very sunny and happy shade of orange too. ","Allison,Destiny,Alexis,Angela,Lauren,Shelby","Simple desert scene.,5,140,20","boring. don't really like birds,1,360,20","The feeling of isolation with so little objects. Great,20,100,20","I like the orange color, and I don't know why but I like this piece.,22,260,20","I like the simplicity of the piece.,10,340,20","I dont feel much of a responce or connection to this one,0,240,20","Angela","I like the orange color, and I don't know why but I like this piece.,22,260,20","Lauren","I like the simplicity of the piece.,10,340,20","Allison","Simple desert scene.,5,140,20","0"
"6680","","survey-text","223","3429181","0.0-223.0-0.0","AI5RMOS8R652G","","","","{""Q0"":""table""}","","","","","","","","","","","","","","","","","","","","","","",""
"97163","","survey-text","224","3526346","0.0-224.0-0.0","AI5RMOS8R652G","","","","{""Q0"":""It looks like earthworms or perhaps eels in seaweed.  I'm a bit bored by this one. ""}","","","","","","","","","","","","","","","","","","","","","","",""
"3990.2999999523163","","image-slider-response","225","3530338","0.0-225.0","AI5RMOS8R652G","","","","","-16","","","","","","","","","","","","","","","","","","","","","",""
"3320","","image-button-response","226","3535347","0.0-226.0","AI5RMOS8R652G","img_art/30.jpg","3","","","","","","","","","","","","","","","","","","","","","","","","",""
"1660","","image-button-response","227","3537013","0.0-227.0","AI5RMOS8R652G","img_art/30.jpg","1","","","","","","","","","","","","","","","","","","","","","","","","",""
"8983","","image-button-response","228","3546000","0.0-228.0-0.0","AI5RMOS8R652G","img_art/30.jpg","2","","","","","","","","","","","","","","","","","","","","","","","","",""
"1002","","image-button-response","229","3547007","0.0-229.0-0.0","AI5RMOS8R652G","img_art/30.jpg","2","","","","","","","","","","","","","","","","","","","","","","","","",""
"3417","","image-button-response","230","3557777","0.0-229.1-0.1","AI5RMOS8R652G","img_art/30.jpg","3","","","","","","","","","","","","","","","","","","","","","","","","",""
"null","","html-keyboard-response","231","3558781","0.0-230.0","AI5RMOS8R652G","<p style=""font-size: 48px;"">+</p>","","","","","null","allTrialResponses","1000","1","26","img_art/30.jpg","-16","It looks like earthworms or perhaps eels in seaweed.  I'm a bit bored by this one. ","Allison,Mary,Jessica,Angela,Lauren,Gabriela","Dislike the contrast here.,-5,140,20","I hate this piece. It looks like a child created it. The colors are awful.,-46,180,20","Looks cool , but no meaning,1,400,20","Really don't like this piece. It feels very lazy to me.,-31,260,20","I like how the strokes invokes a sense of fluidity.,20,340,20","I like the strong lines or brush strokes. It looks modern and bold,21,140,20","Mary","I hate this piece. It looks like a child created it. The colors are awful.,-46,180,20","Jessica","Looks cool , but no meaning,1,400,20","Angela","Really don't like this piece. It feels very lazy to me.,-31,260,20","2"
"117235","","survey-text","232","3676033","0.0-231.0-0.0","AI5RMOS8R652G","","","","{""Q0"":""The blues are very serene. It feels like one part is sky and sea and the other shore. The dots don't seem to belong. ""}","","","","","","","","","","","","","","","","","","","","","","",""
"3585.399999976158","","image-slider-response","233","3679622","0.0-232.0","AI5RMOS8R652G","","","","","7","","","","","","","","","","","","","","","","","","","","","",""
"null","","image-button-response","234","3684627","0.0-233.0","AI5RMOS8R652G","img_art/21.jpg","null","","","","","","","","","","","","","","","","","","","","","","","","",""
"1503","","image-button-response","235","3686136","0.0-234.0","AI5RMOS8R652G","img_art/21.jpg","2","","","","","","","","","","","","","","","","","","","","","","","","",""
"7806","","image-button-response","236","3693945","0.0-235.0-0.0","AI5RMOS8R652G","img_art/21.jpg","3","","","","","","","","","","","","","","","","","","","","","","","","",""
"6712","","image-button-response","237","3700660","0.0-236.0-0.0","AI5RMOS8R652G","img_art/21.jpg","1","","","","","","","","","","","","","","","","","","","","","","","","",""
"null","","html-keyboard-response","238","3702164","0.0-237.0","AI5RMOS8R652G","<p style=""font-size: 48px;"">+</p>","","","","","null","allTrialResponses","1500","1","27","img_art/21.jpg","7","The blues are very serene. It feels like one part is sky and sea and the other shore. The dots don't seem to belong. ","Mackenzie,Mary,Jessica,Angela,Bailey,Erica","The shapes and colors are very interesting to look at.,41,20,20","This is lovely. I like the mix of colors, the warn and cool slowly combining.,39,180,20","I like how the colors blend together like a beautiful sunset.,25,400,20","I feel like I'm looking at two different paintings mashed together in the middle.,20,260,20","Looks like two ships on fire. Cool image.,12,360,20","Relaxing and easy to look at,27,80,20","Jessica","I like how the colors blend together like a beautiful sunset.,25,400,20","Angela","I feel like I'm looking at two different paintings mashed together in the middle.,20,260,20","Mary","This is lovely. I like the mix of colors, the warn and cool slowly combining.,39,180,20","2"
"87655","","survey-text","239","3789840","0.0-238.0-0.0","AI5RMOS8R652G","","","","{""Q0"":""The colors are very fun. It grabs my attention though I can't make heads or tails of it. ""}","","","","","","","","","","","","","","","","","","","","","","",""
"3921.6999999284744","","image-slider-response","240","3793765","0.0-239.0","AI5RMOS8R652G","","","","","15","","","","","","","","","","","","","","","","","","","","","",""
"4743","","image-button-response","241","3798771","0.0-240.0","AI5RMOS8R652G","img_art/5.jpg","1","","","","","","","","","","","","","","","","","","","","","","","","",""
"2336","","image-button-response","242","3801112","0.0-241.0","AI5RMOS8R652G","img_art/5.jpg","1","","","","","","","","","","","","","","","","","","","","","","","","",""
"6791","","image-button-response","243","3807907","0.0-242.0-0.0","AI5RMOS8R652G","img_art/5.jpg","2","","","","","","","","","","","","","","","","","","","","","","","","",""
"10138","","image-button-response","244","3818051","0.0-243.0-0.0","AI5RMOS8R652G","img_art/5.jpg","5","","","","","","","","","","","","","","","","","","","","","","","","",""
"null","","html-keyboard-response","245","3819560","0.0-244.0","AI5RMOS8R652G","<p style=""font-size: 48px;"">+</p>","","","","","null","allTrialResponses","1500","1","28","img_art/5.jpg","15","The colors are very fun. It grabs my attention though I can't make heads or tails of it. ","Stephanie,Mary,Jessica,Angela,Madeline,Grace","This did not do a thing for me.,-50,300,20","This piece has a good flow. I like the yellow with black combo.,11,180,20","Don't really know the point of this one.,-11,400,20","I really dislike this. It's ugly and looks dirty.,-44,260,20","A bit too messy in my eyes,-4,40,20","Looks like a yellow plastic trash bag.,-42,180,20","Mary","This piece has a good flow. I like the yellow with black combo.,11,180,20","Jessica","Don't really know the point of this one.,-11,400,20","Grace","Looks like a yellow plastic trash bag.,-42,180,20","2"
"72153","","survey-text","246","3891738","0.0-245.0-0.0","AI5RMOS8R652G","","","","{""Q0"":""The watercolors are calming. I feel like I'm in a park just relaxing. ""}","","","","","","","","","","","","","","","","","","","","","","",""
"4881","","image-slider-response","247","3896622","0.0-246.0","AI5RMOS8R652G","","","","","15","","","","","","","","","","","","","","","","","","","","","",""
"4846","","image-button-response","248","3901629","0.0-247.0","AI5RMOS8R652G","img_art/26.jpg","4","","","","","","","","","","","","","","","","","","","","","","","","",""
"5255","","image-button-response","249","3906889","0.0-248.0","AI5RMOS8R652G","img_art/26.jpg","4","","","","","","","","","","","","","","","","","","","","","","","","",""
"4859","","image-button-response","250","3911754","0.0-249.0-0.0","AI5RMOS8R652G","img_art/26.jpg","5","","","","","","","","","","","","","","","","","","","","","","","","",""
"9701","","image-button-response","251","3921461","0.0-250.0-0.0","AI5RMOS8R652G","img_art/26.jpg","0","","","","","","","","","","","","","","","","","","","","","","","","",""
"null","","html-keyboard-response","252","3922466","0.0-251.0","AI5RMOS8R652G","<p style=""font-size: 48px;"">+</p>","","","","","null","allTrialResponses","1000","1","29","img_art/26.jpg","15","The watercolors are calming. I feel like I'm in a park just relaxing. ","Isabella,Mary,Jessica,Hannah,Rachel,Grace","Colors are full and reminds me of a messy room,-9,280,20","I can tell it's some sort of outdoor scene. It looks very amateurish.,-9,180,20","It doesn't look so vibrant, I'm not sure what feelings they were trying to capture,-41,400,20","This is boring.,-15,240,20","Pretty trees and bushes around fancy brown stones. I like the soft nature.,20,80,20","Like the muted colors & the scene which seems to be serene.,14,180,20","Rachel","Pretty trees and bushes around fancy brown stones. I like the soft nature.,20,80,20","Grace","Like the muted colors & the scene which seems to be serene.,14,180,20","Isabella","Colors are full and reminds me of a messy room,-9,280,20","2"
"47230","","survey-text","253","3969721","0.0-252.0-0.0","AI5RMOS8R652G","","","","{""Q0"":""It is disturbing because it reminds me of blood spatter. It look like a bad Halloween decoration. ""}","","","","","","","","","","","","","","","","","","","","","","",""
"9426.200000047684","","image-slider-response","254","3979150","0.0-253.0","AI5RMOS8R652G","","","","","-48","","","","","","","","","","","","","","","","","","","","","",""
"4107","","image-button-response","255","3984156","0.0-254.0","AI5RMOS8R652G","img_art/3.jpg","5","","","","","","","","","","","","","","","","","","","","","","","","",""
"555","","image-button-response","256","3984717","0.0-255.0","AI5RMOS8R652G","img_art/3.jpg","5","","","","","","","","","","","","","","","","","","","","","","","","",""
"12799","","image-button-response","257","3997521","0.0-256.0-0.0","AI5RMOS8R652G","img_art/3.jpg","4","","","","","","","","","","","","","","","","","","","","","","","","",""
"4389","","image-button-response","258","4001916","0.0-257.0-0.0","AI5RMOS8R652G","img_art/3.jpg","1","","","","","","","","","","","","","","","","","","","","","","","","",""
"null","","html-keyboard-response","259","4002420","0.0-258.0","AI5RMOS8R652G","<p style=""font-size: 48px;"">+</p>","","","","","null","allTrialResponses","500","1","30","img_art/3.jpg","-48","It is disturbing because it reminds me of blood spatter. It look like a bad Halloween decoration. ","Isabella,Leslie,Caitlin,Abigail,Rachel,Grace","Too much red or blood,-28,280,20","It looks like the artist was trying too hard to make it chaotic and emotional.,-25,380,20","Why kids with color crayons is called art is beyond me. People pay for this???,-40,80,20","Reminded me of blood or something bad,-21,20,20","Too red and chaotic. Not calming.,-41,80,20","Just no. I love red but this looks like blood splatter on a wall from a horrific killing.,-45,180,20","Grace","Just no. I love red but this looks like blood splatter on a wall from a horrific killing.,-45,180,20","Rachel","Too red and chaotic. Not calming.,-41,80,20","Leslie","It looks like the artist was trying too hard to make it chaotic and emotional.,-25,380,20","2"
"4236","","image-button-response_instructions","260","4006681","0.0-259.0","AI5RMOS8R652G","","0","instructions","","","","","","","","","","","","","","","","","","","","","","","",""
"1466","","image-button-response","261","4008168","0.0-260.0","AI5RMOS8R652G","","0","","","","","","","","","","","","","","","","","","","","","","","","",""
