"rt","url","trial_type","trial_index","time_elapsed","internal_node_id","participant_id","stimulus","button_pressed","Name","responses","response","key_press","variableName","fixationTime","condition","trial","photo","subjectRating","subjectResponse","agentsNames","agent_1_Response","agent_2_Response","agent_3_Response","agent_4_Response","agent_5_Response","agent_6_Response","kept_1_name","kept_1_response","kept_2_name","kept_2_response","kept_3_name","kept_3_response","errorCounter"
"22654","external_page_harvard.html","external-html","0","22781","0.0-0.0","AIUKV0KVALMY6","","","","","","","","","","","","","","","","","","","","","","","","","","",""
"3656","","image-button-response","1","26440","0.0-1.0","AIUKV0KVALMY6","","1","","","","","","","","","","","","","","","","","","","","","","","","",""
"1351","","image-button-response","2","27800","0.0-2.0-0.0","AIUKV0KVALMY6","","1","phone","","","","","","","","","","","","","","","","","","","","","","","",""
"5017","","survey-text","3","32821","0.0-3.0-0.0","AIUKV0KVALMY6","","","","{""Q0"":""AIUKV0KVALMY6""}","","","","","","","","","","","","","","","","","","","","","","",""
"4899","","image-button-response_instructions","4","37723","0.0-4.0","AIUKV0KVALMY6","","0","instructions","","","","","","","","","","","","","","","","","","","","","","","",""
"12338","","image-button-response_instructions","5","50062","0.0-5.0","AIUKV0KVALMY6","img_art/ins/popularity/ins1.png","0","instructions","","","","","","","","","","","","","","","","","","","","","","","",""
"2778","","image-button-response_instructions","6","52843","0.0-6.0","AIUKV0KVALMY6","img_art/ins/popularity/ins2.png","0","instructions","","","","","","","","","","","","","","","","","","","","","","","",""
"2405","","image-button-response_instructions","7","55250","0.0-7.0","AIUKV0KVALMY6","img_art/ins/popularity/ins2Extreme.png","0","instructions","","","","","","","","","","","","","","","","","","","","","","","",""
"3037","","image-button-response_instructions","8","58289","0.0-8.0","AIUKV0KVALMY6","img_art/ins/popularity/ins3KEEPpop.PNG","0","instructions","","","","","","","","","","","","","","","","","","","","","","","",""
"2229","","image-button-response_instructions","9","60520","0.0-9.0","AIUKV0KVALMY6","img_art/ins/popularity/ins3ANamepop.PNG","0","instructions","","","","","","","","","","","","","","","","","","","","","","","",""
"3285","","image-button-response_instructions","10","63807","0.0-10.0","AIUKV0KVALMY6","img_art/ins/popularity/ins3ARatingpop.png","0","instructions","","","","","","","","","","","","","","","","","","","","","","","",""
"1967","","image-button-response_instructions","11","65774","0.0-11.0","AIUKV0KVALMY6","img_art/ins/popularity/ins3ATextpop.png","0","instructions","","","","","","","","","","","","","","","","","","","","","","","",""
"1773","","image-button-response_instructions","12","67549","0.0-12.0","AIUKV0KVALMY6","img_art/ins/popularity/ins3ALikespop.png","0","instructions","","","","","","","","","","","","","","","","","","","","","","","",""
"1917","","image-button-response_instructions","13","69468","0.0-13.0","AIUKV0KVALMY6","img_art/ins/popularity/ins3KEEPpop.PNG","0","instructions","","","","","","","","","","","","","","","","","","","","","","","",""
"4477","","image-button-response_instructions","14","73947","0.0-14.0","AIUKV0KVALMY6","img_art/ins/popularity/ins3_5RED.png","0","instructions","","","","","","","","","","","","","","","","","","","","","","","",""
"2140","","image-button-response_instructions","15","76089","0.0-15.0","AIUKV0KVALMY6","img_art/ins/popularity/ins3KEEPpop.PNG","0","instructions","","","","","","","","","","","","","","","","","","","","","","","",""
"2238","","image-button-response_instructions","16","78328","0.0-16.0","AIUKV0KVALMY6","img_art/ins/popularity/ins4KEEPpop.PNG","0","instructions","","","","","","","","","","","","","","","","","","","","","","","",""
"1686","","image-button-response_instructions","17","80015","0.0-17.0","AIUKV0KVALMY6","img_art/ins/popularity/ins5KEEPpop.PNG","0","instructions","","","","","","","","","","","","","","","","","","","","","","","",""
"1359","","image-button-response_instructions","18","81375","0.0-18.0","AIUKV0KVALMY6","","0","instructions","","","","","","","","","","","","","","","","","","","","","","","",""
"3954","","survey-text","19","85357","0.0-19.0-0.0","AIUKV0KVALMY6","","","","{""Q0"":""but""}","","","","","","","","","","","","","","","","","","","","","","",""
"10522","","survey-text","20","95881","0.0-20.0-0.0","AIUKV0KVALMY6","","","","{""Q0"":""it is bright and vivid with neon colors""}","","","","","","","","","","","","","","","","","","","","","","",""
"2114.100000023842","","image-slider-response","21","97999","0.0-21.0","AIUKV0KVALMY6","","","","","49","","","","","","","","","","","","","","","","","","","","","",""
"null","","image-button-response","22","103003","0.0-22.0","AIUKV0KVALMY6","img_art/ins/1.jpg","null","","","","","","","","","","","","","","","","","","","","","","","","",""
"2494","","image-button-response","23","105499","0.0-23.0","AIUKV0KVALMY6","img_art/ins/1.jpg","2","","","","","","","","","","","","","","","","","","","","","","","","",""
"4723","","image-button-response","24","110225","0.0-24.0-0.0","AIUKV0KVALMY6","img_art/ins/1.jpg","3","","","","","","","","","","","","","","","","","","","","","","","","",""
"3339","","image-button-response","25","113569","0.0-25.0-0.0","AIUKV0KVALMY6","img_art/ins/1.jpg","5","","","","","","","","","","","","","","","","","","","","","","","","",""
"null","","html-keyboard-response","26","114071","0.0-26.0","AIUKV0KVALMY6","<p style=""font-size: 48px;"">+</p>","","","","","null","allTrialResponses","500","1","-2","img_art/ins/1.jpg","49","it is bright and vivid with neon colors","Allison,Ashley,Beth,Dora,Erika,Jen","looks like a lot of things going on in the mist,20,20,20","I just don't get why these type of art would be popular,-32,40,20","This color reminds me of poo,-46,60,20","looks like what my niece in 3rd grade did this afternoon,-50,80,20","I like the sophisticated brushwork,40,100,20","It reminds me of a candy land dream I had,36,120,20","Beth","This color reminds me of poo,-46,60,20","Dora","looks like what my niece in 3rd grade did this afternoon,-50,80,20","Jen","It reminds me of a candy land dream I had,36,120,20","0"
"8943","","survey-text","27","123019","0.0-27.0-0.0","AIUKV0KVALMY6","","","","{""Q0"":""it is solid and colorful""}","","","","","","","","","","","","","","","","","","","","","","",""
"2477.100000023842","","image-slider-response","28","125498","0.0-28.0","AIUKV0KVALMY6","","","","","29","","","","","","","","","","","","","","","","","","","","","",""
"null","","image-button-response","29","130502","0.0-29.0","AIUKV0KVALMY6","img_art/ins/2.jpg","null","","","","","","","","","","","","","","","","","","","","","","","","",""
"2232","","image-button-response","30","132736","0.0-30.0","AIUKV0KVALMY6","img_art/ins/2.jpg","2","","","","","","","","","","","","","","","","","","","","","","","","",""
"2180","","image-button-response","31","134919","0.0-31.0-0.0","AIUKV0KVALMY6","img_art/ins/2.jpg","4","","","","","","","","","","","","","","","","","","","","","","","","",""
"2236","","image-button-response","32","137158","0.0-32.0-0.0","AIUKV0KVALMY6","img_art/ins/2.jpg","1","","","","","","","","","","","","","","","","","","","","","","","","",""
"null","","html-keyboard-response","33","137660","0.0-33.0","AIUKV0KVALMY6","<p style=""font-size: 48px;"">+</p>","","","","","null","allTrialResponses","500","1","-1","img_art/ins/2.jpg","29","it is solid and colorful","Katie,Jenna,Beth,Dora,Kara,Jen","too much color!,-28,180,20","One of my pet peevs,-48,140,20","meaningless painting,-45,60,20","looks too angry,-50,80,20","I like the blocks of color arrangements,30,160,20","It reminds me of a fireplace,36,120,20","Beth","meaningless painting,-45,60,20","Kara","I like the blocks of color arrangements,30,160,20","Jenna","One of my pet peevs,-48,140,20","0"
"8353","","survey-text","34","146017","0.0-34.0-0.0","AIUKV0KVALMY6","","","","{""Q0"":""it looks too depressing""}","","","","","","","","","","","","","","","","","","","","","","",""
"2844.899999976158","","image-slider-response","35","148864","0.0-35.0","AIUKV0KVALMY6","","","","","-35","","","","","","","","","","","","","","","","","","","","","",""
"4740","","image-button-response","36","153867","0.0-36.0","AIUKV0KVALMY6","img_art/ins/3.jpg","5","","","","","","","","","","","","","","","","","","","","","","","","",""
"2446","","image-button-response","37","156317","0.0-37.0","AIUKV0KVALMY6","img_art/ins/3.jpg","5","","","","","","","","","","","","","","","","","","","","","","","","",""
"1678","","image-button-response","38","157997","0.0-38.0-0.0","AIUKV0KVALMY6","img_art/ins/3.jpg","2","","","","","","","","","","","","","","","","","","","","","","","","",""
"500","","image-button-response","39","158499","0.0-39.0-0.0","AIUKV0KVALMY6","img_art/ins/3.jpg","1","","","","","","","","","","","","","","","","","","","","","","","","",""
"null","","html-keyboard-response","40","160000","0.0-40.0","AIUKV0KVALMY6","<p style=""font-size: 48px;"">+</p>","","","","","null","allTrialResponses","1500","1","0","img_art/ins/3.jpg","-35","it looks too depressing","Mary,Jenna,Beth,Leslie,Kara,Rose","I like the overlapping of brushes,41,220,20","looks like a murder room,-35,140,20","This thing gives me anxiety,-41,60,20","It's an alright work,15,200,20","calming blue is very nice,36,160,20","My daily routine, it's depressing,-20,240,20","Rose","My daily routine, it's depressing,-20,240,20","Beth","This thing gives me anxiety,-41,60,20","Jenna","looks like a murder room,-35,140,20","0"
"5650","","image-button-response_instructions","41","165656","0.0-41.0","AIUKV0KVALMY6","","0","instructions","","","","","","","","","","","","","","","","","","","","","","","",""
"9211","","survey-likert","42","174871","0.0-42.0-0.0","AIUKV0KVALMY6","","","","{""Q0"":"""",""Q1"":0,""Q2"":1}","","","","","","","","","","","","","","","","","","","","","","",""
"4350","","survey-text","43","179233","0.0-43.0-0.0","AIUKV0KVALMY6","","","","{""Q0"":""rock""}","","","","","","","","","","","","","","","","","","","","","","",""
"10001","","survey-text","44","189236","0.0-44.0-0.0","AIUKV0KVALMY6","","","","{""Q0"":""looks like a murder scene about to take place""}","","","","","","","","","","","","","","","","","","","","","","",""
"2517.100000023842","","image-slider-response","45","191755","0.0-45.0","AIUKV0KVALMY6","","","","","17","","","","","","","","","","","","","","","","","","","","","",""
"4270","","image-button-response","46","196788","0.0-46.0","AIUKV0KVALMY6","img_art/28.jpg","5","","","","","","","","","","","","","","","","","","","","","","","","",""
"2803","","image-button-response","47","199593","0.0-47.0","AIUKV0KVALMY6","img_art/28.jpg","5","","","","","","","","","","","","","","","","","","","","","","","","",""
"852","","image-button-response","48","200447","0.0-48.0-0.0","AIUKV0KVALMY6","img_art/28.jpg","0","","","","","","","","","","","","","","","","","","","","","","","","",""
"1102","","image-button-response","49","201552","0.0-49.0-0.0","AIUKV0KVALMY6","img_art/28.jpg","0","","","","","","","","","","","","","","","","","","","","","","","","",""
"1383","","image-button-response","50","205678","0.0-49.1-0.1","AIUKV0KVALMY6","img_art/28.jpg","4","","","","","","","","","","","","","","","","","","","","","","","","",""
"null","","html-keyboard-response","51","207180","0.0-50.0","AIUKV0KVALMY6","<p style=""font-size: 48px;"">+</p>","","","","","null","allTrialResponses","1500","1","1","img_art/28.jpg","17","looks like a murder scene about to take place","Julia,Brittany,Diana,Jamie,Isabella,Grace","the people kind of scare me in this one,-15,40,20","I don't like the colors or the design.,-20,40,20","I think this piece is interesting. I love the faces drawn into it.,29,380,20","Gloomy colors and picture,5,320,20","This is also something I would see in a serious but safe environment,14,280,20","A meeting in Old Jerusalem.,11,180,20","Grace","A meeting in Old Jerusalem.,11,180,20","Julia","the people kind of scare me in this one,-15,40,20","Isabella","This is also something I would see in a serious but safe environment,14,280,20","2"
"10461","","survey-text","52","217647","0.0-51.0-0.0","AIUKV0KVALMY6","","","","{""Q0"":""like somebody just got killed""}","","","","","","","","","","","","","","","","","","","","","","",""
"1829","","image-slider-response","53","219478","0.0-52.0","AIUKV0KVALMY6","","","","","12","","","","","","","","","","","","","","","","","","","","","",""
"null","","image-button-response","54","224482","0.0-53.0","AIUKV0KVALMY6","img_art/29.jpg","null","","","","","","","","","","","","","","","","","","","","","","","","",""
"1560","","image-button-response","55","226044","0.0-54.0","AIUKV0KVALMY6","img_art/29.jpg","0","","","","","","","","","","","","","","","","","","","","","","","","",""
"2309","","image-button-response","56","228354","0.0-55.0-0.0","AIUKV0KVALMY6","img_art/29.jpg","4","","","","","","","","","","","","","","","","","","","","","","","","",""
"1942","","image-button-response","57","230298","0.0-56.0-0.0","AIUKV0KVALMY6","img_art/29.jpg","0","","","","","","","","","","","","","","","","","","","","","","","","",""
"3180","","image-button-response","58","236169","0.0-56.1-0.1","AIUKV0KVALMY6","img_art/29.jpg","2","","","","","","","","","","","","","","","","","","","","","","","","",""
"null","","html-keyboard-response","59","237671","0.0-57.0","AIUKV0KVALMY6","<p style=""font-size: 48px;"">+</p>","","","","","null","allTrialResponses","1500","1","2","img_art/29.jpg","12","like somebody just got killed","Julia,Cheyenne,Amber,Mary,Isabella,Grace","it looks like a top-down battle arena,26,40,20","Really enjoy everything about this one.,50,200,20","Don't like the red X across the painting.,-15,200,20","I love the angry emotion to this art. I feel very drawn to it.,18,180,20","Darkness and torment,-50,280,20","Doesn't do much for me. I like some of the colors but not much else.,-10,180,20","Julia","it looks like a top-down battle arena,26,40,20","Isabella","Darkness and torment,-50,280,20","Amber","Don't like the red X across the painting.,-15,200,20","4"
"8031","","survey-text","60","245707","0.0-58.0-0.0","AIUKV0KVALMY6","","","","{""Q0"":""this painting is stupid""}","","","","","","","","","","","","","","","","","","","","","","",""
"2588","","image-slider-response","61","248297","0.0-59.0","AIUKV0KVALMY6","","","","","-19","","","","","","","","","","","","","","","","","","","","","",""
"null","","image-button-response","62","253301","0.0-60.0","AIUKV0KVALMY6","img_art/19.jpg","null","","","","","","","","","","","","","","","","","","","","","","","","",""
"289","","image-button-response","63","253592","0.0-61.0","AIUKV0KVALMY6","img_art/19.jpg","2","","","","","","","","","","","","","","","","","","","","","","","","",""
"3276","","image-button-response","64","256870","0.0-62.0-0.0","AIUKV0KVALMY6","img_art/19.jpg","4","","","","","","","","","","","","","","","","","","","","","","","","",""
"1918","","image-button-response","65","258790","0.0-63.0-0.0","AIUKV0KVALMY6","img_art/19.jpg","5","","","","","","","","","","","","","","","","","","","","","","","","",""
"null","","html-keyboard-response","66","259292","0.0-64.0","AIUKV0KVALMY6","<p style=""font-size: 48px;"">+</p>","","","","","null","allTrialResponses","500","1","3","img_art/19.jpg","-19","this painting is stupid","Julia,Taylor,Amber,Savannah,Isabella,Katie","I like this style but don't really like the specific setting of the landscape,-7,40,20","It reminds me of sitting at a cafe on the side of a river.,45,340,20","Reminds me of a busy village.,16,200,20","Watercolor abstract? Strange.,1,200,20","A day in a small city,45,280,20","Too busy, makes me anxious and frustrated. Lots of movement in the brush strokes.,-9,160,20","Amber","Reminds me of a busy village.,16,200,20","Isabella","A day in a small city,45,280,20","Katie","Too busy, makes me anxious and frustrated. Lots of movement in the brush strokes.,-9,160,20","4"
"5939","","survey-text","67","265234","0.0-65.0-0.0","AIUKV0KVALMY6","","","","{""Q0"":""a sandy beach""}","","","","","","","","","","","","","","","","","","","","","","",""
"3188.300000011921","","image-slider-response","68","268425","0.0-66.0","AIUKV0KVALMY6","","","","","32","","","","","","","","","","","","","","","","","","","","","",""
"4114","","image-button-response","69","273428","0.0-67.0","AIUKV0KVALMY6","img_art/6.jpg","2","","","","","","","","","","","","","","","","","","","","","","","","",""
"1119","","image-button-response","70","274550","0.0-68.0","AIUKV0KVALMY6","img_art/6.jpg","2","","","","","","","","","","","","","","","","","","","","","","","","",""
"5188","","image-button-response","71","279740","0.0-69.0-0.0","AIUKV0KVALMY6","img_art/6.jpg","3","","","","","","","","","","","","","","","","","","","","","","","","",""
"2229","","image-button-response","72","281970","0.0-70.0-0.0","AIUKV0KVALMY6","img_art/6.jpg","5","","","","","","","","","","","","","","","","","","","","","","","","",""
"null","","html-keyboard-response","73","283472","0.0-71.0","AIUKV0KVALMY6","<p style=""font-size: 48px;"">+</p>","","","","","null","allTrialResponses","1500","1","4","img_art/6.jpg","32","a sandy beach","Kimberly,Claire,Amber,Monica,Isabella,Katie","It's pretty dour,-10,260,20","very minimalistic,22,260,20","Something very simplistic about it. The colors mesh well.,10,200,20","Maybe it's supposed to be a bird but it looks like a scary cloaked figure. it's just too simple and jarring,-23,360,20","A bird standing in the sun,37,280,20","I like the warmth of the orange. But, I feel like it's a partial view. I'm frustrated I can't see the entirety.,-20,160,20","Amber","Something very simplistic about it. The colors mesh well.,10,200,20","Monica","Maybe it's supposed to be a bird but it looks like a scary cloaked figure. it's just too simple and jarring,-23,360,20","Katie","I like the warmth of the orange. But, I feel like it's a partial view. I'm frustrated I can't see the entirety.,-20,160,20","4"
"7178","","survey-text","74","290654","0.0-72.0-0.0","AIUKV0KVALMY6","","","","{""Q0"":""a kid did this""}","","","","","","","","","","","","","","","","","","","","","","",""
"1877","","image-slider-response","75","292534","0.0-73.0","AIUKV0KVALMY6","","","","","-47","","","","","","","","","","","","","","","","","","","","","",""
"4884","","image-button-response","76","297537","0.0-74.0","AIUKV0KVALMY6","img_art/16.jpg","0","","","","","","","","","","","","","","","","","","","","","","","","",""
"1513","","image-button-response","77","299051","0.0-75.0","AIUKV0KVALMY6","img_art/16.jpg","0","","","","","","","","","","","","","","","","","","","","","","","","",""
"5195","","image-button-response","78","304249","0.0-76.0-0.0","AIUKV0KVALMY6","img_art/16.jpg","4","","","","","","","","","","","","","","","","","","","","","","","","",""
"2875","","image-button-response","79","307128","0.0-77.0-0.0","AIUKV0KVALMY6","img_art/16.jpg","2","","","","","","","","","","","","","","","","","","","","","","","","",""
"null","","html-keyboard-response","80","308129","0.0-78.0","AIUKV0KVALMY6","<p style=""font-size: 48px;"">+</p>","","","","","null","allTrialResponses","1000","1","5","img_art/16.jpg","-47","a kid did this","Andrea,Margaret,Amber,Monica,Rachel,Katie","I think it's about child abuse. The teddy bear represents innocence and the dark shape is approaching it.,40,240,20","i like how it incorporates mixed visual art with the photo of the bear and the drawings,30,100,20","Don't like the teddy bear. It takes away from the painting.,-39,200,20","Don't know if there's a meaning but I like how seemingly random objects were stuck together and called art,20,360,20","Not pleasing to the eyes. I do like that the gun is broken though.,-28,80,20","Upsetting and disturbing. Random bear and indistinguishable objects. None of it goes together. Too chaotic and random,-50,160,20","Andrea","I think it's about child abuse. The teddy bear represents innocence and the dark shape is approaching it.,40,240,20","Rachel","Not pleasing to the eyes. I do like that the gun is broken though.,-28,80,20","Amber","Don't like the teddy bear. It takes away from the painting.,-39,200,20","4"
"3644","","survey-text","81","311788","0.0-79.0-0.0","AIUKV0KVALMY6","","","","{""Q0"":""sky""}","","","","","","","","","","","","","","","","","","","","","","",""
"6732","","survey-text","82","318522","0.0-80.0-0.0","AIUKV0KVALMY6","","","","{""Q0"":""a beautiful river""}","","","","","","","","","","","","","","","","","","","","","","",""
"2172","","image-slider-response","83","320696","0.0-81.0","AIUKV0KVALMY6","","","","","40","","","","","","","","","","","","","","","","","","","","","",""
"3277","","image-button-response","84","325699","0.0-82.0","AIUKV0KVALMY6","img_art/24.jpg","2","","","","","","","","","","","","","","","","","","","","","","","","",""
"890","","image-button-response","85","326591","0.0-83.0","AIUKV0KVALMY6","img_art/24.jpg","1","","","","","","","","","","","","","","","","","","","","","","","","",""
"2684","","image-button-response","86","329277","0.0-84.0-0.0","AIUKV0KVALMY6","img_art/24.jpg","3","","","","","","","","","","","","","","","","","","","","","","","","",""
"1094","","image-button-response","87","330374","0.0-85.0-0.0","AIUKV0KVALMY6","img_art/24.jpg","5","","","","","","","","","","","","","","","","","","","","","","","","",""
"null","","html-keyboard-response","88","331376","0.0-86.0","AIUKV0KVALMY6","<p style=""font-size: 48px;"">+</p>","","","","","null","allTrialResponses","1000","1","6","img_art/24.jpg","40","a beautiful river","Andrea,Cynthia,Amber,Alicia,Rachel,Samantha","Waterfall, and I love the coloring.,48,240,20","Interested in visiting this place,18,320,20","peaceful and calm yet joyous.,50,200,20","Nature, abstract, I'd hang this in my house.,37,120,20","Looks like a beautiful stream rolling through terrain of rocks and flowers.,43,80,20","Happy and relaxing bubbling brook,37,140,20","Cynthia","Interested in visiting this place,18,320,20","Alicia","Nature, abstract, I'd hang this in my house.,37,120,20","Samantha","Happy and relaxing bubbling brook,37,140,20","4"
"4645","","survey-text","89","336025","0.0-87.0-0.0","AIUKV0KVALMY6","","","","{""Q0"":""me on my period""}","","","","","","","","","","","","","","","","","","","","","","",""
"2205.400000035763","","image-slider-response","90","338233","0.0-88.0","AIUKV0KVALMY6","","","","","-25","","","","","","","","","","","","","","","","","","","","","",""
"4507","","image-button-response","91","343236","0.0-89.0","AIUKV0KVALMY6","img_art/1.jpg","1","","","","","","","","","","","","","","","","","","","","","","","","",""
"472","","image-button-response","92","343711","0.0-90.0","AIUKV0KVALMY6","img_art/1.jpg","1","","","","","","","","","","","","","","","","","","","","","","","","",""
"3363","","image-button-response","93","347077","0.0-91.0-0.0","AIUKV0KVALMY6","img_art/1.jpg","3","","","","","","","","","","","","","","","","","","","","","","","","",""
"989","","image-button-response","94","348069","0.0-92.0-0.0","AIUKV0KVALMY6","img_art/1.jpg","4","","","","","","","","","","","","","","","","","","","","","","","","",""
"null","","html-keyboard-response","95","348572","0.0-93.0","AIUKV0KVALMY6","<p style=""font-size: 48px;"">+</p>","","","","","null","allTrialResponses","500","1","7","img_art/1.jpg","-25","me on my period","Briana,Cynthia,Madeline,Alicia,Michaela,Samantha","I like the colors. But it doesnt look like anything,27,400,20","fishing on the lake surrounded by trees,42,320,20","Quite messy looking,-22,40,20","just colors mixed together. not interesting.,5,120,20","That one piece in the middle gives it depth and it's really neat,21,260,20","Love the colors but it makes me feel like someone is looking at me through it,38,140,20","Cynthia","fishing on the lake surrounded by trees,42,320,20","Alicia","just colors mixed together. not interesting.,5,120,20","Michaela","That one piece in the middle gives it depth and it's really neat,21,260,20","4"
"7544","","survey-text","96","356121","0.0-94.0-0.0","AIUKV0KVALMY6","","","","{""Q0"":""this is somebodys period""}","","","","","","","","","","","","","","","","","","","","","","",""
"2845.5","","image-slider-response","97","358968","0.0-95.0","AIUKV0KVALMY6","","","","","45","","","","","","","","","","","","","","","","","","","","","",""
"3971","","image-button-response","98","363971","0.0-96.0","AIUKV0KVALMY6","img_art/3.jpg","0","","","","","","","","","","","","","","","","","","","","","","","","",""
"881","","image-button-response","99","364853","0.0-97.0","AIUKV0KVALMY6","img_art/3.jpg","0","","","","","","","","","","","","","","","","","","","","","","","","",""
"4499","","image-button-response","100","369355","0.0-98.0-0.0","AIUKV0KVALMY6","img_art/3.jpg","3","","","","","","","","","","","","","","","","","","","","","","","","",""
"1253","","image-button-response","101","370611","0.0-99.0-0.0","AIUKV0KVALMY6","img_art/3.jpg","5","","","","","","","","","","","","","","","","","","","","","","","","",""
"null","","html-keyboard-response","102","372113","0.0-100.0","AIUKV0KVALMY6","<p style=""font-size: 48px;"">+</p>","","","","","null","allTrialResponses","1500","1","8","img_art/3.jpg","45","this is somebodys period","Shannon,Cynthia,Emma,Alicia,Michaela,Jordan","I can't tell what this image is supposed to be it looks extremely ugly and color variety is boring.,-50,220,20","This makes me feel vulnerable,-32,320,20","Feels upset .......,-10,60,20","scribbles in red. 2 minute piece.,-30,120,20","It looks like someone took a red sharpie and just scribbled angrily,-20,260,20","i don't like this, just looks like scribbles,-50,20,20","Shannon","I can't tell what this image is supposed to be it looks extremely ugly and color variety is boring.,-50,220,20","Alicia","scribbles in red. 2 minute piece.,-30,120,20","Jordan","i don't like this, just looks like scribbles,-50,20,20","4"
"7688","","survey-text","103","379805","0.0-101.0-0.0","AIUKV0KVALMY6","","","","{""Q0"":""a serial killers lawn""}","","","","","","","","","","","","","","","","","","","","","","",""
"1630.2999999523163","","image-slider-response","104","381438","0.0-102.0","AIUKV0KVALMY6","","","","","30","","","","","","","","","","","","","","","","","","","","","",""
"4787","","image-button-response","105","386441","0.0-103.0","AIUKV0KVALMY6","img_art/20.jpg","5","","","","","","","","","","","","","","","","","","","","","","","","",""
"464","","image-button-response","106","386907","0.0-104.0","AIUKV0KVALMY6","img_art/20.jpg","5","","","","","","","","","","","","","","","","","","","","","","","","",""
"2981","","image-button-response","107","389890","0.0-105.0-0.0","AIUKV0KVALMY6","img_art/20.jpg","4","","","","","","","","","","","","","","","","","","","","","","","","",""
"1388","","image-button-response","108","391281","0.0-106.0-0.0","AIUKV0KVALMY6","img_art/20.jpg","2","","","","","","","","","","","","","","","","","","","","","","","","",""
"null","","html-keyboard-response","109","392283","0.0-107.0","AIUKV0KVALMY6","<p style=""font-size: 48px;"">+</p>","","","","","null","allTrialResponses","1000","1","9","img_art/20.jpg","30","a serial killers lawn","Shannon,Bailey,Shelby,Alicia,Anna,Jordan","I really like this. There are lots of objects the artist wanted to show and the colors are good.,38,220,20","A bit hectic, but it does have a bit of coolness to it,6,360,20","Makes me think if a car crash or some sort of disaster,-20,240,20","Very cool, and calming (again) Love it.,47,120,20","I would like it more without the frame.,10,300,20","It's okay, I see what looks like a truck laying on it's side. Meh,10,20,20","Jordan","It's okay, I see what looks like a truck laying on it's side. Meh,10,20,20","Anna","I would like it more without the frame.,10,300,20","Shelby","Makes me think if a car crash or some sort of disaster,-20,240,20","4"
"6589","","survey-text","110","398878","0.0-108.0-0.0","AIUKV0KVALMY6","","","","{""Q0"":""a piece of poop""}","","","","","","","","","","","","","","","","","","","","","","",""
"2621.400000035763","","image-slider-response","111","401501","0.0-109.0","AIUKV0KVALMY6","","","","","-27","","","","","","","","","","","","","","","","","","","","","",""
"null","","image-button-response","112","406505","0.0-110.0","AIUKV0KVALMY6","img_art/27.jpg","null","","","","","","","","","","","","","","","","","","","","","","","","",""
"1870","","image-button-response","113","408377","0.0-111.0","AIUKV0KVALMY6","img_art/27.jpg","4","","","","","","","","","","","","","","","","","","","","","","","","",""
"1862","","image-button-response","114","410241","0.0-112.0-0.0","AIUKV0KVALMY6","img_art/27.jpg","5","","","","","","","","","","","","","","","","","","","","","","","","",""
"997","","image-button-response","115","411240","0.0-113.0-0.0","AIUKV0KVALMY6","img_art/27.jpg","1","","","","","","","","","","","","","","","","","","","","","","","","",""
"null","","html-keyboard-response","116","412743","0.0-114.0","AIUKV0KVALMY6","<p style=""font-size: 48px;"">+</p>","","","","","null","allTrialResponses","1500","1","10","img_art/27.jpg","-27","a piece of poop","Angelica,Caroline,Shelby,Rebecca,Anna,Jordan","This looks like a poor copy of Cy Twombly's style.,-3,280,20","Didnt actually make me feel anything, sort of bland,3,100,20","The colors in this one are wonderful,20,240,20","don't understand, the green induces confusion,1,100,20","It looks like when my little sister took magic markers to the wall.,-11,300,20","two warring cities, separated by a small desert,50,20,20","Anna","It looks like when my little sister took magic markers to the wall.,-11,300,20","Jordan","two warring cities, separated by a small desert,50,20,20","Caroline","Didnt actually make me feel anything, sort of bland,3,100,20","4"
"3270","","survey-text","117","416022","0.0-115.0-0.0","AIUKV0KVALMY6","","","","{""Q0"":""our""}","","","","","","","","","","","","","","","","","","","","","","",""
"8650","","survey-text","118","424674","0.0-116.0-0.0","AIUKV0KVALMY6","","","","{""Q0"":""two serial killers""}","","","","","","","","","","","","","","","","","","","","","","",""
"2612.5","","image-slider-response","119","427288","0.0-117.0","AIUKV0KVALMY6","","","","","25","","","","","","","","","","","","","","","","","","","","","",""
"null","","image-button-response","120","432293","0.0-118.0","AIUKV0KVALMY6","img_art/18.jpg","null","","","","","","","","","","","","","","","","","","","","","","","","",""
"200532","","image-button-response","121","632827","0.0-119.0","AIUKV0KVALMY6","img_art/18.jpg","5","","","","","","","","","","","","","","","","","","","","","","","","",""
"1021","","image-button-response","122","633850","0.0-120.0-0.0","AIUKV0KVALMY6","img_art/18.jpg","1","","","","","","","","","","","","","","","","","","","","","","","","",""
"621","","image-button-response","123","634473","0.0-121.0-0.0","AIUKV0KVALMY6","img_art/18.jpg","2","","","","","","","","","","","","","","","","","","","","","","","","",""
"null","","html-keyboard-response","124","635476","0.0-122.0","AIUKV0KVALMY6","<p style=""font-size: 48px;"">+</p>","","","","","null","allTrialResponses","1000","1","11","img_art/18.jpg","25","two serial killers","Abigail,Caroline,Caitlin,Kayla,Anna,Jordan","Interesting and capitvating to look at,19,20,20","I think of the ocean and a boat tossed about on the waves. In the upper left is a figure. It is pleasant,30,100,20","Bad guys are after the good guy.,-10,80,20","It's like a ship, but a freaky ship.,-11,180,20","I could spend a long time looking at it and see different things in the shapes.,21,300,20","Oh heck yes! I see two warriors riding down from valhalla, awesome painting,50,20,20","Jordan","Oh heck yes! I see two warriors riding down from valhalla, awesome painting,50,20,20","Caroline","I think of the ocean and a boat tossed about on the waves. In the upper left is a figure. It is pleasant,30,100,20","Caitlin","Bad guys are after the good guy.,-10,80,20","4"
"9721","","survey-text","125","645203","0.0-123.0-0.0","AIUKV0KVALMY6","","","","{""Q0"":""looks like crap""}","","","","","","","","","","","","","","","","","","","","","","",""
"21765.19999998808","","image-slider-response","126","666970","0.0-124.0","AIUKV0KVALMY6","","","","","2","","","","","","","","","","","","","","","","","","","","","",""
"null","","image-button-response","127","671973","0.0-125.0","AIUKV0KVALMY6","img_art/5.jpg","null","","","","","","","","","","","","","","","","","","","","","","","","",""
"1513","","image-button-response","128","673488","0.0-126.0","AIUKV0KVALMY6","img_art/5.jpg","4","","","","","","","","","","","","","","","","","","","","","","","","",""
"836","","image-button-response","129","674327","0.0-127.0-0.0","AIUKV0KVALMY6","img_art/5.jpg","5","","","","","","","","","","","","","","","","","","","","","","","","",""
"1102","","image-button-response","130","675431","0.0-128.0-0.0","AIUKV0KVALMY6","img_art/5.jpg","5","","","","","","","","","","","","","","","","","","","","","","","","",""
"1237","","image-button-response","131","678437","0.0-128.1-0.1","AIUKV0KVALMY6","img_art/5.jpg","3","","","","","","","","","","","","","","","","","","","","","","","","",""
"null","","html-keyboard-response","132","678940","0.0-129.0","AIUKV0KVALMY6","<p style=""font-size: 48px;"">+</p>","","","","","null","allTrialResponses","500","1","12","img_art/5.jpg","2","looks like crap","Sarah,Caroline,Caitlin,Stephanie,Courtney,Jordan","looks very childish,-35,180,20","Too much angular things happening, makes me think of stabbing something which makes me uncomfortable,-50,100,20","More kindergarten art class. Who buys this stuff?,-45,80,20","This did not do a thing for me.,-50,300,20","A rabbits head.,4,280,20","I dont really get anything from this,-25,20,20","Courtney","A rabbits head.,4,280,20","Jordan","I dont really get anything from this,-25,20,20","Stephanie","This did not do a thing for me.,-50,300,20","6"
"8432","","survey-text","133","687377","0.0-130.0-0.0","AIUKV0KVALMY6","","","","{""Q0"":""nice and trippy""}","","","","","","","","","","","","","","","","","","","","","","",""
"1877","","image-slider-response","134","689255","0.0-131.0","AIUKV0KVALMY6","","","","","16","","","","","","","","","","","","","","","","","","","","","",""
"4381","","image-button-response","135","694258","0.0-132.0","AIUKV0KVALMY6","img_art/11.jpg","2","","","","","","","","","","","","","","","","","","","","","","","","",""
"962","","image-button-response","136","695222","0.0-133.0","AIUKV0KVALMY6","img_art/11.jpg","0","","","","","","","","","","","","","","","","","","","","","","","","",""
"581","","image-button-response","137","695805","0.0-134.0-0.0","AIUKV0KVALMY6","img_art/11.jpg","2","","","","","","","","","","","","","","","","","","","","","","","","",""
"854","","image-button-response","138","696661","0.0-135.0-0.0","AIUKV0KVALMY6","img_art/11.jpg","1","","","","","","","","","","","","","","","","","","","","","","","","",""
"null","","html-keyboard-response","139","697165","0.0-136.0","AIUKV0KVALMY6","<p style=""font-size: 48px;"">+</p>","","","","","null","allTrialResponses","500","1","13","img_art/11.jpg","16","nice and trippy","Danielle,Molly,Makayla,Stephanie,Courtney,Jordan","Reminds me of some of post-apocalyptic view of street lights or maybe a city,30,340,20","Astounding, extraordinary.,25,340,20","Smoggy, oily, industrial. Don't like,1,80,20","Rainy dreary day in a town.,7,300,20","Thats a creepy old rollercoasters abandoned,-2,280,20","Oh, I love this one, it says to me that life is very busy,50,20,20","Danielle","Reminds me of some of post-apocalyptic view of street lights or maybe a city,30,340,20","Makayla","Smoggy, oily, industrial. Don't like,1,80,20","Molly","Astounding, extraordinary.,25,340,20","6"
"5440","","survey-text","140","702610","0.0-137.0-0.0","AIUKV0KVALMY6","","","","{""Q0"":""its garbage""}","","","","","","","","","","","","","","","","","","","","","","",""
"1622.5999999642372","","image-slider-response","141","704234","0.0-138.0","AIUKV0KVALMY6","","","","","-17","","","","","","","","","","","","","","","","","","","","","",""
"3963","","image-button-response","142","709237","0.0-139.0","AIUKV0KVALMY6","img_art/26.jpg","5","","","","","","","","","","","","","","","","","","","","","","","","",""
"776","","image-button-response","143","710016","0.0-140.0","AIUKV0KVALMY6","img_art/26.jpg","5","","","","","","","","","","","","","","","","","","","","","","","","",""
"1092","","image-button-response","144","711110","0.0-141.0-0.0","AIUKV0KVALMY6","img_art/26.jpg","2","","","","","","","","","","","","","","","","","","","","","","","","",""
"926","","image-button-response","145","712039","0.0-142.0-0.0","AIUKV0KVALMY6","img_art/26.jpg","0","","","","","","","","","","","","","","","","","","","","","","","","",""
"null","","html-keyboard-response","146","713541","0.0-143.0","AIUKV0KVALMY6","<p style=""font-size: 48px;"">+</p>","","","","","null","allTrialResponses","1500","1","14","img_art/26.jpg","-17","its garbage","Danielle,Molly,Makayla,Natalie,Hailey,Kelly","It's a little too yellow-y for me, I'm not a huge fan of the color schemes or setting it portrays.,-20,340,20","Nothing to say.,0,340,20","Reminds me of a European street, I desire to walk in this picture,28,80,20","picture looks alright,1,400,20","bedroom in the outdoors. warm,9,200,20","Very subdued, but wouldn't give it a 2nd notice.,4,220,20","Kelly","Very subdued, but wouldn't give it a 2nd notice.,4,220,20","Makayla","Reminds me of a European street, I desire to walk in this picture,28,80,20","Danielle","It's a little too yellow-y for me, I'm not a huge fan of the color schemes or setting it portrays.,-20,340,20","6"
"7224","","survey-text","147","720770","0.0-144.0-0.0","AIUKV0KVALMY6","","","","{""Q0"":""I don't like the white""}","","","","","","","","","","","","","","","","","","","","","","",""
"1317.6000000238419","","image-slider-response","148","722089","0.0-145.0","AIUKV0KVALMY6","","","","","-33","","","","","","","","","","","","","","","","","","","","","",""
"4093","","image-button-response","149","727093","0.0-146.0","AIUKV0KVALMY6","img_art/14.jpg","0","","","","","","","","","","","","","","","","","","","","","","","","",""
"704","","image-button-response","150","727799","0.0-147.0","AIUKV0KVALMY6","img_art/14.jpg","0","","","","","","","","","","","","","","","","","","","","","","","","",""
"2645","","image-button-response","151","730446","0.0-148.0-0.0","AIUKV0KVALMY6","img_art/14.jpg","1","","","","","","","","","","","","","","","","","","","","","","","","",""
"1812","","image-button-response","152","732261","0.0-149.0-0.0","AIUKV0KVALMY6","img_art/14.jpg","5","","","","","","","","","","","","","","","","","","","","","","","","",""
"null","","html-keyboard-response","153","732763","0.0-150.0","AIUKV0KVALMY6","<p style=""font-size: 48px;"">+</p>","","","","","null","allTrialResponses","500","1","15","img_art/14.jpg","-33","I don't like the white","Danielle,Kylie,Makayla,Olivia,Alexa,Kelly","Too much yellow in this image, i'm not a fan of art that is overly-saturated with yellow,-30,340,20","Confusion or an explosion,40,300,20","I like that it's like a snippet of a field in the desert,21,80,20","tree of life brings hope,7,40,20","Very abstract and colorful,40,40,20","Its cute, but not my favorite.,8,220,20","Danielle","Too much yellow in this image, i'm not a fan of art that is overly-saturated with yellow,-30,340,20","Kylie","Confusion or an explosion,40,300,20","Kelly","Its cute, but not my favorite.,8,220,20","6"
"3790","","survey-text","154","736563","0.0-151.0-0.0","AIUKV0KVALMY6","","","","{""Q0"":""course""}","","","","","","","","","","","","","","","","","","","","","","",""
"5060","","survey-text","155","741625","0.0-152.0-0.0","AIUKV0KVALMY6","","","","{""Q0"":""I love the colors""}","","","","","","","","","","","","","","","","","","","","","","",""
"1885.4000000357628","","image-slider-response","156","743512","0.0-153.0","AIUKV0KVALMY6","","","","","35","","","","","","","","","","","","","","","","","","","","","",""
"3956","","image-button-response","157","748516","0.0-154.0","AIUKV0KVALMY6","img_art/21.jpg","0","","","","","","","","","","","","","","","","","","","","","","","","",""
"1175","","image-button-response","158","749693","0.0-155.0","AIUKV0KVALMY6","img_art/21.jpg","0","","","","","","","","","","","","","","","","","","","","","","","","",""
"1613","","image-button-response","159","751308","0.0-156.0-0.0","AIUKV0KVALMY6","img_art/21.jpg","3","","","","","","","","","","","","","","","","","","","","","","","","",""
"493","","image-button-response","160","751804","0.0-157.0-0.0","AIUKV0KVALMY6","img_art/21.jpg","4","","","","","","","","","","","","","","","","","","","","","","","","",""
"null","","html-keyboard-response","161","752807","0.0-158.0","AIUKV0KVALMY6","<p style=""font-size: 48px;"">+</p>","","","","","null","allTrialResponses","1000","1","16","img_art/21.jpg","35","I love the colors","Danielle,Kylie,Jasmine,Sabrina,Kaylee,Kelly","I like it. It's some of war-scene, bloodshed and battle on the left, field of dispair on the right, dark and rich,40,340,20","Makes me think of a battleship targeting a beautiful mountainside,0,300,20","The blues make me feel sadder as my mood is already not the best right now,-10,340,20","I like the representation of love and hate in this,43,120,20","looks like a sea during some war,27,200,20","It actually reminded me of a place I've been to. So I had a positive reaction to it.,22,220,20","Danielle","I like it. It's some of war-scene, bloodshed and battle on the left, field of dispair on the right, dark and rich,40,340,20","Sabrina","I like the representation of love and hate in this,43,120,20","Kaylee","looks like a sea during some war,27,200,20","6"
"7777","","survey-text","162","760591","0.0-159.0-0.0","AIUKV0KVALMY6","","","","{""Q0"":""like a scene in africa""}","","","","","","","","","","","","","","","","","","","","","","",""
"1612.8999999761581","","image-slider-response","163","762206","0.0-160.0","AIUKV0KVALMY6","","","","","38","","","","","","","","","","","","","","","","","","","","","",""
"4165","","image-button-response","164","767209","0.0-161.0","AIUKV0KVALMY6","img_art/25.jpg","4","","","","","","","","","","","","","","","","","","","","","","","","",""
"1993","","image-button-response","165","769203","0.0-162.0","AIUKV0KVALMY6","img_art/25.jpg","4","","","","","","","","","","","","","","","","","","","","","","","","",""
"494","","image-button-response","166","769700","0.0-163.0-0.0","AIUKV0KVALMY6","img_art/25.jpg","5","","","","","","","","","","","","","","","","","","","","","","","","",""
"661","","image-button-response","167","770363","0.0-164.0-0.0","AIUKV0KVALMY6","img_art/25.jpg","1","","","","","","","","","","","","","","","","","","","","","","","","",""
"null","","html-keyboard-response","168","770865","0.0-165.0","AIUKV0KVALMY6","<p style=""font-size: 48px;"">+</p>","","","","","null","allTrialResponses","500","1","17","img_art/25.jpg","38","like a scene in africa","Danielle,Alexandria,Breanna,Sabrina,Kaylee,Destiny","I like it, a bit cryptic and obscene, I enjoy that,30,340,20","the contrasting colors are very interesting,24,80,20","Makes me feel intrigued,13,380,20","New life, rising from your personal battles,50,120,20","is this an ancient woman?,-16,200,20","creeeeeppyyyyyyy but mad cool,-26,360,20","Kaylee","is this an ancient woman?,-16,200,20","Destiny","creeeeeppyyyyyyy but mad cool,-26,360,20","Alexandria","the contrasting colors are very interesting,24,80,20","6"
"10727","","survey-text","169","781597","0.0-166.0-0.0","AIUKV0KVALMY6","","","","{""Q0"":""a clam at the bottom of the ocean""}","","","","","","","","","","","","","","","","","","","","","","",""
"1820.800000011921","","image-slider-response","170","783420","0.0-167.0","AIUKV0KVALMY6","","","","","33","","","","","","","","","","","","","","","","","","","","","",""
"3565","","image-button-response","171","788424","0.0-168.0","AIUKV0KVALMY6","img_art/9.jpg","0","","","","","","","","","","","","","","","","","","","","","","","","",""
"920","","image-button-response","172","789346","0.0-169.0","AIUKV0KVALMY6","img_art/9.jpg","0","","","","","","","","","","","","","","","","","","","","","","","","",""
"1461","","image-button-response","173","790810","0.0-170.0-0.0","AIUKV0KVALMY6","img_art/9.jpg","3","","","","","","","","","","","","","","","","","","","","","","","","",""
"814","","image-button-response","174","791626","0.0-171.0-0.0","AIUKV0KVALMY6","img_art/9.jpg","4","","","","","","","","","","","","","","","","","","","","","","","","",""
"null","","html-keyboard-response","175","793129","0.0-172.0","AIUKV0KVALMY6","<p style=""font-size: 48px;"">+</p>","","","","","null","allTrialResponses","1500","1","18","img_art/9.jpg","33","a clam at the bottom of the ocean","Alyssa,Alexandria,Madison,Catherine,Kaylee,Destiny","Unpleasant, alot of dark colors and strange lines,-26,160,20","it makes me feel excited and draws my eye around,24,80,20","No cohesive form whatsoever. Hard pass.,-31,60,20","Cozy, In her own world. feminine .,30,160,20","not my type of art,-33,200,20","is that sleeping beauty,33,360,20","Alyssa","Unpleasant, alot of dark colors and strange lines,-26,160,20","Catherine","Cozy, In her own world. feminine .,30,160,20","Kaylee","not my type of art,-33,200,20","6"
"5647","","survey-text","176","798781","0.0-173.0-0.0","AIUKV0KVALMY6","","","","{""Q0"":""I like the colors""}","","","","","","","","","","","","","","","","","","","","","","",""
"1566.3999999761581","","image-slider-response","177","800349","0.0-174.0","AIUKV0KVALMY6","","","","","27","","","","","","","","","","","","","","","","","","","","","",""
"4764","","image-button-response","178","805353","0.0-175.0","AIUKV0KVALMY6","img_art/22.jpg","4","","","","","","","","","","","","","","","","","","","","","","","","",""
"481","","image-button-response","179","805835","0.0-176.0","AIUKV0KVALMY6","img_art/22.jpg","4","","","","","","","","","","","","","","","","","","","","","","","","",""
"477","","image-button-response","180","806314","0.0-177.0-0.0","AIUKV0KVALMY6","img_art/22.jpg","3","","","","","","","","","","","","","","","","","","","","","","","","",""
"918","","image-button-response","181","807234","0.0-178.0-0.0","AIUKV0KVALMY6","img_art/22.jpg","5","","","","","","","","","","","","","","","","","","","","","","","","",""
"null","","html-keyboard-response","182","808736","0.0-179.0","AIUKV0KVALMY6","<p style=""font-size: 48px;"">+</p>","","","","","null","allTrialResponses","1500","1","19","img_art/22.jpg","27","I like the colors","Alyssa,Gabriela,Melissa,Catherine,Kaylee,Erin","Its okay,it doesnt make me feel any sort of strong emotion,1,160,20","Neither like nor dislike it. The red, yellow and blue colors are bright but I don't know what it's meant to be.,1,140,20","strong blending skills,7,240,20","Scary monsters lurking causing confusion.,-40,160,20","its just ugly for me,-50,200,20","Seems dated with geometic forms,-20,120,20","Kaylee","its just ugly for me,-50,200,20","Catherine","Scary monsters lurking causing confusion.,-40,160,20","Erin","Seems dated with geometic forms,-20,120,20","6"
"4977","","survey-text","183","813720","0.0-180.0-0.0","AIUKV0KVALMY6","","","","{""Q0"":""so many dots""}","","","","","","","","","","","","","","","","","","","","","","",""
"2212.400000035763","","image-slider-response","184","815934","0.0-181.0","AIUKV0KVALMY6","","","","","23","","","","","","","","","","","","","","","","","","","","","",""
"2285","","image-button-response","185","820937","0.0-182.0","AIUKV0KVALMY6","img_art/23.jpg","1","","","","","","","","","","","","","","","","","","","","","","","","",""
"209","","image-button-response","186","821148","0.0-183.0","AIUKV0KVALMY6","img_art/23.jpg","1","","","","","","","","","","","","","","","","","","","","","","","","",""
"1973","","image-button-response","187","823123","0.0-184.0-0.0","AIUKV0KVALMY6","img_art/23.jpg","3","","","","","","","","","","","","","","","","","","","","","","","","",""
"511","","image-button-response","188","823636","0.0-185.0-0.0","AIUKV0KVALMY6","img_art/23.jpg","4","","","","","","","","","","","","","","","","","","","","","","","","",""
"null","","html-keyboard-response","189","825138","0.0-186.0","AIUKV0KVALMY6","<p style=""font-size: 48px;"">+</p>","","","","","null","allTrialResponses","1500","1","20","img_art/23.jpg","23","so many dots","Gabrielle,Amanda,Mackenzie,Catherine,Kaylee,Erin","it's OK, but just OK, kind of interesting but I wouldn't spend money on it,4,160,20","One of my favorites, love the colors and how the white looks like humans,50,180,20","The usage of color is great, but not my style.,-15,20,20","Partying, dancing, delusion, kaus.,10,160,20","i completely dont get it,-47,200,20","Confetti dancer,-7,120,20","Amanda","One of my favorites, love the colors and how the white looks like humans,50,180,20","Catherine","Partying, dancing, delusion, kaus.,10,160,20","Kaylee","i completely dont get it,-47,200,20","6"
"3495","","survey-text","190","828649","0.0-187.0-0.0","AIUKV0KVALMY6","","","","{""Q0"":""we""}","","","","","","","","","","","","","","","","","","","","","","",""
"8122","","survey-text","191","836772","0.0-188.0-0.0","AIUKV0KVALMY6","","","","{""Q0"":""very abstract""}","","","","","","","","","","","","","","","","","","","","","","",""
"2245.300000011921","","image-slider-response","192","839019","0.0-189.0","AIUKV0KVALMY6","","","","","26","","","","","","","","","","","","","","","","","","","","","",""
"3453","","image-button-response","193","844021","0.0-190.0","AIUKV0KVALMY6","img_art/12.jpg","1","","","","","","","","","","","","","","","","","","","","","","","","",""
"658","","image-button-response","194","844682","0.0-191.0","AIUKV0KVALMY6","img_art/12.jpg","1","","","","","","","","","","","","","","","","","","","","","","","","",""
"710","","image-button-response","195","845393","0.0-192.0-0.0","AIUKV0KVALMY6","img_art/12.jpg","2","","","","","","","","","","","","","","","","","","","","","","","","",""
"660","","image-button-response","196","846057","0.0-193.0-0.0","AIUKV0KVALMY6","img_art/12.jpg","5","","","","","","","","","","","","","","","","","","","","","","","","",""
"null","","html-keyboard-response","197","846560","0.0-194.0","AIUKV0KVALMY6","<p style=""font-size: 48px;"">+</p>","","","","","null","allTrialResponses","500","1","21","img_art/12.jpg","26","very abstract","Lauren,Amanda,Sara,Catherine,Kaylee,Brianna","This doesn't invoke anything. Just a mosaic of random images.,0,340,20","The colors are beautiful and it has great composition,50,180,20","I don't like the blocking,-20,160,20","confused. stages of a persons life from beginning positive to ending negative.,-10,160,20","wtf is that i dont get it,-50,200,20","Don't like it or despise it,1,20,20","Amanda","The colors are beautiful and it has great composition,50,180,20","Sara","I don't like the blocking,-20,160,20","Brianna","Don't like it or despise it,1,20,20","6"
"7839","","survey-text","198","854404","0.0-195.0-0.0","AIUKV0KVALMY6","","","","{""Q0"":""looks like urine""}","","","","","","","","","","","","","","","","","","","","","","",""
"2197.099999964237","","image-slider-response","199","856603","0.0-196.0","AIUKV0KVALMY6","","","","","25","","","","","","","","","","","","","","","","","","","","","",""
"1901","","image-button-response","200","861606","0.0-197.0","AIUKV0KVALMY6","img_art/4.jpg","2","","","","","","","","","","","","","","","","","","","","","","","","",""
"689","","image-button-response","201","862298","0.0-198.0","AIUKV0KVALMY6","img_art/4.jpg","2","","","","","","","","","","","","","","","","","","","","","","","","",""
"1708","","image-button-response","202","864010","0.0-199.0-0.0","AIUKV0KVALMY6","img_art/4.jpg","3","","","","","","","","","","","","","","","","","","","","","","","","",""
"484","","image-button-response","203","864497","0.0-200.0-0.0","AIUKV0KVALMY6","img_art/4.jpg","4","","","","","","","","","","","","","","","","","","","","","","","","",""
"null","","html-keyboard-response","204","866000","0.0-201.0","AIUKV0KVALMY6","<p style=""font-size: 48px;"">+</p>","","","","","null","allTrialResponses","1500","1","22","img_art/4.jpg","25","looks like urine","Mariah,Amanda,Sara,Erika,Chloe,Brianna","Movement. Snakes. Hair. The uncertainty makes my eye return.,21,140,20","Looks like an abstract version of the Scream painting,-50,180,20","Random swirls again,-30,160,20","Reminds me of late night frustrated paintings of my own made of coffee,12,100,20","Great movement but don't love the yellowy tones.,31,220,20","Really don't care for the yellowish brown color in the center.,-19,20,20","Sara","Random swirls again,-30,160,20","Erika","Reminds me of late night frustrated paintings of my own made of coffee,12,100,20","Chloe","Great movement but don't love the yellowy tones.,31,220,20","6"
"7669","","survey-text","205","873675","0.0-202.0-0.0","AIUKV0KVALMY6","","","","{""Q0"":""looks like a chinese painting""}","","","","","","","","","","","","","","","","","","","","","","",""
"1414.0999999642372","","image-slider-response","206","875091","0.0-203.0","AIUKV0KVALMY6","","","","","20","","","","","","","","","","","","","","","","","","","","","",""
"1030","","image-button-response","207","880096","0.0-204.0","AIUKV0KVALMY6","img_art/13.jpg","1","","","","","","","","","","","","","","","","","","","","","","","","",""
"670","","image-button-response","208","880769","0.0-205.0","AIUKV0KVALMY6","img_art/13.jpg","4","","","","","","","","","","","","","","","","","","","","","","","","",""
"926","","image-button-response","209","881697","0.0-206.0-0.0","AIUKV0KVALMY6","img_art/13.jpg","1","","","","","","","","","","","","","","","","","","","","","","","","",""
"404","","image-button-response","210","882104","0.0-207.0-0.0","AIUKV0KVALMY6","img_art/13.jpg","0","","","","","","","","","","","","","","","","","","","","","","","","",""
"null","","html-keyboard-response","211","882607","0.0-208.0","AIUKV0KVALMY6","<p style=""font-size: 48px;"">+</p>","","","","","null","allTrialResponses","500","1","23","img_art/13.jpg","20","looks like a chinese painting","Paige,Alexandra,Sara,Erika,Chloe,Christina","Pleased. I like to combination of colors,17,60,20","I do like the blue colors in this.,12,60,20","I love the different blue shades,31,160,20","Gorgeous contrast and color choice, very pleasing,50,100,20","Industrial Jackson Pollock knock-off,-20,220,20","i like the colors but it looks like something that would hang in a hotel,18,240,20","Chloe","Industrial Jackson Pollock knock-off,-20,220,20","Alexandra","I do like the blue colors in this.,12,60,20","Paige","Pleased. I like to combination of colors,17,60,20","6"
"5192","","survey-text","212","887805","0.0-209.0-0.0","AIUKV0KVALMY6","","","","{""Q0"":""just more stripes""}","","","","","","","","","","","","","","","","","","","","","","",""
"1724.9000000357628","","image-slider-response","213","889532","0.0-210.0","AIUKV0KVALMY6","","","","","-14","","","","","","","","","","","","","","","","","","","","","",""
"4229","","image-button-response","214","894534","0.0-211.0","AIUKV0KVALMY6","img_art/30.jpg","4","","","","","","","","","","","","","","","","","","","","","","","","",""
"1066","","image-button-response","215","895602","0.0-212.0","AIUKV0KVALMY6","img_art/30.jpg","4","","","","","","","","","","","","","","","","","","","","","","","","",""
"398","","image-button-response","216","896002","0.0-213.0-0.0","AIUKV0KVALMY6","img_art/30.jpg","5","","","","","","","","","","","","","","","","","","","","","","","","",""
"438","","image-button-response","217","896442","0.0-214.0-0.0","AIUKV0KVALMY6","img_art/30.jpg","3","","","","","","","","","","","","","","","","","","","","","","","","",""
"null","","html-keyboard-response","218","896945","0.0-215.0","AIUKV0KVALMY6","<p style=""font-size: 48px;"">+</p>","","","","","null","allTrialResponses","500","1","24","img_art/30.jpg","-14","just more stripes","Paige,Alexandra,Brooke,Dominique,Chloe,Tiffany","Happy. Makes me think of childhood finger painting,49,60,20","I really love the pastel colors and the 3D design in this,43,60,20","Like the color and style,31,60,20","Personal , calming conservative signature business ideal.,32,400,20","Muddy, sloppy, unprofessional,-44,220,20","The painting doesn't elicit any response from me.,0,360,20","Chloe","Muddy, sloppy, unprofessional,-44,220,20","Tiffany","The painting doesn't elicit any response from me.,0,360,20","Dominique","Personal , calming conservative signature business ideal.,32,400,20","6"
"6656","","survey-text","219","903606","0.0-216.0-0.0","AIUKV0KVALMY6","","","","{""Q0"":""another boring tree""}","","","","","","","","","","","","","","","","","","","","","","",""
"2301.099999964237","","image-slider-response","220","905909","0.0-217.0","AIUKV0KVALMY6","","","","","-24","","","","","","","","","","","","","","","","","","","","","",""
"4492","","image-button-response","221","910913","0.0-218.0","AIUKV0KVALMY6","img_art/17.jpg","4","","","","","","","","","","","","","","","","","","","","","","","","",""
"760","","image-button-response","222","911675","0.0-219.0","AIUKV0KVALMY6","img_art/17.jpg","4","","","","","","","","","","","","","","","","","","","","","","","","",""
"910","","image-button-response","223","912586","0.0-220.0-0.0","AIUKV0KVALMY6","img_art/17.jpg","1","","","","","","","","","","","","","","","","","","","","","","","","",""
"381","","image-button-response","224","912970","0.0-221.0-0.0","AIUKV0KVALMY6","img_art/17.jpg","0","","","","","","","","","","","","","","","","","","","","","","","","",""
"null","","html-keyboard-response","225","913472","0.0-222.0","AIUKV0KVALMY6","<p style=""font-size: 48px;"">+</p>","","","","","null","allTrialResponses","500","1","25","img_art/17.jpg","-24","another boring tree","Megan,Katelyn,Emily,Dominique,Chloe,Tiffany","2 paintings in 1 with shared colors,5,200,20","Doesnt completely turn me off but wouldnt look twice,-3,100,20","There is better structure and direction in this one.,19,40,20","Another favorite a relaxing day with nature a day to take it all In,34,400,20","Pretty but a little cheesy,-10,220,20","The painting makes me feel relaxed, and a bit lonely, like I'm sitting at a park waiting for someone.,30,360,20","Chloe","Pretty but a little cheesy,-10,220,20","Katelyn","Doesnt completely turn me off but wouldnt look twice,-3,100,20","Megan","2 paintings in 1 with shared colors,5,200,20","6"
"4490","","survey-text","226","917976","0.0-223.0-0.0","AIUKV0KVALMY6","","","","{""Q0"":""table""}","","","","","","","","","","","","","","","","","","","","","","",""
"7627","","survey-text","227","925604","0.0-224.0-0.0","AIUKV0KVALMY6","","","","{""Q0"":""van gogh style""}","","","","","","","","","","","","","","","","","","","","","","",""
"2500.699999988079","","image-slider-response","228","928108","0.0-225.0","AIUKV0KVALMY6","","","","","17","","","","","","","","","","","","","","","","","","","","","",""
"2316","","image-button-response","229","933112","0.0-226.0","AIUKV0KVALMY6","img_art/2.jpg","4","","","","","","","","","","","","","","","","","","","","","","","","",""
"551","","image-button-response","230","933665","0.0-227.0","AIUKV0KVALMY6","img_art/2.jpg","4","","","","","","","","","","","","","","","","","","","","","","","","",""
"438","","image-button-response","231","934105","0.0-228.0-0.0","AIUKV0KVALMY6","img_art/2.jpg","3","","","","","","","","","","","","","","","","","","","","","","","","",""
"1277","","image-button-response","232","935383","0.0-229.0-0.0","AIUKV0KVALMY6","img_art/2.jpg","1","","","","","","","","","","","","","","","","","","","","","","","","",""
"null","","html-keyboard-response","233","936884","0.0-230.0","AIUKV0KVALMY6","<p style=""font-size: 48px;"">+</p>","","","","","null","allTrialResponses","1500","1","26","img_art/2.jpg","17","van gogh style","Megan,Katelyn,Victoria,Jacqueline,Chloe,Lindsey","Colors and space work but the top scribbled killed it.,11,200,20","Looks childish and i dont like the texture,-25,100,20","I like the colors,22,400,20","A bit ugly with the greens.,-20,300,20","The color choices and lines seem a bit sloppy?,-10,220,20","Not a fan of the colors or the style.,-31,400,20","Chloe","The color choices and lines seem a bit sloppy?,-10,220,20","Jacqueline","A bit ugly with the greens.,-20,300,20","Katelyn","Looks childish and i dont like the texture,-25,100,20","6"
"6992","","survey-text","234","943883","0.0-231.0-0.0","AIUKV0KVALMY6","","","","{""Q0"":""trees here""}","","","","","","","","","","","","","","","","","","","","","","",""
"1374.8999999761581","","image-slider-response","235","945260","0.0-232.0","AIUKV0KVALMY6","","","","","41","","","","","","","","","","","","","","","","","","","","","",""
"2276","","image-button-response","236","950263","0.0-233.0","AIUKV0KVALMY6","img_art/15.jpg","1","","","","","","","","","","","","","","","","","","","","","","","","",""
"520","","image-button-response","237","950785","0.0-234.0","AIUKV0KVALMY6","img_art/15.jpg","1","","","","","","","","","","","","","","","","","","","","","","","","",""
"702","","image-button-response","238","951489","0.0-235.0-0.0","AIUKV0KVALMY6","img_art/15.jpg","2","","","","","","","","","","","","","","","","","","","","","","","","",""
"549","","image-button-response","239","952041","0.0-236.0-0.0","AIUKV0KVALMY6","img_art/15.jpg","4","","","","","","","","","","","","","","","","","","","","","","","","",""
"null","","html-keyboard-response","240","953543","0.0-237.0","AIUKV0KVALMY6","<p style=""font-size: 48px;"">+</p>","","","","","null","allTrialResponses","1500","1","27","img_art/15.jpg","41","trees here","Mikayla,Katelyn,Kathryn,Jacqueline,Chloe,Morgan","The dots are cool with the blue accents.,24,300,20","Doesnt trigger much of a reaction overall,-2,100,20","This is looking at a forest from above. I can see water and some pathways throughout. Nature.,20,140,20","I don't like how the black dots are aligned.,-20,300,20","Like the composition and lines,26,220,20","Leafs spread on the ground.,27,380,20","Katelyn","Doesnt trigger much of a reaction overall,-2,100,20","Kathryn","This is looking at a forest from above. I can see water and some pathways throughout. Nature.,20,140,20","Chloe","Like the composition and lines,26,220,20","6"
"7447","","survey-text","241","960996","0.0-238.0-0.0","AIUKV0KVALMY6","","","","{""Q0"":""its dull and depressing""}","","","","","","","","","","","","","","","","","","","","","","",""
"2524.199999988079","","image-slider-response","242","963522","0.0-239.0","AIUKV0KVALMY6","","","","","-35","","","","","","","","","","","","","","","","","","","","","",""
"4636","","image-button-response","243","968524","0.0-240.0","AIUKV0KVALMY6","img_art/10.jpg","4","","","","","","","","","","","","","","","","","","","","","","","","",""
"771","","image-button-response","244","969296","0.0-241.0","AIUKV0KVALMY6","img_art/10.jpg","4","","","","","","","","","","","","","","","","","","","","","","","","",""
"422","","image-button-response","245","969720","0.0-242.0-0.0","AIUKV0KVALMY6","img_art/10.jpg","3","","","","","","","","","","","","","","","","","","","","","","","","",""
"1365","","image-button-response","246","971087","0.0-243.0-0.0","AIUKV0KVALMY6","img_art/10.jpg","2","","","","","","","","","","","","","","","","","","","","","","","","",""
"null","","html-keyboard-response","247","972591","0.0-244.0","AIUKV0KVALMY6","<p style=""font-size: 48px;"">+</p>","","","","","null","allTrialResponses","1500","1","28","img_art/10.jpg","-35","its dull and depressing","Vanessa,Katelyn,Kathryn,Autumn,Chloe,Angela","It's interesting and my eyes keep being drawn to different parts of the picture.,11,380,20","It makes me think of music and i love the reflective aspect,29,100,20","This piece makes me think of music. The music is dark; I like dark music so it edges toward good.,10,140,20","It just looks like a dirty stain.,-38,340,20","Don't like the colorblock but the lines are nice,-20,220,20","This makes me think of a city, specifically London.,20,260,20","Chloe","Don't like the colorblock but the lines are nice,-20,220,20","Autumn","It just looks like a dirty stain.,-38,340,20","Kathryn","This piece makes me think of music. The music is dark; I like dark music so it edges toward good.,10,140,20","6"
"11171","","survey-text","248","983769","0.0-245.0-0.0","AIUKV0KVALMY6","","","","{""Q0"":""it is like the mind of a killer""}","","","","","","","","","","","","","","","","","","","","","","",""
"2468.899999976158","","image-slider-response","249","986240","0.0-246.0","AIUKV0KVALMY6","","","","","19","","","","","","","","","","","","","","","","","","","","","",""
"3773","","image-button-response","250","991244","0.0-247.0","AIUKV0KVALMY6","img_art/8.jpg","0","","","","","","","","","","","","","","","","","","","","","","","","",""
"744","","image-button-response","251","991989","0.0-248.0","AIUKV0KVALMY6","img_art/8.jpg","3","","","","","","","","","","","","","","","","","","","","","","","","",""
"815","","image-button-response","252","992807","0.0-249.0-0.0","AIUKV0KVALMY6","img_art/8.jpg","1","","","","","","","","","","","","","","","","","","","","","","","","",""
"493","","image-button-response","253","993301","0.0-250.0-0.0","AIUKV0KVALMY6","img_art/8.jpg","2","","","","","","","","","","","","","","","","","","","","","","","","",""
"null","","html-keyboard-response","254","993803","0.0-251.0","AIUKV0KVALMY6","<p style=""font-size: 48px;"">+</p>","","","","","null","allTrialResponses","500","1","29","img_art/8.jpg","19","it is like the mind of a killer","Heather,Cassandra,Kathryn,Autumn,Chloe,Kaitlin","woman looking over a the community,1,260,20","I like the colors and the scene.,24,120,20","The angle makes it kind of disorienting but I enjoy the fantastical colors and imagery. It's like a dream.,10,140,20","Well painted. Not my style.,27,340,20","Cheesy. A little too knock you over the dead with its message without making it emotional,-31,220,20","wow - the colors were very well mixed,12,60,20","Autumn","Well painted. Not my style.,27,340,20","Cassandra","I like the colors and the scene.,24,120,20","Kathryn","The angle makes it kind of disorienting but I enjoy the fantastical colors and imagery. It's like a dream.,10,140,20","6"
"6369","","survey-text","255","1000179","0.0-252.0-0.0","AIUKV0KVALMY6","","","","{""Q0"":""a piece of crap""}","","","","","","","","","","","","","","","","","","","","","","",""
"2317","","image-slider-response","256","1002498","0.0-253.0","AIUKV0KVALMY6","","","","","-29","","","","","","","","","","","","","","","","","","","","","",""
"4548","","image-button-response","257","1007501","0.0-254.0","AIUKV0KVALMY6","img_art/7.jpg","4","","","","","","","","","","","","","","","","","","","","","","","","",""
"744","","image-button-response","258","1008246","0.0-255.0","AIUKV0KVALMY6","img_art/7.jpg","1","","","","","","","","","","","","","","","","","","","","","","","","",""
"575","","image-button-response","259","1008823","0.0-256.0-0.0","AIUKV0KVALMY6","img_art/7.jpg","4","","","","","","","","","","","","","","","","","","","","","","","","",""
"788","","image-button-response","260","1009614","0.0-257.0-0.0","AIUKV0KVALMY6","img_art/7.jpg","5","","","","","","","","","","","","","","","","","","","","","","","","",""
"null","","html-keyboard-response","261","1010116","0.0-258.0","AIUKV0KVALMY6","<p style=""font-size: 48px;"">+</p>","","","","","null","allTrialResponses","500","1","30","img_art/7.jpg","-29","a piece of crap","Katherine,Cassandra,Kathryn,Autumn,Hannah,Maria","Reminds me of bugs, I hate bugs,-7,120,20","Just neutral...looks like sand at the beach.,3,120,20","It's off-putting because it reminds me of walking over rough sand/rocks or having scabs on my skin.,-10,140,20","Well done minimalism.,35,340,20","Looks almost like a photograph of nature.,11,240,20","elicits no real response,0,120,20","Cassandra","Just neutral...looks like sand at the beach.,3,120,20","Hannah","Looks almost like a photograph of nature.,11,240,20","Maria","elicits no real response,0,120,20","6"
"5983","","image-button-response_instructions","262","1016107","0.0-259.0","AIUKV0KVALMY6","","0","instructions","","","","","","","","","","","","","","","","","","","","","","","",""
