"rt","url","trial_type","trial_index","time_elapsed","internal_node_id","participant_id","stimulus","button_pressed","Name","responses","response","key_press","variableName","fixationTime","condition","trial","photo","subjectRating","subjectResponse","agentsNames","agent_1_Response","agent_2_Response","agent_3_Response","agent_4_Response","agent_5_Response","agent_6_Response","kept_1_name","kept_1_response","kept_2_name","kept_2_response","kept_3_name","kept_3_response","errorCounter"
"11195","external_page_harvard.html","external-html","0","11696","0.0-0.0","AJ7JFYKBG85ZV","","","","","","","","","","","","","","","","","","","","","","","","","","",""
"1296","","image-button-response","1","12994","0.0-1.0","AJ7JFYKBG85ZV","","1","","","","","","","","","","","","","","","","","","","","","","","","",""
"2278","","image-button-response","2","15279","0.0-2.0-0.0","AJ7JFYKBG85ZV","","1","phone","","","","","","","","","","","","","","","","","","","","","","","",""
"3961","","survey-text","3","19243","0.0-3.0-0.0","AJ7JFYKBG85ZV","","","","{""Q0"":""AJ7JFYKBG85ZV""}","","","","","","","","","","","","","","","","","","","","","","",""
"3035","","image-button-response_instructions","4","22282","0.0-4.0","AJ7JFYKBG85ZV","","0","instructions","","","","","","","","","","","","","","","","","","","","","","","",""
"7114","","image-button-response_instructions","5","29398","0.0-5.0","AJ7JFYKBG85ZV","img_art/ins/popularity/ins1.png","0","instructions","","","","","","","","","","","","","","","","","","","","","","","",""
"7825","","image-button-response_instructions","6","37223","0.0-6.0","AJ7JFYKBG85ZV","img_art/ins/popularity/ins2.png","0","instructions","","","","","","","","","","","","","","","","","","","","","","","",""
"2514","","image-button-response_instructions","7","39738","0.0-7.0","AJ7JFYKBG85ZV","img_art/ins/popularity/ins2Extreme.png","0","instructions","","","","","","","","","","","","","","","","","","","","","","","",""
"5593","","image-button-response_instructions","8","45332","0.0-8.0","AJ7JFYKBG85ZV","img_art/ins/popularity/ins3KEEPpop.PNG","0","instructions","","","","","","","","","","","","","","","","","","","","","","","",""
"3141","","image-button-response_instructions","9","48474","0.0-9.0","AJ7JFYKBG85ZV","img_art/ins/popularity/ins3ANamepop.PNG","0","instructions","","","","","","","","","","","","","","","","","","","","","","","",""
"2628","","image-button-response_instructions","10","51104","0.0-10.0","AJ7JFYKBG85ZV","img_art/ins/popularity/ins3ARatingpop.png","0","instructions","","","","","","","","","","","","","","","","","","","","","","","",""
"1580","","image-button-response_instructions","11","52684","0.0-11.0","AJ7JFYKBG85ZV","img_art/ins/popularity/ins3ATextpop.png","0","instructions","","","","","","","","","","","","","","","","","","","","","","","",""
"2758","","image-button-response_instructions","12","55444","0.0-12.0","AJ7JFYKBG85ZV","img_art/ins/popularity/ins3ALikespop.png","0","instructions","","","","","","","","","","","","","","","","","","","","","","","",""
"7361","","image-button-response_instructions","13","62807","0.0-13.0","AJ7JFYKBG85ZV","img_art/ins/popularity/ins3KEEPpop.PNG","0","instructions","","","","","","","","","","","","","","","","","","","","","","","",""
"6690","","image-button-response_instructions","14","69499","0.0-14.0","AJ7JFYKBG85ZV","img_art/ins/popularity/ins3_5RED.png","0","instructions","","","","","","","","","","","","","","","","","","","","","","","",""
"18607","","image-button-response_instructions","15","88108","0.0-15.0","AJ7JFYKBG85ZV","img_art/ins/popularity/ins3KEEPpop.PNG","0","instructions","","","","","","","","","","","","","","","","","","","","","","","",""
"2628","","image-button-response_instructions","16","90738","0.0-16.0","AJ7JFYKBG85ZV","img_art/ins/popularity/ins4KEEPpop.PNG","0","instructions","","","","","","","","","","","","","","","","","","","","","","","",""
"2790","","image-button-response_instructions","17","93530","0.0-17.0","AJ7JFYKBG85ZV","img_art/ins/popularity/ins5KEEPpop.PNG","0","instructions","","","","","","","","","","","","","","","","","","","","","","","",""
"1955","","image-button-response_instructions","18","95486","0.0-18.0","AJ7JFYKBG85ZV","","0","instructions","","","","","","","","","","","","","","","","","","","","","","","",""
"4674","","survey-text","19","100190","0.0-19.0-0.0","AJ7JFYKBG85ZV","","","","{""Q0"":""but""}","","","","","","","","","","","","","","","","","","","","","","",""
"38802","","survey-text","20","138993","0.0-20.0-0.0","AJ7JFYKBG85ZV","","","","{""Q0"":""I like how the brush strokes are chunky""}","","","","","","","","","","","","","","","","","","","","","","",""
"2688.7000000001863","","image-slider-response","21","141686","0.0-21.0","AJ7JFYKBG85ZV","","","","","8","","","","","","","","","","","","","","","","","","","","","",""
"2619","","image-button-response","22","146692","0.0-22.0","AJ7JFYKBG85ZV","img_art/ins/1.jpg","0","","","","","","","","","","","","","","","","","","","","","","","","",""
"1439","","image-button-response","23","148137","0.0-23.0","AJ7JFYKBG85ZV","img_art/ins/1.jpg","4","","","","","","","","","","","","","","","","","","","","","","","","",""
"1013","","image-button-response","24","149152","0.0-24.0-0.0","AJ7JFYKBG85ZV","img_art/ins/1.jpg","5","","","","","","","","","","","","","","","","","","","","","","","","",""
"2399","","image-button-response","25","151556","0.0-25.0-0.0","AJ7JFYKBG85ZV","img_art/ins/1.jpg","0","","","","","","","","","","","","","","","","","","","","","","","","",""
"null","","html-keyboard-response","26","152059","0.0-26.0","AJ7JFYKBG85ZV","<p style=""font-size: 48px;"">+</p>","","","","","null","allTrialResponses","500","1","-2","img_art/ins/1.jpg","8","I like how the brush strokes are chunky","Allison,Ashley,Beth,Dora,Erika,Jen","looks like a lot of things going on in the mist,20,20,20","I just don't get why these type of art would be popular,-32,40,20","This color reminds me of poo,-46,60,20","looks like what my niece in 3rd grade did this afternoon,-50,80,20","I like the sophisticated brushwork,40,100,20","It reminds me of a candy land dream I had,36,120,20","Erika","I like the sophisticated brushwork,40,100,20","Jen","It reminds me of a candy land dream I had,36,120,20","Allison","looks like a lot of things going on in the mist,20,20,20","0"
"10536","","survey-text","27","162600","0.0-27.0-0.0","AJ7JFYKBG85ZV","","","","{""Q0"":""I love the bold colors in the painting""}","","","","","","","","","","","","","","","","","","","","","","",""
"2568.2999999998137","","image-slider-response","28","165170","0.0-28.0","AJ7JFYKBG85ZV","","","","","35","","","","","","","","","","","","","","","","","","","","","",""
"1838","","image-button-response","29","170182","0.0-29.0","AJ7JFYKBG85ZV","img_art/ins/2.jpg","1","","","","","","","","","","","","","","","","","","","","","","","","",""
"6463","","image-button-response","30","176649","0.0-30.0","AJ7JFYKBG85ZV","img_art/ins/2.jpg","5","","","","","","","","","","","","","","","","","","","","","","","","",""
"3193","","image-button-response","31","179845","0.0-31.0-0.0","AJ7JFYKBG85ZV","img_art/ins/2.jpg","1","","","","","","","","","","","","","","","","","","","","","","","","",""
"2337","","image-button-response","32","182185","0.0-32.0-0.0","AJ7JFYKBG85ZV","img_art/ins/2.jpg","4","","","","","","","","","","","","","","","","","","","","","","","","",""
"null","","html-keyboard-response","33","183187","0.0-33.0","AJ7JFYKBG85ZV","<p style=""font-size: 48px;"">+</p>","","","","","null","allTrialResponses","1000","1","-1","img_art/ins/2.jpg","35","I love the bold colors in the painting","Allison,Kara,Katie,Jenna,Erika,Jen","I don't have strong feelings about this,10,20,20","I like the blocks of color arrangements,30,160,20","too much color!,-28,180,20","One of my pet peevs,-48,140,20","I would never be able to compose a sophisticated pallete like this,48,100,20","It reminds me of a fireplace,36,120,20","Jen","It reminds me of a fireplace,36,120,20","Kara","I like the blocks of color arrangements,30,160,20","Erika","I would never be able to compose a sophisticated pallete like this,48,100,20","0"
"13137","","survey-text","34","196329","0.0-34.0-0.0","AJ7JFYKBG85ZV","","","","{""Q0"":""The painting is so tranquil and relaxing""}","","","","","","","","","","","","","","","","","","","","","","",""
"8183.300000000745","","image-slider-response","35","204514","0.0-35.0","AJ7JFYKBG85ZV","","","","","45","","","","","","","","","","","","","","","","","","","","","",""
"4671","","image-button-response","36","209530","0.0-36.0","AJ7JFYKBG85ZV","img_art/ins/3.jpg","5","","","","","","","","","","","","","","","","","","","","","","","","",""
"4186","","image-button-response","37","213719","0.0-37.0","AJ7JFYKBG85ZV","img_art/ins/3.jpg","1","","","","","","","","","","","","","","","","","","","","","","","","",""
"1428","","image-button-response","38","215149","0.0-38.0-0.0","AJ7JFYKBG85ZV","img_art/ins/3.jpg","4","","","","","","","","","","","","","","","","","","","","","","","","",""
"478","","image-button-response","39","215633","0.0-39.0-0.0","AJ7JFYKBG85ZV","img_art/ins/3.jpg","5","","","","","","","","","","","","","","","","","","","","","","","","",""
"null","","html-keyboard-response","40","216136","0.0-40.0","AJ7JFYKBG85ZV","<p style=""font-size: 48px;"">+</p>","","","","","null","allTrialResponses","500","1","0","img_art/ins/3.jpg","45","The painting is so tranquil and relaxing","Mary,Kara,Rose,Leslie,Erika,Jen","I like the overlapping of brushes,41,220,20","calming blue is very nice,36,160,20","My daily routine, it's depressing,-20,240,20","It's an alright work,15,200,20","I feel connected to the artist,40,100,20","I can feel a rainy day from this painting,18,120,20","Kara","calming blue is very nice,36,160,20","Erika","I feel connected to the artist,40,100,20","Jen","I can feel a rainy day from this painting,18,120,20","0"
"61958","","image-button-response_instructions","41","278101","0.0-41.0","AJ7JFYKBG85ZV","","0","instructions","","","","","","","","","","","","","","","","","","","","","","","",""
"7732","","survey-likert","42","285835","0.0-42.0-0.0","AJ7JFYKBG85ZV","","","","{""Q0"":"""",""Q1"":0,""Q2"":1}","","","","","","","","","","","","","","","","","","","","","","",""
"3993","","survey-text","43","289836","0.0-43.0-0.0","AJ7JFYKBG85ZV","","","","{""Q0"":""rock""}","","","","","","","","","","","","","","","","","","","","","","",""
"16529","","survey-text","44","306368","0.0-44.0-0.0","AJ7JFYKBG85ZV","","","","{""Q0"":""seems very depressing a gray""}","","","","","","","","","","","","","","","","","","","","","","",""
"2082.9000000003725","","image-slider-response","45","308452","0.0-45.0","AJ7JFYKBG85ZV","","","","","-25","","","","","","","","","","","","","","","","","","","","","",""
"null","","image-button-response","46","313508","0.0-46.0","AJ7JFYKBG85ZV","img_art/21.jpg","null","","","","","","","","","","","","","","","","","","","","","","","","",""
"1192","","image-button-response","47","314702","0.0-47.0","AJ7JFYKBG85ZV","img_art/21.jpg","0","","","","","","","","","","","","","","","","","","","","","","","","",""
"2798","","image-button-response","48","317502","0.0-48.0-0.0","AJ7JFYKBG85ZV","img_art/21.jpg","3","","","","","","","","","","","","","","","","","","","","","","","","",""
"1194","","image-button-response","49","318699","0.0-49.0-0.0","AJ7JFYKBG85ZV","img_art/21.jpg","4","","","","","","","","","","","","","","","","","","","","","","","","",""
"null","","html-keyboard-response","50","319715","0.0-50.0","AJ7JFYKBG85ZV","<p style=""font-size: 48px;"">+</p>","","","","","null","allTrialResponses","1000","1","1","img_art/21.jpg","-25","seems very depressing a gray","Cassandra,Alyssa,Makayla,Olivia,Kaitlin,Amber","I liked it...it looked like a storm raging.,12,120,20","I like the colors that were used and the stark contrast between the two sides,25,160,20","I like the two sides meeting, like a movie scene,15,80,20","feels like a wave coming into light,9,40,20","waterpaint is attractive,13,60,20","sunset after the rain,49,200,20","Cassandra","I liked it...it looked like a storm raging.,12,120,20","Olivia","feels like a wave coming into light,9,40,20","Kaitlin","waterpaint is attractive,13,60,20","0"
"17298","","survey-text","51","337019","0.0-51.0-0.0","AJ7JFYKBG85ZV","","","","{""Q0"":""It seems very creepy with the bear in it.""}","","","","","","","","","","","","","","","","","","","","","","",""
"2479.899999999441","","image-slider-response","52","339501","0.0-52.0","AJ7JFYKBG85ZV","","","","","-46","","","","","","","","","","","","","","","","","","","","","",""
"2577","","image-button-response","53","344504","0.0-53.0","AJ7JFYKBG85ZV","img_art/16.jpg","1","","","","","","","","","","","","","","","","","","","","","","","","",""
"2133","","image-button-response","54","346641","0.0-54.0","AJ7JFYKBG85ZV","img_art/16.jpg","2","","","","","","","","","","","","","","","","","","","","","","","","",""
"629","","image-button-response","55","347272","0.0-55.0-0.0","AJ7JFYKBG85ZV","img_art/16.jpg","4","","","","","","","","","","","","","","","","","","","","","","","","",""
"904","","image-button-response","56","348179","0.0-56.0-0.0","AJ7JFYKBG85ZV","img_art/16.jpg","1","","","","","","","","","","","","","","","","","","","","","","","","",""
"null","","html-keyboard-response","57","349181","0.0-57.0","AJ7JFYKBG85ZV","<p style=""font-size: 48px;"">+</p>","","","","","null","allTrialResponses","1000","1","2","img_art/16.jpg","-46","It seems very creepy with the bear in it.","Cassandra,Maria,Amy,Olivia,Kaitlin,Gabriela","I like the teddy bear,but a neutral feeling,5,120,20","feel a little creeped out,-20,120,20","visceral and a little disturbing.,10,220,20","childhood horror,3,40,20","The teddy bear looks really scared,-30,60,20","It looks very generic, like items were pasted onto the background,-38,140,20","Amy","visceral and a little disturbing.,10,220,20","Kaitlin","The teddy bear looks really scared,-30,60,20","Maria","feel a little creeped out,-20,120,20","0"
"12025","","survey-text","58","361213","0.0-58.0-0.0","AJ7JFYKBG85ZV","","","","{""Q0"":""I don't like the yellow poop color.""}","","","","","","","","","","","","","","","","","","","","","","",""
"3238.7000000001863","","image-slider-response","59","364453","0.0-59.0","AJ7JFYKBG85ZV","","","","","-26","","","","","","","","","","","","","","","","","","","","","",""
"3790","","image-button-response","60","369457","0.0-60.0","AJ7JFYKBG85ZV","img_art/4.jpg","5","","","","","","","","","","","","","","","","","","","","","","","","",""
"2426","","image-button-response","61","371885","0.0-61.0","AJ7JFYKBG85ZV","img_art/4.jpg","2","","","","","","","","","","","","","","","","","","","","","","","","",""
"667","","image-button-response","62","372554","0.0-62.0-0.0","AJ7JFYKBG85ZV","img_art/4.jpg","1","","","","","","","","","","","","","","","","","","","","","","","","",""
"1365","","image-button-response","63","373923","0.0-63.0-0.0","AJ7JFYKBG85ZV","img_art/4.jpg","5","","","","","","","","","","","","","","","","","","","","","","","","",""
"null","","html-keyboard-response","64","374425","0.0-64.0","AJ7JFYKBG85ZV","<p style=""font-size: 48px;"">+</p>","","","","","null","allTrialResponses","500","1","3","img_art/4.jpg","-26","I don't like the yellow poop color.","Heather,Maria,Amy,Alexa,Kaitlin,Jennifer","looks like an award from an award show.,22,260,20","no strong feelings about this one,2,120,20","disturbing and uncomfortable.,10,220,20","A bit too plain for my tastes,-10,40,20","heart symbol - this tells a story of hidden love,30,60,20","Ugly and bland compared to the other pieces.,-33,380,20","Amy","disturbing and uncomfortable.,10,220,20","Maria","no strong feelings about this one,2,120,20","Jennifer","Ugly and bland compared to the other pieces.,-33,380,20","0"
"13261","","survey-text","65","387693","0.0-65.0-0.0","AJ7JFYKBG85ZV","","","","{""Q0"":""interesting but the face in the cornor is creepy.""}","","","","","","","","","","","","","","","","","","","","","","",""
"4860.4000000003725","","image-slider-response","66","392555","0.0-66.0","AJ7JFYKBG85ZV","","","","","-21","","","","","","","","","","","","","","","","","","","","","",""
"4372","","image-button-response","67","397559","0.0-67.0","AJ7JFYKBG85ZV","img_art/8.jpg","5","","","","","","","","","","","","","","","","","","","","","","","","",""
"2609","","image-button-response","68","400171","0.0-68.0","AJ7JFYKBG85ZV","img_art/8.jpg","4","","","","","","","","","","","","","","","","","","","","","","","","",""
"1047","","image-button-response","69","401223","0.0-69.0-0.0","AJ7JFYKBG85ZV","img_art/8.jpg","1","","","","","","","","","","","","","","","","","","","","","","","","",""
"876","","image-button-response","70","402103","0.0-70.0-0.0","AJ7JFYKBG85ZV","img_art/8.jpg","5","","","","","","","","","","","","","","","","","","","","","","","","",""
"null","","html-keyboard-response","71","402627","0.0-71.0","AJ7JFYKBG85ZV","<p style=""font-size: 48px;"">+</p>","","","","","null","allTrialResponses","500","1","4","img_art/8.jpg","-21","interesting but the face in the cornor is creepy.","Rebecca,Maria,Amy,Lauren,Brianna,Jennifer","gives off inception vibes <3,50,100,20","not sure what to make of this - just neutral again,-1,120,20","The definition and the colors give make this painting accessible and thought provoking.,30,220,20","I like how the piece is showcasing emotion in relation to something.,25,340,20","It's very odd and I don't really like it,-30,20,20","Not my favorite but has an interesting concept,32,380,20","Brianna","It's very odd and I don't really like it,-30,20,20","Maria","not sure what to make of this - just neutral again,-1,120,20","Jennifer","Not my favorite but has an interesting concept,32,380,20","0"
"14714","","survey-text","72","417349","0.0-72.0-0.0","AJ7JFYKBG85ZV","","","","{""Q0"":""I love how the blue pops in the picture""}","","","","","","","","","","","","","","","","","","","","","","",""
"2525.2000000001863","","image-slider-response","73","419878","0.0-73.0","AJ7JFYKBG85ZV","","","","","35","","","","","","","","","","","","","","","","","","","","","",""
"3185","","image-button-response","74","424886","0.0-74.0","AJ7JFYKBG85ZV","img_art/15.jpg","1","","","","","","","","","","","","","","","","","","","","","","","","",""
"2028","","image-button-response","75","426917","0.0-75.0","AJ7JFYKBG85ZV","img_art/15.jpg","2","","","","","","","","","","","","","","","","","","","","","","","","",""
"644","","image-button-response","76","427564","0.0-76.0-0.0","AJ7JFYKBG85ZV","img_art/15.jpg","1","","","","","","","","","","","","","","","","","","","","","","","","",""
"636","","image-button-response","77","428203","0.0-77.0-0.0","AJ7JFYKBG85ZV","img_art/15.jpg","0","","","","","","","","","","","","","","","","","","","","","","","","",""
"null","","html-keyboard-response","78","428705","0.0-78.0","AJ7JFYKBG85ZV","<p style=""font-size: 48px;"">+</p>","","","","","null","allTrialResponses","500","1","5","img_art/15.jpg","35","I love how the blue pops in the picture","Michaela,Maria,Jasmine,Melissa,Brianna,Jennifer","Reminds me of lilacs,26,260,20","i enjoy its apaprent simplicity (of colour and shape),32,120,20","I like it as the colors complement each other well,21,340,20","reminds me of birds in trees,14,240,20","No opinion truthfully,1,20,20","This piece isn't particularly attractive, but it's not ugly either.,1,380,20","Jasmine","I like it as the colors complement each other well,21,340,20","Maria","i enjoy its apaprent simplicity (of colour and shape),32,120,20","Michaela","Reminds me of lilacs,26,260,20","0"
"3220","","survey-text","79","431938","0.0-79.0-0.0","AJ7JFYKBG85ZV","","","","{""Q0"":""sky""}","","","","","","","","","","","","","","","","","","","","","","",""
"16421","","survey-text","80","448362","0.0-80.0-0.0","AJ7JFYKBG85ZV","","","","{""Q0"":""looks like a busy city that is covered in smog""}","","","","","","","","","","","","","","","","","","","","","","",""
"2903.5","","image-slider-response","81","451267","0.0-81.0","AJ7JFYKBG85ZV","","","","","-8","","","","","","","","","","","","","","","","","","","","","",""
"3372","","image-button-response","82","456271","0.0-82.0","AJ7JFYKBG85ZV","img_art/11.jpg","2","","","","","","","","","","","","","","","","","","","","","","","","",""
"1348","","image-button-response","83","457621","0.0-83.0","AJ7JFYKBG85ZV","img_art/11.jpg","0","","","","","","","","","","","","","","","","","","","","","","","","",""
"2032","","image-button-response","84","459655","0.0-84.0-0.0","AJ7JFYKBG85ZV","img_art/11.jpg","3","","","","","","","","","","","","","","","","","","","","","","","","",""
"1904","","image-button-response","85","461561","0.0-85.0-0.0","AJ7JFYKBG85ZV","img_art/11.jpg","5","","","","","","","","","","","","","","","","","","","","","","","","",""
"null","","html-keyboard-response","86","463067","0.0-86.0","AJ7JFYKBG85ZV","<p style=""font-size: 48px;"">+</p>","","","","","null","allTrialResponses","1500","1","6","img_art/11.jpg","-8","looks like a busy city that is covered in smog","Michaela,Maria,Jasmine,Caroline,Sara,Sabrina","Reminds me of a city and how chaotic it can be,22,260,20","I enjoy the kandinsky-like general vibe, but the grey brings me down a bit,27,120,20","Reminds me of a city on a grey/rainy winter's day,25,340,20","Makes me think of far away places and traveling. Makes me feel like wandering,20,100,20","Looks sad but clean,31,160,20","I love the city chaos from this,50,120,20","Michaela","Reminds me of a city and how chaotic it can be,22,260,20","Caroline","Makes me think of far away places and traveling. Makes me feel like wandering,20,100,20","Sabrina","I love the city chaos from this,50,120,20","0"
"9544","","survey-text","87","472621","0.0-87.0-0.0","AJ7JFYKBG85ZV","","","","{""Q0"":""I don't have any strong emotions to this.""}","","","","","","","","","","","","","","","","","","","","","","",""
"2372.600000000559","","image-slider-response","88","474995","0.0-88.0","AJ7JFYKBG85ZV","","","","","3","","","","","","","","","","","","","","","","","","","","","",""
"3009","","image-button-response","89","480000","0.0-89.0","AJ7JFYKBG85ZV","img_art/22.jpg","3","","","","","","","","","","","","","","","","","","","","","","","","",""
"529","","image-button-response","90","480531","0.0-90.0","AJ7JFYKBG85ZV","img_art/22.jpg","2","","","","","","","","","","","","","","","","","","","","","","","","",""
"725","","image-button-response","91","481258","0.0-91.0-0.0","AJ7JFYKBG85ZV","img_art/22.jpg","5","","","","","","","","","","","","","","","","","","","","","","","","",""
"2149","","image-button-response","92","483410","0.0-92.0-0.0","AJ7JFYKBG85ZV","img_art/22.jpg","3","","","","","","","","","","","","","","","","","","","","","","","","",""
"null","","html-keyboard-response","93","484440","0.0-93.0","AJ7JFYKBG85ZV","<p style=""font-size: 48px;"">+</p>","","","","","null","allTrialResponses","1000","1","7","img_art/22.jpg","3","I don't have any strong emotions to this.","Michaela,Emily,Andrea,Caroline,Kimberly,Sabrina","I like the use of primary colors in an interesting way,29,260,20","There is some flow and organization.,10,40,20","I don't feel much of anything.,0,240,20","Felt blah. Bunch of nothingness,-42,100,20","I like the key near the sphere in the center,19,260,20","Just not feeling it,-19,120,20","Andrea","I don't feel much of anything.,0,240,20","Sabrina","Just not feeling it,-19,120,20","Caroline","Felt blah. Bunch of nothingness,-42,100,20","0"
"13389","","survey-text","94","497836","0.0-94.0-0.0","AJ7JFYKBG85ZV","","","","{""Q0"":""looks a little gruemsome and not nice.""}","","","","","","","","","","","","","","","","","","","","","","",""
"3305.9000000003725","","image-slider-response","95","501144","0.0-95.0","AJ7JFYKBG85ZV","","","","","-44","","","","","","","","","","","","","","","","","","","","","",""
"2982","","image-button-response","96","506151","0.0-96.0","AJ7JFYKBG85ZV","img_art/3.jpg","0","","","","","","","","","","","","","","","","","","","","","","","","",""
"455","","image-button-response","97","506609","0.0-97.0","AJ7JFYKBG85ZV","img_art/3.jpg","3","","","","","","","","","","","","","","","","","","","","","","","","",""
"1526","","image-button-response","98","508137","0.0-98.0-0.0","AJ7JFYKBG85ZV","img_art/3.jpg","0","","","","","","","","","","","","","","","","","","","","","","","","",""
"822","","image-button-response","99","508961","0.0-99.0-0.0","AJ7JFYKBG85ZV","img_art/3.jpg","5","","","","","","","","","","","","","","","","","","","","","","","","",""
"null","","html-keyboard-response","100","509463","0.0-100.0","AJ7JFYKBG85ZV","<p style=""font-size: 48px;"">+</p>","","","","","null","allTrialResponses","500","1","8","img_art/3.jpg","-44","looks a little gruemsome and not nice.","Grace,Alexandria,Andrea,Caroline,Haley,Sabrina","Just no. I love red but this looks like blood splatter on a wall from a horrific killing.,-45,180,20","it makes me feel really angry,-20,80,20","I don't feel anything, it seems childish.,-25,240,20","The red makes me think of blood which makes me think of pain,-50,100,20","Too messy and structure-less,-10,220,20","I dont really feel anything from this, i cant see or understand any of it,-20,120,20","Caroline","The red makes me think of blood which makes me think of pain,-50,100,20","Grace","Just no. I love red but this looks like blood splatter on a wall from a horrific killing.,-45,180,20","Sabrina","I dont really feel anything from this, i cant see or understand any of it,-20,120,20","0"
"14405","","survey-text","101","523872","0.0-101.0-0.0","AJ7JFYKBG85ZV","","","","{""Q0"":""I like the bold stokes of the painting""}","","","","","","","","","","","","","","","","","","","","","","",""
"1874.9000000003725","","image-slider-response","102","525749","0.0-102.0","AJ7JFYKBG85ZV","","","","","9","","","","","","","","","","","","","","","","","","","","","",""
"4383","","image-button-response","103","530754","0.0-103.0","AJ7JFYKBG85ZV","img_art/20.jpg","5","","","","","","","","","","","","","","","","","","","","","","","","",""
"644","","image-button-response","104","531403","0.0-104.0","AJ7JFYKBG85ZV","img_art/20.jpg","4","","","","","","","","","","","","","","","","","","","","","","","","",""
"718","","image-button-response","105","532123","0.0-105.0-0.0","AJ7JFYKBG85ZV","img_art/20.jpg","3","","","","","","","","","","","","","","","","","","","","","","","","",""
"715","","image-button-response","106","532841","0.0-106.0-0.0","AJ7JFYKBG85ZV","img_art/20.jpg","1","","","","","","","","","","","","","","","","","","","","","","","","",""
"null","","html-keyboard-response","107","534353","0.0-107.0","AJ7JFYKBG85ZV","<p style=""font-size: 48px;"">+</p>","","","","","null","allTrialResponses","1500","1","9","img_art/20.jpg","9","I like the bold stokes of the painting","Grace,Destiny,Christina,Caroline,Elizabeth,Sabrina","Reminds me of Georgia O'Keefe.,11,180,20","truck? train? dead cow? plane?,10,360,20","it looks like a piccasso knock off,-23,240,20","Makes me feel weary,21,100,20","This painting would make a great display art,50,20,20","I love the way it expresses dark nature and uncontrolled situations.,44,120,20","Elizabeth","This painting would make a great display art,50,20,20","Caroline","Makes me feel weary,21,100,20","Destiny","truck? train? dead cow? plane?,10,360,20","0"
"11047","","survey-text","108","545407","0.0-108.0-0.0","AJ7JFYKBG85ZV","","","","{""Q0"":""reminds me of rocks or sand I like it.""}","","","","","","","","","","","","","","","","","","","","","","",""
"2571.2000000001863","","image-slider-response","109","547980","0.0-109.0","AJ7JFYKBG85ZV","","","","","37","","","","","","","","","","","","","","","","","","","","","",""
"2582","","image-button-response","110","552983","0.0-110.0","AJ7JFYKBG85ZV","img_art/7.jpg","1","","","","","","","","","","","","","","","","","","","","","","","","",""
"1270","","image-button-response","111","554255","0.0-111.0","AJ7JFYKBG85ZV","img_art/7.jpg","1","","","","","","","","","","","","","","","","","","","","","","","","",""
"1326","","image-button-response","112","555583","0.0-112.0-0.0","AJ7JFYKBG85ZV","img_art/7.jpg","4","","","","","","","","","","","","","","","","","","","","","","","","",""
"591","","image-button-response","113","556177","0.0-113.0-0.0","AJ7JFYKBG85ZV","img_art/7.jpg","3","","","","","","","","","","","","","","","","","","","","","","","","",""
"null","","html-keyboard-response","114","556680","0.0-114.0","AJ7JFYKBG85ZV","<p style=""font-size: 48px;"">+</p>","","","","","null","allTrialResponses","500","1","10","img_art/7.jpg","37","reminds me of rocks or sand I like it.","Kathryn,Destiny,Meghan,Caroline,Elizabeth,Amanda","It's off-putting because it reminds me of walking over rough sand/rocks or having scabs on my skin.,-10,140,20","mars also crunchy leaves maybe a beehive,32,360,20","I don't like the texture,-49,220,20","Looks like dirt on the ground. Makes me feel unclean,-37,100,20","The picture is just random,-8,20,20","I hate everything about this painting from the cors to it looking like a war,-50,180,20","Destiny","mars also crunchy leaves maybe a beehive,32,360,20","Elizabeth","The picture is just random,-8,20,20","Caroline","Looks like dirt on the ground. Makes me feel unclean,-37,100,20","0"
"3309","","survey-text","115","560011","0.0-115.0-0.0","AJ7JFYKBG85ZV","","","","{""Q0"":""our""}","","","","","","","","","","","","","","","","","","","","","","",""
"13232","","survey-text","116","573245","0.0-116.0-0.0","AJ7JFYKBG85ZV","","","","{""Q0"":""looks like a gloomy street but I like the colors.""}","","","","","","","","","","","","","","","","","","","","","","",""
"2178.100000000559","","image-slider-response","117","575425","0.0-117.0","AJ7JFYKBG85ZV","","","","","24","","","","","","","","","","","","","","","","","","","","","",""
"4782","","image-button-response","118","580431","0.0-118.0","AJ7JFYKBG85ZV","img_art/26.jpg","4","","","","","","","","","","","","","","","","","","","","","","","","",""
"1302","","image-button-response","119","581735","0.0-119.0","AJ7JFYKBG85ZV","img_art/26.jpg","0","","","","","","","","","","","","","","","","","","","","","","","","",""
"483","","image-button-response","120","582220","0.0-120.0-0.0","AJ7JFYKBG85ZV","img_art/26.jpg","3","","","","","","","","","","","","","","","","","","","","","","","","",""
"353","","image-button-response","121","582575","0.0-121.0-0.0","AJ7JFYKBG85ZV","img_art/26.jpg","4","","","","","","","","","","","","","","","","","","","","","","","","",""
"null","","html-keyboard-response","122","583078","0.0-122.0","AJ7JFYKBG85ZV","<p style=""font-size: 48px;"">+</p>","","","","","null","allTrialResponses","500","1","11","img_art/26.jpg","24","looks like a gloomy street but I like the colors.","Samantha,Destiny,Victoria,Caroline,Elizabeth,Mariah","I like the colors and trees. Seems cheap vintage retail store art but i love it anyways,50,140,20","I really love pastels and they're just being dimmed down too much here,-3,360,20","feels a tad old,30,400,20","Calming and relaxing,28,100,20","Like the soft blend of colors,26,20,20","Pleasant but bland.,10,140,20","Samantha","I like the colors and trees. Seems cheap vintage retail store art but i love it anyways,50,140,20","Caroline","Calming and relaxing,28,100,20","Elizabeth","Like the soft blend of colors,26,20,20","0"
"13104","","survey-text","123","596189","0.0-123.0-0.0","AJ7JFYKBG85ZV","","","","{""Q0"":""interesting mix of colors very interesting""}","","","","","","","","","","","","","","","","","","","","","","",""
"3399.7999999998137","","image-slider-response","124","599591","0.0-124.0","AJ7JFYKBG85ZV","","","","","20","","","","","","","","","","","","","","","","","","","","","",""
"3009","","image-button-response","125","604594","0.0-125.0","AJ7JFYKBG85ZV","img_art/9.jpg","5","","","","","","","","","","","","","","","","","","","","","","","","",""
"778","","image-button-response","126","605374","0.0-126.0","AJ7JFYKBG85ZV","img_art/9.jpg","3","","","","","","","","","","","","","","","","","","","","","","","","",""
"499","","image-button-response","127","605876","0.0-127.0-0.0","AJ7JFYKBG85ZV","img_art/9.jpg","4","","","","","","","","","","","","","","","","","","","","","","","","",""
"429","","image-button-response","128","606308","0.0-128.0-0.0","AJ7JFYKBG85ZV","img_art/9.jpg","5","","","","","","","","","","","","","","","","","","","","","","","","",""
"null","","html-keyboard-response","129","606811","0.0-129.0","AJ7JFYKBG85ZV","<p style=""font-size: 48px;"">+</p>","","","","","null","allTrialResponses","500","1","12","img_art/9.jpg","20","interesting mix of colors very interesting","Samantha,Taylor,Hailey,Caroline,Elizabeth,Nicole","Some nice colors but i do not like it,-18,140,20","The peacock theme gives me negative connotations of my ex-sister-in-law,-10,340,20","looks like a woman in bed and its ok,8,200,20","Stirs up emotions of watching someone sleep which is relaxing,11,100,20","Love the uniqueness,21,20,20","It's peaceful and relaxing,24,20,20","Caroline","Stirs up emotions of watching someone sleep which is relaxing,11,100,20","Elizabeth","Love the uniqueness,21,20,20","Nicole","It's peaceful and relaxing,24,20,20","0"
"17111","","survey-text","130","623930","0.0-130.0-0.0","AJ7JFYKBG85ZV","","","","{""Q0"":""I like the simplicity of the colors.""}","","","","","","","","","","","","","","","","","","","","","","",""
"7964.100000000559","","image-slider-response","131","631898","0.0-131.0","AJ7JFYKBG85ZV","","","","","41","","","","","","","","","","","","","","","","","","","","","",""
"3162","","image-button-response","132","636903","0.0-132.0","AJ7JFYKBG85ZV","img_art/10.jpg","3","","","","","","","","","","","","","","","","","","","","","","","","",""
"656","","image-button-response","133","637561","0.0-133.0","AJ7JFYKBG85ZV","img_art/10.jpg","2","","","","","","","","","","","","","","","","","","","","","","","","",""
"1076","","image-button-response","134","638639","0.0-134.0-0.0","AJ7JFYKBG85ZV","img_art/10.jpg","4","","","","","","","","","","","","","","","","","","","","","","","","",""
"296","","image-button-response","135","638936","0.0-135.0-0.0","AJ7JFYKBG85ZV","img_art/10.jpg","3","","","","","","","","","","","","","","","","","","","","","","","","",""
"null","","html-keyboard-response","136","640452","0.0-136.0","AJ7JFYKBG85ZV","<p style=""font-size: 48px;"">+</p>","","","","","null","allTrialResponses","1500","1","13","img_art/10.jpg","41","I like the simplicity of the colors.","Sydney,Autumn,Molly,Caroline,Elizabeth,Nicole","This piece is unusual in a way that makes me uncomfortable.,-5,320,20","It just looks like a dirty stain.,-38,340,20","For me, it looks like a giant ship on the sea and it's astonishing.,30,340,20","This painting made me think of a guitar which made me think of music which envoked happy feelings.,28,100,20","Has an air of mystery around it,39,20,20","Too much negative space makes it feel unfinished,-25,20,20","Molly","For me, it looks like a giant ship on the sea and it's astonishing.,30,340,20","Elizabeth","Has an air of mystery around it,39,20,20","Caroline","This painting made me think of a guitar which made me think of music which envoked happy feelings.,28,100,20","0"
"8861","","survey-text","137","649323","0.0-137.0-0.0","AJ7JFYKBG85ZV","","","","{""Q0"":""I don't understand this at all.""}","","","","","","","","","","","","","","","","","","","","","","",""
"3403.9000000003725","","image-slider-response","138","652729","0.0-138.0","AJ7JFYKBG85ZV","","","","","-28","","","","","","","","","","","","","","","","","","","","","",""
"3203","","image-button-response","139","657732","0.0-139.0","AJ7JFYKBG85ZV","img_art/5.jpg","1","","","","","","","","","","","","","","","","","","","","","","","","",""
"645","","image-button-response","140","658379","0.0-140.0","AJ7JFYKBG85ZV","img_art/5.jpg","0","","","","","","","","","","","","","","","","","","","","","","","","",""
"1030","","image-button-response","141","659412","0.0-141.0-0.0","AJ7JFYKBG85ZV","img_art/5.jpg","1","","","","","","","","","","","","","","","","","","","","","","","","",""
"1013","","image-button-response","142","660428","0.0-142.0-0.0","AJ7JFYKBG85ZV","img_art/5.jpg","2","","","","","","","","","","","","","","","","","","","","","","","","",""
"null","","html-keyboard-response","143","660931","0.0-143.0","AJ7JFYKBG85ZV","<p style=""font-size: 48px;"">+</p>","","","","","null","allTrialResponses","500","1","14","img_art/5.jpg","-28","I don't understand this at all.","Chelsea,Michelle,Molly,Caroline,Elizabeth,Mary","I'm not sure what is going on here.,-46,180,20","What is this? It looks like no effort was put into this work,-2,280,20","Very non-dynamic painting, dislike it.,-10,340,20","Too much angular things happening, makes me think of stabbing something which makes me uncomfortable,-50,100,20","Perfect for art exhibition,39,20,20","This piece has a good flow. I like the yellow with black combo.,11,180,20","Chelsea","I'm not sure what is going on here.,-46,180,20","Michelle","What is this? It looks like no effort was put into this work,-2,280,20","Molly","Very non-dynamic painting, dislike it.,-10,340,20","0"
"13726","","survey-text","144","674665","0.0-144.0-0.0","AJ7JFYKBG85ZV","","","","{""Q0"":""way to much going on for my to chaotic and drab""}","","","","","","","","","","","","","","","","","","","","","","",""
"2382.7000000001863","","image-slider-response","145","677050","0.0-145.0","AJ7JFYKBG85ZV","","","","","-44","","","","","","","","","","","","","","","","","","","","","",""
"3930","","image-button-response","146","682059","0.0-146.0","AJ7JFYKBG85ZV","img_art/19.jpg","0","","","","","","","","","","","","","","","","","","","","","","","","",""
"601","","image-button-response","147","682663","0.0-147.0","AJ7JFYKBG85ZV","img_art/19.jpg","0","","","","","","","","","","","","","","","","","","","","","","","","",""
"747","","image-button-response","148","683413","0.0-148.0-0.0","AJ7JFYKBG85ZV","img_art/19.jpg","5","","","","","","","","","","","","","","","","","","","","","","","","",""
"558","","image-button-response","149","683974","0.0-149.0-0.0","AJ7JFYKBG85ZV","img_art/19.jpg","3","","","","","","","","","","","","","","","","","","","","","","","","",""
"null","","html-keyboard-response","150","684981","0.0-150.0","AJ7JFYKBG85ZV","<p style=""font-size: 48px;"">+</p>","","","","","null","allTrialResponses","1000","1","15","img_art/19.jpg","-44","way to much going on for my to chaotic and drab","Chelsea,Michelle,Molly,Danielle,Katherine,Kelly","It is too busy.,-34,180,20","I like the water but again, the small lines with no detail are irritating,3,280,20","I can see kind of beach and sea full of people and buildings.,25,340,20","It looks like as if it were portraying a village that was polluted? I don't like the theme anyway,-21,340,20","I dig the not being able to tell what anything is but knowing everything is supposed to be something,46,120,20","TOo much brown.,-24,220,20","Chelsea","It is too busy.,-34,180,20","Kelly","TOo much brown.,-24,220,20","Danielle","It looks like as if it were portraying a village that was polluted? I don't like the theme anyway,-21,340,20","0"
"4194","","survey-text","151","689189","0.0-151.0-0.0","AJ7JFYKBG85ZV","","","","{""Q0"":""course""}","","","","","","","","","","","","","","","","","","","","","","",""
"14142","","survey-text","152","703332","0.0-152.0-0.0","AJ7JFYKBG85ZV","","","","{""Q0"":""i like the brush lines in the painting""}","","","","","","","","","","","","","","","","","","","","","","",""
"6907.9000000003725","","image-slider-response","153","710242","0.0-153.0","AJ7JFYKBG85ZV","","","","","6","","","","","","","","","","","","","","","","","","","","","",""
"2648","","image-button-response","154","715245","0.0-154.0","AJ7JFYKBG85ZV","img_art/30.jpg","1","","","","","","","","","","","","","","","","","","","","","","","","",""
"1943","","image-button-response","155","717191","0.0-155.0","AJ7JFYKBG85ZV","img_art/30.jpg","3","","","","","","","","","","","","","","","","","","","","","","","","",""
"688","","image-button-response","156","717881","0.0-156.0-0.0","AJ7JFYKBG85ZV","img_art/30.jpg","2","","","","","","","","","","","","","","","","","","","","","","","","",""
"292","","image-button-response","157","718175","0.0-157.0-0.0","AJ7JFYKBG85ZV","img_art/30.jpg","1","","","","","","","","","","","","","","","","","","","","","","","","",""
"null","","html-keyboard-response","158","719179","0.0-158.0","AJ7JFYKBG85ZV","<p style=""font-size: 48px;"">+</p>","","","","","null","allTrialResponses","1000","1","16","img_art/30.jpg","6","i like the brush lines in the painting","Chelsea,Erica,Rachel,Danielle,Briana,Kelly","It looks like it was painted in 5 minutes.,-32,180,20","calming and relaxing,14,80,20","I like this one because I am a mom and it reminds me of a child finger-painting.,20,80,20","It's okay. It should either have stuck to the grey-blue, or added more red. Seems unorganized (maybe that's the point?),-9,340,20","Its ugly. Too simple,-23,400,20","The red helps it to pop.,13,220,20","Danielle","It's okay. It should either have stuck to the grey-blue, or added more red. Seems unorganized (maybe that's the point?),-9,340,20","Rachel","I like this one because I am a mom and it reminds me of a child finger-painting.,20,80,20","Erica","calming and relaxing,14,80,20","0"
"14662","","survey-text","159","733858","0.0-159.0-0.0","AJ7JFYKBG85ZV","","","","{""Q0"":""I love how this one makes me feel alive and happy""}","","","","","","","","","","","","","","","","","","","","","","",""
"2522.399999999441","","image-slider-response","160","736383","0.0-160.0","AJ7JFYKBG85ZV","","","","","44","","","","","","","","","","","","","","","","","","","","","",""
"3309","","image-button-response","161","741410","0.0-161.0","AJ7JFYKBG85ZV","img_art/23.jpg","1","","","","","","","","","","","","","","","","","","","","","","","","",""
"1302","","image-button-response","162","742715","0.0-162.0","AJ7JFYKBG85ZV","img_art/23.jpg","2","","","","","","","","","","","","","","","","","","","","","","","","",""
"688","","image-button-response","163","743406","0.0-163.0-0.0","AJ7JFYKBG85ZV","img_art/23.jpg","0","","","","","","","","","","","","","","","","","","","","","","","","",""
"307","","image-button-response","164","743716","0.0-164.0-0.0","AJ7JFYKBG85ZV","img_art/23.jpg","1","","","","","","","","","","","","","","","","","","","","","","","","",""
"null","","html-keyboard-response","165","745230","0.0-165.0","AJ7JFYKBG85ZV","<p style=""font-size: 48px;"">+</p>","","","","","null","allTrialResponses","1500","1","17","img_art/23.jpg","44","I love how this one makes me feel alive and happy","Savannah,Erica,Rachel,Danielle,Kaylee,Paige","Very colorful. Nice contrasts.,26,200,20","Very energetic, seems like it is pulling me in,24,80,20","Vivid colors and the white in the middle looks like people dancing.,31,80,20","While I don't normally enjoy these color schemes all together, I kind of like this one,10,340,20","i completely dont get it,-47,200,20","Does not incite any emotional response,1,60,20","Rachel","Vivid colors and the white in the middle looks like people dancing.,31,80,20","Savannah","Very colorful. Nice contrasts.,26,200,20","Erica","Very energetic, seems like it is pulling me in,24,80,20","0"
"8391","","survey-text","166","753628","0.0-166.0-0.0","AJ7JFYKBG85ZV","","","","{""Q0"":""colors are to drab""}","","","","","","","","","","","","","","","","","","","","","","",""
"2715.7999999998137","","image-slider-response","167","756347","0.0-167.0","AJ7JFYKBG85ZV","","","","","-36","","","","","","","","","","","","","","","","","","","","","",""
"5003","","image-button-response","168","761352","0.0-168.0","AJ7JFYKBG85ZV","img_art/27.jpg","2","","","","","","","","","","","","","","","","","","","","","","","","",""
"923","","image-button-response","169","762277","0.0-169.0","AJ7JFYKBG85ZV","img_art/27.jpg","2","","","","","","","","","","","","","","","","","","","","","","","","",""
"541","","image-button-response","170","762819","0.0-170.0-0.0","AJ7JFYKBG85ZV","img_art/27.jpg","0","","","","","","","","","","","","","","","","","","","","","","","","",""
"1338","","image-button-response","171","764160","0.0-171.0-0.0","AJ7JFYKBG85ZV","img_art/27.jpg","3","","","","","","","","","","","","","","","","","","","","","","","","",""
"null","","html-keyboard-response","172","765663","0.0-172.0","AJ7JFYKBG85ZV","<p style=""font-size: 48px;"">+</p>","","","","","null","allTrialResponses","1500","1","18","img_art/27.jpg","-36","colors are to drab","Savannah,Erica,Rachel,Alexis,Erika,Angelica","An abstract piece with such lifeless colors.,-26,200,20","I like the pictures but it is a lot of going on,10,80,20","Color story is boring in nature, and I feel nothing but boredom from this piece.,-20,80,20","Too abstract, doesn't remind me of anything,-42,100,20","Nice color, but too vague,-12,100,20","This looks like a poor copy of Cy Twombly's style.,-3,280,20","Rachel","Color story is boring in nature, and I feel nothing but boredom from this piece.,-20,80,20","Savannah","An abstract piece with such lifeless colors.,-26,200,20","Alexis","Too abstract, doesn't remind me of anything,-42,100,20","0"
"16928","","survey-text","173","782601","0.0-173.0-0.0","AJ7JFYKBG85ZV","","","","{""Q0"":""interesting but I don't like the red it looks like blood.""}","","","","","","","","","","","","","","","","","","","","","","",""
"3043.399999999441","","image-slider-response","174","785646","0.0-174.0","AJ7JFYKBG85ZV","","","","","-16","","","","","","","","","","","","","","","","","","","","","",""
"1885","","image-button-response","175","790663","0.0-175.0","AJ7JFYKBG85ZV","img_art/29.jpg","1","","","","","","","","","","","","","","","","","","","","","","","","",""
"1209","","image-button-response","176","791877","0.0-176.0","AJ7JFYKBG85ZV","img_art/29.jpg","5","","","","","","","","","","","","","","","","","","","","","","","","",""
"795","","image-button-response","177","792674","0.0-177.0-0.0","AJ7JFYKBG85ZV","img_art/29.jpg","1","","","","","","","","","","","","","","","","","","","","","","","","",""
"984","","image-button-response","178","793661","0.0-178.0-0.0","AJ7JFYKBG85ZV","img_art/29.jpg","0","","","","","","","","","","","","","","","","","","","","","","","","",""
"null","","html-keyboard-response","179","795169","0.0-179.0","AJ7JFYKBG85ZV","<p style=""font-size: 48px;"">+</p>","","","","","null","allTrialResponses","1500","1","19","img_art/29.jpg","-16","interesting but I don't like the red it looks like blood.","Savannah,Jacqueline,Rachel,Alexis,Jamie,Jordan","Looks wrong. Like a real painting was vandalized.,-50,200,20","This is ugly as fuck,-50,300,20","It looks like someone did not like their art and drew an x over it.,-32,80,20","The black color is great, but I'm really not a fan of this hectic style,-40,100,20","3D looks is really cool,30,320,20","Yeah, I don't know. It's clearly a situation where art is the reject of something more,-27,20,20","Jordan","Yeah, I don't know. It's clearly a situation where art is the reject of something more,-27,20,20","Jacqueline","This is ugly as fuck,-50,300,20","Savannah","Looks wrong. Like a real painting was vandalized.,-50,200,20","0"
"8529","","survey-text","180","803711","0.0-180.0-0.0","AJ7JFYKBG85ZV","","","","{""Q0"":""calming and peaceful""}","","","","","","","","","","","","","","","","","","","","","","",""
"3248.7000000001863","","image-slider-response","181","806962","0.0-181.0","AJ7JFYKBG85ZV","","","","","40","","","","","","","","","","","","","","","","","","","","","",""
"1457","","image-button-response","182","811966","0.0-182.0","AJ7JFYKBG85ZV","img_art/17.jpg","0","","","","","","","","","","","","","","","","","","","","","","","","",""
"451","","image-button-response","183","812421","0.0-183.0","AJ7JFYKBG85ZV","img_art/17.jpg","5","","","","","","","","","","","","","","","","","","","","","","","","",""
"726","","image-button-response","184","813149","0.0-184.0-0.0","AJ7JFYKBG85ZV","img_art/17.jpg","0","","","","","","","","","","","","","","","","","","","","","","","","",""
"427","","image-button-response","185","813577","0.0-185.0-0.0","AJ7JFYKBG85ZV","img_art/17.jpg","3","","","","","","","","","","","","","","","","","","","","","","","","",""
"null","","html-keyboard-response","186","814080","0.0-186.0","AJ7JFYKBG85ZV","<p style=""font-size: 48px;"">+</p>","","","","","null","allTrialResponses","500","1","20","img_art/17.jpg","40","calming and peaceful","Savannah,Jacqueline,Mikayla,Kristen,Brittany,Jordan","Not even abstract to me, very clear meaning.,44,200,20","It's okay, I just don't see much too it.,7,300,20","Doesnt really do anythingb for me.,4,300,20","calm, tranquil, happy,50,280,20","I like the colors and the design.,20,40,20","absolutely gorgeous, I feel solitude again, but the beauty is there also,50,20,20","Jordan","absolutely gorgeous, I feel solitude again, but the beauty is there also,50,20,20","Savannah","Not even abstract to me, very clear meaning.,44,200,20","Kristen","calm, tranquil, happy,50,280,20","0"
"3496","","survey-text","187","817588","0.0-187.0-0.0","AJ7JFYKBG85ZV","","","","{""Q0"":""we""}","","","","","","","","","","","","","","","","","","","","","","",""
"15591","","survey-text","188","833181","0.0-188.0-0.0","AJ7JFYKBG85ZV","","","","{""Q0"":""I don't like the picture but I like the green color.""}","","","","","","","","","","","","","","","","","","","","","","",""
"11914.299999999814","","image-slider-response","189","845098","0.0-189.0","AJ7JFYKBG85ZV","","","","","-6","","","","","","","","","","","","","","","","","","","","","",""
"null","","image-button-response","190","850120","0.0-190.0","AJ7JFYKBG85ZV","img_art/25.jpg","null","","","","","","","","","","","","","","","","","","","","","","","","",""
"1306","","image-button-response","191","851429","0.0-191.0","AJ7JFYKBG85ZV","img_art/25.jpg","0","","","","","","","","","","","","","","","","","","","","","","","","",""
"2338","","image-button-response","192","853770","0.0-192.0-0.0","AJ7JFYKBG85ZV","img_art/25.jpg","0","","","","","","","","","","","","","","","","","","","","","","","","",""
"466","","image-button-response","193","856843","0.0-192.1-0.1","AJ7JFYKBG85ZV","img_art/25.jpg","3","","","","","","","","","","","","","","","","","","","","","","","","",""
"957","","image-button-response","194","857803","0.0-193.0-0.0","AJ7JFYKBG85ZV","img_art/25.jpg","2","","","","","","","","","","","","","","","","","","","","","","","","",""
"null","","html-keyboard-response","195","858305","0.0-194.0","AJ7JFYKBG85ZV","<p style=""font-size: 48px;"">+</p>","","","","","null","allTrialResponses","500","1","21","img_art/25.jpg","-6","I don't like the picture but I like the green color.","Savannah,Leslie,Breanna,Kristen,Marissa,Jordan","Very cool color, very clear message!,50,200,20","I feel like I'm looking at something larger than myself.,30,380,20","Makes me feel intrigued,13,380,20","reminds me of the grim reaper,3,280,20","I really like the green and the fact that it is tattered on the edges,23,160,20","It's fine, belongs in a church, or somewhere else mystical,15,20,20","Savannah","Very cool color, very clear message!,50,200,20","Kristen","reminds me of the grim reaper,3,280,20","Breanna","Makes me feel intrigued,13,380,20","2"
"12973","","survey-text","196","871283","0.0-195.0-0.0","AJ7JFYKBG85ZV","","","","{""Q0"":""looks like flowers or plants""}","","","","","","","","","","","","","","","","","","","","","","",""
"2329.600000000559","","image-slider-response","197","873616","0.0-196.0","AJ7JFYKBG85ZV","","","","","18","","","","","","","","","","","","","","","","","","","","","",""
"1624","","image-button-response","198","878622","0.0-197.0","AJ7JFYKBG85ZV","img_art/14.jpg","2","","","","","","","","","","","","","","","","","","","","","","","","",""
"1324","","image-button-response","199","879949","0.0-198.0","AJ7JFYKBG85ZV","img_art/14.jpg","2","","","","","","","","","","","","","","","","","","","","","","","","",""
"617","","image-button-response","200","880569","0.0-199.0-0.0","AJ7JFYKBG85ZV","img_art/14.jpg","1","","","","","","","","","","","","","","","","","","","","","","","","",""
"435","","image-button-response","201","881008","0.0-200.0-0.0","AJ7JFYKBG85ZV","img_art/14.jpg","5","","","","","","","","","","","","","","","","","","","","","","","","",""
"null","","html-keyboard-response","202","881511","0.0-201.0","AJ7JFYKBG85ZV","<p style=""font-size: 48px;"">+</p>","","","","","null","allTrialResponses","500","1","22","img_art/14.jpg","18","looks like flowers or plants","Savannah,Miranda,Breanna,Kristen,Tiffany,Cynthia","Again. This is pretty neutral, leaning dislike.,-18,200,20","This just looks like a kids watercolor painting.,-30,320,20","Makes me feel good,30,380,20","somewhat stressful, crazy,-3,280,20","I feel uncomfortable looking at this painting, it is a mess that needs to be cleaned up.,-16,360,20","unsure and dull feeling,-1,320,20","Breanna","Makes me feel good,30,380,20","Miranda","This just looks like a kids watercolor painting.,-30,320,20","Cynthia","unsure and dull feeling,-1,320,20","2"
"9404","","survey-text","203","890925","0.0-202.0-0.0","AJ7JFYKBG85ZV","","","","{""Q0"":""to dark and sad""}","","","","","","","","","","","","","","","","","","","","","","",""
"8398.799999999814","","image-slider-response","204","899326","0.0-203.0","AJ7JFYKBG85ZV","","","","","-41","","","","","","","","","","","","","","","","","","","","","",""
"1870","","image-button-response","205","904330","0.0-204.0","AJ7JFYKBG85ZV","img_art/28.jpg","0","","","","","","","","","","","","","","","","","","","","","","","","",""
"640","","image-button-response","206","904972","0.0-205.0","AJ7JFYKBG85ZV","img_art/28.jpg","2","","","","","","","","","","","","","","","","","","","","","","","","",""
"518","","image-button-response","207","905493","0.0-206.0-0.0","AJ7JFYKBG85ZV","img_art/28.jpg","0","","","","","","","","","","","","","","","","","","","","","","","","",""
"496","","image-button-response","208","905991","0.0-207.0-0.0","AJ7JFYKBG85ZV","img_art/28.jpg","4","","","","","","","","","","","","","","","","","","","","","","","","",""
"null","","html-keyboard-response","209","906993","0.0-208.0","AJ7JFYKBG85ZV","<p style=""font-size: 48px;"">+</p>","","","","","null","allTrialResponses","1000","1","23","img_art/28.jpg","-41","to dark and sad","Shannon,Miranda,Breanna,Ashley,Allison,Cynthia","I don't like the way the colors look; I think very disgusting colors were used.,-20,220,20","This one looks very dark and seems like it has a lot of depth to it.,31,320,20","The colors are depressing,-5,380,20","Normally don't react well to abstract art, but it looks almost like something's there.,28,320,20","Dislike the colors.,-20,140,20","nostalgic from a memory,11,320,20","Breanna","The colors are depressing,-5,380,20","Shannon","I don't like the way the colors look; I think very disgusting colors were used.,-20,220,20","Allison","Dislike the colors.,-20,140,20","2"
"12150","","survey-text","210","919149","0.0-209.0-0.0","AJ7JFYKBG85ZV","","","","{""Q0"":""doesn't seem like art just blobs of color""}","","","","","","","","","","","","","","","","","","","","","","",""
"1793.8999999994412","","image-slider-response","211","920944","0.0-210.0","AJ7JFYKBG85ZV","","","","","-22","","","","","","","","","","","","","","","","","","","","","",""
"3022","","image-button-response","212","925947","0.0-211.0","AJ7JFYKBG85ZV","img_art/1.jpg","1","","","","","","","","","","","","","","","","","","","","","","","","",""
"1305","","image-button-response","213","927256","0.0-212.0","AJ7JFYKBG85ZV","img_art/1.jpg","4","","","","","","","","","","","","","","","","","","","","","","","","",""
"638","","image-button-response","214","927899","0.0-213.0-0.0","AJ7JFYKBG85ZV","img_art/1.jpg","1","","","","","","","","","","","","","","","","","","","","","","","","",""
"361","","image-button-response","215","928263","0.0-214.0-0.0","AJ7JFYKBG85ZV","img_art/1.jpg","2","","","","","","","","","","","","","","","","","","","","","","","","",""
"null","","html-keyboard-response","216","929764","0.0-215.0","AJ7JFYKBG85ZV","<p style=""font-size: 48px;"">+</p>","","","","","null","allTrialResponses","1500","1","24","img_art/1.jpg","-22","doesn't seem like art just blobs of color","Shannon,Sierra,Breanna,Angela,Allison,Brooke","I think that this picture has nice colors and its pleasing to the eyes.,20,220,20","there isnt anything clear to look at,-2,260,20","Makes me feel confused,-6,380,20","Like the colors very much, and this piece makes me feel peaceful.,29,260,20","Messy mix of primary colors.,-10,140,20","It's okay, colors remind me of autumn.,10,60,20","Allison","Messy mix of primary colors.,-10,140,20","Sierra","there isnt anything clear to look at,-2,260,20","Breanna","Makes me feel confused,-6,380,20","2"
"9287","","survey-text","217","939061","0.0-216.0-0.0","AJ7JFYKBG85ZV","","","","{""Q0"":""looks like a child mad it.""}","","","","","","","","","","","","","","","","","","","","","","",""
"3125.100000000559","","image-slider-response","218","942191","0.0-217.0","AJ7JFYKBG85ZV","","","","","-43","","","","","","","","","","","","","","","","","","","","","",""
"2286","","image-button-response","219","947196","0.0-218.0","AJ7JFYKBG85ZV","img_art/2.jpg","2","","","","","","","","","","","","","","","","","","","","","","","","",""
"748","","image-button-response","220","947947","0.0-219.0","AJ7JFYKBG85ZV","img_art/2.jpg","2","","","","","","","","","","","","","","","","","","","","","","","","",""
"591","","image-button-response","221","948543","0.0-220.0-0.0","AJ7JFYKBG85ZV","img_art/2.jpg","5","","","","","","","","","","","","","","","","","","","","","","","","",""
"328","","image-button-response","222","948873","0.0-221.0-0.0","AJ7JFYKBG85ZV","img_art/2.jpg","4","","","","","","","","","","","","","","","","","","","","","","","","",""
"null","","html-keyboard-response","223","949375","0.0-222.0","AJ7JFYKBG85ZV","<p style=""font-size: 48px;"">+</p>","","","","","null","allTrialResponses","500","1","25","img_art/2.jpg","-43","looks like a child mad it.","Madeline,Sierra,Breanna,Kylie,Allison,Sarah","I don't really like this style,-5,40,20","looks like a happy child,15,260,20","It's just a splash of paint on a canvas,-31,380,20","Not very appealing,-5,300,20","Hate the vomit green.,-31,140,20","nope. just looks like a mess,-28,180,20","Breanna","It's just a splash of paint on a canvas,-31,380,20","Sarah","nope. just looks like a mess,-28,180,20","Allison","Hate the vomit green.,-31,140,20","2"
"4049","","survey-text","224","953439","0.0-223.0-0.0","AJ7JFYKBG85ZV","","","","{""Q0"":""table""}","","","","","","","","","","","","","","","","","","","","","","",""
"18618","","survey-text","225","972059","0.0-224.0-0.0","AJ7JFYKBG85ZV","","","","{""Q0"":""I like it its interesting in a weid way""}","","","","","","","","","","","","","","","","","","","","","","",""
"2495.5","","image-slider-response","226","974556","0.0-225.0","AJ7JFYKBG85ZV","","","","","33","","","","","","","","","","","","","","","","","","","","","",""
"1734","","image-button-response","227","979563","0.0-226.0","AJ7JFYKBG85ZV","img_art/12.jpg","1","","","","","","","","","","","","","","","","","","","","","","","","",""
"504","","image-button-response","228","980069","0.0-227.0","AJ7JFYKBG85ZV","img_art/12.jpg","1","","","","","","","","","","","","","","","","","","","","","","","","",""
"390","","image-button-response","229","980461","0.0-228.0-0.0","AJ7JFYKBG85ZV","img_art/12.jpg","0","","","","","","","","","","","","","","","","","","","","","","","","",""
"614","","image-button-response","230","981079","0.0-229.0-0.0","AJ7JFYKBG85ZV","img_art/12.jpg","4","","","","","","","","","","","","","","","","","","","","","","","","",""
"null","","html-keyboard-response","231","982083","0.0-230.0","AJ7JFYKBG85ZV","<p style=""font-size: 48px;"">+</p>","","","","","null","allTrialResponses","1000","1","26","img_art/12.jpg","33","I like it its interesting in a weid way","Sophia,Crystal,Breanna,Gabrielle,Allison,Sarah","Good technique. It's just not my thing.,2,280,20","I like the sectioned nature of the squares and curves. Not my favorite but still a good one.,27,300,20","It makes me feel confused,-15,380,20","seems too dark on top and too common on the bottom,-19,160,20","Minimalist colors and shapes.,-5,140,20","i think it's a good piece but it doesn't appeal to me,-18,180,20","Crystal","I like the sectioned nature of the squares and curves. Not my favorite but still a good one.,27,300,20","Sophia","Good technique. It's just not my thing.,2,280,20","Allison","Minimalist colors and shapes.,-5,140,20","2"
"11067","","survey-text","232","993156","0.0-231.0-0.0","AJ7JFYKBG85ZV","","","","{""Q0"":""interesting but kind of creepy.""}","","","","","","","","","","","","","","","","","","","","","","",""
"2640.399999999441","","image-slider-response","233","995799","0.0-232.0","AJ7JFYKBG85ZV","","","","","-15","","","","","","","","","","","","","","","","","","","","","",""
"3138","","image-button-response","234","1000802","0.0-233.0","AJ7JFYKBG85ZV","img_art/18.jpg","0","","","","","","","","","","","","","","","","","","","","","","","","",""
"621","","image-button-response","235","1001425","0.0-234.0","AJ7JFYKBG85ZV","img_art/18.jpg","0","","","","","","","","","","","","","","","","","","","","","","","","",""
"780","","image-button-response","236","1002207","0.0-235.0-0.0","AJ7JFYKBG85ZV","img_art/18.jpg","2","","","","","","","","","","","","","","","","","","","","","","","","",""
"479","","image-button-response","237","1002689","0.0-236.0-0.0","AJ7JFYKBG85ZV","img_art/18.jpg","4","","","","","","","","","","","","","","","","","","","","","","","","",""
"null","","html-keyboard-response","238","1004197","0.0-237.0","AJ7JFYKBG85ZV","<p style=""font-size: 48px;"">+</p>","","","","","null","allTrialResponses","1500","1","27","img_art/18.jpg","-15","interesting but kind of creepy.","Sophia,Crystal,Alexandra,Lindsey,Allison,Mackenzie","This one is very dark and apocalyptic indeed!,-30,280,20","I love this because abstractly depicts the apocalypse. The white horse and its rider as Death, described in religious texts and pop culture. ""He rode a pale horse and his name was death."",50,300,20","Ugly, too much is going on,-40,60,20","Interesting piece - gives you more the more you look at it. I like it but wouldn't buy it.,11,400,20","Colors are okay. Reminds me of cavalry.,10,140,20","The shapes are very fun to interpret,30,20,20","Sophia","This one is very dark and apocalyptic indeed!,-30,280,20","Alexandra","Ugly, too much is going on,-40,60,20","Allison","Colors are okay. Reminds me of cavalry.,10,140,20","2"
"9578","","survey-text","239","1013790","0.0-238.0-0.0","AJ7JFYKBG85ZV","","","","{""Q0"":""so peaceful and relaxing.""}","","","","","","","","","","","","","","","","","","","","","","",""
"2676.7999999998137","","image-slider-response","240","1016468","0.0-239.0","AJ7JFYKBG85ZV","","","","","47","","","","","","","","","","","","","","","","","","","","","",""
"1734","","image-button-response","241","1021473","0.0-240.0","AJ7JFYKBG85ZV","img_art/24.jpg","2","","","","","","","","","","","","","","","","","","","","","","","","",""
"1450","","image-button-response","242","1022927","0.0-241.0","AJ7JFYKBG85ZV","img_art/24.jpg","1","","","","","","","","","","","","","","","","","","","","","","","","",""
"745","","image-button-response","243","1023675","0.0-242.0-0.0","AJ7JFYKBG85ZV","img_art/24.jpg","2","","","","","","","","","","","","","","","","","","","","","","","","",""
"1733","","image-button-response","244","1025413","0.0-243.0-0.0","AJ7JFYKBG85ZV","img_art/24.jpg","5","","","","","","","","","","","","","","","","","","","","","","","","",""
"null","","html-keyboard-response","245","1025916","0.0-244.0","AJ7JFYKBG85ZV","<p style=""font-size: 48px;"">+</p>","","","","","null","allTrialResponses","500","1","28","img_art/24.jpg","47","so peaceful and relaxing.","Sophia,Stephanie,Alexandra,Laura,Allison,Katelyn","Hmm. Don't know what to make of this one.,1,280,20","A beautiful waterfall in the springtime.,40,300,20","This reminds me of a creek or a river. It puts me a peace,42,60,20","chunky fresh color,27,320,20","I appreciate the earth tones. Soothing.,5,140,20","Love the colors and contrast. Feels peaceful.,33,100,20","Stephanie","A beautiful waterfall in the springtime.,40,300,20","Alexandra","This reminds me of a creek or a river. It puts me a peace,42,60,20","Katelyn","Love the colors and contrast. Feels peaceful.,33,100,20","2"
"7235","","survey-text","246","1033159","0.0-245.0-0.0","AJ7JFYKBG85ZV","","","","{""Q0"":""reminds me of a bird ""}","","","","","","","","","","","","","","","","","","","","","","",""
"3263.5","","image-slider-response","247","1036424","0.0-246.0","AJ7JFYKBG85ZV","","","","","27","","","","","","","","","","","","","","","","","","","","","",""
"3869","","image-button-response","248","1041427","0.0-247.0","AJ7JFYKBG85ZV","img_art/6.jpg","1","","","","","","","","","","","","","","","","","","","","","","","","",""
"758","","image-button-response","249","1042187","0.0-248.0","AJ7JFYKBG85ZV","img_art/6.jpg","2","","","","","","","","","","","","","","","","","","","","","","","","",""
"660","","image-button-response","250","1042848","0.0-249.0-0.0","AJ7JFYKBG85ZV","img_art/6.jpg","1","","","","","","","","","","","","","","","","","","","","","","","","",""
"970","","image-button-response","251","1043821","0.0-250.0-0.0","AJ7JFYKBG85ZV","img_art/6.jpg","4","","","","","","","","","","","","","","","","","","","","","","","","",""
"null","","html-keyboard-response","252","1044325","0.0-251.0","AJ7JFYKBG85ZV","<p style=""font-size: 48px;"">+</p>","","","","","null","allTrialResponses","500","1","29","img_art/6.jpg","27","reminds me of a bird ","Morgan,Stephanie,Alexandra,Alicia,Cassidy,Katelyn","Desert that's too simple.,-15,380,20","Nevermore!  A black raven sitting on a pumpkin. Halloween,-35,300,20","this is interesting and unique,11,60,20","kids book cover, uninteresting.,-10,120,20","The background on the upper half is nice. I also like the contrast of the top and bottom halves,5,140,20","Nothing grabs at me here,-11,100,20","Alexandra","this is interesting and unique,11,60,20","Stephanie","Nevermore!  A black raven sitting on a pumpkin. Halloween,-35,300,20","Cassidy","The background on the upper half is nice. I also like the contrast of the top and bottom halves,5,140,20","2"
"7672","","survey-text","253","1052005","0.0-252.0-0.0","AJ7JFYKBG85ZV","","","","{""Q0"":""love the colors so relaxing""}","","","","","","","","","","","","","","","","","","","","","","",""
"5175.700000000186","","image-slider-response","254","1057182","0.0-253.0","AJ7JFYKBG85ZV","","","","","50","","","","","","","","","","","","","","","","","","","","","",""
"1865","","image-button-response","255","1062185","0.0-254.0","AJ7JFYKBG85ZV","img_art/13.jpg","1","","","","","","","","","","","","","","","","","","","","","","","","",""
"540","","image-button-response","256","1062727","0.0-255.0","AJ7JFYKBG85ZV","img_art/13.jpg","1","","","","","","","","","","","","","","","","","","","","","","","","",""
"874","","image-button-response","257","1063603","0.0-256.0-0.0","AJ7JFYKBG85ZV","img_art/13.jpg","4","","","","","","","","","","","","","","","","","","","","","","","","",""
"322","","image-button-response","258","1063927","0.0-257.0-0.0","AJ7JFYKBG85ZV","img_art/13.jpg","3","","","","","","","","","","","","","","","","","","","","","","","","",""
"null","","html-keyboard-response","259","1064930","0.0-258.0","AJ7JFYKBG85ZV","<p style=""font-size: 48px;"">+</p>","","","","","null","allTrialResponses","1000","1","30","img_art/13.jpg","50","love the colors so relaxing","Megan,Stephanie,Alexandra,Isabella,Cassidy,Diana","Average overly symmetrical safe,-26,200,20","Raindrops splashing on the window.,50,300,20","I do like the blue colors in this.,12,60,20","Rain drops on a window,35,280,20","Great color balance. I like the splatter, and how the vertical lines go from sharper to more blended.,31,140,20","I really loved the color contrast. Having the white stripe in the center makes the it appear 3D.,11,380,20","Stephanie","Raindrops splashing on the window.,50,300,20","Cassidy","Great color balance. I like the splatter, and how the vertical lines go from sharper to more blended.,31,140,20","Isabella","Rain drops on a window,35,280,20","2"
"2408","","image-button-response_instructions","260","1067346","0.0-259.0","AJ7JFYKBG85ZV","","0","instructions","","","","","","","","","","","","","","","","","","","","","","","",""
"1185","","image-button-response","261","1068536","0.0-260.0","AJ7JFYKBG85ZV","","0","","","","","","","","","","","","","","","","","","","","","","","","",""
